,time,x,y,z,vx,vy,vz,ax,ay,az,jx,jy,jz
0,9.395410800003448,0.053746280105494565,-0.02588747128825768,-0.02953196329281021,0.007624714252687419,-0.0203948937986542,0.008713571972675648,0.018393187549359077,0.053441586384617226,-0.003126917494650515,0.07842784484888063,0.12865133446413785,-0.11818645979620966
1,9.39980490000744,0.05378312234221986,-0.02598483398937057,-0.02949013836592158,0.007713982291510689,-0.020136669692397004,0.008697186052520173,0.018772333246635776,0.05406076382338681,-0.0036975580770497295,0.07940926113373971,0.12911467078146696,-0.11937528787199268
2,9.404086099995766,0.053820397808178995,-0.026080949007147202,-0.02944839874395958,0.007805083115576617,-0.01987546563969089,0.008678044990650452,0.01915616985663997,0.054682149613769354,-0.004273902509653947,0.08038059052573436,0.12957059279507638,-0.12056095221412488
3,9.411011400006828,0.05385811536241699,-0.026175802000098104,-0.029406757728762615,0.007898039144165044,-0.01961127111691944,0.008656121421627595,0.019544648308434883,0.05530570765531646,-0.004855935225697336,0.08134157827652602,0.13001889974541989,-0.12174329978194513
4,9.41618539999763,0.053896283971117356,-0.02626937857659374,-0.029365228753456155,0.00799287255787162,-0.019344075776214033,0.008631388056564776,0.019937718308107984,0.05593140088121043,-0.005443639923621037,0.0822919698176967,0.1304593900516427,-0.12292217786720049
5,9.423370300006354,0.05393491270644134,-0.02636166429571996,-0.029323825382076462,0.008089605292740797,-0.0190738694501047,0.008603817686652204,0.020335328338771025,0.05655919125416799,-0.0060369995694034674,0.08323151057296595,0.1308918611861768,-0.12409743419194579
6,9.427719400002388,0.05397401074533897,-0.02645264466815585,-0.029282561309177457,0.008188259034382202,-0.01880064215619372,0.008573383186669819,0.020737425660484466,0.057189039761440325,-0.00663599639836451,0.08415994627113864,0.13131610946766578,-0.12526891684593258
7,9.431342800002312,0.05401358736833178,-0.026542305157074106,-0.029241450359420707,0.008288855212102908,-0.01852438410185452,0.008540057518494933,0.021143956313264375,0.05782090640872721,-0.007240611916894239,0.08507702321995284,0.13173192998673983,-0.12643647424743093
8,9.43572779999522,0.054053651958267473,-0.026630631179064026,-0.02920050648714859,0.0083914149930527,-0.01824508568896374,0.008503813734598312,0.02155486511963805,0.058454750214463835,-0.007850826903880675,0.08598248832170394,0.13213911662515052,-0.12759995500241142
9,9.440029999997932,0.054094213999046396,-0.02671760810507734,-0.029159743775940685,0.0084959592763809,-0.017962737518655042,0.008464624981538098,0.021970095687801037,0.05909052920391879,-0.008466621411085501,0.08687608922958445,0.1325374618253145,-0.128759207799073
10,9.443769799996517,0.05413528307432005,-0.026803221261396896,-0.029119176438153368,0.008602508687411962,-0.017677330396107867,0.008422464503452284,0.02238959041567491,0.05972820040126662,-0.009087974763558415,0.08775757454331282,0.13292675646915159,-0.12991408140382135
11,9.447942700004203,0.0541768688661616,-0.02688745593062849,-0.029078818814442648,0.00871108357184129,-0.01738885533537741,0.008377305645548656,0.02281329049594392,0.06036771982252167,-0.009714865559974202,0.08862669384844359,0.13330679012819444,-0.13106442475116403
12,9.452078999995138,0.05421898115370863,-0.026970297352715958,-0.02903868537327023,0.008821703989959224,-0.017097303564251296,0.008329121857594024,0.023241135920490492,0.06100904247001374,-0.010347271673910826,0.0894831977473743,0.13367735113788323,-0.1322100872020835
13,9.456812999997055,0.05426162981177816,-0.02705173072597968,-0.02899879071039282,0.008934389710889477,-0.016802666529132603,0.008277886697391885,0.023673065485729786,0.06165212232603577,-0.010985170256669008,0.09032683795325924,0.13403822656648567,-0.1333509187276592
14,9.462679899996148,0.054304824809454026,-0.02713174120817858,-0.028959149548334787,0.009049160206864377,-0.016504935899957586,0.00822357383424457,0.02410901679794753,0.06229691234702087,-0.011628537740314596,0.09115736717294357,0.13438920240278085,-0.13448676985436814
15,9.4666309000022,0.0543485762086469,-0.02721031391759588,-0.028919776735844192,0.009166034647514585,-0.016204103575134656,0.008166157052401668,0.024548926277509812,0.06294336445899332,-0.012277349839972581,0.09197453927093312,0.13473006352845285,-0.13561749160551417
16,9.471255700002075,0.05439289416262681,-0.02728743393414857,-0.028880687247332313,0.009285031894184797,-0.0159001616865058,0.00810561025450013,0.024992729165776346,0.06359142955148034,-0.01293158155630671,0.09277810942588084,0.1350605935697417,-0.1367429355401437
17,9.474764800004776,0.05443778891452853,-0.02736308630052081,-0.028841896182296635,0.009406170494289873,-0.01559310260434406,0.008041907464988875,0.02544035953081383,0.06424105747153773,-0.013591207178187409,0.09356783385699555,0.1353805750029115,-0.13786295361245357
18,9.47902780000004,0.05448327079582988,-0.027437256023321432,-0.02880341876472746,0.009529468675685444,-0.01528291894237236,0.007975022833543255,0.025891750271680492,0.06489219701867502,-0.014256200283820552,0.09434346991771332,0.1356897892051383,-0.1389773979761414
19,9.483105799998157,0.054529350224803035,-0.02750992807426556,-0.02876527034249809,0.009654944341065208,-0.014969603562809743,0.00790493063847882,0.026346833125039458,0.06554479593937,-0.014926533741535545,0.0951047763148539,0.13598801658356627,-0.14008612113679914
20,9.487901999993484,0.05457603770493898,-0.027581087391380592,-0.028727466386738648,0.00978261506239507,-0.0146531495814429,0.007831605290158205,0.026805538671549,0.06619880092323392,-0.015602179712378324,0.09585151303035666,0.13627503693905443,-0.1411889762259192
21,9.494320199999493,0.054623343823345355,-0.027650718880236565,-0.028690022491193512,0.009912498075371846,-0.014333550372709258,0.007755021334379985,0.02726779634172393,0.06685415760102097,-0.016283109653532146,0.09658344133682129,0.13655062969708007,-0.14228581702041762
22,9.49816390000342,0.05467127924911765,-0.027718807415200962,-0.028652954371562577,0.010044610273913722,-0.014010799574787633,0.007675153455752695,0.027733534422475167,0.06751081054301201,-0.01696929432109818,0.09730032387593965,0.13681457385664564,-0.14337649787210308
23,9.50221039999451,0.05471985473168413,-0.027785337840717985,-0.028616277864826286,0.010178968204681784,-0.013684891094696847,0.007591976481056964,0.028202680063724714,0.06816870325653322,-0.017660703772838612,0.09800192460357096,0.1370666478809376,-0.14446087354744025
24,9.506962900006329,0.05476908109912438,-0.027850294972612363,-0.02858000892855457,0.010315588061634037,-0.01335581911341022,0.007505465382593183,0.028675159284417506,0.0688277781832892,-0.018357307369417656,0.098688008805433,0.13730662966992815,-0.14553879902800046
25,9.51239849999547,0.0548189692564619,-0.027913663599417764,-0.028544163640199724,0.010454485680604704,-0.013023578090979815,0.007415595281531713,0.029150896979287147,0.06948797669661833,-0.019059073775227333,0.09935834330843869,0.13753429645076398,-0.14661012969818976
26,9.516932600003202,0.05486953018393061,-0.02797542848372983,-0.028508758196373152,0.010595676533923248,-0.0126881627716773,0.007322341451252621,0.029629816926898325,0.07014923909777279,-0.019765970961432216,0.10001269660560039,0.1377494246527794,-0.14767472169739826
27,9.521226299999398,0.05492077493521566,-0.028035574363583993,-0.028473808912106158,0.010739175725070941,-0.012349568189153932,0.007225679320666627,0.030111841797612664,0.070811504611973,-0.02047796621017875,0.10065083898921812,0.137951789930794,-0.14873243217409735
28,9.525065599998925,0.05497271463566867,-0.028094085953858084,-0.02843933222009478,0.01088499798337643,-0.012007789671619336,0.007125584477514405,0.030596893162910834,0.07147471138491142,-0.021195026120081412,0.10127254255871485,0.13814116734113607,-0.14978311946972445
29,9.529556399997093,0.055025360480497554,-0.028150947947699904,-0.028405344669928882,0.01103315765876187,-0.011662822847035076,0.007022032671634811,0.031084891503433694,0.07213879648049831,-0.021917116612198844,0.1018775811187914,0.13831733154515782,-0.15082664298182216
30,9.534272300006704,0.055078723732931247,-0.02820614501797974,-0.028371862927305588,0.011183668716515754,-0.01131466364831509,0.006914999818206766,0.03157575621732585,0.07280369587932099,-0.022644202934205018,0.10246573030476057,0.13848005699298613,-0.1518628627845599
31,9.538532699996722,0.05513281572235935,-0.028259661818767906,-0.028338903773227217,0.011336544732119213,-0.010963308318534074,0.006804462000977409,0.032069405629481025,0.07346934447815505,-0.023376249662719253,0.10303676750411259,0.13862911827161586,-0.15289163951929477
32,9.542348000002676,0.05518764784244711,-0.02831148298683729,-0.02830648410318371,0.011491798886107674,-0.010608753416132608,0.006690395475481586,0.03256575699913202,0.07413567609176819,-0.02411322070642587,0.10359047195841914,0.1387642905078617,-0.1539128345822826
33,9.54763770000136,0.05524323154922573,-0.02836159314319092,-0.028274620926319632,0.011649443958970091,-0.010250995820108206,0.006572776672240038,0.033064726530075195,0.0748026234563031,-0.02485507931020778,0.10412662505275119,0.13888534963424995,-0.15492631023806175
34,9.551868099995772,0.055299578359158316,-0.028409976894614376,-0.028243331364585858,0.01180949232610884,-0.009890032735187943,0.006451582199939164,0.0335662293810412,0.07547011823363607,-0.02560178805935554,0.10464501031546627,0.13899207253370469,-0.15593192964692448
35,9.55620849999832,0.05535669984718175,-0.028456618835253064,-0.02821263265187603,0.011971955952838589,-0.009525861696977627,0.006326788848588774,0.034070179675917446,0.07613809101614999,-0.02635330888396492,0.10514541355145482,0.13908423711016002,-0.15692955686487012
36,9.56046979999519,0.05541460764472462,-0.02850150354821411,-0.02818254213314791,0.012136846389444423,-0.00915848057708856,0.006198373592659598,0.03457649051539908,0.07680647133177143,-0.027109603063145492,0.10562762287328137,0.13916162237051194,-0.15791905687483582
37,9.569106800001464,0.05547331343770158,-0.02854461560719287,-0.028153077263529683,0.012304174766292655,-0.008787887588238315,0.006066313594200598,0.03508507398751066,0.07747518764953111,-0.027870631229718255,0.10609142870119825,0.13922400856535713,-0.15890029558681668
38,9.573618499998702,0.05553282896448432,-0.028585939578123856,-0.028124255607411355,0.012473951788990042,-0.008414081289324079,0.005930586205931347,0.03559584117925728,0.07814416738595317,-0.02863635337442541,0.1065366239588528,0.13927117750219636,-0.15987313966570774
39,9.579672499996375,0.05559316601384941,-0.028625460020855975,-0.02809609483752135,0.012646187733606547,-0.008037060590462029,0.00579116897431889,0.036108702189026634,0.07881333691362499,-0.029406728848973836,0.10696300416697738,0.13930291294808003,-0.16083745644129566
40,9.59002010000404,0.05565433642290336,-0.028663161490851886,-0.028068612733988346,0.012820892441953712,-0.007656824757978336,0.005648039642640877,0.03662356613914034,0.07948262157145518,-0.030181716369380038,0.10737036754508508,0.1393190010676292,-0.16179311407651809
41,9.594447900002706,0.05571635207498511,-0.028699028540911196,-0.028041827183388435,0.012998075316928023,-0.0072733734193499875,0.005501176154030289,0.037140341189233116,0.08015194567745197,-0.030961274020630303,0.10775851494904928,0.13931923085745287,-0.16273998174735976
42,9.598611299996264,0.05577922489754636,-0.028733045722917273,-0.02801575617777771,0.01317774531791783,-0.006886706568073007,0.005350556654493799,0.03765893454820435,0.08082123254315524,-0.03174535926175414,0.10812724987887865,0.13930339395818997,-0.16367792945509393
43,9.602706799996668,0.05584296686000989,-0.028765197589607234,-0.027990417813710415,0.013359910956261543,-0.006496824568464612,0.005196159495907741,0.03817925248767198,0.08149040448460891,-0.03253392892868039,0.10847637865071066,0.13927128407956674,-0.1646068275608552
44,9.606582199994593,0.055907589971606275,-0.02879546869636489,-0.02796583029124276,0.013544580290783821,-0.0061037281604260085,0.005037963239009035,0.03870120035557665,0.08215938283126882,-0.03332693923483876,0.10880571017000881,0.13922269694183512,-0.16552654660571894
45,9.610609299998032,0.05597310627918933,-0.028823843603036498,-0.027942011912922324,0.013731760923384483,-0.005707418464158959,0.00487594665638538,0.039224682587456365,0.08282808793641246,-0.034124345772287186,0.109115056095867,0.1391574306472113,-0.16643695742407275
46,9.616912199999206,0.05603952786503042,-0.028850306875769022,-0.027918981082763136,0.013921459994683022,-0.005307896984828561,0.004710088735455339,0.03974960272162934,0.08349643918961565,-0.03492610351340268,0.10940423123997567,0.13907528609850187,-0.16733793110454317
47,9.620610800004217,0.05610686684459206,-0.02887484308887069,-0.027896756305206456,0.014113684179753401,-0.004905165617159933,0.004540368681442291,0.040275863414302046,0.0841643550311846,-0.03573216681163329,0.1096730533553567,0.13897606717118535,-0.16822933879447813
48,9.625242099995376,0.056175135364281245,-0.028897436826693417,-0.027875356184067272,0.014308439683913725,-0.004499226649962326,0.00436676592034729,0.040803366452722124,0.08483175296628599,-0.03654248940131033,0.10992134312072743,0.13885958054903777,-0.1691110516451174
49,9.62892180000199,0.05624434559918261,-0.02891807268553683,-0.027854799421466524,0.014505732238587412,-0.00409008277059005,0.004189260101924819,0.04133201277013623,0.0854985495777996,-0.03735702439787354,0.11014892425011279,0.13872563571642263,-0.16998294087416455
50,9.633448699998551,0.056314509750771964,-0.028936735275573566,-0.027835104816749005,0.01470556709723659,-0.0036777370693430876,0.00400783110265349,0.04186170245999611,0.08616466054037439,-0.038175724298284544,0.11035562356315554,0.1385740453220542,-0.17084487754288125
51,9.639484100000118,0.05638564004461041,-0.028953409222795552,-0.02781629126538704,0.014907949031359754,-0.003262193043792969,0.0038224590287078224,0.042392334791592025,0.08683000063677622,-0.03899854097911025,0.11054127121975481,0.1384046256873894,-0.17169673227446905
52,9.643693399993936,0.05645774872801942,-0.02896807917098089,-0.027798377757869835,0.015112882326575379,-0.0028434546030263147,0.0036331242189473582,0.04292380822651327,0.08749448377682867,-0.03982542569423046,0.11070570083747634,0.1382171973894651,-0.1725383753674848
53,9.648088999994798,0.056530848067737276,-0.02898072978368091,-0.027781383378578446,0.015320370778777735,-0.002421526071788722,0.0034398072479104665,0.04345602043540968,0.08815802301936083,-0.040656329074011024,0.11084874977323976,0.13801158557383592,-0.17336967676453224
54,9.652427699998952,0.05660495034755727,-0.02899134574622685,-0.02776532730464635,0.015530417690381541,-0.001996412194517427,0.003242488928811403,0.043988868317158716,0.08882053059415486,-0.04149120112271059,0.11097025911540706,0.13778761995063069,-0.1741905057237286
55,9.658994199999142,0.05668006786594805,-0.028999911767755678,-0.027750228804805613,0.015743025866661948,-0.0015681181392743142,0.0030411503165590327,0.04452224801555093,0.08948191792385589,-0.04232999121449715,0.11107007363677286,0.13754513505271287,-0.17500073075612504
56,9.665240799993626,0.056756212933656625,-0.029006412583254555,-0.027736107238218476,0.015958197612159507,-0.0011366495015680649,0.002835772710792161,0.04505605493800535,0.09014209564840005,-0.043172648090253514,0.11114804261622321,0.1372839707128696,-0.1758002196139576
57,9.673966400005156,0.0568333978712942,-0.02901083295562337,-0.027722982053294345,0.016175934727199977,-0.000702012308052455,0.002626337658928951,0.045590183780149666,0.09080097365150934,-0.044019119853480976,0.11120402033129498,0.13700397246277995,-0.17658883916940998
58,9.677355099993292,0.056911635006905714,-0.029013157677754746,-0.027710872786492077,0.016396238504535462,-0.00026421302009393467,0.002412826959241615,0.04612452854926822,0.091458461088953,-0.044869353965939905,0.11123786594068337,0.13670499166598332,-0.1773664553872206
59,9.681259100005263,0.05699093667352344,-0.02901337157463086,-0.027699799061107436,0.016619109726089515,0.00017674146280161404,0.002195222663947714,0.046658982587753285,0.09211446641632,-0.0457232972432902,0.11124944350838298,0.13638688515804606,-0.17813293326599722
60,9.685749600001143,0.05707131520670521,-0.029011459505436363,-0.027689780586045667,0.0168445486598236,0.0006208437996881437,0.00197350708232674,0.04719343859678504,0.092768897413823,-0.04658089585016803,0.11123862200318155,0.13604951487498718,-0.17888813674047244
61,9.689690700004576,0.05715278294205794,-0.029007406365686914,-0.027680837154579016,0.017072555056709713,0.001068086204991005,0.001747662783858719,0.04772778865977797,0.09342166121050074,-0.04744209529488715,0.11120527542358313,0.1356927478728104,-0.1796319284781046
62,9.694319899994298,0.05723535221274674,-0.029001197089372745,-0.027672988643089143,0.017303128147822134,0.0015184604454387554,0.0015176726013917028,0.04826192426726111,0.09407266430920963,-0.04830684042256134,0.11114928282185671,0.13531645628450836,-0.18036416959350096
63,9.698387399999774,0.0573190353469905,-0.028992816651116665,-0.027666255009794208,0.017536266641549093,0.0019719578371148482,0.0012835196343464544,0.04879573634055553,0.09472181261041299,-0.04917507540706177,0.11107052799083363,0.1349205168741482,-0.18108471934336912
64,9.702435900006094,0.057403844665544254,-0.02898225006834596,-0.027660656293460494,0.017771968720912024,0.0024285692426180127,0.001045187251961214,0.04932911525364527,0.09536901143288826,-0.05004674374120855,0.11096889921361797,0.13450481044233034,-0.18179343492314118
65,9.706549299997278,0.05748979247916893,-0.028969482403477673,-0.027656212612098316,0.01801023204098737,0.0028882850683129035,0.0008026590965906277,0.04986195085444997,0.09601416553180372,-0.05092178822677398,0.11084428913851097,0.13406922156415932,-0.18249017150995936
66,9.71037119999528,0.057576891086089,-0.02895449876611693,-0.02765294416164195,0.018251053726430235,0.0033510952616641657,0.0005559190870465638,0.05039413248549404,0.09665717911690809,-0.05180015096508707,0.11069659464567312,0.13361363870655044,-0.18317478218836714
67,9.714828299998771,0.057665152769438434,-0.02893728431526783,-0.02765087121461343,0.018494430369094778,0.003816989308661854,0.00030495142198731556,0.05092554900389816,0.0972979558717343,-0.05268177334632289,0.11052571688654948,0.13313795441209195,-0.1838471178134282
68,9.718759299998055,0.05775458979469545,-0.028917824261556504,-0.02765001411876994,0.018740358025749946,0.004285956231340013,4.9740583361327745e-05,0.05145608880242726,0.09793639897355572,-0.05356659603879186,0.11033156149530164,0.1326420656119405,-0.18450702710068725
69,9.723963900003582,0.057845214407106556,-0.028896103869465856,-0.02765039329573449,0.01898883221590211,0.004757984585393837,-0.0002097286601006899,0.051985639831513504,0.09857241111559631,-0.054454558979093466,0.11011403871350257,0.1321258741147214,-0.1851543565596635
70,9.73181100000511,0.05793703882910037,-0.02887210845958151,-0.027652029239609775,0.01923984791972239,0.005233062457911657,-0.0004734712493474298,0.05251408962150237,0.0992058945316843,-0.05534560136076656,0.1098730636797391,0.13158928697035552,-0.18578894997754805
71,9.737677099998107,0.05803007525769173,-0.02884582341084834,-0.027654942515574855,0.019493399576083044,0.005711177465228971,-0.0007415018314058235,0.05304132530745819,0.09983675102195808,-0.05623966161948229,0.10960855686781194,0.13103221663036205,-0.18641064783251068
72,9.742489600001136,0.05812433586187667,-0.02881723416283705,-0.027659153758464398,0.01974948108072313,0.006192316750907424,-0.0010138347557004392,0.05356723365562057,0.10046488197906008,-0.05713667741605735,0.10932044430557286,0.13045458090483814,-0.18701928691037129
73,9.747937000007369,0.05821983278001891,-0.02878632621802011,-0.027664683671330015,0.020008085784539085,0.006676466983840515,-0.0012904840702891052,0.054091701090312555,0.10109018841342934,-0.05803658561796381,0.10900865761427356,0.12985630266134637,-0.18761469983523982
74,9.752061399995,0.05831657811722837,-0.028753085144056532,-0.027671553023983317,0.02026920649200894,0.00716361435647559,-0.0015714635180046504,0.054614613720775126,0.10171257097660225,-0.058939322277832586,0.10867313375815753,0.12923730947280743,-0.1881967145219176
75,9.7562678999966,0.05841458394273254,-0.028717496576084908,-0.027679782651520192,0.02053283545974072,0.007653744583143433,-0.0018567865324839842,0.055135857365669394,0.10233192998312192,-0.05984482260970188,0.10831381473911413,0.12859753332023835,-0.18876515411723982
76,9.760339400003431,0.05851386228724107,-0.02867954621902422,-0.0276893934528257,0.02079896439513209,0.008146842898490766,-0.002146466234081626,0.05565531757697725,0.10294816543098281,-0.06075302096695704,0.1079306473388666,0.12793691022907866,-0.18931983752027698
77,9.764757900004042,0.058614425140304245,-0.028639219849881943,-0.02770040638905909,0.021067584455148395,0.008642894056006276,-0.0024405154256868272,0.05617287966202646,0.10356117702004589,-0.06166385082357719,0.10752358281385009,0.12725537999144765,-0.18986057994165093
78,9.770559600001434,0.058716284447665815,-0.028596503320069022,-0.027712842482118506,0.02133868624519392,0.009141882326630053,-0.002738946588456913,0.05668842870445962,0.10417086416981453,-0.06257724475744916,0.10709257681677961,0.12655288626386016,-0.19038719316954286
79,9.775808399994276,0.058819452108610636,-0.02855138255772133,-0.027726722813085004,0.02161225981809142,0.009643791497450416,-0.0030417718774740808,0.05720184958550565,0.10477712603878862,-0.06349313443416996,0.10663758938901885,0.12582937687236295,-0.19089948551881755
80,9.78115290000278,0.058923939973307714,-0.02850384357002717,-0.027742068520645532,0.021888294673157747,0.010148604870499303,-0.003349003117323114,0.05771302700487545,0.10537986154517232,-0.06441145058987187,0.1061585852341385,0.12508480393381954,-0.19139726163938017
81,9.785432599994238,0.059029759840148945,-0.0284538724455603,-0.027758900799494456,0.022166779755384163,0.010656305261648064,-0.003660651797583159,0.058221845504661786,0.10597896938739339,-0.0653321230131836,0.10565553422668948,0.12431912386367938,-0.19188032248877795
82,9.789878299998236,0.059136923453084286,-0.02840145535661805,-0.027777240898713224,0.02244770345474159,0.011166874999600007,-0.003976729068232116,0.05872818949512337,0.10657434806488567,-0.06625508052779212,0.10512841156080496,0.1235322974698906,-0.19234846564513355
83,9.794465400002082,0.059245442498953825,-0.02834657856156404,-0.027797110120127734,0.022731053605608672,0.011680295924985875,-0.00429724573497087,0.05923194328001255,0.10716589589951075,-0.06718025097741054,0.10457719747600648,0.12272429009372542,-0.19280148581170997
84,9.800707699992929,0.05935532860481745,-0.02828922840717496,-0.027818529816643074,0.023016817486320375,0.012196549389562212,-0.004622212254483245,0.05973299107972484,0.10775351105769351,-0.06810756121318791,0.10400187720300413,0.121895071727067,-0.1932391750984968
85,9.80592759999854,0.05946659333528259,-0.02822939133099101,-0.02784152139055535,0.02330498181881847,0.012715616255519525,-0.004951638729639269,0.06023121705610587,0.10833709157297071,-0.06903693708138266,0.10340244155008639,0.12104461710230097,-0.19366132296751645
86,9.810266900007264,0.05957924818983052,-0.02816705386366932,-0.027866106291840328,0.0235955327684385,0.013237476894897305,-0.005285534904636691,0.060726505341235096,0.1089165353689902,-0.0699683034102469,0.10277888702819334,0.12017290593109775,-0.19406771623666322
87,9.81459100000211,0.05969330460014205,-0.028102202631340018,-0.02789230601641859,0.023888455943836803,0.013762111189113168,-0.005623910160078225,0.061218740063434474,0.10949174028435384,-0.07090158399773673,0.10213121534284625,0.11927992315082706,-0.19445813924792274
88,9.818890700000338,0.05980877392742314,-0.02803482435796417,-0.02792014210439688,0.02418373639702739,0.014289498528616572,-0.00596677350799499,0.061707805371170495,0.1100626040979843,-0.07183670160001283,0.10145943338576875,0.11836565885385328,-0.19483237405908402
89,9.822960300007251,0.05992566745973094,-0.02796490586769316,-0.027949636138285425,0.024481358623538625,0.014819617812661686,-0.006314133586813258,0.06219358545898236,0.11062902455328862,-0.07277357792099279,0.10076355341513064,0.11743010810011045,-0.19519020072916174
90,9.831099100003485,0.060043996409300915,-0.02789243408722884,-0.02798080974119094,0.024781306562699213,0.015352447449193283,-0.006665998656277516,0.06267596459311586,0.11119089938172418,-0.07371213360359409,0.10004359303243507,0.11647327084269715,-0.19553139740061098
91,9.835259400002542,0.06016377190987561,-0.027817396048183993,-0.02801368457498517,0.02508356359804119,0.01588796535484603,-0.007022376592333074,0.06315482713722946,0.11174812632624738,-0.07465228822007638,0.09929957531476466,0.11549515188475214,-0.19585574010376317
92,9.840042299998458,0.06028500501403567,-0.027739778889442485,-0.028048282338448707,0.025388112557832895,0.016426148955055685,-0.0073832748819563305,0.06363005757929882,0.11230060316446526,-0.07559396026140547,0.09853152868982298,0.114495760777992,-0.19616300270201234
93,9.84418509999523,0.06040770669053373,-0.027659569859518663,-0.028084624765389872,0.02569493571574047,0.01696697518428083,-0.007748700617935189,0.06410154055612227,0.1128482277311093,-0.07653706712706886,0.09773948654535156,0.1134751116423751,-0.19645295710698657
94,9.848030199995264,0.060531887821631776,-0.02757675631891538,-0.028122733622738382,0.026004014791596277,0.017510420486329996,-0.008118660493601468,0.06456916087647252,0.1133908979394543,-0.0774815251165072,0.09692348719734152,0.1124332230217227,-0.19672537359535208
95,9.853589100006502,0.06065755920044241,-0.02749132574248025,-0.02816263070861362,0.02631533095228285,0.01805646081478921,-0.008493160797528994,0.06503280354529668,0.11392851180240501,-0.0784272494219738,0.09608357391336164,0.11137011789553397,-0.19698002096918107
96,9.85916819999693,0.06078473152827473,-0.02740326572175956,-0.028204337850367356,0.02662886481273384,0.01860507163355172,-0.008872207408197394,0.06549235378709214,0.11446096745402853,-0.07937415412150682,0.09521979468606159,0.11028582383119744,-0.1972166664660125
97,9.864393700001528,0.0609134154119852,-0.027312563967349438,-0.028247876902600746,0.02694459643704255,0.019156227917452407,-0.009255805788622673,0.06594769706793036,0.11498816317210336,-0.08032215217092471,0.09433220227229262,0.10918037329319637,-0.19743507547722414
98,9.870966000002229,0.06104362136133417,-0.027219208311243668,-0.028293269745155464,0.027262505339674496,0.019709904153014195,-0.009643960980944093,0.06639871911920857,0.11550999740262276,-0.08127115539409246,0.09342085449789164,0.10805380399117752,-0.19763501137584974
99,9.875090999994429,0.061175359786348416,-0.02712318670917769,-0.028340538281078693,0.027582570486804167,0.020266074339317895,-0.010036677600961226,0.06684530596260208,0.11602636878568812,-0.0822210744732626,0.09248581413261658,0.10690615904031757,-0.19781623554406108
100,9.88137529999949,0.06130864099469049,-0.027024487242968055,-0.028389704434561763,0.02790477029776732,0.020824711988997383,-0.010433959832628029,0.06728734393261429,0.11653717618155315,-0.08317181893960555,0.0915271487262023,0.10573748710984862,-0.19797850740058184
101,9.885328799995476,0.061443475189035215,-0.026923098122846864,-0.02844079014885224,0.028229082646614403,0.021385790129359702,-0.010835811422498906,0.06772471969995378,0.11704231869794436,-0.08412329716381403,0.0905449307878662,0.10454784248588227,-0.1981215846234753
102,9.889570700004697,0.061579872464453976,-0.02681900768979046,-0.028493817384139204,0.028555484863787475,0.021949281303642734,-0.011242235674132517,0.06815732029580907,0.1175416957167088,-0.08507541634877398,0.08953923753600422,0.10333728481327563,-0.19824522350619456
103,9.893751700001305,0.06171784280580731,-0.02671220441784178,-0.028548808115411568,0.028883953737906854,0.02251515757239134,-0.011653235442467411,0.06858503313282069,0.11803520691865438,-0.08602808252358998,0.08851015042910292,0.10210587895830393,-0.19834917923146894
104,9.900151499998174,0.061857396085146364,-0.026602676916425826,-0.028605784330289312,0.02921446551764955,0.023083390514953707,-0.012068813128168434,0.06900774602484891,0.11852275230887813,-0.08698120053888776,0.08745775522034806,0.10085369497366801,-0.19843320626614272
105,9.90386629999557,0.06199854205912354,-0.02649041393265765,-0.028664768026827485,0.029546995913725844,0.023653951231100843,-0.012488970671957228,0.06942534720847045,0.11900423224127028,-0.08793467406463329,0.08638214201240935,0.09958080781329424,-0.1984970586741069
106,9.908147399997688,0.06214129036641295,-0.026375404353642252,-0.028725781211292965,0.029881520100964263,0.024226810342758365,-0.012913709548937682,0.06983772536327258,0.11947954744110233,-0.08888840558844202,0.08528340502260551,0.09828729710917153,-0.19854049015565536
107,9.912056999994093,0.06228565052514108,-0.026257637208765925,-0.028788845895913934,0.03021801272048315,0.02480193799584303,-0.013343030762910192,0.07024476963109354,0.11994859902738682,-0.08984229641377613,0.08416164257527076,0.09697324718278202,-0.19856325414507892
108,9.917250600003172,0.062431631930328114,-0.026137101671978517,-0.028853984096602014,0.030556447881960512,0.025379303862209355,-0.01377693484067978,0.07064636963624324,0.12041128853557528,-0.09079624665919145,0.0830169571486491,0.09563874704539574,-0.19856510396706145
109,9.923251700005494,0.06257924385134042,-0.026013787064066065,-0.02892121783064705,0.030896799165999866,0.02595887714170424,-0.014215421826363128,0.07104241550519427,0.12086751793992088,-0.09175015525803741,0.08184945549215929,0.09428389053892798,-0.19854579280941878
110,9.927081200003158,0.06272849542935459,-0.02588768285491332,-0.028990569114384548,0.031239039626589284,0.026540626564328453,-0.014658491275693809,0.07143279788792935,0.12131718967752969,-0.09270391995744205,0.08065924874390848,0.09290877662528163,-0.19850507359405475
111,9.93239970000286,0.06287939567483355,-0.025758778665755606,-0.02906205996083574,0.03158314179367236,0.027124520392522337,-0.01510614225031957,0.07181740797876135,0.12176020667350342,-0.09365743731677205,0.07944645215671926,0.09151350941775785,-0.19844269905515644
112,9.936633100005563,0.06303195346501533,-0.025627064271419395,-0.029135712377320225,0.031929077675807285,0.027710526423568877,-0.015558373312092769,0.07219613753504842,0.12219647236529249,-0.09461060270736907,0.07821118516063309,0.09009819801653424,-0.198358422102716
113,9.940262000003711,0.0631861775414147,-0.025492529602551068,-0.029211548363041188,0.032276818762917645,0.0282986119921134,-0.01601518251736512,0.07256887889861453,0.12262589072625804,-0.09556331031450259,0.07695357155089007,0.0886629563091763,-0.1982519961514807
114,9.944574699999066,0.06334207650733835,-0.025355164747833277,-0.029289589906643213,0.0326263360291573,0.028888743972793025,-0.016476567411296893,0.07293552501627076,0.12304836628810822,-0.09651545314026688,0.07567373903428284,0.08720790279888956,-0.19812317514034905
115,9.94825950000086,0.0634996588254141,-0.025214959956188453,-0.029369858983742822,0.03297759993585836,0.029480888782971938,-0.016942525022179505,0.07329596945687711,0.12346380416281001,-0.0974669230057202,0.0743718190958561,0.08573316040489233,-0.19797171358688137
116,9.952667200006545,0.06365893281513438,-0.02507190563896888,-0.029452377554431745,0.03333058043456,0.030075012385581378,-0.01741305185576526,0.07365010643058295,0.12387211006310747,-0.09841761055430549,0.07304794724149782,0.0842388562079794,-0.19779736678726464
117,9.956607700005408,0.06381990665041454,-0.024925992372132912,-0.029537167560752975,0.03368524697014129,0.030671080292052053,-0.017888143889622808,0.0739978308082198,0.12427319032198886,-0.09936740525591092,0.07170226282596018,0.08272512128645508,-0.19759989080814488
118,9.961209300003247,0.06398258835716643,-0.02477721089840688,-0.029624250924149803,0.03404156848403636,0.03126905756534117,-0.018367796567505913,0.0743390381388893,0.1246669519116285,-0.1003161954102121,0.07033490906834453,0.08119209059466216,-0.19737904261564485
119,9.965179399994668,0.06414698581088761,-0.024625552129432224,-0.029713649542887768,0.034399513417536214,0.03186890882304686,-0.01885200479374101,0.07467362466950478,0.1250533024616868,-0.1012638681519722,0.06894603327128243,0.07963990286138815,-0.19713458031817632
120,9.969088099998771,0.06431310673426666,-0.024471007147897465,-0.029805385289449766,0.034759049715191635,0.03247059824061102,-0.0193407629276469,0.0750014873644852,0.12543215027727594,-0.10221030945671726,0.06753578672727863,0.07806870036737246,-0.19686626317410238
121,9.973028699998396,0.06448095869480505,-0.024313567209654573,-0.029899480007904385,0.035120144828304244,0.03307408955460636,-0.01983406477797685,0.0753225239243968,0.12580340435512213,-0.10315540414610985,0.06610432465572086,0.07647862866695697,-0.19657385165803531
122,9.977551899995888,0.06465054910245605,-0.02415322374581936,-0.029995955511247608,0.035482765718508516,0.03367934606609456,-0.020331903597389907,0.07563663280504185,0.1261669743988569,-0.1040990358942614,0.06465180620258523,0.07486983646274849,-0.1962571075824145
123,9.981583600005251,0.06482188520728097,-0.02398996836485557,-0.03009483357871803,0.03584687886144624,0.034286330644060205,-0.02083427207695364,0.07594371323609746,0.12652277083397506,-0.10504108723427402,0.06317839426928618,0.07324247545787314,-0.19591579412881155
124,9.985815499996534,0.06499497409712338,-0.023823792854642287,-0.030196135953085745,0.03621245025052763,0.03489500572891268,-0.021341162340678326,0.07624366523855987,0.1268707048217064,-0.10598143956485363,0.061684255121080216,0.07159670033197252,-0.19554967595709552
125,9.991499499999918,0.06516982269530153,-0.023654689184524378,-0.03029988433791504,0.036579445400773375,0.035505333336053393,-0.021852565940083234,0.07653638963962073,0.12721068827374302,-0.10691997315790067,0.060169558339490094,0.06993266886621052,-0.19515851937775566
126,9.995452000002842,0.06534643775831943,-0.023482649507345618,-0.030406100394801076,0.03694782935271872,0.03611727505951916,-0.022368473848803732,0.07682178808965426,0.12754263386731216,-0.10785656716677886,0.058634477152187545,0.06825054193974915,-0.19474209238711077
127,9.99996220000321,0.06552482587359681,-0.023307666161464135,-0.03051480574058077,0.037317566676418695,0.03673079207569425,-0.022888876457237018,0.07709976308026312,0.12786645505986963,-0.10879109963424431,0.05707918810340659,0.06655048359588019,-0.19430016471420472
128,10.004409200002556,0.0657049934572187,-0.023129731672749867,-0.030626021944518026,0.037688621475525604,0.03734584514709496,-0.023413763567225424,0.07737021795809883,0.12818206610480806,-0.10972344750116486,0.055503870709552025,0.06483266116363494,-0.19383250809080466
129,10.010674799996195,0.0658869467517045,-0.02294883875656364,-0.030739770525463533,0.03806095739142705,0.03796239462623258,-0.023943124386785915,0.07763305693959864,0.1284893820673188,-0.11065348661704333,0.05390870750722604,0.06309724502667428,-0.19333889656812545
130,10.015335699994466,0.0660706918237974,-0.022764980319717517,-0.03085607294898936,0.03843453760746499,0.03858040045955039,-0.02447694752489451,0.07788818512526742,0.12878831883787958,-0.11158109175178003,0.05229388399001121,0.06134440812292315,-0.19281910673961886
131,10.020679199995357,0.06625623456227397,-0.022578149462416038,-0.030974950624498638,0.03880932485321103,0.03919982219141619,-0.025015220986328787,0.0781355085138071,0.1290787931433088,-0.1125061366083367,0.050659588686420017,0.059574325635635264,-0.19227291801497812
132,10.025118000005024,0.06644358067577459,-0.022388339480178213,-0.0310964249023106,0.03918528140882119,0.03982061896816551,-0.025557932166573993,0.07837493401714753,0.1293607225572849,-0.1134284938371316,0.04900601339492767,0.05778717486744454,-0.1917001128236793
133,10.031137500001932,0.06663273569065496,-0.02219554386573992,-0.031220517070721317,0.03956236910945564,0.04044274954219524,-0.02610506784680386,0.07860636947683416,0.12963402551019043,-0.11434803505065923,0.04733335327807392,0.05598313502997025,-0.19110047663031463
134,10.035730500007048,0.06682370494885898,-0.02199975631093655,-0.03134724835304053,0.039940549349790945,0.04106617227610141,-0.026656614188927168,0.07882972367996309,0.12989862129760998,-0.11526463083803269,0.04564180650206513,0.05416238704846951,-0.1904737981066006
135,10.040122699996571,0.06701649360581358,-0.021800970708565664,-0.03147663990460477,0.040319783088592874,0.04169084514685447,-0.027212556730708312,0.07904490637210591,0.1301544300882973,-0.11617815078125607,0.0439315742057219,0.052325113600245866,-0.1898198693352283
136,10.043777099999716,0.06721110662834556,-0.021599181154229517,-0.031608712809767306,0.04070003085335284,0.042316725750013606,-0.0277728803809702,0.07925182827294641,0.1304013729330422,-0.11708846347172552,0.04220286050085455,0.05047149943131183,-0.18913848583706086
137,10.048527699997068,0.06740754879262101,-0.021394381948157213,-0.031743488078865206,0.04108125274501095,0.04294377130398724,-0.02833756941487336,0.07945040108920906,0.13063937177568025,-0.1179954365267629,0.04045587223701365,0.04860173173265754,-0.18842944662555564
138,10.052481199993052,0.06760582468210743,-0.021186567597006305,-0.031880986645163895,0.04146340844271667,0.043571938654353104,-0.028906607469277715,0.07964053752803534,0.13086834946557505,-0.1188989366066398,0.03869081947095055,0.04671600032792571,-0.187692554398885
139,10.058427900003151,0.06780593868555898,-0.02097573281564344,-0.032021229361779646,0.0418464572086804,0.0442011842782387,-0.029479977538185244,0.07982215131442293,0.13108822977043108,-0.11979882943295707,0.03690791521662373,0.044814497789775476,-0.18692761570401473
140,10.06257629999891,0.06800789499502519,-0.02076187252890386,-0.03216423699858038,0.0422303578931017,0.04483146428876447,-0.030057661968278356,0.07999515720220005,0.13129893738989398,-0.12069497980724538,0.0351073748033881,0.04289741945264479,-0.18613444090137052
141,10.06938220000302,0.06821169760388351,-0.020544981873329368,-0.03231003023906526,0.04261506893912628,0.04546273443955492,-0.03063964245454128,0.08015947098529798,0.13150039796848612,-0.12158725162900526,0.03328941622061176,0.04096496318207959,-0.18531284441153412
142,10.073927599994931,0.06841735030489576,-0.020325056198884486,-0.03245862967722343,0.04300054838788257,0.04609495012930608,-0.03122590003597176,0.08031500951203654,0.13169253810699044,-0.12247550791667798,0.031454260132938616,0.03901732911926315,-0.18446264511397453
143,10.077393500003382,0.06862485668828898,-0.020102091070650526,-0.032610055814372436,0.04338675388357597,0.04672806640640603,-0.03181641509140394,0.0804616906965433,0.1318752853729315,-0.12335961082951667,0.029602129692226288,0.03705471950220376,-0.18358366634723744
144,10.081930700005614,0.06883422013986082,-0.019876082270497357,-0.032764329055976774,0.043773642678635094,0.047362037973603055,-0.0324111673354302,0.08059943353123204,0.1320485683102412,-0.12423942168855902,0.027733250757628343,0.03507733845834699,-0.18267573597144857
145,10.085849900002358,0.0690454438391099,-0.019647025798732624,-0.03292146970844715,0.04416117163892597,0.047996819192719004,-0.033010135814425565,0.08072815810033664,0.13221231644774717,-0.12511480099909894,0.025847852176323915,0.033085391898377364,-0.18173868652448993
146,10.090406799994524,0.06925853075739129,-0.01941491787572823,-0.03308149797592086,0.044549297249028286,0.048632364089399055,-0.03361329890268543,0.08084778559508682,0.13236646030781818,-0.12598560847315987,0.023946165893028046,0.031079087579441028,-0.18077235508172457
147,10.094593100002385,0.0694734836560975,-0.019179754943523915,-0.0332444339570239,0.04493797561759542,0.04926862635790812,-0.034220634298665925,0.08095823832829421,0.13251093141545994,-0.12685170305061863,0.02202842696653397,0.029058635065521116,-0.17977658324775508
148,10.098140700007209,0.06969030508486551,-0.018941533667407657,-0.033410297641615246,0.04532716248277082,0.04990555936596801,-0.03483211902132458,0.0810594397496871,0.13264566230657981,-0.12771294292159951,0.020094873787683678,0.027024245727663033,-0.17875121743031125
149,10.102869800000915,0.06990899737980984,-0.018700250937472768,-0.03357910890751379,0.04571681321769538,0.05054311615963322,-0.03544772940657587,0.08115131446259073,0.13277058653708476,-0.12856918555022975,0.01814574773571739,0.024976132861612203,-0.17769610880938105
150,10.11032890000206,0.0701295626617824,-0.01845590387015145,-0.03375088751720857,0.046106882836084086,0.051181249468215555,-0.03606744110386012,0.08123378823596022,0.13288563869227635,-0.129420287696737,0.01618129264627497,0.022914511601077076,-0.17661111310951966
151,10.114553000006708,0.07035200283465921,-0.01820848980972458,-0.03392565311455274,0.046497325997849004,0.05181991170925016,-0.036691229072811374,0.08130678801594932,0.13299075439511532,-0.13026610543901707,0.014201754764198398,0.020839598855557875,-0.17549609079595352
152,10.120085899994592,0.07057631958365429,-0.017958006329807544,-0.034103425221441795,0.0468880970147871,0.052459054993499545,-0.03731906758003354,0.08137024193748978,0.13308587031501923,-0.13110649419661566,0.012207382697144558,0.018751613654902754,-0.17435090725476515
153,10.123966200000725,0.07080251437366096,-0.017704451234811944,-0.034284223234476545,0.04727914985631445,0.05309863113000417,-0.03795093019599864,0.08142407933541446,0.1331709241794376,-0.13194130875402735,0.01019842743070196,0.01665077776662355,-0.17317543270619928
154,10.127377400000114,0.07103058844762088,-0.017447822561382904,-0.034468066421611536,0.047670438155260966,0.05373859163119765,-0.03858678979204687,0.08146823075618195,0.13324585478858086,-0.13277040328384432,0.008175142391226383,0.014537316169638853,-0.17196954240048415
155,10.131645600005868,0.07126054282492102,-0.01718811857981163,-0.03465497391878923,0.04806191521371725,0.054378887718098914,-0.039226618537507224,0.08150262796960339,0.13331060203154735,-0.13359363137193686,0.006137783899371466,0.012411457222117839,-0.1707331167433525
156,10.135756599993329,0.07149237829981886,-0.016925337795422837,-0.034844964726560734,0.04845353400894198,0.05501947032558231,-0.039870387896939516,0.08152720398492472,0.1333651069026649,-0.13441084604180814,0.004086611702163858,0.010273432681169875,-0.16946604137366772
157,10.140234699996654,0.07172609543989615,-0.016659478949936656,-0.035038057706693486,0.0488452471993633,0.055660290107726794,-0.040518068627489016,0.08154189306766578,0.13340931151780705,-0.13522189978052054,0.0020218888949165084,0.008123477632870801,-0.16816820733595014
158,10.143896499997936,0.07196169458454174,-0.01639054102280467,-0.03523427157876657,0.049237007130648,0.05630129744324282,-0.04116963077637756,0.08154663075495235,0.13344315913006233,-0.13602664456470812,-5.611798504648541e-05,0.0059618303369041665,-0.1668395108223182
159,10.14983920000668,0.07219917584346366,-0.01611852323251969,-0.03543362491675429,0.04962876584185021,0.05694244244097205,-0.041825043678508124,0.08154135387325571,0.1334665941445577,-0.13682493188402342,-0.002147138504710529,0.0037887320318030523,-0.16547985304659765
160,10.158182800005306,0.07243853909523106,-0.01584342503789894,-0.03563613614559848,0.05002047507165105,0.05758367494545673,-0.04248427595418123,0.08152600055808379,0.13347956213225656,-0.1376166127659404,-0.004250898272754423,0.0016044267216520434,-0.16408914061293503
161,10.162391699996078,0.07267978398584618,-0.015565246139340313,-0.03584182353777013,0.050412086264696475,0.058224944542571905,-0.04314729550693782,0.08150051027232232,0.13348200984273284,-0.13840153780274292,-0.006367119189919462,-0.0005908389088587623,-0.16266728577342893
162,10.166419999994105,0.07292290992734725,-0.015283986480051455,-0.03605070520982097,0.05080355057801319,0.05886620056521756,-0.04381406952153497,0.08146482382352035,0.13347388521715275,-0.13917955717880306,-0.008495519214352142,-0.0027968152920117883,-0.16121420647490153
163,10.170437599997967,0.07316791609644209,-0.014999646247251324,-0.036262799118925645,0.05119481888751258,0.0595073920990756,-0.04448456446205088,0.08141888338448616,0.1334551374029938,-0.13995052069801905,-0.010635812016981569,-0.005013249515570055,-0.15972982650035678
164,10.17471010000736,0.07341480143317346,-0.014712225873343952,-0.03647812305941509,0.05158584179460449,0.06014846798844336,-0.04515874607012419,0.08136263251388387,0.13342571677146073,-0.14071427781245266,-0.01278770704450533,-0.007239884840599065,-0.1582140754996385
165,10.179424400004793,0.07366356463961625,-0.014421726037063968,-0.0366966946593018,0.05197656963289906,0.06078937684215795,-0.04583657936333414,0.08129601617622419,0.1333855749368373,-0.14147067765006174,-0.014950909394694588,-0.00947646048725304,-0.1566668888408225
166,10.18362779999734,0.07391420417860721,-0.014128147664593426,-0.036918531376797625,0.05236695247501259,0.06143006703961569,-0.04651802863370636,0.08121898076365917,0.13333466477596057,-0.1422195690419098,-0.017125119831125146,-0.011722711621402995,-0.15508820775169796
167,10.188171600006172,0.07416671827250754,-0.0138314919306495,-0.037143650496824686,0.0527569401394788,0.0620704867368836,-0.04720305744635444,0.08113147411583141,0.13327294044770105,-0.14296080055125787,-0.019310034986648024,-0.013978369369210372,-0.15347797949127712
168,10.1924091999972,0.07442110490199899,-0.013531760259542586,-0.03737206912752013,0.05314648219774535,0.06271058387290596,-0.047891628638265245,0.08103344553971377,0.133200357412297,-0.143694220502422,-0.021505347129324365,-0.016243160929128878,-0.15183615724786345
169,10.199294799997006,0.07467736180491373,-0.013228954326204363,-0.03760380419673536,0.05353552798127578,0.06335030617580158,-0.04858370431721778,0.08092484583170755,0.13311687244975848,-0.14441967700888578,-0.02371074409967064,-0.018516809805195423,-0.15016270006157897
170,10.20647750000353,0.07493548647509865,-0.012923076057185396,-0.037838872448530424,0.05392402658875836,0.06398960116924722,-0.04927924586083859,0.08080562729808519,0.13302244367696006,-0.14513701800141338,-0.025925909592065727,-0.020799036249982163,-0.14845757276129157
171,10.210533699995722,0.07519547616131449,-0.012614127631621855,-0.038077290439664145,0.0543119268934044,0.06462841617893907,-0.04997821391579074,0.08067574377438459,0.13291703056178897,-0.14584609125555612,-0.028150523232696067,-0.023089557865365654,-0.14672074585502823
172,10.216403800004628,0.07545732786617028,-0.012302111482171038,-0.038319074536080716,0.05469917755034348,0.06526669833911208,-0.05068056839709354,0.08053515064510294,0.1328005939344654,-0.14654674441871257,-0.030384260439677572,-0.025388089896709314,-0.14495219545225083
173,10.220857899999828,0.07572103834509353,-0.011987030295915456,-0.038564240909393324,0.055085727004110976,0.06590439459911027,-0.05138626848757148,0.08038380486443497,0.1326730959988641,-0.14723882503688832,-0.03262679195283542,-0.027694345051052543,-0.14315190317735602
174,10.225166200005331,0.0759866041053366,-0.011668887015235219,-0.03881280553336542,0.05547152349624254,0.06654145173001479,-0.052095272637431085,0.08022166498048477,0.13253450034558162,-0.14792218058092493,-0.03487778334845086,-0.030008033101675394,-0.14131985605993247
175,10.228891599996132,0.07625402140501986,-0.011347684838648437,-0.03906478418039029,0.05585651507299428,0.06717781633133978,-0.05280753856396188,0.08004869116066651,0.1323847719670573,-0.14859665847220532,-0.03713689511893822,-0.03232886039608432,-0.13945604655106755
176,10.233281299995724,0.07652328625221223,-0.01102342722161928,-0.039320192417969455,0.056240649593181265,0.06781343483780577,-0.0535230232513602,0.07986484521515066,0.13222387727536788,-0.1492621061090394,-0.039403782765445934,-0.03465652928747839,-0.13756047262481996
177,10.236808200002995,0.07679439440404968,-0.010696117877333293,-0.03957904560519054,0.056623874736123,0.06844825352620648,-0.054241682950683705,0.07967009062137499,0.1320517841228111,-0.14991837089334434,-0.04167809657867281,-0.03699073762153172,-0.13563313778573607
178,10.241855999993277,0.0770673413658921,-0.01036576077743947,-0.03984135888920523,0.05700613800971745,0.06908221852237997,-0.05496347317993152,0.07946439254959677,0.1318684618246314,-0.15056530025710255,-0.04395948181212678,-0.0393311784136502,-0.1336740510691504
179,10.247974600002635,0.07734212239051935,-0.010032360152758603,-0.040107147201707945,0.05738738675863199,0.06971527580829381,-0.05568834872425296,0.07924771788573902,0.13167388118270462,-0.15120274168904477,-0.046247579119194054,-0.041677539875435085,-0.13168322697827187
180,10.252024600005823,0.07761873247736686,-0.009695920493957275,-0.040376425255415765,0.05776756817259698,0.07034737122924384,-0.05641626363628407,0.07902003525274331,0.1314680145080093,-0.15183054276050353,-0.048542024600270225,-0.04402950556063611,-0.12966068519518684
181,10.256144900005893,0.07789716637180137,-0.009356446552187033,-0.04064920754055034,0.058146629294801855,0.07097845050115517,-0.057147171236604725,0.07878131503296315,0.13125083564290904,-0.15244855114931957,-0.05084244952187313,-0.046386754192125235,-0.12760645037754134
182,10.260369199997513,0.07817741856443719,-0.009013943339688245,-0.04092550832132223,0.058524517030403865,0.07160845921799511,-0.057881024114304895,0.07853152939221555,0.1310223199852864,-0.1530566146637417,-0.053148479986900164,-0.048748959331648356,-0.12552055247069455
183,10.265154499997152,0.07845948329049368,-0.008668416130358039,-0.04120534163241824,0.05890117815515527,0.07223734285930601,-0.05861777412767138,0.07827065230534273,0.13078244451399826,-0.1536545812693325,-0.055459736778745175,-0.051115789202275344,-0.12340302702911016
184,10.26979200000642,0.07874335452919444,-0.008319870460281783,-0.041488721275492364,0.05927655932415765,0.07286504679786278,-0.05935737240501256,0.07799865958176143,0.13053118781471562,-0.15424229911595622,-0.057775835314997886,-0.05348690665923828,-0.12125391512240613
185,10.273339999999736,0.07902902600320887,-0.007968312128227456,-0.04177566081566103,0.05965060708073463,0.07349151630745401,-0.060099769345604466,0.07771552889146943,0.13026853010565925,-0.15481961656378165,-0.060096385255163094,-0.055861969186332135,-0.1190732634523079
186,10.279147599998396,0.0793164911781366,-0.007613747196102357,-0.04206617357800316,0.06002326786543603,0.07411669657078676,-0.06084491462076538,0.07742123979436406,0.12999445326347406,-0.1553863822113939,-0.06242099036041568,-0.05824062892822805,-0.11686112461136008
187,10.285479199999829,0.07960574326203564,-0.007256181989371527,-0.042360272644065715,0.06039448802519229,0.07474053268751629,-0.06159275717507197,0.0771157737675962,0.1297089408486542,-0.15594244492428294,-0.06474924886933628,-0.0606225328828917,-0.11461755694966365
188,10.289799599995604,0.07989677520499466,-0.006895623097437309,-0.04265797084837546,0.06076421382258148,0.07536296968239513,-0.06234324522770764,0.07679911423127857,0.1294119781295687,-0.15648765386167496,-0.06708075330954731,-0.0630073230924907,-0.11234262449640636
189,10.293888700005482,0.08018957969875025,-0.006532077373979471,-0.04295928077495745,0.0611323914452307,0.07598395251353367,-0.06309632627393649,0.07647124657764967,0.1291035521060523,-0.157021858504267,-0.06941509012272985,-0.06539463647835002,-0.11003639719495929
190,10.299318699995638,0.08048414917634954,-0.006165551937255397,-0.043264214753860955,0.06149896701536331,0.07660342608077587,-0.0638519470867181,0.07613215820038498,0.12878365153501678,-0.1575449086833171,-0.07175183989936039,-0.06778410431450395,-0.10769895107494393
191,10.303912300005322,0.08078047581185911,-0.005796054170359729,-0.04357278485769349,0.061863886599481964,0.07722133523420599,-0.064610053718461,0.07578183852150541,0.12845226695910014,-0.1580566546100323,-0.07409057745642772,-0.07017535167314098,-0.10533036857264719
192,10.308001900004456,0.08107855152012076,-0.005423591721442831,-0.04388500289816354,0.062227096218174384,0.07783762478279949,-0.06537059150291986,0.07542027901994187,0.1281093907376062,-0.15855694690773725,-0.07643087133684212,-0.07256799707074299,-0.10293073889088793
193,10.31229610000446,0.08137836795655456,-0.005048172503887309,-0.044200880422632864,0.06258854185607085,0.07845223950322705,-0.06613350505725804,0.07504747326325349,0.1277550170785536,-0.15904563664472005,-0.07877228377885093,-0.07496165237713075,-0.10050015806945847
194,10.31655970000429,0.0816799165170103,-0.004669804696441878,-0.04452042871067901,0.06294816947195472,0.07906512414881348,-0.06689873828426031,0.07466341693648601,0.12738914207048957,-0.15952257536707762,-0.08111437099706707,-0.0773559230057878,-0.09803872911131604
195,10.325030000007246,0.0819831883376677,-0.004288496743311811,-0.04484365877066888,0.06330592500899722,0.07967622345864732,-0.06766623437471103,0.07426810787118986,0.12701176371271009,-0.15998761513277396,-0.08345668296330275,-0.07975040837008922,-0.09554656215328634
196,10.329333000001498,0.0822881742949862,-0.0039042573542052744,-0.045170581336344114,0.06366175440514674,0.08028548216683015,-0.06843593580993414,0.07386154607638433,0.12662288194269006,-0.16044060854612577,-0.08579876326623188,-0.08214470245528738,-0.09302377449702502
197,10.334268699996755,0.08259486500570498,-0.003517095504334909,-0.04550120686341905,0.06401560360366115,0.08089284501184978,-0.06920778436450262,0.07344373376892406,0.12622249866080787,-0.16088140879215812,-0.08814014918918374,-0.0845383942174947,-0.09047049032940307
198,10.340180500003044,0.08290325082689398,-0.0031270204343741043,-0.04583554552619213,0.06436741856378891,0.08149825674606703,-0.06998172110910861,0.07301467540371574,0.12581061775394192,-0.16130986966840352,-0.09048037177298716,-0.08693106768303571,-0.0878868406894511
199,10.345659200000227,0.08321332185605651,-0.0027340416503674287,-0.04617360721417145,0.06471714527159166,0.08210166214531574,-0.07075768641357842,0.07257437770348077,0.12538724511924063,-0.16172584561893996,-0.09281895583151778,-0.08932230187177723,-0.08527296395390567
200,10.35351339999761,0.08352506793128424,-0.0023381689235946667,-0.04651540152871514,0.06506472975091127,0.08270300601861788,-0.07153561995006967,0.07212284968882259,0.1249523886884556,-0.16212919177085522,-0.09515541998312876,-0.09171167066380055,-0.08262900584561843
201,10.358070600006611,0.08383847863146524,-0.0019394122903879014,-0.046860937779687604,0.0654101180744814,0.08330223321801736,-0.07231546069643666,0.07166010270768733,0.12450605845299269,-0.1625197639683657,-0.09748927683869998,-0.09409874261179142,-0.07995511926820804
202,10.364835999993376,0.08415354327654569,-0.0015377820519010678,-0.04721022498213227,0.0657532563751776,0.08389928864853587,-0.07309714693975532,0.07118615046362436,0.1240482664900478,-0.16289741880769207,-0.09982003331326256,-0.09648308066248125,-0.07725146472922745
203,10.368998699996157,0.08447025092784603,-0.0011332887738313767,-0.04756327185296169,0.06609409085740034,0.08449411727825776,-0.07388061628002371,0.07070100904225277,0.12357902699033435,-0.16326201367524393,-0.10214719086141309,-0.09886424175888922,-0.07451821066035921
204,10.373018900005263,0.08478859038843206,-0.0007259432860919705,-0.047920086807665824,0.06643256780857948,0.08508666414855234,-0.07466580563405384,0.07020469693725993,0.12309835628804085,-0.16361340678557199,-0.10447024536938054,-0.10124177631132658,-0.07175553339455135
205,10.378828899993096,0.08510855020354158,-0.00031575668243512885,-0.048280677957039546,0.06676863361080707,0.08567687438444659,-0.0754526512395368,0.06969723507790512,0.12260627289364107,-0.16395145721933307,-0.10678868693359499,-0.10361522764133489,-0.06896361750261489
206,10.383290300000226,0.08543011866106727,9.725967997473877e-05,-0.048645053103930004,0.06710223475260604,0.08626469320516265,-0.07624108865929939,0.06917864685714563,0.12210279752919438,-0.16427602496447638,-0.10910199979859873,-0.10598413159340317,-0.06614265615970848
207,10.387689199997112,0.08575328379209646,0.0005130941810391351,-0.049013219740005005,0.06743331784083334,0.08685006593482979,-0.07703105278576496,0.06864895815973687,0.12158795316488667,-0.16458697095772976,-0.11140966201416272,-0.10834801638899895,-0.06329285110670442
208,10.391481300001033,0.08607803337150832,0.0009317349382554037,-0.04938518504254324,0.06776182961271854,0.08743293801337294,-0.07782247784560863,0.06810819739365309,0.12106176505573314,-0.16488415712541474,-0.11371114515236146,-0.11070640262505892,-0.060414412573085656
209,10.395796099997824,0.08640435491862933,0.0013531698072993923,-0.04976095587124739,0.06808771694806887,0.08801325500757731,-0.07861529740461033,0.06755639552090584,0.12052426077813373,-0.16516744642419204,-0.11600591479343283,-0.11305880328587027,-0.05750755928353491
210,10.399806400004309,0.08673223569794772,0.0017773863826616911,-0.050140538765081,0.06841092688160398,0.0885909626223282,-0.07940944437270152,0.06699358608429641,0.11997547026646178,-0.16543670288193987,-0.11829343060319891,-0.11540472372578597,-0.05457251862180656
211,10.403822599997511,0.08706166271988745,0.0022043719983382924,-0.050523939939130055,0.068731406615418,0.08916600671202708,-0.08020485100921093,0.06641980523749048,0.11941542584978553,-0.16569179164007397,-0.1205731459107958,-0.11774366168259669,-0.05160952676527215
212,10.408094099999287,0.08739262274164245,0.0026341137285765164,-0.05091116528149027,0.06904910353160326,0.08973833329218434,-0.08100144892831795,0.0658350917758278,0.11884416228832825,-0.16593257899571864,-0.12284450783464679,-0.12007510735450103,-0.04861882885597649
213,10.412719300002207,0.08772510226807179,0.003066598388677056,-0.05130222035018106,0.06936396520500836,0.0903078885511856,-0.08179916910470358,0.06523948716518643,0.11826171680945027,-0.16615893244567034,-0.12510695740708072,-0.12239854345888393,-0.04560067947808406
214,10.41698880000331,0.08805908755265657,0.003501812535852958,-0.05169711037008711,0.06967593941613924,0.09087461886223022,-0.08259794187942618,0.0646330355715951,0.11766812914354433,-0.16637072073315615,-0.12735992962109186,-0.12471344523186315,-0.042555342735897804
215,10.420510299998568,0.08839456459851906,0.003939742470146373,-0.05209584022992883,0.0699849741642018,0.09143847079544253,-0.0833976969660217,0.06401578388964814,0.11706344156002188,-0.16656781389254693,-0.12960285366483834,-0.12701928048887315,-0.03948309208968975
216,10.42490949999774,0.08873151915950486,0.004380374235403906,-0.05249841447926251,0.07029101768027594,0.09199939113015601,-0.08419836345680907,0.06338778176986476,0.11644769890262646,-0.1667500832945385,-0.13183515318832528,-0.12931550998244154,-0.03638421071589672
217,10.429688100004569,0.08906993674132864,0.0048236936203113956,-0.05290483732551138,0.07059401844062109,0.09255732686736393,-0.08499986982942455,0.06274908164454161,0.11582094862198235,-0.16691740169432556,-0.13405624656887993,-0.13160158828128868,-0.03325899206964555
218,10.435249100002691,0.08940980260278412,0.005269686159488893,-0.053315112631028526,0.07089392518009863,0.0931122252423162,-0.08580214395358991,0.0620997387525613,0.1151832408024613,-0.16706964328218776,-0.13626554728681423,-0.13387696521496426,-0.030107740371027477
219,10.443973400004325,0.08975110175701884,0.005718337134646472,-0.053729243910193,0.07119068690571576,0.09366403373722816,-0.0866051130981329,0.06143981116163552,0.11453462818085086,-0.1672066837363359,-0.13846246447351587,-0.13614108755373755,-0.026930770885186476
220,10.447941899998114,0.09009381897287419,0.0061696315758013225,-0.05414723432654019,0.0714842529102617,0.09421270009405683,-0.08740870393826318,0.06076935978784738,0.11387516615708033,-0.1673284002761891,-0.14064640326981973,-0.13839340009515114,-0.02372841018837992
221,10.452090399994631,0.09043793877629125,0.006623554262556313,-0.054569086689927826,0.07177457278603928,0.09475817232731269,-0.08821284256310463,0.06008844841445122,0.11320491280244921,-0.16743467171777734,-0.14281676473311147,-0.14063334550151996,-0.02050099644382632
222,10.45639150000352,0.09078344545178277,0.007080089725440181,-0.05499480345373872,0.0720615964386818,0.09530039873691508,-0.08901745448350368,0.0593971437123075,0.11252392887191448,-0.16752537852966917,-0.14497294521242154,-0.1428603633939156,-0.01724887915713675
223,10.46165130000736,0.0911303230439717,0.0075392222473096215,-0.05542438671212181,0.07234527410108094,0.09583932792112197,-0.08982246464009892,0.058695515264686866,0.1118322778210243,-0.1676004028860243,-0.14711433619058284,-0.14507389017162967,-0.01397241905108267
224,10.467684799994458,0.09147855535919706,0.0080009358648137,-0.05585783819727244,0.07262555634744192,0.09637490878954809,-0.09062779741163922,0.05798363558922163,0.11113002581993991,-0.16765962872131793,-0.1492403252231661,-0.14727336079773776,-0.010671988520934823
225,10.473031899993655,0.0918281259671875,0.008465214369921028,-0.0562951592767533,0.07290239410742239,0.09690709057622943,-0.09143337662357912,0.05726158015368831,0.11041724175321323,-0.16770294178776857,-0.1513502971900914,-0.14945821206072277,-0.007347971883699981
226,10.477297300007194,0.09217901820280296,0.008932041311509702,-0.05673635095085731,0.0731757386803392,0.0974358228526392,-0.0922391255569487,0.056529427385933355,0.1096939972024703,-0.16773022971245696,-0.15344363531333502,-0.15162788530574417,-0.004000765416913678
227,10.481386900006328,0.09253121516784481,0.009401399997019534,-0.05718141385001378,0.07344554174940267,0.09796105554058601,-0.09304496695749787,0.05578725867987733,0.10896036641994628,-0.16774138205512662,-0.1555197218140063,-0.15378182768294354,-0.0006307774298965201
228,10.48995129999821,0.09288469973293427,0.009873273494165929,-0.05763034823223918,0.073711755395981,0.0984827389249755,-0.0938508230451215,0.05503515839912727,0.10821642629917484,-0.16773629036598744,-0.15757793841157508,-0.15591949271117,0.0027615718931991743
229,10.4944414000056,0.09323945453945955,0.010347644632714724,-0.0580831539806338,0.07397433211386929,0.09900082366642689,-0.09465661552355917,0.05427321387818421,0.10746225634310677,-0.1677148482420082,-0.15961766638761302,-0.1580403408198972,0.006175850633943415
230,10.50062190000608,0.0935954620015914,0.01082449600631729,-0.05853983060092577,0.07423322482356559,0.09951526081372832,-0.09546226559036114,0.053501515425443076,0.10669793862959255,-0.16767695138336963,-0.1616382866803467,-0.16014383948346853,0.0096116150614364
231,10.50419229999534,0.09395270430836743,0.011303809974405048,-0.05900037721906346,0.07448838688656866,0.10002600181612173,-0.0962676939471305,0.05272015632349174,0.10592355777821101,-0.1676224976505083,-0.1636391800083769,-0.16222946258417104,0.013068409679987002
232,10.50811120000435,0.09431116342584503,0.011785568664142602,-0.059464792578857895,0.07473977211965693,0.1005329985354395,-0.09707282081003729,0.05192923283092216,0.10513920092187172,-0.16755138712011153,-0.16561972607260061,-0.1642966898908964,0.01654576727465648
233,10.51285060000373,0.09467082109932287,0.01226975397243887,-0.0599330750396762,0.0749873348092037,0.10103620325811645,-0.0978775659205986,0.05112884419029759,0.10434495767865275,-0.16746352214172364,-0.16757930377718427,-0.16634500789931914,0.020043208958899418
234,10.51860250000027,0.09503165885563139,0.012756347568015632,-0.060405222574187574,0.07523102972553262,0.1015355687070559,-0.09868184855673659,0.05031909262784053,0.10354092011533043,-0.1673588073932832,-0.16951729268336996,-0.1683739120547614,0.02356024445689084
235,10.523235300002852,0.0953936580054922,0.01324533089353267,-0.060881232766162995,0.07547081213722985,0.1020310480532913,-0.09948558754409223,0.04950008334743144,0.10272718269785937,-0.1672371499350166,-0.17143307375930136,-0.17038290915545434,0.027096372243467837
236,10.527225500001803,0.09575679964594609,0.01373668516776836,-0.06136110280832988,0.07570663782544193,0.1025225949273764,-0.10028870126760113,0.0486719245230922,0.10190384223181106,-0.16709845926363062,-0.1733260302585235,-0.17237151853139115,0.03065107954383493
237,10.533977400002186,0.09612106466284985,0.014230391387854263,-0.061844829500283055,0.07593846309811572,0.10301016343047469,-0.10109110768332795,0.047834727284543986,0.10107099780152726,-0.16694264736620892,-0.17519554837570697,-0.1743392721525592,0.03422384224051517
238,10.539583999998284,0.09648643373344105,0.014726430331562257,-0.06233240924645307,0.0761662448041575,0.10349370814516488,-0.10189272433056011,0.046988605703390404,0.10022875070951866,-0.1667696287752987,-0.17704101755947435,-0.17628571544190946,0.037814124873639034
239,10.543809900002088,0.09685288732897092,0.015224782559642951,-0.0628238380541334,0.07638994034754013,0.10397318414594811,-0.10269346834417148,0.046133676775669624,0.09937720440780705,-0.1665793206228042,-0.17886183201505887,-0.1782104094640965,0.04142138100670094
240,10.551832199998898,0.09722040571740467,0.015725428418213776,-0.06331911153156755,0.07660950770129452,0.10444854700939375,-0.1034932564672339,0.045270060393599654,0.09851646441629414,-0.16637164269155932,-0.18065739248671944,-0.18011293314503413,0.04504505328292703
241,10.55650720000267,0.09758896896618882,0.016228348041194877,-0.06381822488609742,0.07682490542134533,0.10491975282386222,-0.10429200506387638,0.04439787931100461,0.09764663823277764,-0.16614651746867945,-0.18242710722974184,-0.18199288395032798,0.048684573254349044
242,10.56076999999641,0.09795855694508446,0.01673352135279063,-0.06432117292237399,0.07703609266017025,0.10538675819878628,-0.1050896301324093,0.043517259105720796,0.0967678352448016,-0.16590387019877628,-0.18417039199345725,-0.18384987656435184,0.05233936168426586
243,10.566497199994046,0.09832914932906577,0.01724092807001471,-0.06482795004063174,0.07724302918027445,0.10584952027354683,-0.10588604731869482,0.04262832814518611,0.09588016665236425,-0.16564362893440365,-0.18588666890927863,-0.1856835404187428,0.05600882881346598
244,10.57104939999408,0.0987007256012828,0.017750547705256872,-0.06533855023502784,0.07744567536751926,0.1063079967260116,-0.10668117192975582,0.04173121755953015,0.09498374540351504,-0.1653657245867144,-0.18757536530403046,-0.1874935175824355,0.05969237421366489
245,10.574929099995645,0.09907326505608807,0.018262359568890087,-0.06585296709204731,0.07764399224433806,0.10676214578079214,-0.10747491894763307,0.04082606121856541,0.09407868613733555,-0.16507009097731434,-0.18923591333931847,-0.1892794618807395,0.06338938691152694
246,10.578922900007456,0.09944674680212627,0.018776342771916647,-0.06637119378897537,0.0778379414828439,0.10721192621723465,-0.10826720304349233,0.03991299570834239,0.09316510512800072,-0.1647566648877276,-0.19086775033893535,-0.19104103893353283,0.06709924598273552
247,10.58312900000601,0.09982114976548681,0.019292476228652065,-0.06689322309243811,0.07802748541782012,0.10765729737713947,-0.10905793859195681,0.03899216030499503,0.09224312022739266,-0.1644253861055426,-0.19247031936897108,-0.19277792648191647,0.07082132066250137
248,10.587264000001596,0.1001964526929184,0.019810738659445375,-0.0674190473570126,0.07821258705957665,0.1080982191722006,-0.10984703968565768,0.03806369694572195,0.09131285080602335,-0.16407619747281552,-0.1940430693467989,-0.1944898147596676,0.0745549701717853
249,10.591515000007348,0.10057263415510505,0.020331108593434493,-0.06794865852390732,0.07839321010666184,0.10853465209115751,-0.11063442015003158,0.03712775020158478,0.09037441769207949,-0.16370904493388602,-0.19558545532278368,-0.19617640701051564,0.07829954404754938
250,10.596453100006327,0.10094967255000284,0.020853564371335242,-0.06848204811971444,0.07856931895845737,0.10896655720664898,-0.11141999355833056,0.03618446724578262,0.08942794310737505,-0.16332387758060765,-0.19709694026450214,-0.19783742071554924,0.08205438259674672
251,10.601747900000191,0.10132754610623693,0.021378084148262567,-0.06901920725523454,0.07874087872758528,0.10939389618174959,-0.11220367324685417,0.0352339978093072,0.08847355059460292,-0.16292064769580147,-0.1985769972146703,-0.1994725898220938,0.08581881786428296
252,10.606484100004309,0.10170623288655749,0.02190464589658236,-0.06956012662437518,0.07890785525207682,0.10981663127612451,-0.1129853723303769,0.034276494128483506,0.0875113649318719,-0.16249931078918603,-0.20002511074689364,-0.20108166666924035,0.08959217477667877
253,10.61133030000201,0.10208571079135369,0.022433227408791816,-0.07010479650312385,0.07907021510727537,0.11023472535174486,-0.11376500371772552,0.03331211088663771,0.08654151204145741,-0.16205982562984247,-0.2014407774346913,-0.20266442198754678,0.09337377161139025
254,10.615131600003224,0.10246595756222397,0.022963806300426166,-0.07065320674859622,0.07922792561744488,0.11064814187816578,-0.11454248012751846,0.032341005157131335,0.08556411890434139,-0.16160215427763516,-0.20282350521050294,-0.20422064289233538,0.09716292034061695
255,10.618885899995805,0.10284695078560158,0.023496360012989752,-0.07120534679816037,0.07938095486712546,0.11105684493742066,-0.115317714104045,0.031363336351188,0.08457931348824385,-0.1611262621123734,-0.2041728125522725,-0.20575013044254856,0.10095892675634908
256,10.623214499995813,0.10322866789643392,0.024030865816909785,-0.07176120566863754,0.07952927171224047,0.11146079922860769,-0.11609061803328485,0.030379266168743067,0.08358722468561781,-0.1606321178640306,-0.20548822826322627,-0.20725269862830392,0.10476109054885732
257,10.627060200000416,0.10361108618191485,0.024567300814511483,-0.07232077195558029,0.07967284579097993,0.11185997007218837,-0.11686110415907777,0.0293889585483863,0.0825879822514087,-0.16011969364115175,-0.20676929269341893,-0.20872817529841636,0.10856870582321208
258,10.636412000007113,0.10399418278526858,0.025105641943013134,-0.07288403383262863,0.07981164753442657,0.11225432341397604,-0.117629084599416,0.028392579606474663,0.08158171673213742,-0.15958896495610989,-0.20801555994486165,-0.21017640461129747,0.11238106174056134
259,10.640168500001892,0.10437793470958404,0.02564586597753956,-0.07345097905094475,0.07994564817685429,0.11264382582875296,-0.11839447136285657,0.02739029756588758,0.08056855938011094,-0.159039910747352,-0.209226599640407,-0.21159724969196606,0.11619744366001084
260,10.646648800000548,0.10476231882169779,0.026187949534151926,-0.07402159493872679,0.08007481976566966,0.11302844452343459,-0.11915717636502751,0.026382282678143885,0.07954864205697623,-0.1584725133936839,-0.21040199822241523,-0.21299059389584554,0.12001713424923674
261,10.653272900002776,0.10514731185612386,0.02673186907289161,-0.07459586840080216,0.08019913517096201,0.11340814733976001,-0.11991711144517742,0.025368707139679206,0.07852209713578799,-0.15788675872584532,-0.21154135963928997,-0.2143563408261948,0.12383941378242636
262,10.65889320000133,0.10553289041902844,0.02727760090083587,-0.07517378591830041,0.0803185680946406,0.1137829027565152,-0.12067418838279283,0.02434974500736652,0.07748905740439507,-0.15728263603793197,-0.21264430515937593,-0.21569441390192517,0.12766356067243123
263,10.662981300003594,0.1059190309922475,0.027825121175163062,-0.07575533354840612,0.0804330930791729,0.1141526798912952,-0.12142831891425755,0.02332557211658165,0.07644965597166076,-0.1566601380938576,-0.21371047279265676,-0.21700475561077714,0.13148885200187174
264,10.667270299993106,0.10630570993734545,0.028374405906225246,-0.07634049692419184,0.0805426855159346,0.11451744850182632,-0.12217941474953217,0.022296366002280278,0.07540402617802482,-0.15601926113367312,-0.21473951728909915,-0.21828732710464538,0.13531456341384193
265,10.673148799993214,0.10669290349971297,0.028925430960626112,-0.07692926125453131,0.08064732165318958,0.114877178986869,-0.12292738758887405,0.021262305817079358,0.07435230150561199,-0.1553600048810788,-0.21573111175044737,-0.21954210938941196,0.13913996958154484
266,10.68129969999427,0.10708058781270237,0.02947817206430225,-0.077521611324093,0.08074697860365274,0.11523184238667628,-0.123672149139589,0.02022357223684763,0.07329461547736188,-0.15468237254523096,-0.21668495015058672,-0.22076910588769597,0.1429643456471919
267,10.685528100002555,0.10746873890179807,0.030032604805605496,-0.0781175314934143,0.08084163435156294,0.11558141038292745,-0.1244136111327687,0.019180347354570814,0.07223110154251391,-0.15398637081442895,-0.2176007483042428,-0.2219683434828651,0.1467869676612603
268,10.689697399997383,0.10785733268881993,0.03058870463838355,-0.07871700569905585,0.08093126775922607,0.11592585529808633,-0.1251516853399817,0.018132814576634636,0.07116189296570616,-0.1532720098537014,-0.21847824126980203,-0.223139869412559,0.1506071112201044
269,10.693294500000777,0.10824634499615658,0.031146446885056155,-0.07932001745383611,0.08101585857309142,0.11626515009426927,-0.12588628358998755,0.017081158541644315,0.07008712274230802,-0.15253930331158322,-0.2193171788281112,-0.22428374569144477,0.15442404988540762
270,10.698861900003976,0.10863575155102713,0.03170580673968486,-0.07992654984714635,0.08109538742951472,0.11659926837178995,-0.12661731778549304,0.01602556506014832,0.06900692354110649,-0.1517882683328882,-0.2201173229165674,-0.2254000454897173,0.1582370542944158
271,10.703368999995291,0.1090255279897699,0.03226675927103519,-0.08053658554534612,0.08116983586025543,0.11692818436747672,-0.12734469991998904,0.014966221058111694,0.06792142765443504,-0.15101892557403507,-0.2208784479898991,-0.22648885312168315,0.1620453926426414
272,10.708059900003718,0.10941564986215693,0.03282927942563027,-0.08115010679224005,0.08123918629769664,0.11725187295273819,-0.1280683420946539,0.013903314513173363,0.06683076694096955,-0.1502312992111822,-0.22160034259858713,-0.2275502656166518,0.1658483317649876
273,10.71400029999495,0.10980609263573288,0.03339334203079438,-0.08176709540963575,0.08130342207972985,0.11757030963133096,-0.12878815653526854,0.012837034382953619,0.06573507276076375,-0.14942541694516592,-0.22228281046880602,-0.22858439404196365,0.16964513712012638
274,10.719067500001984,0.11019683170017643,0.033958921797685136,-0.08238753279798312,0.0813625274542861,0.11788347053680102,-0.12950405560916728,0.011767570530935101,0.06463447590533315,-0.14860131000978535,-0.22292567134905855,-0.2295913641648705,0.1734350727723167
275,10.723859799996715,0.11058784237168276,0.03452599332431249,-0.08301139993709512,0.08141648758350858,0.11819133242957973,-0.1302159518422325,0.010695113646635633,0.06352910652633102,-0.14775901317691542,-0.22352876107060735,-0.23057131578538756,0.17721740189587493
276,10.72767659999954,0.11097909989736505,0.03509453109854298,-0.08363867738695036,0.08146528854751675,0.11849387269373986,-0.13092375793589464,0.009619855170908556,0.06241909407204242,-0.1468985647599446,-0.22409192932656063,-0.23152440014137848,0.18099138619463556
277,10.731360899997526,0.1113705794596731,0.03566450950108756,-0.0842693452885772,0.08150891734786121,0.11879106933348142,-0.13162738678415986,0.008541987237454621,0.061304567240992695,-0.14602000662446588,-0.22461503776378636,-0.2324507771069209,0.18475628503907884
278,10.735606799993548,0.11176225618082801,0.036235902808472095,-0.08490338336501999,0.08154736191072587,0.11908290096944202,-0.13232675149071277,0.007461702616455642,0.060185653945360275,-0.14512338420000523,-0.225097960310623,-0.2333506149647183,0.18851135603335678
279,10.740119199996116,0.11215410512727159,0.03680868519598976,-0.08554077092238746,0.08158061108984124,0.11936934683483107,-0.13302176538605678,0.006379194652937671,0.059062481266771875,-0.14420874648526444,-0.2255405850389656,-0.2342240925438846,0.19225585646953744
280,10.74436440000136,0.11254610131412904,0.03738283074063435,-0.08618148685098365,0.08160865466909438,0.11965038677131544,-0.13371234204466723,0.005294657192513306,0.05793517539917498,-0.1432761460458768,-0.2259428163856295,-0.23507140090720197,0.1959890444827213
281,10.750851200005854,0.11293821970968343,0.03795831342401317,-0.08682550962652112,0.0816314833647287,0.11992600122460481,-0.13439839530211012,0.004208284498401488,0.05680386158842149,-0.14232563900855139,-0.2263045756851064,-0.23589274320379705,0.19971017941332567
282,10.756742300000042,0.11333043523985951,0.03853510713523794,-0.08747281731141636,0.08164908882715659,0.12019617123975679,-0.135079839272139,0.0031202711720509767,0.0556686640765557,-0.14135728505534784,-0.22662580145037278,-0.23668833443538792,0.20341852246429368
283,10.760691000003137,0.11372272279271561,0.03911318567379254,-0.08812338755616728,0.08166146364239661,0.12046087845622697,-0.13575658836375878,0.0020308120674620705,0.05452970604364392,-0.140371147411506,-0.22690645093778117,-0.23745840262732307,0.20711333846684207
284,10.76903470000252,0.11411505722294125,0.039692522752376384,-0.08877719760081253,0.08166860133306288,0.12072010510261515,-0.13642855729820552,0.0009401021967742504,0.053387109540810856,-0.13936729282275498,-0.2271465013519223,-0.2382031899875904,0.21079389766692097
285,10.772857200005092,0.11450741335635856,0.0402730919997217,-0.0894342242764722,0.08167049635889509,0.12097383399107199,-0.1370956611257923,-0.0001516633669886891,0.05224099542093318,-0.13834579152597812,-0.22734594984532425,-0.238922952376019,0.21445947588065645
286,10.778497599996626,0.11489976599442496,0.04085486696338311,-0.09009444400696896,0.0816671441168135,0.12122204851137933,-0.13775781524260722,-0.0012442895843281072,0.05109148327677596,-0.1373067172250285,-0.227504811563014,-0.23961795701842334,0.21810935297455225
287,10.78318169999693,0.11529208991873514,0.04143782111249808,-0.09075783281052921,0.08165854094054184,0.1214647326247624,-0.1384149354071268,-0.002337581527737086,0.049938691393649245,-0.13625014707599645,-0.22762311676287592,-0.2402884795886283,0.2217428114761754
288,10.787350500002503,0.11568435989552013,0.042021927840517025,-0.09142436630156382,0.08164468409990834,0.1217018708575153,-0.13906693775677245,-0.0034313444484416434,0.04878273671558106,-0.13517616167637397,-0.22770091006627718,-0.24093480234758888,0.22535913640008703
289,10.793898500007344,0.11607655068014248,0.0426071604679025,-0.0920940196925284,0.0816255717998274,0.12193344829448818,-0.13971373882441981,-0.004525383847667144,0.04762373481585377,-0.13408484505199472,-0.2277382514899047,-0.2415572137988406,0.2289576162664491
290,10.799016899996786,0.11646863702158564,0.043193492244796766,-0.09276676779586263,0.0816012031789159,0.12215945057242962,-0.1403552555548297,-0.005619505553293633,0.046461799866487574,-0.13297628463641137,-0.22773521739898078,-0.2421560089160889,0.23253754405378801
291,10.80393819999881,0.11686059366693578,0.04378089635365698,-0.09344258502600841,0.08157157830773826,0.1223798638731806,-0.14099140532095925,-0.006713515800280961,0.04529704460659015,-0.13185057124868127,-0.22769190046216567,-0.24273148882843637,0.2360982166975026
292,10.808219600003213,0.11725239536585436,0.04436934591185737,-0.09412144540150597,0.08153669818665009,0.12259467491671278,-0.14162210594017952,-0.007807221306890815,0.04412958031486454,-0.13070779907756228,-0.2276084080394636,-0.24328395945241052,0.2396389342020389
293,10.812701100003324,0.1176440168750392,0.04495881397425756,-0.09480332254716772,0.0814965647433109,0.12280387095405831,-0.14224727569043474,-0.008900429339622474,0.04295951679110259,-0.1295480656678288,-0.2274848612580187,-0.24381373058610045,0.2431589995275595
294,10.818756199994825,0.11803543296267313,0.045549273535736776,-0.09548818969632973,0.08145118082990377,0.12300743976017033,-0.14286683332632844,-0.009992947780554873,0.041786962337396594,-0.1283714719055566,-0.22732139637481932,-0.24432111656352948,0.24665771959261018
295,10.823774200005571,0.11842661841285843,0.0461406975336936,-0.09617601969318011,0.08140055022000103,0.12320536962667221,-0.14348069809514127,-0.011084585205375537,0.04061202373334535,-0.12717812199480485,-0.2271181668104564,-0.2448064374372649,0.25013440738648046
296,10.831537200007006,0.11881754803003525,0.04673305885051051,-0.09686678499516435,0.08134467760503425,0.12339764935447983,-0.14408878975269315,-0.01217515097026346,0.03943480620590302,-0.12596812342260505,-0.2268753448374322,-0.2452700196201602,0.2535883837517868
297,10.835365599996294,0.11920819664338221,0.047326330315982726,-0.09756045767546617,0.08128356859032512,0.12358426824626119,-0.1446910285790247,-0.013264455306139695,0.0382554133984192,-0.12474158691851558,-0.22659312150319427,-0.24571219487546525,0.2570189778871663
298,10.840404999995371,0.1195985391111967,0.047920484709710325,-0.0982570094255635,0.08121722969064983,0.12376521609876111,-0.14528733539387065,-0.014352309404810719,0.03707394735019103,-0.12349862641478052,-0.22627170417411152,-0.2461332981041819,0.2604255260773092
299,10.84408739999344,0.11998855032525277,0.048515494763453314,-0.09895641155785798,0.0811456683254423,0.12394048319506444,-0.14587763157195865,-0.01543852548962099,0.035890508486762826,-0.12223935901808645,-0.2259113139839937,-0.2465336652547807,0.26380736950391637
300,10.848105800003395,0.12037820521513543,0.049111333163449435,-0.09965863500837797,0.08106889281367968,0.12411006029682757,-0.14646183905821125,-0.016522916877081108,0.03470519561956213,-0.12096390499075406,-0.22551218383160052,-0.2469136313288325,0.2671638528085941
301,10.8524713999941,0.12076747875254937,0.04970797255269458,-0.10036365033955415,0.08098691236849348,0.1242739386365381,-0.1470398803828639,-0.017605298028279977,0.033518105955361706,-0.11967238773630298,-0.22507455691181064,-0.24727352894313817,0.2704943232904056
302,10.856533700003638,0.12115634595560146,0.05030538553318623,-0.10107142774306767,0.08089973709156105,0.12443210990983727,-0.1476116786765283,-0.018685484596400105,0.03232933510973095,-0.11836493378835347,-0.22459868651012246,-0.2476136880773295,0.2737981305793646
303,10.86063209999702,0.12154478189305562,0.05090354466813011,-0.10178193704277057,0.0808073779672602,0.12458456626790891,-0.14817715768520384,-0.01976329347615528,0.031138977118922988,-0.11704167279932846,-0.22408483604955817,-0.24793443645044322,0.27707462696746094
304,10.864659500002745,0.12193276168855913,0.05150242248411047,-0.10249514769767817,0.08070984685658568,0.12473130030991604,-0.14873624178523231,-0.020838542851756535,0.029947124449707915,-0.11570273752617462,-0.22353327896784725,-0.24823609960705031,0.28032316771741966
305,10.868930199998433,0.12232026052483905,0.05210199147322411,-0.10321102880503315,0.0806071564908429,0.12487230507548432,-0.14928885599817213,-0.02191105224516978,0.028753868010432313,-0.11434826381609778,-0.22294429877755514,-0.24851900062712937,0.28354311097100243
306,10.87485029999516,0.12270725364786794,0.05270222409517843,-0.10392954910344084,0.08049932046510073,0.1250075740372449,-0.14983492600561604,-0.022980642564659495,0.027559297163640088,-0.11297839059316507,-0.22231818844073103,-0.2487834596970381,0.28673381768708484
307,10.878856199997244,0.1230937163709974,0.05330309277935375,-0.10465067697607568,0.08038635323141889,0.1251371010934392,-0.15037437816393662,-0.02404713614703783,0.02636349974125421,-0.11159325984463533,-0.2216552502763046,-0.24902979375549422,0.2898946517961788
308,10.88327279999794,0.12347962407905869,0.0539045699268304,-0.10537438045395824,0.08026827009189472,0.12526088056060752,-0.1509071395189726,-0.02511035680531855,0.02516656206059904,-0.11019301660607653,-0.22095579749235744,-0.24925831677679036,0.29302498173556296
309,10.88975930000015,0.12386495223242942,0.05450662791238072,-0.10610062721930272,0.08014508719143268,0.1253789071663478,-0.15143313782063142,-0.026170129885688544,0.023968568936860876,-0.10877780893294628,-0.22022015534378234,-0.24946934071799673,0.29612418284157543
310,10.89474760000303,0.1242496763710648,0.05510923908642659,-0.1068293846089343,0.08001682151024384,0.12549117604212406,-0.15195230153730244,-0.027226282326284833,0.02276960369000934,-0.1073477878627236,-0.21944866202416813,-0.24966317637732194,0.2991916387425234
311,10.900306600000476,0.12463377211849218,0.055712375776962364,-0.10756061961777516,0.07988349085605054,0.1255976827160915,-0.15246455987009563,-0.02827864272273551,0.0215697481490106,-0.10590310737310604,-0.2186416688380708,-0.2498401334891182,0.30222674207934885
312,10.904318700006115,0.12501721518576742,0.0563160102914434,-0.10829429890239857,0.07974511385595617,0.12569842310594553,-0.15296984276685327,-0.029327041388591955,0.020369082657835914,-0.10444392433721708,-0.2177995390908585,-0.2500005203172512,0.3052288940348075
313,10.910696000006284,0.12539998137539135,0.05692011491864033,-0.10903038878464957,0.07960170994806923,0.12579339351180457,-0.1534680809359581,-0.03037131041020317,0.019167686083581867,-0.10297039848632704,-0.2169226482594813,-0.25014464355317706,0.30819750378689104
314,10.914982799993597,0.1257820465851856,0.05752466193045922,-0.10976885525533178,0.07945329937284577,0.1258825906091371,-0.15395920585998688,-0.031411283708788776,0.0179656358234582,-0.10148269237031211,-0.2160113844935079,-0.25027280851978645,0.31113198950968207
315,10.91894570000295,0.12616338681212594,0.05812962358372785,-0.1105096639779592,0.07929990316411713,0.12596601144171157,-0.15444314980913867,-0.032446797100127434,0.01676300781094947,-0.09998097131075885,-0.21506614752120398,-0.2503853185920487,0.3140317783571313
316,10.923963399996865,0.12654397815613183,0.05873497212194812,-0.11125278029257203,0.07914154313985884,0.12604365341458273,-0.1549198458544378,-0.03347768834611919,0.015559876528369465,-0.09846540336157905,-0.2140873472083572,-0.2504824740695657,0.31689630438344774
317,10.927747599998838,0.12692379682381114,0.059340679777014994,-0.11199816921961542,0.07897824189272293,0.12611551428716214,-0.15538922788078366,-0.03450379720062674,0.014356315023855613,-0.0969361592820956,-0.21307540211951023,-0.25056457159902196,0.31972500658795316
318,10.931635000000824,0.12730281913215868,0.05994671877090229,-0.1127457954638806,0.0788100227803664,0.12618159216636768,-0.1558512305998951,-0.035524965447213806,0.013152394929472648,-0.09539341251644289,-0.21203073790752033,-0.25063190379987366,0.32251732769174074
319,10.936272199993256,0.12768102151220803,0.0605530613173158,-0.11349562341850798,0.07863690991562092,0.12624188549986815,-0.1563057895631624,-0.0365410369295129,0.011948186481803468,-0.09383733917840673,-0.21095378645129031,-0.25068475885485986,0.32527271341971353
320,10.939850900002057,0.1280583805126356,0.061159679623314187,-0.11424761716905187,0.07845892815652951,0.12629639306943055,-0.15675284117444585,-0.037551857580678825,0.010743758543987268,-0.09226811803772315,-0.20984498563779427,-0.2507234203620825,0.3279906127221654
321,10.944220300007146,0.1284348728033167,0.06176654589089819,-0.11500174049760643,0.07827610309623324,0.12634511398437645,-0.15719232270279612,-0.03855727545166209,0.009539178627731647,-0.09068593050278936,-0.2087047789870164,-0.25074816725833987,0.33067047820832346
322,10.948169600000256,0.12881047517883248,0.06237363231856863,-0.1157579568869927,0.07808846105273631,0.12638804767514075,-0.15762417229508682,-0.039557140737058745,0.00833451291608737,-0.08909096060279688,-0.20753361530635145,-0.2507592733561232,0.33331176617941227
323,10.952173700003186,0.12918516456192766,0.06298091110285373,-0.11651622952500588,0.0778960290585443,0.12642519388694687,-0.1580483289885631,-0.0405513058000632,0.00712982628990912,-0.08748339497012483,-0.20633194834741053,-0.25075700713225907,0.33591393670953545
324,10.956795399994007,0.12955891800691788,0.06358835443980636,-0.11727652130872294,0.07769883485018952,0.12645655267361977,-0.15846473272330508,-0.04153962519502055,0.005925182352661027,-0.08586342282169601,-0.20510023643050793,-0.2507416322293959,0.33847645403291854
325,10.960988999999245,0.12993171270304676,0.0641959345264719,-0.11803879484886969,0.07749690685765262,0.12648212439149947,-0.15887332435459728,-0.042521955688771415,0.00472064345205903,-0.0842312359376494,-0.20383894225675422,-0.2507134075741596,0.34099878712355575
326,10.9664344000048,0.1303035259777917,0.06480362356232704,-0.11880301247424713,0.0772902741936828,0.12650190969346203,-0.15927404566518716,-0.043498156281398775,0.003516270703741132,-0.08258702863712687,-0.20254853350199006,-0.25067258752357163,0.3434804107616265
327,10.973756599996705,0.1306743353001183,0.06541139375069012,-0.11956913623621643,0.07707896664302008,0.12651590952306047,-0.15966683937742193,-0.044468088233279475,0.002312124011502949,-0.08093099774669933,-0.20122948375647692,-0.2506194225700772,0.34592080758123656
328,10.97844000000623,0.13104411828368248,0.0660192173001037,-0.12033712791324185,0.07686301465145565,0.12652412510874017,-0.16005164916520367,-0.04543161509485984,0.001108262084193892,-0.07926334255647825,-0.19988227290041252,-0.2505541595844712,0.3483194705574035
329,10.983203700001468,0.13141285268997996,0.06662706642568932,-0.12110694901549053,0.07664244931476798,0.1265265579581422,-0.16042841966570448,-0.04638860273731518,-9.525754638137237e-05,-0.07758426476464632,-0.19850738782248212,-0.25047704190158443,0.3506759047744909
330,10.98955319999368,0.13178051643144204,0.06723491335047528,-0.12187856078948806,0.07641730236748862,0.12652320985249063,-0.1607970964907886,-0.04733891938922946,-0.0012983785093900312,-0.0758939684165774,-0.19710532273344167,-0.25038830946189045,0.3529896277866945
331,10.994013799994718,0.13214708757447702,0.06784273030669755,-0.12265192422282795,0.07618760617148589,0.12651408284105037,-0.16115762623814267,-0.04828243567026775,-0.002501045578430258,-0.0741926598459036,-0.1956765781651001,-0.2502881987158982,0.3552601694779314
332,10.999204899999311,0.13251254434245643,0.06845048953707422,-0.12342700004893416,0.07595339370440712,0.1264991792356734,-0.16150995650213157,-0.04921902461823787,-0.003703204654539703,-0.07248054761498143,-0.19422166034466068,-0.2501769426100215,0.3574870716222924
333,11.004371500006528,0.13287686511864535,0.06905816329605406,-0.12420374875187491,0.07571469854800238,0.12647850160541974,-0.16185403588435665,-0.05014856171675142,-0.004904802749518857,-0.07075784246018212,-0.19274108113113164,-0.25005477038243645,0.3596698864276847
334,11.009109499995247,0.13324002844907643,0.0696657238510393,-0.12498213057122662,0.07547155487630086,0.12645205277126412,-0.16218981400398597,-0.05107092492167442,-0.0061057879669780945,-0.0690247572463508,-0.19123535695222652,-0.24992190748491216,0.3618081758822104
335,11.014988700000686,0.1336020130453666,0.07027314348358324,-0.12576210550698697,0.07522399744368052,0.12641983580089894,-0.1625172415078749,-0.051985994678573816,-0.0073061094849099645,-0.06728150691837703,-0.1897050080217646,-0.2497785761940355,0.3639015138184485
336,11.019575800004532,0.1339627977874765,0.07088039449056321,-0.12654363332453608,0.07497206157287686,0.12638185400360835,-0.16283627008043103,-0.052893653941648744,-0.008505717542609027,-0.0655283084358198,-0.18815055937240857,-0.2496249966114789,0.36594948994669374
337,11.029662100001588,0.134322361726412,0.0714874491853289,-0.12732667355964442,0.0747157831428706,0.12633811092519698,-0.16314685245310673,-0.053793788201099826,-0.00970456343285494,-0.06376538068572579,-0.18657254217026684,-0.24946138785247732,0.36795171402047977
338,11.035796099997242,0.13468068408686715,0.07209427989882651,-0.1281111855235251,0.07445519857663352,0.12628861034293906,-0.1634489424134263,-0.054686285514691416,-0.010902599500251459,-0.061992944377231136,-0.18497149393271475,-0.24928796904789904,0.3699078188397981
339,11.04017659999954,0.13503774426980805,0.07270085898069864,-0.12889712830792857,0.0741903448287129,0.12623335626052315,-0.16374249481346587,-0.05557103653721377,-0.012099779143037644,-0.06021122192552401,-0.18334795743477258,-0.2491049595014871,0.37181746046846315
340,11.044383300002664,0.1353935218549965,0.07330715880035986,-0.1296844607902764,0.07392125937269425,0.12617235290298384,-0.16402746557776562,-0.056447934541537535,-0.01329605681293767,-0.05842043734435792,-0.18170247917518145,-0.24891257729633914,0.3736803146999532
341,11.048743199993623,0.13574799660345335,0.07391315174804786,-0.13047314163883195,0.07364798018858348,0.12610560471164792,-0.16430381171077696,-0.05731687543333762,-0.014491388003582784,-0.05662081616397132,-0.1800356077797943,-0.24871103757427698,0.37549607287985826
342,11.053309900002205,0.13610114845986096,0.07451881023585048,-0.13126312931790574,0.07337054575012815,0.12603311633917733,-0.1645714913039861,-0.05817775775680709,-0.015685729233828893,-0.054812585363739744,-0.17834789300085427,-0.24850055261401743,0.3772644414663224
343,11.064638900003049,0.13645295755490472,0.07512410669870927,-0.13205438209309456,0.07308899501214469,0.1259548926446756,-0.16483046354271408,-0.05903048269976591,-0.016879038036929608,-0.052995973294318786,-0.17663988634370528,-0.24828133316065243,0.37898514566041597
344,11.07061860000249,0.13680340420755377,0.07572901359539944,-0.1328468580365522,0.07280336739779066,0.1258709386888349,-0.16508068871249235,-0.059874954105396366,-0.018071272956627787,-0.051171209575414836,-0.17491214134774996,-0.24805359013124673,0.3806579340707453
345,11.075526600005103,0.1371524689272802,0.0763335034094868,-0.13364051503228974,0.07251370278577914,0.12578125972907991,-0.1653221282048805,-0.060711078480051354,-0.019262393552716344,-0.04933852497310938,-0.1731652132097332,-0.24781753578888333,0.3822825803060044
346,11.08246419999341,0.13750013241621692,0.07693754865026113,-0.13443531078150228,0.07222004149757598,0.12568586121466155,-0.16555474452266314,-0.06153876500137023,-0.02045236040841029,-0.04749815128232815,-0.17139965822212397,-0.24757338291316347,0.38385887965999227
347,11.086388600000646,0.13784637557125387,0.07754112185364588,-0.13523120280791912,0.07192242428453625,0.12558474878172998,-0.16577850128453844,-0.06235792552069091,-0.02164113512793752,-0.04565032123601654,-0.1696160319265158,-0.24732134257749158,0.3853866436674074
348,11.090418399995542,0.1381911794860723,0.07814419558308423,-0.13602814846317546,0.07162089231507827,0.12547792824845144,-0.1659933632294423,-0.06316847455342318,-0.022828680322554494,-0.04379526843991792,-0.16781488798678024,-0.2470616224609141,0.38686569690972644
349,11.095561699999962,0.13853452545311767,0.07874674243040192,-0.13682610493220426,0.07131548716191256,0.1253654056102157,-0.16619929622061017,-0.06397032927063383,-0.02401495959191679,-0.0419332273124389,-0.1659967783151914,-0.24679442645607022,0.3882958774246972
350,11.099899499997264,0.13887639496551135,0.07934873501664719,-0.13762502923864692,0.07100625078929673,0.1252471870349318,-0.1663962672493235,-0.06476340949063175,-0.025199937506327885,-0.04006443301549313,-0.1641622530396596,-0.2465199550914583,0.3896770385195617
351,11.104625599997236,0.13921676971890098,0.07995014599290845,-0.13842487825028107,0.0706932255403453,0.1251232788584061,-0.16658424443830708,-0.06554763767023826,-0.026383579592166945,-0.03818912137694473,-0.16231186106774806,-0.2462384061737751,0.39100905030558236
352,11.108749100007117,0.13955563161325021,0.08055094804110983,-0.139225608684464,0.07037645412436842,0.12499368757977809,-0.16676319704473033,-0.06632293890179143,-0.027565852320309343,-0.036307528806708,-0.16044615040025295,-0.24594997492772291,0.39229179944700393
353,11.113058400005684,0.1398929627545675,0.08115111387478496,-0.14002717711358917,0.07005597960421055,0.12485841985700963,-0.16693309546279847,-0.0670892409074293,-0.028746723092897747,-0.03441989222160285,-0.15856566753516357,-0.2456548538091526,0.3935251874383153
354,11.11705630000506,0.14022874545657413,0.08175061623982918,-0.14082953997055464,0.06973184538364403,0.12471748250244782,-0.1670939112260318,-0.06784647403036739,-0.029926160229967275,-0.032526448978007015,-0.15667095715603782,-0.24535323273896859,0.3947091305134515
355,11.122825400001602,0.1405629622423119,0.0823494279152307,-0.14163265355424148,0.0694040951947916,0.12457088247844288,-0.16724561700920976,-0.06859457122618769,-0.031104132958463995,-0.030627436797583892,-0.15476256194409457,-0.24504529954178292,0.39584356136612653
356,11.127049600007012,0.14089559584569034,0.08294752171378071,-0.14243647403500076,0.06907277308560368,0.12441862689301643,-0.16738818662993668,-0.06933346805231072,-0.032280611403084775,-0.028723093683405372,-0.1528410225774584,-0.24473124035299623,0.39692843061881367
357,11.130680500005838,0.141226629212974,0.08354487048276292,-0.14324095746014712,0.06873792340738201,0.12426072299556741,-0.16752159504977987,-0.07006310265927733,-0.0334555665792071,-0.026813657831565394,-0.1509068773246805,-0.24441123952349114,0.3979637059791186
358,11.135584100004053,0.1415560455042098,0.0841414471046224,-0.14404605975945664,0.06839959080234075,0.12409717817260833,-0.16764581837498607,-0.07078341577631515,-0.03462897038281319,-0.024899367555408548,-0.14896066129431607,-0.2440854792295362,0.3989493700182647
359,11.139868500002194,0.14188382809459493,0.08473722449761416,-0.14485173675066734,0.06805782019126873,0.12392799994356794,-0.1677608338568916,-0.07149435069541017,-0.03580079557967172,-0.022980461218488436,-0.14700290624701098,-0.2437541397546478,0.3998854200132493
360,11.14462160000403,0.1422099605757855,0.08533217561643165,-0.14565794414498096,0.06771265676124366,0.12375319595663146,-0.16786661989199467,-0.0721958532550677,-0.036971015797970075,-0.02105717716031288,-0.14503414009416996,-0.2434173997556675,0.40077186866780806
361,11.148616299993591,0.14253442675714642,0.0859262734528154,-0.14646463755256411,0.06736414595345039,0.12357277398461404,-0.16796315602165196,-0.07288787181956698,-0.03813960552005264,-0.019129753622375092,-0.14305488680444978,-0.24307543555788094,0.4016087425802937
362,11.152838499998325,0.1428572106669431,0.08651949103614183,-0.14727177248804724,0.0670123334510944,0.12338674192088035,-0.16805042293144032,-0.07357035726182379,-0.03930654006828041,-0.017198428688619847,-0.14106566649771388,-0.24272841987154,0.4023960799262512
363,11.157730699997046,0.1431782965534751,0.08711180143399272,-0.14807930437601957,0.0666572651673848,0.12319510777535393,-0.16812840245028135,-0.07424326294354776,-0.04047179558443728,-0.015263440233741005,-0.1390669950701256,-0.24237652133983065,0.4031339303634146
364,11.161563700006807,0.14349766888615245,0.08770317775270568,-0.14888718855651967,0.06629898723363839,0.12299787967063465,-0.16819707754930624,-0.07490654469450275,-0.04163534901124648,-0.013325025864560502,-0.13705938456845124,-0.2420199055086254,0.4038223566305713
365,11.165321399996174,0.14381531235651493,0.08829359313790627,-0.14969538029051951,0.06593754598746199,0.12279506583818561,-0.16825643234041718,-0.07556016079626061,-0.04279717808109443,-0.011383422852963605,-0.1350433435972956,-0.2416587360770434,0.40446143661213635
366,11.16881600000488,0.14413121187919484,0.08888302077502189,-0.1505038347654012,0.0655729879610126,0.12258667461455901,-0.16830645207450778,-0.07620407196537435,-0.04395726130956286,-0.009438868057441012,-0.13301937753918017,-0.24129317519524665,0.40505126436818567
367,11.17369179999514,0.14444535259282357,0.08947143388977757,-0.1513125071004239,0.06520535986934135,0.12237271443764514,-0.1683471231392707,-0.07683824133924642,-0.04511557798701397,-0.00749159784612731,-0.13098798836498293,-0.24092338255707324,0.4055919489790523
368,11.179447999995318,0.1447577198608823,0.0900588057486739,-0.15212135235217958,0.06483470859878951,0.12215319384297911,-0.16837843305667852,-0.07746263445748063,-0.04627210816340433,-0.0055418480294444575,-0.12894967360240056,-0.24054951511862832,0.4060836129810349
369,11.183290700006182,0.14506829927249706,0.0906451096594473,-0.1529303255200357,0.06446108119551154,0.1219281214601358,-0.16840037048014425,-0.0780772192378391,-0.04742683263716623,-0.003589853798170315,-0.12690492649288732,-0.2401717279742299,0.4065263910823147
370,11.186958999998753,0.14537707664317925,0.09123031897151326,-0.15373938155156355,0.06408452485410218,0.12169750600914338,-0.1684129251914072,-0.07868196595910211,-0.048579732948437856,-0.0016358496684198854,-0.12485423658499721,-0.23979017455904897,0.40692042953729995
371,11.191633199996431,0.14568403801551136,0.09181440707639223,-0.15454847534795127,0.06370508690628417,0.12146135629694327,-0.16841608809716468,-0.07927684724272606,-0.049730791369891635,0.00031993057427470993,-0.1227980891090217,-0.2394050066975181,0.40726588652243956
372,11.196024499993657,0.14598916965977873,0.0923973474081188,-0.15535756176939963,0.06332281480971153,0.12121968121389184,-0.1684098512254208,-0.07986183802969461,-0.05087999090042956,0.002277253933593895,-0.12073696472699899,-0.23901637507234272,0.40756293288634976
373,11.199876300001051,0.14629245807454785,0.09297911344363398,-0.15616659564049998,0.06293775613687974,0.12097248973028098,-0.1683942077215547,-0.08043691555977475,-0.05202731526051788,0.004235888265558051,-0.11867133953241941,-0.2386244298333255,0.4078117534335965
374,11.208546800000477,0.14659388998719147,0.093559678703161,-0.15697553175559234,0.06254995856412836,0.12071979089288451,-0.1683691518440628,-0.08100205934836507,-0.05317274889173218,0.006195602349492057,-0.11660168498783027,-0.23822932155253201,0.40801254952352806
375,11.212726900004782,0.14689345235436121,0.09413901675056432,-0.15778432488410238,0.062159469860773586,0.1204615938214832,-0.16833467895994528,-0.08155725116515233,-0.054316276961269484,0.008156165976122877,-0.11452846820640468,-0.23783120203890915,0.4081655422583859
376,11.216516800006502,0.14719113236240833,0.09471710119369212,-0.1585929297758552,0.06176633787831598,0.12019790770536787,-0.1682907855396018,-0.08210247501366512,-0.05545788536932038,0.010117350049176193,-0.11245215138806729,-0.23743022505699432,0.40827097226593345
377,11.220594099999287,0.14748691742775258,0.09529390568470165,-0.15940130116636328,0.0613706105397695,0.11992874179979345,-0.16823746915124188,-0.08263771710451256,-0.05659756076048667,0.012078926671385447,-0.11037319163256168,-0.2370265463423949,0.40832909594551875
378,11.224803300006895,0.14778079519720047,0.09586940392036769,-0.1602093937820865,0.06097233582912631,0.11965410542237245,-0.1681747284549541,-0.08316296583314194,-0.05773529053130221,0.014040669210019787,-0.10829204150279602,-0.23662032197481586,0.4083401825875317
379,11.22906779999903,0.14807275354821292,0.09644356964237326,-0.16101716234566318,0.06057156178089957,0.11937400794945682,-0.16810256319648698,-0.08367821175849009,-0.05887106282601824,0.016002352355216187,-0.10620914836717173,-0.2362117069383882,0.4083045128421844
380,11.232687499999884,0.148362780589123,0.09701637663758324,-0.1618245615811103,0.06016833646979333,0.11908845881257181,-0.1680209742007577,-0.08418344757442202,-0.060004866530291516,0.017963752170795096,-0.10412495367989684,-0.2358008549977967,0.4082223776849691
381,11.239451899993584,0.14865086465930435,0.09758779873830091,-0.16263154621899215,0.05976270800051976,0.11879746749485849,-0.16792996336514474,-0.08467866808146737,-0.06113669126577947,0.01992464614265244,-0.10203989345037287,-0.2353879186034292,0.40809408057624014
382,11.243891999998596,0.1489369943292911,0.09815780982250734,-0.16343807100155616,0.05935472449774062,0.11850104352755961,-0.16782953365253156,-0.085163870162769,-0.06226652738291698,0.021884813250325017,-0.09995439893214964,-0.2349730500642182,0.4079199426246031
383,11.248317200006568,0.14922115840084965,0.09872638381408416,-0.1642440906878347,0.058944434096115536,0.11819919648653146,-0.1677196890839117,-0.08563905276243909,-0.06339436596678047,0.023844034064993535,-0.09786889662253964,-0.2345564033790566,0.40770030534118684
384,11.252321899999515,0.1495033459070029,0.09929349468301946,-0.1650495600587098,0.058531884930451486,0.11789193598867341,-0.1676004347304908,-0.08610421686150403,-0.06452019884746134,0.025802090847511675,-0.0957838079494147,-0.23413813393930685,0.40743552991928206
385,11.26341020000109,0.14978354611200745,0.09985911644559622,-0.16585443392193913,0.05811712512598218,0.1175792716883401,-0.16747177670534982,-0.08655936545325121,-0.06564401860307169,0.027758767639487727,-0.0936995496472522,-0.2337183983882471,0.40712599748327954
386,11.2688671000069,0.15006174851128445,0.10042322316456379,-0.16665866711714064,0.0577002027887544,0.1172612132737421,-0.16733372215467196,-0.08700450352278699,-0.06676581856876729,0.029713850363705517,-0.09161653397585667,-0.23329735627885806,0.4067721112181872
387,11.27327890000015,0.1503379428313044,0.10098578894929168,-0.16746221452073412,0.05728116599610382,0.11693777046327139,-0.1671862792484409,-0.08743963802448507,-0.0678855928556817,0.03166712693566692,-0.08953516821946848,-0.23287517135716101,0.4063742967454437
388,11.277619700005744,0.15061211902942642,0.10154678795590576,-0.1682650310508366,0.056860062787258005,0.1166089530017201,-0.1670294571705961,-0.08786477785673175,-0.06900333637227984,0.03361838736762371,-0.08745585462476019,-0.23245201099954513,0.40593300008841027
389,11.285516000003554,0.1508842672936929,0.10210619438740574,-0.16906707167210924,0.056436941154054905,0.11627477065640085,-0.1668632661087315,-0.08827993383877858,-0.07011904483788584,0.03556742386057202,-0.08537899077605501,-0.23202804475611385,0.40544868516763827
390,11.290303799993126,0.1511543780425795,0.10266398249376406,-0.16986829140055382,0.05601184903176825,0.11593523321323548,-0.1666877172433668,-0.0886851186890928,-0.07123271479004069,0.03751403088421817,-0.08330496940732986,-0.23160344342903424,0.4049218314870575
391,11.29402349999873,0.15142244192470164,0.1032201265720058,-0.17066864530825648,0.05558483429003405,0.11559035047280472,-0.16650282273687791,-0.08908034700040367,-0.07234434358917473,0.039458005246741513,-0.08123417771433353,-0.2311783779306582,0.4043529319133631
392,11.299087000006692,0.1516884498184774,0.1037746009662696,-0.17146808852807788,0.055155944723915766,0.11524013224639199,-0.16630859572209794,-0.08946563521144354,-0.07345392941499386,0.041399146153424084,-0.0791669969786258,-0.23075301803026,0.4037424902945505
393,11.304564399993978,0.15195239283174805,0.10432738006784961,-0.17226657625828742,0.05472522804510231,0.1148845883520678,-0.16610505029068426,-0.08984100157838194,-0.07456147125911035,0.043337255253531784,-0.07710380250503357,-0.23032753221468974,0.40309102024167587
394,11.310494699995616,0.15221426230135648,0.10487843831521873,-0.17306406376714162,0.0542927318732477,0.11452372861080441,-0.16589220148126912,-0.09020646614596568,-0.07566696892009021,0.04527213668723891,-0.07504496399776919,-0.2299020887202031,0.402399045912056
395,11.314852199997404,0.15247404979268447,0.10542775019403325,-0.1738605063974045,0.05385850372744635,0.11415756284260777,-0.16567006526737582,-0.09056205072256673,-0.07677042300599807,0.04720359714003451,-0.07299084543430713,-0.22947685661209816,0.40166710357145397
396,11.319647800002713,0.15273174709914922,0.10597529023711892,-0.1746558595708098,0.05342259101781245,0.11378610086260768,-0.16543865854504655,-0.09090777885011057,-0.0778718349398179,0.04913144590465675,-0.07094180456517585,-0.22905200566085374,0.4008957410640267
397,11.324861000000965,0.1529873462416597,0.10652103302443805,-0.17545007879246263,0.05298504103724423,0.11340935247713775,-0.1651979991201635,-0.09124367577431791,-0.07897120696080785,0.051055494930406384,-0.06889819404079925,-0.2286277054012385,0.4000855151515614
398,11.329147399999783,0.15324083946803405,0.10706495318303788,-0.1762431196551797,0.05254590095328924,0.11302732747981249,-0.16494810569560292,-0.09156976842546,-0.08006854212088066,0.052975558859515916,-0.06686036156753439,-0.22820412374059593,0.39923698966807336
399,11.33328760000586,0.15349221925237783,0.10760702538698,-0.17703493784376756,0.0521052178000935,0.11264003564764202,-0.16468899785820673,-0.09188608539009958,-0.08116384427258654,0.05489145505873203,-0.06482864893769227,-0.22778142581756344,0.3983507340162496
400,11.337596099998336,0.153741478294424,0.1081472243572514,-0.17782548913923782,0.051663038470538346,0.11224748673722468,-0.16442069606563317,-0.09219265688252647,-0.08225711805452796,0.05680300364123822,-0.06280339246729455,-0.22735977351667636,0.397427321416752
401,11.342510699993,0.1539886095188356,0.10868552486165728,-0.1786147294229589,0.05121940970846401,0.11184969048100182,-0.16414322163311776,-0.0924895147207045,-0.0833483688746787,0.058710027481416134,-0.060784923153380764,-0.22693932557795904,0.39646732872211493
402,11.347511999993005,0.15423360607447112,0.10922190171469616,-0.179402614680744,0.05077437810103756,0.11144665658361075,-0.1638565967201821,-0.0927766922992186,-0.08443760289685162,0.060612352234980085,-0.058773566610948756,-0.22652023865926682,0.395471338257935
403,11.352425499993842,0.1544764613336137,0.10975632977741762,-0.18018910100687532,0.05032799007123644,0.1110383947182695,-0.16356084431720141,-0.09305422456461585,-0.08552482703422494,0.06250980637142899,-0.05676964357309066,-0.2261026683555006,0.3944399398597852
404,11.356677300005686,0.15471716889116438,0.11028878395726265,-0.18097414460806285,0.04988029187045332,0.11062491452319197,-0.1632559882318015,-0.0933221479931579,-0.08661004894560284,0.06440222121375197,-0.05477347064284544,-0.22568677077838836,0.39337373315937635
405,11.366393400006928,0.15495572256380027,0.11081923920788699,-0.18175770180733786,0.04943132957119339,0.11020622559800866,-0.16294205307504483,-0.09358050057338611,-0.08769327704412065,0.0662894309928463,-0.05278536038670709,-0.22527270480790473,0.3922733301163365
406,11.37625499999558,0.15519211638909755,0.11134767052896707,-0.18253972904787905,0.04898114905984673,0.10978233750009815,-0.16261906424730457,-0.09382932178477238,-0.08877452051513762,0.06817127291154891,-0.05080562111544083,-0.22486063331426875,0.39113935667660876
407,11.3818339999998,0.15542634462462024,0.11187405296598812,-0.18332018289677027,0.048529796029590774,0.10935325974083591,-0.16228704792383547,-0.09406865257817826,-0.08985378933668332,0.07004758721498856,-0.04883455704073025,-0.22445072339125935,0.38997245349311616
408,11.385706999994,0.15565840174697498,0.11239836161001404,-0.18409902004868806,0.048077315973350375,0.10891900178172934,-0.161946031039972,-0.09429853535601093,-0.09093109429959217,0.07191821726154171,-0.04687246752414365,-0.22404314534045847,0.38877327339096324
409,11.389102999994066,0.15588828245083222,0.11292057159743836,-0.1848761973295171,0.047623754176890944,0.10847957303047309,-0.16159604127601734,-0.09451901394546625,-0.09200644701819022,0.07378300956882974,-0.044919646326332954,-0.2236380706534257,0.3875424759863756
410,11.39468460000353,0.15611598164791457,0.11344065810971626,-0.1856516716998926,0.04716915571203564,0.10803498283698147,-0.16123710704199973,-0.09473013357147078,-0.09307985993104193,0.07564181383297237,-0.04297638154405505,-0.22323567022567592,0.3862807232111974
411,11.398349099996269,0.15634149446595283,0.1139585963730774,-0.1864254002586693,0.046713565430018464,0.10758524048943659,-0.16086925746237635,-0.09493194082931979,-0.09415134629447645,0.07749448293158324,-0.041042956110895576,-0.2228361135291436,0.3849886766512232
412,11.402303900002153,0.1565648162476105,0.11447436165821992,-0.18719734024631682,0.046257027954964336,0.10713035521038289,-0.16049252236076086,-0.09512448366243031,-0.0952209201753833,0.0793408729174494,-0.03911964782906514,-0.2224395685819622,0.38366699729846077
413,11.406568999998854,0.1567859425493772,0.11498792927998579,-0.18796744904824197,0.045799587677455955,0.1066703361528446,-0.16010693224468817,-0.09530781133528467,-0.09628859644444822,0.08118084301914658,-0.03720672817988106,-0.2220462018525483,0.3823163458021726
414,11.410831800007143,0.15700486914043124,0.1154992745970175,-0.18873568419803777,0.04534128874827386,0.10620519239648524,-0.1597125182903359,-0.09548197439975437,-0.09735439076802724,0.08301425563713073,-0.03530446244875259,-0.2216561777435488,0.3809373806514408
415,11.414726000002702,0.157221592001473,0.1160083730113965,-0.18950200338065884,0.044882175072286826,0.1057349329438031,-0.15930931232732676,-0.09564702466924448,-0.09841831959642426,0.08484097632689101,-0.03341311047688475,-0.22126965776398863,0.37953075751884296
416,11.418728799995732,0.15743610732352886,0.11651519996826336,-0.19026636443552447,0.04442229030244037,0.10525956671640341,-0.15889734682361195,-0.09580301519224013,-0.09948040014781091,0.08666087378873517,-0.031532926003387425,-0.22088680013766748,0.37809712922948524
417,11.423213000001851,0.15764841150672662,0.11701973095542031,-0.1910287253595488,0.04396167783390131,0.10477910255134835,-0.1584766548703716,-0.09595000022012969,-0.10054065039274147,0.088473819850645,-0.029664156509229097,-0.22050775969237543,0.37663714363328815
418,11.427198799996404,0.15785850115904332,0.11752194150291645,-0.1917890443100987,0.043500380798355436,0.10429354919757798,-0.1580472701670629,-0.09608803517925191,-0.10159908903700832,0.09027968943761815,-0.027807043999679624,-0.220132687626137,0.3751514427300925
419,11.431346800003666,0.15806637309502586,0.11802180718261583,-0.19254727960788037,0.04303844205842066,0.10380291531242494,-0.15760922700661517,-0.09621717664623702,-0.10265573550391086,0.09207836054611743,-0.02596182490969281,-0.21976173150795925,0.3736406630109012
420,11.43559280000045,0.1582720243344851,0.11851930360774916,-0.19330338973975503,0.042575904202181596,0.10330720945820579,-0.15716256026072342,-0.09633748231914481,-0.10371060991711817,0.09386971421669135,-0.024128729635555166,-0.2193950352455128,0.3721054348337212
421,11.439907899999524,0.15847545210116395,0.1190144064324492,-0.19405733336148406,0.04211280953788002,0.10280644009890037,-0.15670730536530653,-0.0964490109883056,-0.10476373308262742,0.09565363450242634,-0.022307983034870173,-0.21903273908543355,0.3705463824247683
422,11.444187899993269,0.15867665382138055,0.11950709135127051,-0.19480906930040506,0.04164920008872963,0.10230061559691647,-0.15624349830610393,-0.09655182251226237,-0.10581512647162937,0.09743000844157887,-0.02049980517751971,-0.21867497955048865,0.36896412393799777
423,11.447980400000231,0.15887562712264644,0.11999733409869376,-0.19555855655803864,0.04118511758783767,0.10178974420993384,-0.1557711756043967,-0.09664597779582709,-0.1068648122018631,0.09919872602659967,-0.018704411659082574,-0.21832188917364415,0.3673592714581104
424,11.452257600001758,0.15907236983226095,0.12048511044861518,-0.19630575431262717,0.04072060347323049,0.10127383408784796,-0.15529037430290196,-0.09673153876903427,-0.10791281301792637,0.10095968017679474,-0.016922013162190965,-0.21797359685869713,0.36573243193858374
425,11.46042370000214,0.15926687997588165,0.12097039621382151,-0.19705062192160616,0.04025569888297743,0.1007528932698033,-0.15480113195175652,-0.09680856836098273,-0.10895915227609534,0.10271276671636237,-0.015152815081388465,-0.21763022872451265,0.3640842067927879
426,11.4645523000072,0.15945915577607184,0.12145316724545091,-0.19779311892400828,0.039790444650467695,0.10022692968128293,-0.15430348659462234,-0.0968771304751846,-0.11000385393274664,0.1044578843431255,-0.013397018336623824,-0.21729190826120875,0.3624151907704493
427,11.469088300000294,0.1596491956508256,0.12193339943243997,-0.1985332050428012,0.03932488129977109,0.09969595113125296,-0.1537974767549707,-0.09693728997122346,-0.11104694253067768,0.10619493459577355,-0.011654819028921567,-0.2169587557354637,0.36072597145496066
428,11.473402899995564,0.15983699821207076,0.12241106870095718,-0.1992708401871599,0.038859049041091144,0.09915996530938366,-0.15328314142250235,-0.09698911263679484,-0.11208844318181475,0.10792382181776482,-0.009926407157655958,-0.21663088751901635,0.3590171275743206
429,11.477626000007149,0.1600225622641502,0.12288615101382323,-0.20000598445467402,0.03839298776639446,0.09861897978336004,-0.1527605200397784,-0.09703266515703966,-0.11312838154708152,0.10964445310833944,-0.008211966933232902,-0.21630841521195687,0.357289227249538
430,11.4813381999993,0.16020588680228287,0.12335862236991867,-0.20073859813349165,0.03792673704515851,0.09807300199629634,-0.15222965248911133,-0.09706801508958911,-0.11416678381068342,0.11135673826959205,-0.006511677121552201,-0.21599144473387016,0.3555428273356028
431,11.48596269999689,0.16038697101100424,0.12382845880357932,-0.2014686417044008,0.03746033612024076,0.09752203926429376,-0.15169057907970432,-0.09709523083720766,-0.11520367665124365,0.11306058975115264,-0.00482571063700862,-0.21568007620040777,0.3537784729233043
432,11.489958899997871,0.16056581426258756,0.12429563638398049,-0.20219607584284957,0.036993823903889306,0.09696609877413223,-0.15114334053507375,-0.09711438161892746,-0.11623908721490168,0.11475592259247258,-0.0031542347303965498,-0.21537440395485719,0.35199669708758674
433,11.493898000000629,0.1607424161154461,0.12476013121451024,-0.20292086142090682,0.03652723897388935,0.09640518758108664,-0.1505879779807432,-0.09712553744449683,-0.11727304308675257,0.11644265436508759,-0.001497411614559778,-0.21507451594039073,0.35019802079254636
434,11.498330100002931,0.16091677631251725,0.12522191943213257,-0.20364295950916408,0.03606061956981935,0.09583931260689305,-0.1500245329322205,-0.09712876909152593,-0.11830557225791385,0.118120705113991,0.00014460156701478284,-0.2147804932943202,0.3483829526118223
435,11.50278769999568,0.16108889477962887,0.12568097720674115,-0.20436233137858067,0.03559400358941706,0.09526848063788128,-0.14945304728325523,-0.09712414807963356,-0.11933670309306639,0.11978999729721015,0.0017716529584738537,-0.21449241045875117,0.3465519881339068
436,11.506806000004872,0.1612587716238485,0.1261372807405046,-0.20507893850227285,0.035127428585084136,0.09469269832325307,-0.1488735632943962,-0.0971117466454956,-0.12036646429858447,0.12145045572146573,0.0033835957422946273,-0.2142103351939563,0.34470560952229445
437,11.51043949999439,0.16142640713181602,0.12659080626720362,-0.20579274255724891,0.034660931760491856,0.09411197217352085,-0.1482861235818671,-0.09709163771938711,-0.12139488489020511,0.123102007477522,0.004980288044938851,-0.21393432856454134,0.3428442853296789
438,11.51475919999939,0.16159180176806034,0.12704153005156132,-0.20650370542609153,0.03419454996731113,0.09352630855909654,-0.1476907711067454,-0.09706389490113733,-0.12242199416102528,0.12474458187406086,0.006561592717380135,-0.213664444720277,0.340968471185241
439,11.52147619999596,0.16175495617330063,0.1274894283885668,-0.20721178919858885,0.03372831970204929,0.09293571370903779,-0.14708754916447309,-0.09702859243878045,-0.12344782164706536,0.12637811037963576,0.0081273771170684,-0.21340073119148628,0.3390786108267873
440,11.527238399998168,0.16191587116273254,0.12793447760279336,-0.20791695617331601,0.03326227710298519,0.0923401937099677,-0.1464765013745934,-0.09698580520660562,-0.1244723970981045,0.12800252656646274,0.009677513075823095,-0.21314322975176334,0.3371751353518244
441,11.535439800005406,0.16207454772430008,0.12837665404771176,-0.2086191688591677,0.03279645794721689,0.09173975450510126,-0.14585767167080166,-0.09693560868411616,-0.1254957504515333,0.1296177660451785,0.011211876774762737,-0.21289197629260576,0.3352584633098648
442,11.5401625999948,0.16223098701695343,0.12881593410499906,-0.20931838997684404,0.032330897647798944,0.09113440189341628,-0.14523110429130878,-0.09687807893528129,-0.12651791180198463,0.13122376640951833,0.012730348744538919,-0.21264700044639034,0.33332900211007344
443,11.543736199993871,0.16238519036889332,0.12925229418384393,-0.21001458246029053,0.03186563125098944,0.09052414152897165,-0.14459684376942375,-0.09681329258749312,-0.12753891137156373,0.13282046718459917,0.014232813489886632,-0.212408325149229,0.3313871478973931
444,11.548062100002426,0.16253715927580237,0.12968571072024893,-0.2107077094580935,0.03140069343358946,0.08990897892036429,-0.14395493492441394,-0.09674132681442572,-0.12855877947527886,0.13440780977040737,0.01571915889524644,-0.21217596604673528,0.3294332848637688
445,11.552356900006998,0.16268689539906392,0.13011616017633057,-0.2113977343348322,0.03093611850035482,0.08928891943037957,-0.14330542285263065,-0.0966622593207031,-0.12957754648556188,0.13598573738346376,0.017189275785881208,-0.21194993143103413,0.32746778471537646
