,time,x,y,z,vx,vy,vz,ax,ay,az,jx,jy,jz
0,10.49765330000082,-0.03553507180416311,-0.025253886485147366,0.05650584644419375,0.002549759825197174,-0.0007471988545987377,0.004948712243392885,0.013702909140490846,0.059786613046729,-0.00541910623450297,0.08395580961733048,0.07031573957446846,-0.05855834710862329
1,10.501902900010464,-0.03552356075400283,-0.025256624882942964,0.056527869162180326,0.002611725130571843,-0.00047978585171445535,0.004923954438343067,0.01407808939314065,0.06009914248500946,-0.005681446319917591,0.08424140514656507,0.06979171221626962,-0.05905286900355405
2,10.505750299998908,-0.035511769537844205,-0.025258167218047557,0.056549778822958016,0.0026753669897721533,-0.00021098384202694652,0.00489802139018112,0.014454525623721,0.06040930685392913,-0.005945986212915961,0.0845188519437183,0.06925539143812447,-0.059544498208429636
3,10.510636899998644,-0.035499690663936025,-0.025258507317514025,0.05657157016177392,0.0027406909247339826,5.9196501356762564e-05,0.004870903314149312,0.01483218130499877,0.060717051144853,-0.006212712699689617,0.08478807190058756,0.06870670271728685,-0.06003309627776483
4,10.514617900000305,-0.03548731661625671,-0.025257639056556282,0.05659323787035597,0.0028077022936728833,0.0003307442591864816,0.004842590485835023,0.015211019562905768,0.06102232001747811,-0.006481611949728005,0.08504898640092678,0.06814557228327482,-0.06051852884004402
5,10.51905899999838,-0.03547463985524811,-0.02525555635965066,0.05661477659718837,0.0028764062895278767,0.0006036482645993665,0.0048130732438787455,0.015591003168781039,0.06132505780497635,-0.006752669550336608,0.08530151437635297,0.06757192757703576,-0.06100067104918152
6,10.522989400007646,-0.035461652818556344,-0.025252253201643763,0.0566361809477987,0.0029468079383539207,0.0008778971016760949,0.004782341992460429,0.015972094525250162,0.06162520851966028,-0.00702587055710636,0.08554557151495318,0.06698569729491669,-0.06147940853210679
7,10.527215200010687,-0.03544834792177992,-0.025247723608866745,0.0566574454850556,0.003018912097639716,0.0011534791040219282,0.004750387203557184,0.016354255651406614,0.06192271585851818,-0.0073011995368862945,0.0857810710526224,0.06638681117861793,-0.06195463426251053
8,10.531591200007824,-0.0354347175592256,-0.02524196166025582,0.05667856472947598,0.0030927234545679604,0.0014303823533722707,0.004717199419046221,0.016737448175751526,0.062217523207005826,-0.007578640590359982,0.08600792544370102,0.06577519945343055,-0.06242624436967995
9,10.535815499999444,-0.035420754104672034,-0.025234961488478966,0.056699533159541446,0.003168246524270161,0.0017085946782075636,0.004682769252761121,0.017121633336280757,0.0625095736395694,-0.00785817735762387,0.08622604748446173,0.06515079241792403,-0.06289413568626866
10,10.53969550000329,-0.03540644991214119,-0.025226717281068817,0.056720345212023904,0.003245485648087666,0.0019881036523635093,0.004647087392545,0.0175067719834486,0.06279880991977636,-0.008139793018884506,0.08643535132916258,0.06451352061490025,-0.06335820387264147
11,10.543855700001586,-0.03539179731667751,-0.025217223281561753,0.056740995282320274,0.0033244449918529203,0.002268896593647133,0.004610144602300565,0.01789282458932026,0.0630851745023637,-0.008423470283301947,0.0866357539066162,0.06386331498284213,-0.06381834019283018
12,10.54924970000866,-0.035376788635134694,-0.02520647379064314,0.056761477724796394,0.0034051285442321553,0.002550960562465282,0.004571931724142818,0.018279751263174434,0.06336860953472,-0.008709191360921497,0.08682717585811478,0.06320010666051484,-0.06427442880829101
13,10.554072400002042,-0.035361416166969604,-0.025194463167298665,0.05678178685314094,0.0034875401151458554,0.00283428236045391,0.004532439680699538,0.018667511769024116,0.0636490568571903,-0.008996937927371561,0.08700954186957835,0.06252382699181008,-0.06472634598664098
14,10.557802700001048,-0.03534567219504316,-0.02518118582997179,0.056801916940729856,0.0035716833342677714,0.0031188485291092968,0.004491659477578959,0.01905606554418267,0.06392645800460145,-0.009286691088735581,0.08718278016351186,0.061834407950802237,-0.0651739620555782
15,10.561562100003355,-0.03532954898642764,-0.025166636257727318,0.05682186222100229,0.0036575616496110352,0.003404645348430943,0.004449582205983675,0.01944537171225179,0.06420075421035934,-0.009578431363683106,0.08734682036927882,0.061131782683914115,-0.06561714641468742
16,10.567320700007258,-0.0353130387932202,-0.025150808991420946,0.056841616887848334,0.0037451783261430553,0.0036916588355893443,0.004406199045337743,0.01983538908268576,0.06447188641281155,-0.009872138693057936,0.0875015908266268,0.060415886125379105,-0.06605577327992923
17,10.571309200007818,-0.03529613385336252,-0.02513369863487471,0.05686117509600843,0.0038345364443677435,0.003979874743625655,0.004361501265815038,0.020226076139721025,0.06473979526483589,-0.010167792473262523,0.08764701671971982,0.05968665561280125,-0.06648972591398716
18,10.574879799998598,-0.03527882639146694,-0.025115299856058163,0.05688053096148365,0.003925638898841638,0.004269278560205016,0.0043154802306685025,0.020617391025291965,0.06500442114569513,-0.010465371603590004,0.08778301954959392,0.05894403090663545,-0.06691889724175021
19,10.579160599998431,-0.035261108619649414,-0.025095607388274915,0.05689967856195586,0.004018488396603701,0.004559855506421982,0.004268127398336193,0.021009291523253596,0.06526570417079935,-0.010764854525100048,0.08790951825757894,0.05818795380916544,-0.06734318663599767
20,10.583232999997565,-0.03524297273836961,-0.025074616031354482,0.05691861193721683,0.004113087455550676,0.004851590535640957,0.00421943432442367,0.02140173505232073,0.06552358420016119,-0.01106621923927221,0.0880264311011645,0.057418368057118696,-0.06776249636131798
21,10.590369900004587,-0.03522441093727837,-0.025052320652849184,0.05693732508960608,0.004209438402803885,0.00514446833237706,0.00416939266364362,0.021794678667027473,0.06577800084720001,-0.011369443315153802,0.08813367689477898,0.056635219355769185,-0.06817672982536664
22,10.594124199997168,-0.03520541539607238,-0.025028716189235956,0.056955811984457275,0.004307543373093148,0.005438473311215107,0.0041179941717344685,0.022188079061736834,0.06602889348750143,-0.011674503892410665,0.08823117533203087,0.05583845546685317,-0.06858579121737604
23,10.598180800006958,-0.035185978285356044,-0.025003797647122905,0.05697406655055318,0.0044074043071593546,0.005733589615768637,0.004065230707372782,0.022581892574475314,0.06627620126840596,-0.011981377685249761,0.08831884697601369,0.055028026511555445,-0.06898958570356092
24,10.602452200007974,-0.03516609176751043,-0.02497756010446041,0.05699208268058917,0.004509022950172595,0.006029801117684445,0.004011094234056887,0.02297607519085601,0.06651986312047173,-0.012290040987213388,0.0883966133863829,0.05420388529768712,-0.06938801920235455
25,10.607658300010373,-0.03514574799756922,-0.024949998711756547,0.05700985423164494,0.004612400850169736,0.0063270914157038775,0.0039555768219764935,0.023370582549047014,0.06675981776998231,-0.012600469673096389,0.08846439739281808,0.0533659874368948,-0.06978099807184576
26,10.61113849999674,-0.03512493912410163,-0.024921108693296584,0.057027375025664705,0.00471753935651688,0.006625443834778962,0.0038986706498792072,0.023765369946134388,0.06699600375145524,-0.012912639200951629,0.0885221234760835,0.052514291217758025,-0.07016842872874861
27,10.61684360000072,-0.03510365729010208,-0.024890885348366282,0.0570446388499456,0.0048244396184037135,0.0069248414252453105,0.0038403680069222634,0.024160392346490454,0.06722835941901753,-0.01322652461060758,0.08856971863748829,0.051648757219820936,-0.0705502159582142
28,10.620754700008549,-0.035081894633886494,-0.02485932405247876,0.05706163945763436,0.004933102583380628,0.007225266962039739,0.0037806612945522644,0.024555604395894246,0.06745682295547054,-0.013542100510593649,0.0886071137568731,0.050769348030260515,-0.07092626032495063
29,10.625865900001372,-0.035059643289995085,-0.024826420258604792,0.05707837056823249,0.005043528995979053,0.00752670294395405,0.0037195430284735665,0.02495096044201599,0.06768133238113755,-0.013859341053559321,0.08863424402252612,0.0498760283514007,-0.07129645726459134
30,10.6313330999983,-0.03503689539010095,-0.024792169498406326,0.057094825868110544,0.0051557193964313465,0.007829131592931594,0.0036570058407473334,0.025346414552373346,0.06790182556388792,-0.01417821991509252,0.08865104711398362,0.048968765411037125,-0.07166070000484653
31,10.635592699996778,-0.035013643063924245,-0.024756567383473052,0.057110999011032,0.0052696741194513345,0.008132534853410487,0.003593042481948909,0.02574192051860251,0.06811824023164563,-0.014498710295201772,0.08865746019295848,0.0480475296902088,-0.07201888468476554
32,10.639799399999902,-0.034989878440151695,-0.024719609606561783,0.057126883618686765,0.005385393292992307,0.008436894391731774,0.003527645823253647,0.026137431847567002,0.06833051398890672,-0.014820784942809518,0.08865341844770663,0.04711229532871029,-0.07237091337354833
33,10.64393220000784,-0.034965593647361834,-0.02468129194283831,0.057142473281233716,0.005502876836948232,0.008742191595630023,0.0034608088583757495,0.026532901752641357,0.0685385843328659,-0.015144416184168636,0.08863885561082786,0.046163039607282394,-0.07271669326949123
34,10.648538499997812,-0.03494078081495611,-0.024641610251121313,0.05715776155785146,0.0056221244618339826,0.009048407573785368,0.00339252470540056,0.026928283149439812,0.06874238866531404,-0.015469575940208608,0.08861370499483422,0.04519974235646136,-0.07305613432590838
35,10.652322599999025,-0.034915432074095885,-0.02460056047512823,0.05717274197729723,0.0057431356674484384,0.009355523155420256,0.0033227866085686368,0.027323528656339524,0.06894186430349039,-0.015796235733770106,0.08857790047886298,0.044222385844410815,-0.0733891476293646
36,10.65579119999893,-0.034889539558645495,-0.024558138644722758,0.05718740803847357,0.005865909741559384,0.009663518889948318,0.0032515879400434964,0.027718590599012882,0.06913694849097927,-0.016124366692481462,0.08853137672359619,0.04323095461071978,-0.07371564476469339
37,10.659324100008234,-0.03486309540612097,-0.02451434087716385,0.057201753211002994,0.005990445758607049,0.009972375046668333,0.003178922201670024,0.028113421012868272,0.06932757840707947,-0.01645393955032784,0.08847406928856354,0.04222543505111928,-0.07403553708228383
38,10.66258679999737,-0.03483609175864463,-0.02446916337835596,0.05721577093581039,0.006116742578410781,0.010282071614496699,0.0031047830267282154,0.028507971648628987,0.06951369117399564,-0.01678492464399031,0.08840591576536054,0.04120581504152793,-0.07434873387111877
39,10.666577299998607,-0.034808520763905414,-0.024422602444100407,0.05722945462571328,0.006244798844922361,0.010592588301725558,0.003029164181724252,0.028902193984884764,0.0696952238628534,-0.017117291898114544,0.08832685753619761,0.04017208389886141,-0.07465513937902178
40,10.670946400001412,-0.03478037457612454,-0.024374654461347796,0.05724279766602023,0.006374612985044668,0.010903904535808934,0.0029520595682756773,0.02929603924936077,0.06987211350054108,-0.017451010795064028,0.08823684148361076,0.03912423256662601,-0.07495464986227511
41,10.67442480000318,-0.03475164535702638,-0.024325315909451285,0.057255793415137944,0.0065061832075747564,0.011215999463181905,0.0028734632251723384,0.029689458446723483,0.07004429707738068,-0.017786050333864923,0.08813582000993506,0.0380622538690893,-0.07524715373216423
42,10.679112400001031,-0.034722325276813584,-0.024274583361420615,0.057268435205188026,0.006639507502270607,0.011528851949115177,0.002793369330627865,0.030082402380023417,0.07021171155623739,-0.018122379001266772,0.0880237487805684,0.036986143028860816,-0.07553253617598381
43,10.683778300008273,-0.034692406515146254,-0.024222453485176678,0.05728071634263419,0.0067745836389855275,0.011842440577615534,0.002711772204598811,0.030474821658366007,0.0703742938848085,-0.018459964771916793,0.08790058366610755,0.03589589834111825,-0.07581068523377046
44,10.687470000004396,-0.0346618812621248,-0.024168923044806435,0.0572926301089197,0.006911409166803338,0.012156743651390063,0.002628666311034579,0.03086666669107155,0.07053198101074848,-0.018798775133638243,0.08776627882745731,0.03479152161820279,-0.07608149564750448
45,10.69243209999695,-0.03463074171927682,-0.024113988901817804,0.05730416976111466,0.007049981413120667,0.012471739191881543,0.002544046259971025,0.0312578876782611,0.07068470989792465,-0.01913877712194796,0.08762078697959666,0.03367301824799743,-0.07634486868528388
46,10.698094400009722,-0.034598980100548155,-0.02405764801639426,0.057315328532572145,0.007190297482698146,0.012787404939377708,0.0024579068094724094,0.031648434607369755,0.07083241754206311,-0.019479937343765987,0.0874640605346136,0.03254039692551938,-0.07660070973802661
47,10.702157499996249,-0.034566588633298236,-0.023999897448648746,0.057326099633592795,0.007332354256711592,0.01310371835318624,0.0023702428675134606,0.03203825725393093,0.07097504098460963,-0.019822221990490458,0.08729605198282672,0.03139366939872453,-0.07684892752805683
48,10.706431800004792,-0.0345335595592996,-0.02394073435987672,0.05733647625209774,0.007476148391810201,0.013420656611867688,0.0022810494938046715,0.03242730518149009,0.07111251732610763,-0.020165596854646098,0.08711671378524415,0.030232850458803077,-0.07708943496886911
49,10.710465700001803,-0.03449988513574163,-0.023880156013807986,0.05734645155430951,0.007621676319166961,0.013738196613529832,0.0021903219015258204,0.03281552774142948,0.07124478373997244,-0.02051002735063008,0.08692599867632694,0.029057957930556128,-0.07732214906746929
50,10.71509789999982,-0.034465557636238556,-0.0238181597778571,0.05735601868544038,0.007768934243535283,0.014056314976183497,0.00209805545896617,0.033202874075583186,0.07137177748578345,-0.020855478530489188,0.08672386024055045,0.027869012457130873,-0.0775469892927821
51,10.719089899997924,-0.03443056935184162,-0.023754743124372046,0.05736517077038795,0.007917918142322745,0.014374988038155505,0.0020042456911172216,0.03358929312120607,0.07149343592113777,-0.02120191509010832,0.08651025362559696,0.026666037329289162,-0.07776387564128368
52,10.72254640000756,-0.03439491259205532,-0.02368990363188095,0.0573739009144377,0.008068623764692055,0.014694191858550256,0.0019088882812576993,0.03397473361995204,0.07160969651341902,-0.021549301367728885,0.08628513664621087,0.025449058500095396,-0.07797272657565042
53,10.727014300005976,-0.03435857968585761,-0.02362363898633663,0.05738220220397268,0.008221046630714903,0.015013902217767681,0.0018119790725595235,0.034359144132691755,0.07172049685178204,-0.021897601331745592,0.08604847124962929,0.02421810435526712,-0.07817345625989756
54,10.730566800004452,-0.03432156298272368,-0.023555946982358703,0.057390067707190434,0.00837518203060513,0.015334094618071756,0.0017135140697816737,0.03474247306156574,0.07182577465687279,-0.02224677855455625,0.08580022471733961,0.022973205400458028,-0.07836597250777946
55,10.735746799997289,-0.03428385485365302,-0.023486825524473055,0.05739749047482778,0.00853102502406934,0.015654744284195173,0.001613489441109479,0.0351246686755244,0.07192546779002286,-0.02259679618205383,0.08554036909843839,0.02171439437853093,-0.07855017813101402
56,10.739730600005714,-0.034245447692198984,-0.02341627262834855,0.05740446354089413,0.008688570439767942,0.015975826163989886,0.0015119015201206785,0.035505679127325426,0.07201951426401572,-0.022947616919505368,0.08526887854250459,0.020441706582288718,-0.07872597661540841
57,10.743876900000032,-0.034206333915500646,-0.023344286422030697,0.05741097992341385,0.00884781287481742,0.01629731492912785,0.0014087468077507016,0.035885452455277266,0.0721078522550715,-0.023299203051687405,0.08498572648594084,0.019155180357539804,-0.07889327871538646
58,10.748200100002578,-0.03416650596531683,-0.023270865147172116,0.057417032625177104,0.009008746694266923,0.016619184975858497,0.0013040219740790772,0.03626393657513258,0.07219042011810166,-0.02365151648760241,0.08469088454797119,0.017854857630776638,-0.07905200507223692
59,10.752176399997552,-0.03412595630906263,-0.02319600716025944,0.05742261463449811,0.009171366030528212,0.016941410425845564,0.0011977238598957468,0.036641079271981576,0.07226715640340178,-0.024004518803974684,0.08438432338053638,0.016540783684086784,-0.07920208466073404
60,10.75639310000406,-0.034084677440848504,-0.0231197109338363,0.05742771892598001,0.009335664782779921,0.01726396512707352,0.0010898494780993942,0.03701682819972843,0.07233799986989799,-0.024358171276107267,0.0840660142511668,0.01521300652538555,-0.07934345181919028
61,10.76060540000617,-0.034042661882522134,-0.023041975057722174,0.05743233846128559,0.00950163661639283,0.017586822654802586,0.0009803960149884494,0.03739113088710726,0.07240288949622085,-0.02471243489487945,0.08373593003944722,0.01387157667855626,-0.07947604401220096
62,10.764808599997195,-0.03399990218471265,-0.02296279824022682,0.05743646618991366,0.009669274962387803,0.017909956312573944,0.0008693608315077627,0.03776393474604916,0.07246176449207938,-0.025067270377642507,0.08339404556901164,0.012516547285346246,-0.07959980107837297
63,10.76845050000702,-0.03395639092787731,-0.022882179309360165,0.05744009504998089,0.009838573016935715,0.018233339133266253,0.0007567414644423951,0.038135187080660334,0.07251456431024406,-0.025422638178505305,0.08304033755877377,0.011147974301238638,-0.0797146647125482
64,10.772640399998636,-0.033912120723350196,-0.022800117214037324,0.05744321796900886,0.01000952374089549,0.018556943880207778,0.0006425356275725227,0.038504835095153976,0.07256122865966845,-0.025778498494610346,0.08267478461327317,0.00976591670080134,-0.07982057780146477
65,10.777305499999784,-0.033867084214392995,-0.022716611025278548,0.057445827864716185,0.010182119859384801,0.01888074304834996,0.0005267412128112306,0.03887282590274226,0.07260169751930443,-0.026134811270492032,0.08229736733006665,0.00837043661887,-0.07991748434559375
66,10.781994700009818,-0.03382127407724756,-0.022631659937403785,0.05744791764581573,0.010356353861397445,0.019204708865502827,0.00040935629132053274,0.03923910653452641,0.07263591115248336,-0.026491536203655318,0.08190806818235422,0.006961599379916035,-0.080005330162563
67,10.785461100007524,-0.03377468302219009,-0.0225452632692216,0.057449480212816685,0.010532217999453357,0.01952881329363686,0.00029037911459939183,0.03960362394734144,0.07266381012099342,-0.026848632755210048,0.08150687155831417,0.00553947332744897,-0.08008406385434447
68,10.789936200002558,-0.0337273037945868,-0.02245742046521212,0.05745050845883148,0.010709704289285981,0.01985302803024401,0.00016980811550485755,0.03996632503299717,0.07268533529793868,-0.027206060164079022,0.08109376384888374,0.0041041297408400046,-0.0801536368951789
69,10.794069099996705,-0.0336791291759509,-0.022368131096703818,0.05745099527038698,0.010888804509574733,0.020177324509754305,4.764190921331994e-05,0.040327156626906197,0.07270042788107427,-0.027563777458416813,0.080668733301118,0.0026556430206262143,-0.0802140030258628
70,10.79811730000074,-0.03363015198500067,-0.02227739486304381,0.05745093352823998,0.011069510201709354,0.020501673905015824,-7.612070586023317e-05,0.04068606551601652,0.0727090294073188,-0.02792174346441355,0.08023177009657802,0.0011940907766674709,-0.08026511792157924
71,10.802609999998822,-0.033580365078718505,-0.02218521159276143,0.057450316108196606,0.011251812669593143,0.020826047128840806,-0.00020148074717951168,0.04104299844813891,0.07271108176687609,-0.02827991681475008,0.07978286640003356,-0.00028044620582563286,-0.08030693889881076
72,10.806016000002272,-0.03352976135341077,-0.022091581244724753,0.05744913588193565,0.011435702979490538,0.021150414835611614,-0.00032843904724310415,0.04139790214031409,0.07270652721744446,-0.02863825595478675,0.07932201626174885,-0.0017678838347306826,-0.08033942422169295
73,10.81102710000414,-0.03347833374576822,-0.021996503909289825,0.05744738571783554,0.011621171959905,0.021474747422953615,-0.00045699625275699083,0.041750723287268234,0.07269530839951228,-0.02899671914482976,0.07884921571526216,-0.003268134662280368,-0.08036253293593106
74,10.816311600006884,-0.03342607523392689,-0.021899979809442256,0.05744505848180505,0.011808210201502033,0.021799015033477625,-0.0005871528238109453,0.04210140857065261,0.0726773683510021,-0.029355264464838115,0.07836446295322365,-0.004781107913786546,-0.08037622540613143
75,10.81976680000662,-0.033372978838529264,-0.02180200930193092,0.057442147038117605,0.011996808057069508,0.022123187556583438,-0.0007189090330930437,0.04244990466906791,0.07265265052230983,-0.029713849821484124,0.07786775876695122,-0.0063067093024589205,-0.08038046353073705
76,10.823310499996296,-0.03331903762378549,-0.02170259287839344,0.05743864425024901,0.01218695564153012,0.022447234630336457,-0.0008522649651290615,0.04279615827122567,0.07262109879260119,-0.030072432954778072,0.07735910681026038,-0.007844841068744886,-0.0803752110351029
77,10.827259600002437,-0.03326424469853442,-0.02160173116647316,0.057434542981718545,0.012378642832019143,0.022771125643416622,-0.000987220515556089,0.04314011608832656,0.07258265748449985,-0.03043097144774357,0.07683851330643826,-0.009395402165187333,-0.08036043371574779
78,10.831537999998543,-0.033208593217304176,-0.021499424930927234,0.05742983609693315,0.012571859268007328,0.02309482973712609,-0.0011237753904482534,0.04348172486460737,0.07253727137873452,-0.030789422735221485,0.07630598684293965,-0.010958288110321858,-0.08033609914727541
79,10.83542390000366,-0.03315207638137205,-0.021395675074725673,0.05742451646203455,0.012766594351472756,0.02341831580746885,-0.0012619291056688848,0.04382093138788754,0.07248488573013069,-0.0311477441109304,0.07576153842044057,-0.012533391013516925,-0.08030217659442035
80,10.839719600000535,-0.03309468743982355,-0.0212904826401409,0.057418576945749256,0.01296283724711784,0.023741552507301082,-0.0014016809862592325,0.0441576825005538,0.07242544628203607,-0.03150589273548579,0.0752051815601401,-0.014120599823275973,-0.08025863701206565
81,10.844009699998423,-0.03303641969061039,-0.021183848809827606,0.05741201042024109,0.01316057688263918,0.024064508248539476,-0.0015430301658621792,0.04449192511106409,0.07235889928009694,-0.03186382564346065,0.07463693219620106,-0.015719800293364877,-0.08020545296709265
82,10.848076900001615,-0.032977266481607106,-0.02107577490789259,0.057404809761966345,0.013359801949047208,0.024387151204434507,-0.0016859755861739541,0.04482360620397251,0.07228519148698578,-0.0322214997507074,0.0740568086076465,-0.017330874866013403,-0.08014259859928391
83,10.852354700007709,-0.032917221211666174,-0.02096626240095434,0.05739696785253122,0.013560500901025486,0.024709449311910162,-0.0018305159964331745,0.045152672850825616,0.0722042701972198,-0.03257887186106966,0.07346483156469188,-0.01895370261268768,-0.08007004936733121
84,10.855675700004213,-0.03285627733167145,-0.020855312899192003,0.05738847757955151,0.013762661957347568,0.025031370273969424,-0.0019766499529324418,0.045479072221493,0.07211608325241689,-0.032935898671438035,0.0728610243190936,-0.02058815907313464,-0.07998778190227364
85,10.863129700010177,-0.03279442834558957,-0.0207429281573835,0.05737933183751443,0.013966273101337396,0.025352881562170113,-0.002124375818552492,0.04580275159497744,0.0720205790575503,-0.03329253677715421,0.07224541276040952,-0.022234116089324654,-0.07989577404658345
86,10.86754990000918,-0.03273166781151927,-0.020629110075932402,0.05736952352864244,0.014171322081382607,0.0256739504191754,-0.002273691762322008,0.04612365837213966,0.07191770659768619,-0.03364874267741545,0.07161802557216622,-0.023891441776130198,-0.07979400491279637
87,10.87176740000723,-0.03266798934273819,-0.02051386070188329,0.057359045563758995,0.014377796411508466,0.025994543861378984,-0.0024245957589999908,0.046441740087901855,0.07180741545449987,-0.03400447278120187,0.07097889424196759,-0.025560000604393406,-0.07968245488349368
88,10.87529429999995,-0.03260338660874712,-0.020397182229925214,0.05734789086315611,0.014585683372000051,0.026314628681602965,-0.0025770855886884545,0.04675694442406264,0.07168965582227224,-0.034359683412680704,0.07032805330549001,-0.027239653415343328,-0.07956110543545425
89,10.881102600003942,-0.032537853336311214,-0.020279077003382977,0.05733605235746355,0.014794970010090525,0.026634171451865744,-0.002731158836463016,0.04706921922367753,0.0715643785242774,-0.03471433081556465,0.06966554040504186,-0.02893025730877163,-0.0794299392764224
90,10.884943700002625,-0.032471383310498085,-0.020159547515195903,0.05732352298851971,0.015005643140711627,0.026953138526226113,-0.0028868128920244763,0.04737851250439636,0.07143153502977678,-0.03506837115973645,0.06899139623114009,-0.030631665613176186,-0.07928894061867404
91,10.889835200010566,-0.032403970375712375,-0.020038596408883738,0.05731029571024391,0.015217689347300943,0.027271496043702773,-0.003044044949388515,0.04768477247232253,0.07129107747067316,-0.03542176054804796,0.06830566461039338,-0.03234372784186848,-0.0791380949836302
92,10.894032900003369,-0.0323356084367266,-0.019916226479499376,0.05729636348951001,0.015431094982676048,0.02758920993126702,-0.003202852006597935,0.0479879475361345,0.07114295865889642,-0.035774455021201516,0.06760839247612797,-0.034066289590987404,-0.07897738906505172
93,10.897992300000624,-0.03226629145970794,-0.01979244067456806,0.05728171930702132,0.015645846169967774,0.027906245906917374,-0.0033632308654559084,0.04828798632068298,0.07098713210396744,-0.03612641056332841,0.06689962982925071,-0.03579919263138143,-0.07880681093419709
94,10.902183300000615,-0.032196013473240755,-0.019667242095012666,0.05726635615818657,0.01586192880361567,0.028222569482828985,-0.0035251781312879947,0.04858483768076323,0.07082355202956415,-0.03647758310870066,0.06617942963096747,-0.03754227496291006,-0.07862634998126045
95,10.906562800009851,-0.032124768569344486,-0.019540633996064816,0.057250267053996946,0.01607932855042415,0.02853814596857606,-0.003688690212735269,0.04887845071375505,0.07065217339060091,-0.03682792854678702,0.06544784754862945,-0.039295370692666434,-0.07843599661248815
96,10.910482999999658,-0.03205255090448676,-0.019412619788161407,0.05723344502190391,0.016298030850670723,0.02885294047443365,-0.0038537633215614516,0.049168774771127514,0.07047295189088103,-0.037177402726262375,0.06470494186786954,-0.041058309960937414,-0.07823574217194694
97,10.914322500000708,-0.031979354700591406,-0.019283203037826258,0.057215883106697944,0.016518020919264787,0.029166917914757583,-0.004020393472481808,0.04945575947029498,0.07028584400083679,-0.03752596145936573,0.0639507737661279,-0.04283091884361301,-0.07802557868763246
98,10.91844600001059,-0.031905174246041196,-0.019152387468536494,0.05719757437138792,0.016739283746961653,0.029480043011444527,-0.004188576483009161,0.049739354708562285,0.0700908069760527,-0.03787356052364436,0.06318540758616062,-0.04461301921107185,-0.07780549887142262
99,10.924055299998145,-0.03183000389667505,-0.019020176961573314,0.0571785118980812,0.01696180410164575,0.029792280297477196,-0.004358307973298354,0.05001951067742107,0.06988779887626455,-0.03822015566631137,0.062408910767701976,-0.046404428688909795,-0.0775754969005721
100,10.92844220000552,-0.03175383807677933,-0.018886575556856744,0.0571586887888644,0.017185566529672208,0.03010359412055392,-0.004529583366031141,0.050296177875885216,0.06967677858423302,-0.0385657026129625,0.06162135378892988,-0.04820496060864218,-0.07733556855463043
101,10.9318140999967,-0.03167667128007307,-0.018751587453764026,0.0571380981666845,0.01741055535726904,0.03041394864680224,-0.004702397886338423,0.05056930712426494,0.06945770582518261,-0.03891015707315526,0.06082281027385408,-0.050014423905554356,-0.07708571062917521
102,10.935159100001329,-0.03159849807068676,-0.018615217011931237,0.05711673317623033,0.017636754692001613,0.03072330786458193,-0.004876746561734915,0.05083884957846036,0.06923054118658667,-0.03925347474389496,0.060013357011585555,-0.05183262305039973,-0.07682592087715691
103,10.938619900000049,-0.031519313084134484,-0.01847746875203774,0.05709458698481427,0.017864148424302385,0.031031635588375107,-0.005052624222072485,0.051104756743907506,0.06899524613821567,-0.03959561131469056,0.05919307387870904,-0.05365935789751703,-0.07655619804806535
104,10.948050300008616,-0.03143911102827911,-0.018338347356573106,0.057071652783254094,0.01809272022905978,0.03133889546276813,-0.0052300254995199325,0.051366980489179294,0.0687517830532774,-0.039936522471390096,0.05836204397098962,-0.05549442348002574,-0.07627654154596522
105,10.952098699999624,-0.03135788668429021,-0.018197857670586026,0.057047923786754905,0.018322453567269283,0.03164505096653032,-0.005408944828550547,0.05162547306110663,0.06850011523029251,-0.04027616389818548,0.057520353773923644,-0.05733760983890181,-0.07598695162488105
106,10.956311200003256,-0.031275634907594524,-0.018056004702414846,0.05702339323579109,0.01855333168775723,0.03195006541679105,-0.005589376445939774,0.051880187099901096,0.06824020691575976,-0.04061449128319121,0.056668093089859255,-0.05918870189557883,-0.07568742996517451
107,10.960463700001128,-0.031192350628818522,-0.01791279362439922,0.056998054396988226,0.018785337628966822,0.03225390197332069,-0.0057713143908025445,0.05213107565362578,0.06797202332716823,-0.040951460325591674,0.055805354964906094,-0.061047479476791365,-0.0753779796930985
108,10.964693300004,-0.0311080288547229,-0.017768229773572435,0.056971900564004765,0.019018454220811047,0.03255652364291298,-0.005954752504654714,0.05237809219266584,0.06769553067544087,-0.04128702674139434,0.05493223557139947,-0.06291371740239744,-0.07505860535156603
109,10.968847500000264,-0.031022664669128633,-0.017622318652333973,0.05694492505841336,0.01925266408658778,0.032857893283866256,-0.006139684431501723,0.0526211906231507,0.06741069618716321,-0.04162114627031626,0.05404883411493098,-0.06478718560256591,-0.07472931288052997
110,10.972181700009967,-0.03093625323383438,-0.01747506592910185,0.056917121230581735,0.01948794964495247,0.03315797361056416,-0.006326103617961476,0.05286032530059508,0.06711748812598127,-0.041953774681362195,0.05315525288342529,-0.06666764927861074,-0.07439010934340543
111,10.975538900005631,-0.030848789789524933,-0.017326477438944304,0.05688848246055297,0.01972429311195495,0.03345672719814776,-0.006514003313402774,0.05309545104375907,0.06681587581339533,-0.04228486777727022,0.052251597237682405,-0.06855486885957124,-0.07404100285874592
112,10.978902200004086,-0.03076026965667045,-0.017176559184190462,0.056859002158925094,0.019961676503135774,0.03375411648728177,-0.006703376570107856,0.05332652314820478,0.06650582965054526,-0.04261438139948023,0.05133797566459269,-0.07044859974847374,-0.07368200258071897
113,10.983075399999509,-0.030670688236416204,-0.017025317335019493,0.05682867376772993,0.020200081635684,0.034050103789021076,-0.006894216243455162,0.053553497400631235,0.0661873211412681,-0.04294227143240539,0.05041450008479015,-0.07234859194508157,-0.0733131185036434
114,10.987562599999364,-0.030580041011462555,-0.01687275823002785,0.056797490761311076,0.020439490130661417,0.03434465128978267,-0.007086514992119984,0.053776330095175934,0.06586032291724936,-0.043268493806656656,0.04948128624420544,-0.07425458973409571,-0.07293436135457
115,10.991449300010572,-0.030488323546934863,-0.01671888837677407,0.05676544664720092,0.020679883415305765,0.03463772105643656,-0.0072802652782859995,0.05399497805124323,0.0655248087638625,-0.04359300450235579,0.04853845372800951,-0.07616633174878108,-0.07254574274962444
116,10.995895400003064,-0.030395531491242907,-0.016563714452300603,0.056732534966996775,0.02092124272541404,0.034929275041508286,-0.007475459367875484,0.05420939862993035,0.06518075364475255,-0.04391575955375484,0.0475861255161535,-0.07808355119028801,-0.07214727522319565
117,10.999718100007158,-0.030301660576929533,-0.016407243303632177,0.05669874929723582,0.021163549107792272,0.03521927508848914,-0.007672089330802058,0.05441954974789018,0.06482813372571876,-0.04423671505280958,0.04662442766630516,-0.08000597602324856,-0.07173897206201928
118,11.00317680000444,-0.030206706621508216,-0.01624948194825025,0.05666408325026897,0.021406783422762504,0.03550768293725177,-0.00787014704123278,0.0546253898909284,0.06446692639755305,-0.04455582715231863,0.045653489372068416,-0.08193332909754636,-0.0713208475199727
119,11.006804700009525,-0.03011066552828934,-0.01609043757454307,0.056628530475133505,0.021650926346733896,0.03579446022956417,-0.008069624177868908,0.05482687812838572,0.06409711029883629,-0.04487305207141333,0.044673443085196426,-0.08386532815154091,-0.07089291700372921
120,11.010882400005356,-0.030013533287194825,-0.015930117542230917,0.05659208465842442,0.021895958374838025,0.0360795685147087,-0.008270512224256968,0.055023974127825434,0.06371866533874788,-0.04518834610035333,0.04368442477939811,-0.08580168575096889,-0.07045519675050635
121,11.01510540000163,-0.029915305975560885,-0.01576852938276604,0.05655473952516427,0.022141859823631028,0.03636296925519955,-0.008472802469112303,0.055216638171769354,0.06333157272040724,-0.04550166560314124,0.042686574346073716,-0.08774210896285364,-0.07000770369101642
122,11.019304100002046,-0.02981597975892855,-0.015605680799706879,0.056516488839671655,0.022388610833878227,0.03664462383261003,-0.008676486006653474,0.05540483117591619,0.06293581496659278,-0.04581296702109548,0.04168003578464464,-0.08968629902923571,-0.06955045543985627
123,11.023164300000644,-0.02971555089182159,-0.015441579669066004,0.05647732640642806,0.022636191373418817,0.03692449355351953,-0.008881553736957683,0.05558851470757568,0.06253137594599445,-0.04612220687537917,0.040664957168512865,-0.09163395142601859,-0.06908347019790508
124,11.026631000000634,-0.029614015718511456,-0.015276234039631291,0.05643724607094317,0.022884581240114967,0.037202539655575,-0.00908799636631774,0.05576765100358319,0.06211824089840768,-0.04642934176970213,0.03964149043995543,-0.09358475597479524,-0.06860676695736069
125,11.031522400007816,-0.029511370673768907,-0.015109652133259774,0.05639624172061856,0.023133760064876344,0.037478723313662705,-0.009295804407621589,0.05594220298690391,0.061696396459988145,-0.04673432839467917,0.038609791302436774,-0.095538396735551,-0.06812036539421686
126,11.035558999996285,-0.02940761228360197,-0.014941842345143752,0.05635430728560957,0.023383707314757356,0.037753005646195055,-0.009504968180748165,0.056112134283586634,0.06126583068940311,-0.04703712352957276,0.0375700191669131,-0.09749455188419774,-0.0676242855752784
127,11.03977990000567,-0.02930273716597992,-0.014772813244048555,0.0563114367396855,0.023634402296132943,0.038025347721515675,-0.00971547781296247,0.05627740923888885,0.06082653309417879,-0.047337684044037244,0.03652233678088874,-0.0994528937106483,-0.0671185483391863
128,11.043862300008186,-0.029196742031542905,-0.014602573572521496,0.05626762410108796,0.023885824157939696,0.038295710564421284,-0.009927323239326984,0.056437992930920916,0.060378494656868904,-0.047635966903261065,0.03546690986668536,-0.10141308871897427,-0.06660317562854412
129,11.048305700009225,-0.029089623684297017,-0.014431132247071455,0.056222863433387366,0.024137951894973374,0.03856405516280029,-0.010140494203142626,0.05659385118354373,0.0599217078605084,-0.0479319291726743,0.03440390711149969,-0.10337479766358365,-0.06607819025544044
130,11.052847800005113,-0.028981379022294498,-0.014258498358318597,0.056177148846337385,0.024390764351245105,0.03883034247438173,-0.01035498025640217,0.056744950579924194,0.059456166714459226,-0.04822552802099881,0.03333350029968009,-0.10533767541262723,-0.06554361576463909
131,11.056257100004586,-0.028872005038298853,-0.01408468117111374,0.056130474496727374,0.024644240223399845,0.03909453343360451,-0.010570770760258415,0.05689125847661306,0.05898186678108278,-0.04851672072373516,0.032255864576360496,-0.10730137088959536,-0.06499947658028067
132,11.060696100001223,-0.028761498820434567,-0.013909690124626787,0.05608283458923265,0.024898358064198184,0.03935658895860428,-0.010787854885508713,0.05703274301945262,0.05849880520210676,-0.048805464667521656,0.031171178823494957,-0.1092655270656521,-0.06444579820111669
133,11.064148799996474,-0.02864985755282115,-0.013733534832403754,0.05603422337726259,0.02515309628607674,0.039616469958317926,-0.01100622161310203,0.05716937316100955,0.058006980725365996,-0.04909171735536315,0.030079625830707227,-0.11122978087455869,-0.06388260733724938
134,11.071670200006338,-0.028537078516191087,-0.013556225082391815,0.05598463516380641,0.025408433164785492,0.039874137339709084,-0.011225859734670126,0.05730111867800699,0.05750639373192837,-0.04937543641221013,0.02898139255948779,-0.11319376316115644,-0.06330993179304312
135,11.076889800009669,-0.028423159088491426,-0.013377770836931863,0.05593406430227651,0.025664346843103723,0.04012955201511459,-0.011446757853084402,0.057427950191114595,0.056997046263295305,-0.04965657958914283,0.027876670460612884,-0.1151570986808471,-0.06272780021310377
136,11.0814160000009,-0.02830809674546858,-0.013198182232718007,0.055882505197349254,0.025920815334653916,0.0403826749097127,-0.0116689043830244,0.057549839185212656,0.05647894204853233,-0.049935104766683905,0.02676565529292563,-0.11711940617882553,-0.06213624209197603
137,11.08563420000428,-0.02819188906123589,-0.013017469580723503,0.055829952305803295,0.026177816527798485,0.04063346696911163,-0.011892287551564207,0.05766675802756531,0.05595208653076261,-0.05021096995906905,0.025648546664533384,-0.11908029860459486,-0.06153528753961848
138,11.089791400008837,-0.028074533708823644,-0.012835643366092542,0.055776400137355096,0.026435328189615834,0.04088188916705413,-0.01211689539877907,0.05777867998399113,0.0554164868923836,-0.0504841333154672,0.024525547437028738,-0.12103938338967933,-0.06092496700796505
139,11.095090600007095,-0.027956028460711182,-0.012652714247997443,0.055721843255491836,0.02669332796994136,0.041127902513231014,-0.012342715778342674,0.057885579231720705,0.05487215207908275,-0.05075455312181152,0.023396863256358844,-0.12299626264139783,-0.06030531158398061
140,11.098789399999076,-0.027836371189340854,-0.012468693059460724,0.05566627627830162,0.026951793405458217,0.04137146806120001,-0.012569736358150098,0.05798743087138155,0.054319092823325275,-0.05102218780463426,0.022262702552738312,-0.12495053318173475,-0.05967635284312968
141,11.102267800000844,-0.02771555986761362,-0.01228359080714164,0.05560969387930081,0.027210701923845268,0.04161254691640886,-0.012797944620949311,0.05808421093985491,0.05375732166802309,-0.05128699593159036,0.02112327663818923,-0.12690178653261325,-0.05903812273209802
142,11.106461600007606,-0.027593592569366013,-0.01209741867108668,0.05555209078825861,0.02747003084798255,0.04185110024432533,-0.013027327864968796,0.058175896423130966,0.05318685299015393,-0.05154893621424598,0.01997879976075557,-0.12884960898466838,-0.058390653832599226
143,11.110648500005482,-0.027470467469828203,-0.011910188004443554,0.055493461792018806,0.027729757400213925,0.042087089278671067,-0.013257873204573927,0.0582624652696493,0.05260770302381668,-0.051807967510955774,0.018829489221702255,-0.13079358170620248,-0.05773397904881796
144,11.115022199999656,-0.027346182846062935,-0.011721910333138234,0.05543380173531848,0.027989858706671568,0.042320475329757294,-0.013489567570920263,0.05834389640419981,0.05201988988287841,-0.05206404882686276,0.01767556536021753,-0.13273328087821012,-0.05706813127502538
145,11.118407300004035,-0.027220737077385013,-0.011532597355514573,0.05537310552160391,0.028250311801662643,0.04255121979292072,-0.013722397712609928,0.05842016974112669,0.05142343358282495,-0.05231713931381002,0.016517251412328775,-0.13466827788056357,-0.05639314332737055
146,11.12272290000692,-0.027094128645761092,-0.011342260941936069,0.05531136811384347,0.02851109363211161,0.04277928415705424,-0.013956350196344114,0.05849126619697052,0.050818356061746776,-0.052567198269731955,0.01535477350114608,-0.13659813954470568,-0.05570904806122572
147,11.127590200005216,-0.02696635613618953,-0.011150913134349376,0.055248584535337666,0.028772181062059688,0.04300463001323001,-0.014191411407574028,0.05855716770358527,0.05020468119993501,-0.052814185139613,0.014188360636554272,-0.13852242849639146,-0.055015878370924275
148,11.133020399996894,-0.02683741823706003,-0.010958566145809133,0.05518474987052624,0.02903355087722419,0.043227219063405035,-0.014427567551161952,0.05861785722077757,0.04958243483780927,-0.053058059514876535,0.013018244520047309,-0.1404407033901655,-0.05431366688697354
149,11.13727690000087,-0.026707313740492823,-0.010765232359963803,0.055119859265792326,0.029295179789610763,0.04344701312920421,-0.014664804652026738,0.05867331874768246,0.04895164479342168,-0.053298781131642055,0.011844659451724651,-0.14235251897743434,-0.05360244607391449
150,11.141492000009748,-0.026576041542657157,-0.010570924330502135,0.05505390793026377,0.02955704444217422,0.043663974160782035,-0.014903108555789317,0.05872353733457286,0.04831234087977733,-0.053536309870987224,0.01066784245745983,-0.14425742615101472,-0.05288224848414948
151,11.145906000005198,-0.026443600644068883,-0.010375654780559936,0.05498689113661154,0.029819121413536133,0.043878064245760226,-0.015142464929420531,0.05876849909536991,0.04766455492194082,-0.05377060575946974,0.009488033411204438,-0.14615497196107988,-0.05215310686542303
152,11.149841600010404,-0.026309990149866864,-0.010179436602086795,0.05491880422184526,0.030081387222757307,0.044089245618242054,-0.015382859261891299,0.05880819122054369,0.047008320774214456,-0.05400162897034835,0.008305475112604693,-0.1480446996066202,-0.05141505433680899
153,11.153854999996838,-0.02617520927006798,-0.009982282855172426,0.05484964258810583,0.03034381833417046,0.04429748066790321,-0.015624276864831343,0.05884260199031605,0.04634367433732097,-0.0542293398256749,0.007120413262853433,-0.14992614842071256,-0.050668124496182784
154,11.15730390000681,-0.026039257319800415,-0.00978420676733228,0.05477940170345508,0.030606391162270492,0.04450273194915947,-0.01586670287319802,0.058871720787345906,0.04567065357571316,-0.05445369879847421,0.005933096543188628,-0.1517988537884054,-0.04991235148830397
155,11.160656699998071,-0.02590213371951503,-0.00958522173275209,0.05470807710266239,0.030869082076660358,0.04470496219041198,-0.0161101222459545,0.058895538110632396,0.044989298535489254,-0.05467466651544363,0.004743776678000135,-0.15366234704840193,-0.04914777000503166
156,11.16492229999858,-0.02576383799517453,-0.009385341311491002,0.05463566438798835,0.03113186740706537,0.04490413430337477,-0.01635451976676268,0.058914045588763266,0.044299651362579726,-0.05489220375913479,0.003552707799647888,-0.15551615564881877,-0.04837441488503393
157,11.168904799997108,-0.025624369778420086,-0.009184579228642895,0.054562159229965164,0.03139472344839729,0.04510021139248232,-0.016599880044680822,0.05892723598815082,0.043601756319272975,-0.05510627146708169,0.002360145408393939,-0.15735980362503735,-0.04759232065418332
158,11.173417600002722,-0.025483728806715324,-0.008982949373455573,0.05448755736817407,0.0316576264658421,0.0452931567643645,-0.016846187514848704,0.05893510321700062,0.042895659798138676,-0.05531683072988182,0.0011663455030037132,-0.15919281208225622,-0.04680152139864023
159,11.177564800003893,-0.02534191492346756,-0.008780465798407551,0.05441185461201967,0.03192055269995951,0.045482933937378386,-0.017093426439168127,0.05893764232579053,0.04218141033424802,-0.05552384278919183,-2.8435854693369103e-05,-0.16101469939492338,-0.04600205055986327
160,11.181919800001197,-0.025198928078126282,-0.008577142718242205,0.05433504684150125,0.03218347837177501,0.045669506651192196,-0.01734158090697018,0.05893484950735434,0.04145905861731771,-0.05572726903397972,-0.0012239423487749362,-0.16282498112559018,-0.04519394072943677
161,11.185779300009017,-0.02505476832625896,-0.008372994508959042,0.05425713000798118,0.0324463796878801,0.045852838876425474,-0.01759063483566231,0.05892672209906518,0.040728657504654195,-0.055927070996689934,-0.0024199171108613845,-0.16462316997008125,-0.04437722364876983
162,11.189694900007453,-0.02490943582960401,-0.00816803570676184,0.05417810013495043,0.03270923284554385,0.04603289482434854,-0.017840571971361383,0.05891325858558125,0.03999026203378687,-0.05612321034949286,-0.0036161026233123414,-0.16640877589756828,-0.04355193003354075
163,11.196688099997118,-0.024762930856101015,-0.007962281006963388,0.05409795331879135,0.03297201403783762,0.04620963895663535,-0.01809137588950728,0.05889445860189292,0.03924392943416254,-0.05631564889888356,-0.00481224072398005,-0.16818130642418905,-0.042718089573871236
164,11.20225339999888,-0.024615253779897955,-0.007755745262846595,0.054016685729537696,0.03323469945877381,0.04638303599516732,-0.01834302999544776,0.058870322936026,0.038489719137337376,-0.05650434858193286,-0.006008072707934275,-0.16994026709298446,-0.0418757314808629
165,11.206657800008545,-0.024466405081335574,-0.007548443484481763,0.053934293611632184,0.03349726530845468,0.046553050931877095,-0.018595517525018625,0.05884085353118129,0.037727692784389255,-0.05668927146576236,-0.007203339479474153,-0.17168516195871655,-0.0410248846236179
166,11.210990500010666,-0.024316385346908685,-0.0073403908374998755,0.053850773284681366,0.03375968779823019,0.04671964903861851,-0.01884882154512389,0.05880605348708156,0.03695791423178409,-0.05687037974501803,-0.008397781562332571,-0.17341549365655445,-0.04016557702162701
167,11.214632600007462,-0.02416519526920451,-0.0071316026418218005,0.05376612114420799,0.03402194315585887,0.04688279587706273,-0.019102924954293405,0.05876592706202003,0.03618044955817539,-0.05704763573681626,-0.009591138869381243,-0.17513076309403314,-0.039297835629299456
168,11.218994800001385,-0.02401283564681794,-0.006922094370343287,0.05368033366240091,0.034284007630683934,0.04704245730862884,-0.019357810483217937,0.058720479676262115,0.03539536707301893,-0.05722100187629495,-0.01078315039989957,-0.17683046907806507,-0.03842168687337996
169,11.222541000010096,-0.02385930738424369,-0.006711881647575565,0.053593407388862646,0.03454585749882445,0.04719859950445685,-0.0196134606952671,0.05866971791679491,0.03460273732670019,-0.05739044071635449,-0.011973553702458577,-0.17851410797542652,-0.0375371576497416
170,11.227256400001352,-0.023704611491745246,-0.0065009802482413614,0.0535053389513547,0.034807469068393875,0.047351188955428676,-0.019869857987022115,0.05861364954552116,0.03380263312217826,-0.05755591493210246,-0.013162084049629399,-0.18018117348752072,-0.03664427653447915
171,11.230667800002266,-0.023548749085200462,-0.006289406095826094,0.05341612505654038,0.03506881868476433,0.047500192482245004,-0.020126984588833406,0.05855228351137218,0.03299512952712285,-0.05771738733140014,-0.0143484740222846,-0.1818311569095261,-0.035743074966360006
172,11.234929099999135,-0.023391721385923533,-0.006077175261083973,0.05332576249072508,0.03532988273589319,0.047645577245554564,-0.02038482256544746,0.058485629962210725,0.03218030388324603,-0.057874820869857256,-0.015532454280935058,-0.18346354820288766,-0.034833587471276135
173,11.239773499997682,-0.023233529720463067,-0.005864303960498825,0.053234248120593554,0.035590637657693575,0.04778731075611427,-0.020643353816698202,0.05841370025006192,0.0313582358088703,-0.05802817866338112,-0.016713755374433016,-0.18507783759961388,-0.03391585104667934
174,11.243987399997422,-0.023074175520376144,-0.005650808554699545,0.053141578893944046,0.035851059939407605,0.04792536088494138,-0.02090256007824582,0.058336506926878584,0.0305290071939465,-0.05817742399767916,-0.01789210959574233,-0.18667351674564045,-0.03298990420449526
175,11.24808390000544,-0.022913660321978446,-0.005436705546830337,0.053047751840418926,0.03611112612893912,0.0480596958734292,-0.02116242292235293,0.058254063733214616,0.029692702192420595,-0.05832252033226879,-0.019067251757629012,-0.18825007876149494,-0.032055785818213944
176,11.252506300006644,-0.02275198576607074,-0.005222011580875914,0.052952764072231914,0.036370812838125835,0.048190284343431165,-0.021422923758659174,0.058166385587069505,0.028849407216710324,-0.05846343129969349,-0.020238918676031663,-0.18980701772697042,-0.031113535024915796
177,11.256622000000789,-0.022589153597641964,-0.0050067434399417654,0.052856612784891815,0.03663009674797259,0.04831709530732721,-0.021684043834950387,0.05807348857717117,0.02799921093466982,-0.05860012070865851,-0.021406848227179722,-0.19134382823614163,-0.0301631924368837
178,11.2604083000042,-0.02242516566554902,-0.0047909180444895465,0.05275929525792287,0.03688895461386353,0.04844009817808079,-0.021945764237961178,0.05797538996023302,0.027142204268036485,-0.058732552554057196,-0.022570778423368243,-0.19286000505715564,-0.029204800962364323
179,11.26448640000308,-0.022260023922173352,-0.004574552450527613,0.052660808855581324,0.037147363270770895,0.048559262779291415,-0.022208065894233554,0.05787210816248289,0.026278480392431,-0.05886069102742965,-0.023730446925525277,-0.19435504295362563,-0.028238405825004743
180,11.26906200000667,-0.022093730423054275,-0.004357663847756717,0.052561151027568136,0.03740529963848085,0.048674559355251654,-0.02247092957101281,0.05776366278126905,0.025408134737397774,-0.058984500527162455,-0.024885591678305813,-0.19582843725992966,-0.027264054700700438
181,11.27359029999934,-0.02192628732649892,-0.004140269557670817,0.05246031930973754,0.03766274072681657,0.04878595858100003,-0.02273433587719716,0.05765007458092276,0.02453126498127203,-0.05910394567016836,-0.026035952428355453,-0.1972796852618398,-0.0262817976195793
182,11.277183500002138,-0.021757696893168962,-0.003922387031613078,0.052358311324801274,0.03791966364082722,0.04889343157233222,-0.022998265264337833,0.057531365480818025,0.023647971038902038,-0.05921899130121147,-0.027181272024393577,-0.19870828726195602,-0.02529168627272618
183,11.28143820000696,-0.02158796148564427,-0.0037040338487873575,0.05225512478302824,0.038176045585904435,0.048996949895744414,-0.023262698027671908,0.0574075585396346,0.022758355047010227,-0.059329602498401385,-0.028321296631734712,-0.2001137466052439,-0.02429377376802677
184,11.285535200004231,-0.02141708356796398,-0.0034852277142254917,0.0521507574829395,0.03843186387283093,0.04909648557831391,-0.02352761430717143,0.05727867794150375,0.02186252135168755,-0.059435744580340004,-0.02945577546381097,-0.20149556918576256,-0.023288115342971455
185,11.289709999997283,-0.021245065705145113,-0.003265986456710625,0.05204520731199858,0.03868709592277338,0.0491920111175309,-0.023792994088640003,0.057144748982666645,0.020960576498155664,-0.05953738311797544,-0.030584460670340766,-0.20285326315666152,-0.022274768843372875
186,11.29408649999823,-0.021071910562679083,-0.0030463280266567736,0.051938472247296696,0.03894171927221197,0.04928349949108769,-0.024058817204867678,0.05700579805861792,0.020052629220848755,-0.05963448394602001,-0.03170710723857089,-0.2041863390241458,-0.02125379454794178
187,11.29833530000178,-0.020897620906006345,-0.002826270493944816,0.05183055035623273,0.039195711577818565,0.049370924166622025,-0.024325063336829416,0.05686185265164518,0.01913879043233734,-0.05972701317323897,-0.03282347312088295,-0.20549430991481496,-0.02022525505074812
188,11.303968000007444,-0.02072219959996938,-0.0026058320457151246,0.05172143979718776,0.0394490506212751,0.049454259111407474,-0.02459171201493177,0.056712941316834055,0.018219173211024845,-0.05981493719281982,-0.033933319410873845,-0.20677669185599049,-0.019189215427269812
189,11.30822099999932,-0.020545649608244343,-0.0023850309841170945,0.05161113882019396,0.0397017143140269,0.04953347880198698,-0.024858742620303867,0.05655909366803667,0.01729389278757029,-0.05989822269414258,-0.035036410264730575,-0.20803300416935921,-0.018145743498330022
190,11.312217099999543,-0.020367973992751646,-0.0021638857240158255,0.05149964576759757,0.03995368070197584,0.04960855823374213,-0.02512613438614911,0.05640034036457822,0.016363066529072694,-0.05997683667550393,-0.036132512862439396,-0.20926276999885196,-0.017094909702881127
191,11.315680200001225,-0.02018917591304573,-0.0019424147906562722,0.05138695907471573,0.04020492797011507,0.04967947293038554,-0.025393866399149687,0.05623671309757153,0.015426813920783948,-0.06005074645475248,-0.037221397456252164,-0.2104655167879671,-0.016036786951740174
192,11.320580400002656,-0.020009258625684295,-0.0017206368172852315,0.05127307727048694,0.040455434447100105,0.04974619895336702,-0.025661917600913152,0.05606824457619119,0.014485256546034456,-0.06011991968070793,-0.038302837390822096,-0.21164077662224728,-0.01497145097899865
193,11.324224800002412,-0.01982822548357729,-0.0014985705427315703,0.05115799897811498,0.04070517860976105,0.049808712911186846,-0.02593026678947883,0.05589496851380849,0.013538518064890355,-0.06018432434693163,-0.03937660928381139,-0.21278808649060352,-0.013898980684323686
194,11.327528499998152,-0.019646079935315888,-0.0012762348089451188,0.051041722915705946,0.04095413908754997,0.04986699196861145,-0.02619889262088726,0.055716919612654146,0.012586724191747597,-0.06024392880619984,-0.04044249321556459,-0.2139069885230177,-0.012819458142460936
195,11.331567100001848,-0.019462825524481784,-0.0010536485584946734,0.05092424789689814,0.04120229466691632,0.04992101385578683,-0.026467773610815724,0.055534133548260894,0.01163000267186834,-0.06029870178435909,-0.041500272739918825,-0.21499703019660502,-0.011732968739735707
196,11.33624299999792,-0.01927846588893714,-0.0008308308320255788,0.05080557283148451,0.04144962429561549,0.0499707568772449,-0.02673688813627132,0.05534664695402979,0.010668483257136496,-0.0603486123960173,-0.04254973493781081,-0.2160577644821397,-0.010639601829284239
197,11.340152500008116,-0.01909300476009545,-0.0006078007656773749,0.050685696726027483,0.04169610708694651,0.05001619992080056,-0.027006214437366487,0.055154497405194534,0.009702297681286802,-0.06039363016424523,-0.04359067038720421,-0.21708874999685765,-0.009539451209464075
198,11.344114000006812,-0.01890644596217365,-0.0003845775884619977,0.05056461868446551,0.04194172232391754,0.050057322466337026,-0.027275730619187852,0.054957723403656046,0.00873157963429704,-0.06043372504053609,-0.044622873090565555,-0.21808955122516177,-0.008432615270120158
199,11.348126800003229,-0.018718793411425846,-0.00016118061960304134,0.050442337908711235,0.042186449463348284,0.05009410459447446,-0.027545414653749843,0.05475636436259388,0.0077564647356479265,-0.06046886742581196,-0.04564614080697038,-0.21905973873339976,-0.00731919712965681
200,11.352272300006009,-0.018530051115358808,6.237073416338327e-05,0.05031885369924064,0.04243026813989815,0.05012652699511671,-0.027815244382050963,0.0545504605883377,0.0067770905067990545,-0.060499028191606394,-0.04666027546675357,-0.2199988892515395,-0.006199304517922662
201,11.35637960000895,-0.01834022317192975,0.0002860569813256419,0.05019416545567284,0.04267315817000693,0.05015457097587433,-0.028085197516216392,0.054340053261279095,0.005793596343720058,-0.06052417870002595,-0.04766508315721337,-0.2209065855757162,-0.005073049678154997
202,11.360653800002185,-0.018149313768726687,0.000509858548370871,0.05006827267734011,0.04291509955575265,0.05017821847036627,-0.02835525164173236,0.05412518441787061,0.004806123490236048,-0.06054429082405789,-0.0486603739666675,-0.22178241634308235,-0.003940549484434684
203,11.366454900009558,-0.01795732718213177,0.0007337557825960391,0.04994117496384776,0.04315607248863166,0.0501974520464051,-0.028625384219769942,0.05390589693292894,0.0038148150125676024,-0.060559336968579666,-0.04964596200842999,-0.222625975853814,-0.002801925725018817
204,11.370730199996617,-0.017764267776467932,0.0009577289549552714,0.049812872015623434,0.04339605735325856,0.05021225491407149,-0.028895572589606882,0.05368223450141999,0.0028198157742642936,-0.06056929009319457,-0.05062166562103117,-0.22343686427011122,-0.0016573051314995254
205,11.374686299997848,-0.01757014000312921,0.001181758262942953,0.04968336363445534,0.0436350347309838,0.05022261093367582,-0.029165793971155127,0.05345424161897572,0.001821272408969164,-0.06057412373350138,-0.05158730803276674,-0.22421468848733875,-0.0005068192324943143
206,11.380940500006544,-0.017374948399695108,0.0014058238335120884,0.04955264972401902,0.043872985403419745,0.05022850462358965,-0.029436025467572426,0.05322196355774996,0.0008193332875797805,-0.060573812022624615,-0.05254271850942534,-0.22495906354211134,0.0006493952069482268
207,11.385548699996434,-0.017178697589029464,0.0016299057260272785,0.04942073029039232,0.04410989035584288,0.050229921167914346,-0.02970624406798196,0.052985446336695025,-0.0001858515215504685,-0.060568329716404634,-0.05348773314113848,-0.2256696137580082,0.001811195706586529
208,11.389553400003932,-0.016981392278364454,0.0018539839352515006,0.04928760544255782,0.044345730780454694,0.050226846423957444,-0.02997642665030869,0.052744736690397136,-0.0011941302956735836,-0.060557652219199475,-0.05442219467109307,-0.22634597279900578,0.002978433963379293
209,11.394037000005484,-0.01678303725837037,0.0020780383943657913,0.04915327539289254,0.04458048807950577,0.05021926692951707,-0.030246549984229196,0.05249988204088126,-0.0022053496979223953,-0.060541755610035046,-0.055345951523370275,-0.2269877825658649,0.004150956115295189
210,11.398112599999877,-0.01658363740221175,0.002302048978021019,0.049017740457644066,0.044814143868305165,0.050207169909999,-0.030516590734241344,0.05225093047512037,-0.003219354810525147,-0.06052061666605322,-0.05625885629880047,-0.22759469121928486,0.005328603366906254
211,11.401797099999383,-0.01638319766459029,0.002525995505421066,0.04888100105739281,0.04504667997814381,0.05019054328540469,-0.030786525462823334,0.051997930730260475,-0.004235989157443172,-0.06049421288308036,-0.05716076365934885,-0.2281663504503766,0.006511212409092564
212,11.405548499998986,-0.01618172308077492,0.0027498577434369514,0.048743057717500024,0.045278078459172054,0.050169375677246365,-0.031056330633686874,0.0517409321900058,-0.005255094713232165,-0.06046252249533073,-0.058051527810143985,-0.22870241257601803,0.007698615555805462
213,11.410302100004628,-0.015979218765619023,0.0029736154097517085,0.04860391106854098,0.045508321583290844,0.05014365641545601,-0.03132598261511203,0.05147998489230959,-0.006276511899764113,-0.06042552449475483,-0.05893100088576387,-0.2292025290225086,0.008890640558624143
214,11.415017500010435,-0.015775689912564707,0.003197248176036151,0.048463561846723235,0.04573739184709786,0.0501133755453297,-0.031595457683373046,0.05121513954015709,-0.0073000795815594665,-0.060383198652397316,-0.059799033633098596,-0.22966635192707682,0.010087110147560249
215,11.41895310000109,-0.015571141792633763,0.0034207356711557116,0.04832201089428929,0.045965271974874905,0.050078523834478215,-0.03186473202626372,0.050946447503163794,-0.008325635076798002,-0.06033552554184238,-0.06065547879898021,-0.23009353918210895,0.011287841161925093
216,11.424030000009225,-0.015365579753405263,0.0036440574844082197,0.04817925915990334,0.046191944921548315,0.05003909277967315,-0.032133781746732426,0.05067396079813335,-0.009353014197656478,-0.060282486568326236,-0.061500196086904574,-0.23048376080823033,0.012492643259740801
217,11.428125999998883,-0.015159009217980112,0.0038671931687918235,0.04803530769902155,0.04641739387550287,0.04999507461343764,-0.03240258286666725,0.05039773204643107,-0.010382051318181242,-0.06022406400369734,-0.06233305565622967,-0.23083670299472664,0.01370131814645165
218,11.431525400010289,-0.014951435683933543,0.004090122244301572,0.047890157674245,0.046641602261161895,0.04994646231028687,-0.03267111133084291,0.05011781442332142,-0.011412579450675224,-0.060160241022410466,-0.06315393807781021,-0.2311520677978615,0.014913659820168974
219,11.435557400007385,-0.01474286472225664,0.004312824201253014,0.04774381035565476,0.04686455374134913,0.04989324959263727,-0.03293934301102705,0.049834261615737355,-0.012444430310878883,-0.06009100173429877,-0.063962732226931,-0.23142957030204273,0.016129455254091297
220,11.441628900007345,-0.014533301976287764,0.004535278503631506,0.04759626712112821,0.04708623221949206,0.0498354309364655,-0.03320725371021955,0.04954712779041739,-0.013477434369028632,-0.060016331214479246,-0.06475933394241568,-0.23166893684537704,0.01734848468964549
221,11.449991400004365,-0.014322753160634426,0.004757464592466298,0.04744752945663625,0.04730662184169951,0.04977300157676206,-0.033474819167025646,0.04925646756363861,-0.014511420899205874,-0.0599362155335093,-0.06554364680276667,-0.23186990607063454,0.018570521755036734
222,11.456981900002576,-0.014111224060086164,0.0049793618892285015,0.047297598956520664,0.047525706998694885,0.04970595751274996,-0.03374201506016431,0.048962335962428945,-0.015546218039772313,-0.05985064178623448,-0.06631558415626616,-0.23203223155462116,0.01979533360096571
223,11.463436799996998,-0.01389872052851917,0.005200949799251739,0.04714647732375105,0.047743472327547734,0.04963429551279917,-0.03400881701309875,0.048664788376187186,-0.01658165286617871,-0.0597595981207342,-0.06707507000265807,-0.23215568323195504,0.021022680685671757
224,11.467857900002857,-0.013685248487793721,0.005422207715173957,0.0469941663701609,0.04795990271317533,0.049558013118995645,-0.03427520059880303,0.04836388051002877,-0.017617551464103383,-0.059663073769087284,-0.06782203763963743,-0.2322400460765007,0.022252317088040253
225,11.471776999998838,-0.013470813926645411,0.005643115020398839,0.046840668016661986,0.048174983289657955,0.049477108651403194,-0.034541141344667084,0.04805966834848207,-0.018653738990496473,-0.059561059073524145,-0.06855642780210597,-0.23228511766881677,0.02348399131807247
226,11.477044700004626,-0.013255422899570843,0.005863651092575648,0.046685984293436684,0.04838869944141659,0.04939158121208791,-0.03480661473749669,0.04775220812543605,-0.019690039725014798,-0.059453545509961174,-0.06927818833015535,-0.23229070754894646,0.02471744639568273
227,11.481242100009696,-0.013039081525708348,0.0060837953070965465,0.046530117340107764,0.04860103680426007,0.049301430688921094,-0.03507159622862842,0.04744155629079887,-0.020726277125291608,-0.05934052571344984,-0.06998727542156287,-0.2322566386323491,0.02595242020163298
228,11.485456800000977,-0.012821795987714343,0.0063035270406103655,0.046373069405885044,0.04881198126626528,0.049206657759110574,-0.03533606123915669,0.04712776946927054,-0.02176227389100462,-0.05922199349858001,-0.07068365451138209,-0.23218274781030013,0.027188646171202563
229,11.489836100008688,-0.012603572530636197,0.006522825674551433,0.04621484284968857,0.04902151896845648,0.049107263892432,-0.035599985165230774,0.0468109044191537,-0.022797852024502643,-0.059097943878740004,-0.07136729883344307,-0.23206888352021615,0.02842585313876686
230,11.493152000010014,-0.01238441746078252,0.006741670598682175,0.046055440140248,0.04922963630531803,0.04900325135421923,-0.03586334338345367,0.046491018003960785,-0.02383283287319564,-0.0589683730879066,-0.07203818599558355,-0.23191490120333036,0.029663765239476444
231,11.496766399999617,-0.01216433714459146,0.006960041214648622,0.04589486385617761,0.04943631992522034,0.04889462320821742,-0.036126111256373536,0.046168167181781204,-0.024867037149653933,-0.058833278600782336,-0.07269629461920703,-0.23172065933696773,0.030902102113838464
232,11.501753400007146,-0.01194333800749719,0.007177916939548467,0.0457331166860267,0.04964155673083775,0.04878138331939409,-0.036388264138062225,0.045842409006870956,-0.02590028493859754,-0.058692659152760195,-0.07334160324552935,-0.23148601877948877,0.03214057905528541
233,11.506806899997173,-0.011721426532794479,0.007395277209511655,0.045570201428304806,0.049845333879588685,0.04866353635672986,-0.03664977737978485,0.04551380062877845,-0.02693239571115085,-0.05854651475874427,-0.07397409260163468,-0.23121084656019517,0.03337890694166324
234,11.511664300007396,-0.011498609260501249,0.007612101483293336,0.04540612099148153,0.05004763878404571,0.0485410877959023,-0.036910626335746245,0.045182399273716006,-0.027963188365646163,-0.05839484673372575,-0.07459374996498346,-0.23089502205315007,0.034616792019409724
235,11.515406699996674,-0.011274892786219487,0.007828369245878404,0.04524087839396049,0.05024845911220947,0.048414043921712634,-0.0371707863689441,0.04484826220474474,-0.028992481296962257,-0.058237657713529144,-0.07520057261947247,-0.23053844138535137,0.035853936441805914
236,11.519087799999395,-0.011050283759995361,0.0080440600120961,0.0450744767640269,0.05044778278756354,0.048282411830150945,-0.03743023285710054,0.044511446672310516,-0.03002009247665842,-0.05807495167058593,-0.07579456836849469,-0.23014101769779807,0.03709003873775304
237,11.522980499998084,-0.01082478888517964,0.008259153330242977,0.04490691933976863,0.050645597988907005,0.0481461994301079,-0.03768894119865597,0.044172009869851224,-0.031045839524642304,-0.05790673393049824,-0.07637575390867771,-0.22970267891577412,0.0383247936844281
238,11.529194900009315,-0.010598414917289304,0.008473628785712775,0.04473820946897031,0.050841893150013244,0.04800541544480052,-0.03794688681884847,0.043830008898842504,-0.03206953976941003,-0.057733011188948725,-0.07694415334395732,-0.22922336631766208,0.03955789250261909
239,11.53782830000273,-0.01037116866287101,0.008687466004632107,0.044568350608980095,0.05103665695915066,0.047860069412946425,-0.03820404517585849,0.04348550073766274,-0.03309101030694476,-0.05755379152652141,-0.0774997980054942,-0.2287030350918517,0.040789023345731645
240,11.541597200004617,-0.010143056978366977,0.008900644657500813,0.044397346326549,0.05122987835846364,0.04771017168966412,-0.03846039176702049,0.0431385422082455,-0.03411006806592562,-0.05736908442124854,-0.07804272680094719,-0.22814165528563216,0.04201787169055503
241,11.545862099999797,-0.009914086768983974,0.009113144462835678,0.04422520029764224,0.05142154654319577,0.04755573344706543,-0.03871590213507958,0.04278918994182826,-0.035126529875092474,-0.05717890075994499,-0.07857298558391274,-0.22753921101590024,0.04324412012169712
242,11.549373800007745,-0.00968426498756614,0.009324945190816067,0.044051916307222716,0.0516116509607652,0.047396766674554724,-0.03897055187450427,0.04243750035123082,-0.03614021252141264,-0.05698325285267839,-0.07909062535707806,-0.2268956978816259,0.044467447931317884
243,11.553009700000985,-0.009453598633472214,0.009536026666930318,0.04387749824900604,0.05180018130974051,0.04723328417890241,-0.03922431663787223,0.0420835296126358,-0.03715093279435922,-0.056782154447674815,-0.0795957009963684,-0.2262111208725604,0.04568753090444082
244,11.556378799999948,-0.0092220947514575,0.009746368775622032,0.043701950125187045,0.051987127538753536,0.04706529958414907,-0.03947717214231604,0.04172733364925044,-0.038158507525418967,-0.05657562074770436,-0.08008827190565018,-0.22548549488238256,0.04690404128949085
245,11.56041279999772,-0.008989760430560797,0.009955951463935608,0.043525276046137325,0.05217247984532945,0.04689282733132647,-0.03972909417605514,0.04136896810724572,-0.039162753636948974,-0.056363668425249695,-0.0805684038518484,-0.22471884711239606,0.04811664847243338
246,11.564690500003053,-0.008756602802996791,0.010164754745160048,0.04334748023007343,0.05235622867458491,0.04671588267792581,-0.0399800586049769,0.04100848832304493,-0.04016348820313076,-0.056146315632876906,-0.0810361701806525,-0.22391121879542358,0.04932501953368471
247,11.56894330000796,-0.008522629043054616,0.010372758702469743,0.04316856700269572,0.0525383647177663,0.04653448169707486,-0.04023004137926112,0.040645949288416035,-0.041160528514207845,-0.055923582013435155,-0.08149165186027293,-0.22306266551544238,0.05052881943334155
248,11.577316499999142,-0.00828784636600328,0.01057994349256094,0.04298854079679741,0.052718878910636396,0.04634864127643306,-0.04047901854005207,0.040281405617369856,-0.04215369214029167,-0.055695488708774867,-0.08193493726065372,-0.22217325748939173,0.051727711568432116
249,11.58146270000725,-0.008052262027004617,0.010786289349282666,0.042807406151843946,0.052897762431717295,0.04615837911679941,-0.040726966226160836,0.03991491151322234,-0.043142796998113506,-0.055462058364975524,-0.08236612217778691,-0.22124308008442095,0.05292135844732502
250,11.585456100001466,-0.007815883320034397,0.01099177658726078,0.04262516771352224,0.0530750067003832,0.045963713730411984,-0.04097386068078396,0.03954652073527577,-0.044127661419445366,-0.05522331513504664,-0.08278530957378599,-0.22027223348299485,0.054109422079796056
251,11.591058899997734,-0.007578717576812294,0.01119638560551372,0.04244183023326006,0.053250603374806055,0.045764664438945335,-0.041219678258229864,0.03917628656820021,-0.04510810421486392,-0.05497928468067533,-0.08319260878811659,-0.2192608313402714,0.055291564279931246
252,11.59471650001069,-0.007340772165741318,0.011400096891058689,0.04225739856771529,0.05342454434977517,0.04556125137124112,-0.04146439543065314,0.038804261795752186,-0.04608394473019228,-0.05472999417222471,-0.08358813484958923,-0.21820899956734668,0.056467446979843926
253,11.598379200004274,-0.007102054490857243,0.011602891022507155,0.042071877678235246,0.053596821754408365,0.045353495460801904,-0.04170798879478092,0.03843049867629468,-0.047055002899407845,-0.05447547228768243,-0.08397200858288036,-0.21711687627720896,0.05763673243363634
254,11.606354300005478,-0.006862571990788462,0.011804748673648674,0.04188527263028589,0.05376742794975315,0.04514141844304975,-0.0419504350786378,0.03805504891556544,-0.04802109930060185,-0.05421574921083931,-0.08434435738884646,-0.2159846127306702,0.05879908342259381
255,11.612023599998793,-0.0066223321377268125,0.012005650617021935,0.04169758859285113,0.05393635552625494,0.04492504285232074,-0.04219171114825594,0.037677963635234804,-0.04898205521732698,-0.05395085662840709,-0.08470531552284348,-0.2148123737857116,0.05995416336370767
256,11.617104200005995,-0.0063813424364100235,0.012205577727471764,0.041508830837802234,0.054103597301077694,0.044704392018576185,-0.042431794014374295,0.03729929334319087,-0.04993769269856609,-0.053680827727228785,-0.08505502300104956,-0.2136003366754921,0.06110163637687515
257,11.621985500009032,-0.006139610423116446,0.012404510985690826,0.0413190047392373,0.05426914631530699,0.04447949006386212,-0.042670660839123825,0.03691908791185526,-0.05088783460917698,-0.05340569719079689,-0.08539362442607587,-0.21234868967514325,0.06224116751990642
258,11.627524900002754,-0.005897143664672455,0.012602431481745042,0.04112811577279104,0.054432995831077226,0.04425036189857044,-0.04290828894269563,0.036537396558946396,-0.05183230467796599,-0.05312550119436695,-0.08572126977512472,-0.2110576336093984,0.06337242379537877
259,11.633545700009565,-0.005653949757472811,0.01279932041858193,0.04093616951491475,0.05459513932860303,0.04401703321746946,-0.04314465580998261,0.03615426781876319,-0.052770927561584156,-0.052840277392492446,-0.08603811659222027,-0.209727385632995,0.06449507590799813
260,11.638112300002833,-0.005410036326514551,0.012995159115520608,0.040743171642126846,0.05475557050305025,0.043779530495394965,-0.04337973909713635,0.035769749503388855,-0.0537035289263302,-0.05255006489845887,-0.08634433094137568,-0.20835818145272159,0.06560879906600936
261,11.641713500008336,-0.005165411024445262,0.013189929011721687,0.04054912793023434,0.05491428326122126,0.043537880982550896,-0.043613516638025276,0.035383888665470264,-0.054629935531872155,-0.05225490426466828,-0.08664008626052898,-0.20695027469301971,0.0667132725620087
262,11.6475916000054,-0.00492008153062655,0.013383611669635349,0.04035404425352572,0.05507127171809382,0.04329211269945344,-0.04384596645061657,0.034996731569647145,-0.05554997530739017,-0.05195483746581346,-0.08692556190298527,-0.20550393584074908,0.06780817975246274
263,11.654239600000436,-0.004674055550213198,0.01357618877842613,0.04015792658393553,0.05522653019325146,0.04304225443155236,-0.04407706674328419,0.034608323668344966,-0.05646347742588313,-0.051649907879445206,-0.08720094277603123,-0.204019452699583,0.06889320897626722
264,11.661241599998904,-0.004427340813248475,0.013767642157373005,0.03996078099018094,0.055380053207206396,0.04278833572351208,-0.04430679592101736,0.03421870957642845,-0.05737027238436567,-0.05134016026095094,-0.08746641948405763,-0.20249713153049842,0.06996805457110478
265,11.664946200005945,-0.004179945073776107,0.013957953759243151,0.03976261363687093,0.05553183547760376,0.04253038687311751,-0.044535132591505405,0.0338279330457175,-0.05827019208835043,-0.051025640715053854,-0.08772218778481726,-0.20093729710991012,0.07103241698048789
266,11.668837799996254,-0.003931876108969454,0.014147105673637654,0.03956343078358861,0.05568187191531711,0.042268438924801366,-0.04476205557109192,0.033436036944492084,-0.059163069932563754,-0.05070639666983651,-0.08796844714246428,-0.1993402912481928,0.07208600179666909
267,11.673110100004124,-0.0036831417182783144,0.014335080130307525,0.039363238783947214,0.055830157620469834,0.042002523662829805,-0.044987543890627826,0.03304306324491821,-0.06004874087220996,-0.050382476856779296,-0.08820539903408187,-0.19770647071521405,0.07312851874428541
268,11.677240200006054,-0.0034337497225936002,0.014521859502438606,0.03916204408462025,0.055976687878418474,0.04173267360419394,-0.04521157680124748,0.03264905301766222,-0.06092704148517827,-0.050053931293852084,-0.08843324562946872,-0.19603620564518343,0.07415968120172489
269,11.681291300003068,-0.003183707963429979,0.014707426309904164,0.038959853224345954,0.05612145815572605,0.04145892199124047,-0.04543413378007084,0.03225404643109599,-0.06179781002907485,-0.04972081126982318,-0.08865218902023221,-0.19432987871746538,0.07517920605503697
270,11.686254900007045,-0.0029330243021264773,0.014891763222484046,0.038756672832906534,0.056264464096138306,0.04118130278405429,-0.045655194535839584,0.03185808275278935,-0.06266088649612084,-0.04938316932865443,-0.08886243071710406,-0.19258788445898745,0.07618681367797019
271,11.69057220000832,-0.0026817066190650213,0.015074853063049308,0.038552509630082374,0.05640570151657036,0.04089985065259936,-0.04587473901448004,0.03146120035320033,-0.06351611266396034,-0.049041059253988224,-0.08906417103193201,-0.19081062787686537,0.0771822275408577
272,11.69430660000944,-0.0024297628129068493,0.015256678810711253,0.03834737042458161,0.05654516640311586,0.04061460096864799,-0.046092747404600905,0.031063436712681608,-0.0643633321383585,-0.048694536057032244,-0.0892576083563716,-0.18899852274235213,0.07816517341025786
273,11.698453999997582,-0.0021772007998466588,0.015437223603934047,0.038141262112945315,0.05668285490709616,0.04032558979754072,-0.046309200142948086,0.03066482843160631,-0.06520239038869857,-0.0483436559681874,-0.08944293890457981,-0.1871519908589048,0.07913537915317251
274,11.702864999999292,-0.0019240285128842688,0.01561647074361024,0.03793419167842838,0.05681876334115981,0.04003285388979894,-0.046524077919827704,0.03026541123967024,-0.06603313478414957,-0.04798847642667935,-0.08962035746371265,-0.18527146336009392,0.0800925762609849
275,11.711087000003316,-0.0016702539011135688,0.01579440369609855,0.03772616618985633,0.056952888175414725,0.03973643067256204,-0.04673736168446844,0.029865219999321613,-0.06685541464074354,-0.04762905605858963,-0.0897900587773415,-0.18335738332119456,0.0810365024484051
276,11.714992499997608,-0.0014158849290286893,0.015971006096222977,0.03751719280045836,0.05708522603355829,0.039436358240779984,-0.046949032650248516,0.02946428870272018,-0.06766908128084424,-0.047265454643298926,-0.08995223865360175,-0.1814102078412384,0.08196690357792936
277,11.719021400000202,-0.0011609295758474795,0.016146261750232017,0.03730727874667749,0.05721577368898239,0.03913267534811993,-0.04715907229975866,0.02906265046527988,-0.06847398809880086,-0.04689773307434783,-0.0901070944752012,-0.1794304087956055,0.08288353483249117
278,11.723106400007964,-0.0009053958348524295,0.01632015463871664,0.037096431346958475,0.0573445280608459,0.03882542139757299,-0.047367462389679864,0.028660337518077582,-0.06926999062713143,-0.04652595331541751,-0.09025482530123059,-0.177418472472549,0.08378616144783149
279,11.727175200008787,-0.0006492917127491892,0.01649266891948568,0.03688465800051441,0.05747148621011197,0.03851463643177033,-0.047574184955453604,0.028257381200487364,-0.07005694659893362,-0.04615017835465616,-0.09039563152564627,-0.17537489838598766,0.08467455848804847
280,11.73148260000744,-0.00039262522904284704,0.01666378893039744,0.036671966186072956,0.05759664533555484,0.038200361123033155,-0.0477792223157521,0.027853811955636326,-0.07083471600347561,-0.04577047216266222,-0.09052971403506967,-0.17330019751709302,0.08554850975113144
281,11.735521199996583,-0.0001354044154320771,0.016833499192146283,0.0364583634606031,0.05772000276975655,0.03788263676319275,-0.047982557076773645,0.027449659330553135,-0.07160316113291804,-0.04538689965657585,-0.09065727332160653,-0.17119489050907502,0.0864078068409032
282,11.739710499998182,0.00012236268477886476,0.017001784411003418,0.03624385745802303,0.057841555975115054,0.037561505253223625,-0.048184172136392485,0.027044951979539416,-0.07236214662179845,-0.044999526666342486,-0.09077850906261876,-0.1690595063874143,0.08725224905030622
283,11.743794800000614,0.0003806680172503773,0.017168629481511002,0.03602845588788987,0.057961302539871064,0.0372370090927113,-0.048384050688153143,0.02663971766806765,-0.07311153948233491,-0.0446084198998456,-0.09089362013711137,-0.16689458190035344,0.08808164347785431
284,11.748064600004,0.0006395035171600685,0.01733401948912894,0.03581216653407193,0.05807924017415092,0.036909191369170424,-0.04858217622510922,0.026233983276006356,-0.07385120913802626,-0.04421364690813125,-0.09100280465214466,-0.16470066127500624,0.0888958050183958
285,11.75210209999932,0.0008988611097376853,0.017497939712833702,0.0355949972534042,0.0581953667060222,0.0365780957472128,-0.04877853254350743,0.02582777480128233,-0.07458102745677961,-0.04381527605062332,-0.0911062595790017,-0.16247829586564438,0.08969455617744522
286,11.756377600002452,0.001158732710782477,0.017660375627668458,0.03537695597432768,0.058309680077569266,0.03624376645756991,-0.04897310374631606,0.02542111736635201,-0.0753008687813726,-0.04341337646200456,-0.0912041799238865,-0.16022804343500963,0.09047772632791815
287,11.759902899997542,0.0014191102271631085,0.017821312907243963,0.03515805069551345,0.05842217834100663,0.03590624828598917,-0.0491658742466135,0.025014035229262894,-0.07601060995616864,-0.043008018024063406,-0.09129675775044262,-0.1579504672950291,0.0912451505978019
288,11.764270400002715,0.001679985557300348,0.017980737426189625,0.034938289484471745,0.058532859654853185,0.03556558656201811,-0.04935682877086551,0.02460655179884615,-0.07671013034991245,-0.04259927134249942,-0.09138418163496057,-0.15564613581362524,0.09199666955679155
289,11.768943600007333,0.0019413505916328455,0.018138635262554315,0.03471768047614676,0.0586417222801811,0.03522182714769719,-0.04954595236210683,0.024198689650638778,-0.077399311878045,-0.04218720772156596,-0.09146663694958417,-0.1533156232497717,0.09273213068094735
290,11.773061500003678,0.002203197213066352,0.01829499270015655,0.0344962318714974,0.05874876457693214,0.03487501642614494,-0.04973323038299218,0.02379047053954941,-0.07807803903294955,-0.04177189912780774,-0.09154430665456516,-0.150959511551123,0.09345139067924993
291,11.777333100006215,0.0024655172974066327,0.01844979623088346,0.034273951936064785,0.058853985000279566,0.03452520128998089,-0.04991864851865435,0.023381915408711824,-0.07874619892230536,-0.04135341814394554,-0.09161737177026598,-0.14857839115987206,0.09415431678235599
292,11.781651199999033,0.0027283027137762253,0.018603032556937675,0.03405084899852756,0.05895738209702342,0.034172429129568506,-0.05010219277934373,0.022973044397939464,-0.07940368130652374,-0.04093183792111527,-0.09168601110285095,-0.14617286031924756,0.09484078624461531
293,11.785628900004667,0.0029915453250151922,0.0187546885930314,0.03382693144924584,0.05905895450202788,0.03381674782110412,-0.05028384950286027,0.02256387685502638,-0.08005037863091419,-0.04050723213719578,-0.09175040049003458,-0.1437435236867016,0.09551068425356245
294,11.789340600007565,0.0032552369880660915,0.018904751468527027,0.033602207738794784,0.05915870093471739,0.03345820571457288,-0.050463605356821234,0.02215443135093131,-0.08068618605074707,-0.04007967496769978,-0.09181071193639033,-0.14129099081382088,0.09616390148673261
295,11.793471099997989,0.0035193695543434675,0.019053208529523743,0.03337668637648835,0.059256620195649444,0.03309685162161404,-0.0506414473408334,0.021744725698793557,-0.08131100144985726,-0.03964924106590017,-0.0918671129774727,-0.13881587565338857,0.09680033351665802
296,11.797779800006538,0.0037839348700882433,0.019200047340889884,0.03315037592889347,0.059352711163180416,0.03273273480331095,-0.05081736278858354,0.021334776974790474,-0.08192472546130875,-0.03921600553902972,-0.09191976672374991,-0.13631879753687834,0.0974198826178305
297,11.802149800001644,0.004048924776707464,0.0193452556882406,0.032923285018335156,0.059446972790224435,0.032365904957871984,-0.05099133936979823,0.020924601536761366,-0.08252726149471964,-0.03878004391228534,-0.09196883254067532,-0.13380038244812464,0.09802246018931812
298,11.806340700000874,0.004314331111099769,0.01948882157986029,0.032695422321393185,0.05953940410108536,0.03199641220817668,-0.0511633650920132,0.020514215038997266,-0.0831185157682907,-0.03834143208341272,-0.09201446651642133,-0.13126126317581852,0.09860798744869252
299,11.809779100003652,0.004580145705966874,0.01963073324856917,0.03246679656739142,0.05963000418834763,0.03162430708917095,-0.051333428302127934,0.02010363244669163,-0.08369839733749089,-0.03790024628051932,-0.09205682112376151,-0.1287020777018069,0.09917639339041691
300,11.813190400003805,0.004846360390111299,0.019770979153533222,0.03223741653688063,0.059718772209837165,0.031249640535157285,-0.0515015176877986,0.019692868053746863,-0.08426681811270607,-0.0374565630348746,-0.0920960446924536,-0.12612346715787032,0.09972761234319004
301,11.819021100003738,0.005112966988720735,0.01990954798201737,0.03200729106011538,0.05980570738567109,0.030872463867032466,-0.05166762227875,0.019281935501932496,-0.0848236928696946,-0.03701045916051679,-0.09213228173079467,-0.12352607533814779,0.10026158472184028
302,11.823226799999247,0.005379957323639451,0.02004642865108158,0.031776429015525146,0.05989080899538957,0.030492828779484497,-0.051831731447986515,0.018870847795822744,-0.08536893926288572,-0.03656201172034463,-0.0921656740369927,-0.12091054985706187,0.10077826073555146
303,11.827221200001077,0.005647323213627069,0.020181610309219777,0.0315448393281804,0.05997407637513881,0.030110787328111687,-0.05199383491280155,0.018459617312038844,-0.0859024778461664,-0.03611129797263868,-0.09219636138490551,-0.1182775429740961,0.10127760292737542
304,11.832440500002122,0.005915056474604842,0.02031508233794104,0.03131253096825471,0.060055508914885335,0.02972639191643409,-0.052153922735511324,0.018048255808068316,-0.08642423209353858,-0.03565839531449509,-0.09222448092232945,-0.11562771063206682,0.10175958476788438
305,11.836094300000696,0.006183148919889565,0.02044683435329263,0.031079512949484297,0.0601351060556777,0.02933969528282829,-0.0523119853239596,0.01763677443687588,-0.08693412841132524,-0.0352033812408946,-0.09225016574548109,-0.11296171059104058,0.10222418718717217
306,11.83988820000377,0.006451592360415428,0.020576856207324593,0.03084579432762562,0.06021286728699113,0.028950750487429944,-0.052468013431886305,0.01722518376844144,-0.08743209614217812,-0.034746333319078386,-0.09227354380584532,-0.11028020107986455,0.10267139643405199
307,11.84396270000434,0.006720378604944238,0.02070513798949596,0.030611384198911636,0.060288792144181376,0.0285596108990328,-0.05262199815920364,0.01681349381412429,-0.08791806756525258,-0.03428732916671766,-0.09229473790320239,-0.10758384024919469,0.10310120444851109
308,11.848102000003564,0.006989499460264546,0.020831670028022452,0.03037629169850694,0.06036288020604676,0.028166330181989673,-0.0527739309521699,0.016401714048263318,-0.08839197789533512,-0.033826446422966436,-0.09231386654421447,-0.10487328607889015,0.10351361081084404
309,11.852431300008902,0.007258946731380124,0.020956442891165796,0.03014052599896246,0.060435131092474725,0.02777096228311927,-0.05292380360340734,0.015989853424880743,-0.08885376528219195,-0.033363762709240616,-0.09233104470774676,-0.10214919619220679,0.10390862407424892
310,11.856374100010726,0.007528712221688093,0.021079447388464623,0.029904096308670445,0.06050554446215294,0.027373561418612965,-0.05307160825172605,0.015577920392454,-0.08930337080803874,-0.03289935558838109,-0.09234638386273793,-0.09941222703003191,0.10428626110576274
311,11.86246519999986,0.007798787733146978,0.021200674571906955,0.02966701187032073,0.06057412001034765,0.026974182060964188,-0.05321733738177744,0.015165922910460032,-0.08974073847952159,-0.03243330253131312,-0.09235999159103037,-0.09666303279138373,0.10464654577754719
312,11.867367700004252,0.008069165066435012,0.021320115737044495,0.02942928195935881,0.06064085746676234,0.026572878925946765,-0.053360983823580684,0.014753868467512345,-0.0901658152157337,-0.03196568088788602,-0.09237197152304122,-0.09390226453423772,0.10498950894230666
313,11.872898300003726,0.008339836021099086,0.021437762424048927,0.029190915882446336,0.06070575659347798,0.02616970695965122,-0.053502540751916024,0.014341764098479258,-0.0905785508321738,-0.031496567853751836,-0.09238242374988498,-0.09113056941352007,0.10531518954169386
314,11.877167600003304,0.00861079239569468,0.021553606418710538,0.028951922975924606,0.06076881718296438,0.025764721325606237,-0.053642001685555676,0.013929616398943927,-0.09097889802196399,-0.031026040431315682,-0.09239144543641511,-0.08834859053489284,0.10562363548590831
315,11.881455700000515,0.008882025987917062,0.021667639753379618,0.028712312604281913,0.06083003905614944,0.02535797739198254,-0.05377936048630875,0.013517431536852934,-0.09136681233850368,-0.030554175388766473,-0.09239913135041024,-0.08555696695439473,0.10591490353157705
316,11.885546700010307,0.009153528594724002,0.021779854707850915,0.02847209415862556,0.06088942206053447,0.02494953071886912,-0.053914611357886603,0.013105215262254813,-0.09174225217668422,-0.030081049222116806,-0.09240557415344815,-0.08275633326314359,0.1061890582512689
317,11.889638100008597,0.009425292012450149,0.021890243810191504,0.028231277055159338,0.0609469660683503,0.02453943704564473,-0.05404774884460909,0.012692972916353417,-0.09210517875183745,-0.029606738123427897,-0.09241086447717724,-0.07994731940202147,0.10644617078745765
318,11.89505820001068,0.00969730803691329,0.021998799837512576,0.02798987073366708,0.0610026709747534,0.024127752278441914,-0.05417876782998641,0.012280709440565935,-0.09245555607929695,-0.029131317953966805,-0.09241509085131633,-0.07713055060802321,0.1066863182075742
319,11.898664699998337,0.009969568463512645,0.022105515816685455,0.027747884656002784,0.06105653669606277,0.023714532477700886,-0.05430766353518584,0.011868429386218654,-0.09279335095286788,-0.02865486421818571,-0.09241833950770435,-0.07430664730642798,0.1069095831970068
320,11.902431399998022,0.010242065087319384,0.022210385025002336,0.027505328304587864,0.06110856316804261,0.023299833845825648,-0.05443443151738145,0.011456136925353284,-0.09311853292342617,-0.028177452039618245,-0.09242069415009563,-0.07147622512566153,0.10711605338949193
321,11.906377799998154,0.010514789703159604,0.02231340099078218,0.02726221118091599,0.06115875034423562,0.022883712714928794,-0.054559067668005765,0.011043835862476642,-0.09343107427752098,-0.027699156140833132,-0.09242223576117191,-0.0686398947116823,0.10730582080018258
322,11.910255700000562,0.010787734105689974,0.022414557493922096,0.02701854280406592,0.06120709819435045,0.02246622553467856,-0.05468156821092062,0.010631529647088854,-0.0937309500143178,-0.02722005082438879,-0.09242304241269451,-0.06579826153237268,0.10747898166491203
323,11.915078200006974,0.011060890089466327,0.022513848566394812,0.026774332709222692,0.06125360670270684,0.02204742886024934,-0.05480192970049891,0.010219221387126888,-0.09401813782245565,-0.02674020995422108,-0.09242318930891401,-0.06295192570198715,0.10763563647410447
324,11.919562000010046,0.011334249449005431,0.022611268492692554,0.026529590446207552,0.06129827586674301,0.02162737934037522,-0.054920149019629355,0.009806913861105455,-0.09429261805542387,-0.026259706936295365,-0.09242274930189641,-0.06010148157077953,0.10777589081785119
325,11.923121800005902,0.01160780397884026,0.022706811810217914,0.02628432557801694,0.06134110569556909,0.021206133705520176,-0.055036223377625655,0.009394609526962706,-0.09455437370475792,-0.02577861469245433,-0.09242179336788829,-0.057247517285150006,0.10789985652438996
326,11.927298100010375,0.011881545473568867,0.022800473309622194,0.026038547679371096,0.06138209620855344,0.020783748756170776,-0.055150150307997914,0.008982310529950922,-0.09480339037149173,-0.02529700563091232,-0.09242039039253806,-0.05439061454851387,0.10800765160083318
327,11.93146560000605,0.012155465727897032,0.02289224803509182,0.02579226633527291,0.061421247433946516,0.020360281351261084,-0.05526192766609852,0.008570018713398507,-0.0950396562372199,-0.024814951620632027,-0.09241860641891264,-0.05153134856259659,0.10809939939358003
328,11.935563200007891,0.012429556536674862,0.022982131284583398,0.025545491139577544,0.061458559407563174,0.019935788396723535,-0.055371553626664974,0.008157735633310001,-0.0952631620350263,-0.02433252396930975,-0.09241650404325992,-0.0486702879246512,0.10817522788532115
329,11.939646200000425,0.012703809694927687,0.023070118610007993,0.025298231693573196,0.0614940321715368,0.019510326834173232,-0.05547902668126935,0.0077454625745191855,-0.09547390101962921,-0.023849793404024325,-0.09241414230073365,-0.04580799446665212,0.10823526921501299
330,11.943908900007957,0.012978216997881533,0.023156205817365216,0.025050497604573483,0.06152766577314578,0.01908395362972519,-0.055584345635688454,0.00733320056630868,-0.09567186893687521,-0.02336683005350528,-0.09241157701048504,-0.04294502272766944,0.10827965980548927
331,11.951770400002715,0.013252770240983557,0.023240388966827726,0.024802298484521673,0.06155946026370693,0.018656725762950806,-0.055687509607195096,0.0069209503954840825,-0.09585706398917669,-0.022883703427643183,-0.09240886135348883,-0.04008191862492644,0.10830854142401468
332,11.960716800007503,0.013527461219917642,0.023322664372776792,0.024553643948607227,0.06158941569751864,0.018228700216003486,-0.055788518021745434,0.006508712616838096,-0.09602948679314874,-0.022400482390295337,-0.0924060462074358,-0.03721921797368194,0.10832206254460612
333,11.964683900005184,0.013802281730615405,0.023403028603789764,0.024304543613895134,0.0616175321308477,0.017799933962953082,-0.055887370611027595,0.006096487563236703,-0.09618914033184078,-0.02191723512664128,-0.0924031799614176,-0.03435744587209171,0.10832037871945074
334,11.968845900002634,0.014077223569262751,0.023481478482580483,0.02405500709796878,0.06164380962096239,0.017370483959337712,-0.05598406740935778,0.005684275357736707,-0.09633602990688507,-0.021434029112674627,-0.09240030785102185,-0.03149711721893069,0.10830365142081261
335,11.972960400002194,0.014352278532302254,0.023558011085893525,0.023805044017586974,0.06166824822522743,0.016940407131925142,-0.056078608750456685,0.005272075929604303,-0.09647016309534755,-0.02095093109289126,-0.09239747107481337,-0.02863873803212043,0.10827204609251498
336,11.977269399998477,0.014627438416431639,0.023632623744353265,0.023554663987355593,0.06169084800027999,0.01650976036864959,-0.05617099526414652,0.004859889034315524,-0.09659154971364045,-0.020468007067166196,-0.0923947060152423,-0.025782806782673917,0.10822573004940822
337,11.98065320000751,0.014902695018598804,0.023705314042268333,0.023303876618414064,0.06171160900130311,0.016078600508695078,-0.05626122787301035,0.004447714276526012,-0.09670020178627489,-0.019985322287183097,-0.09239204354418923,-0.022929815610972362,0.10816487029350168
338,11.983951900008831,0.015178040135993828,0.023776079817392198,0.023052691517136813,0.06173053128140664,0.015646984332711045,-0.05634930778905727,0.004035551136267509,-0.09679613352062527,-0.019502941262795975,-0.09238950824430779,-0.02008025164049882,0.10808963141857288
339,11.987301400004071,0.015453465566038464,0.02384491916064033,0.022801118283849512,0.06174761489113436,0.01521496855312085,-0.056435236510438504,0.003623398998864937,-0.09687936128740322,-0.019020927777154154,-0.09238711791592567,-0.017234597754789367,0.10800017446724358
340,11.992364300007466,0.015728963106373752,0.023911830415764314,0.02254916651155982,0.061762859878111885,0.014782609804511588,-0.0565190158182475,0.003211257185532417,-0.09694990360235413,-0.018539344903261337,-0.09238488422407969,-0.01439333212856374,0.10789665842082378
341,11.997851499996614,0.01600452455484637,0.023976812178983266,0.022296845784702188,0.06177626628682675,0.014349964634105913,-0.056600647773383805,0.002799124977517383,-0.09700778110254772,-0.01805825500580792,-0.09238281483304538,-0.011556926356484781,0.10777924456608746
342,12.002294400008395,0.01628014170949428,0.024039863298572935,0.022044165677896566,0.06178783415849174,0.013917089492363394,-0.056680134713369495,0.0023870016276519544,-0.09705301651137907,-0.01757771971876893,-0.09238091579495682,-0.00872584347019317,0.1076481007454157
343,12.006449200009229,0.01655580636853187,0.024100982874413267,0.021791135754721625,0.061797563530928024,0.013484040723764596,-0.056757479249013164,0.001974886363185371,-0.09708563459716682,-0.017097799909315814,-0.09237919241493237,-0.005900537371719913,0.10750340247984591
344,12.010632999998052,0.016831510330334552,0.024160170257495277,0.02153776556650323,0.06180545443845376,0.013050874557781837,-0.0568326842609044,0.0015627783896165627,-0.09710566213309899,-0.01661855564539435,-0.09237764842264584,-0.003081453688067326,0.10734533101053452
345,12.014667000010377,0.017107245393422902,0.02421742504938805,0.021284064651118928,0.061811506911801456,0.012617647100020639,-0.056905752895788454,0.0011506769009179702,-0.09711312786345591,-0.01614004617711083,-0.09237628456746627,-0.0002690312710805572,0.10717407030485301
346,12.01897830000962,0.017383003356446533,0.024272747101666582,0.021030042531818775,0.061815720978097746,0.012184414323491844,-0.05697668856289469,0.0007385810959025226,-0.09710806247693818,-0.015662329931022116,-0.09237509753750824,0.0025362965374414407,0.10698980492089766
347,12.023121100006392,0.01765877601816805,0.024326136515300908,0.02077570871606258,0.0618180966609268,0.011751232059991045,-0.05704549493026027,0.00032649019809187876,-0.0970904985841771,-0.015185464510575035,-0.09237407925872711,0.00533410108522722,0.10679271902085614
348,12.030256600002758,0.017934555177447492,0.024377593640007023,0.020521072694373536,0.06181863398048739,0.011318155991571356,-0.057112175921062526,-8.559652166300027e-05,-0.09706047069838347,-0.014709506699199341,-0.0923732162242611,0.008123957710807164,0.10658299538480696
349,12.033614600004512,0.018210332633227678,0.024427119073559933,0.020266143939208177,0.061817332953858085,0.010885241642095493,-0.05717673570997028,-0.0004976797193298832,-0.09701801521909216,-0.014234512469546184,-0.09237248893857157,0.010905445113433469,0.10636081399879697
350,12.037450200004969,0.018486100184521022,0.024474713661069205,0.020010931903842573,0.061814193595384995,0.010452544368853582,-0.05723917871955861,-0.0009097599501152191,-0.09696317041843257,-0.013760536999178473,-0.09237187202552927,0.013678145182298948,0.106126351756648
351,12.041813500007263,0.018761849630398345,0.024520378494217225,0.019755446021274277,0.061809215917193044,0.010020119354237739,-0.057299509616800144,-0.0013218376435765334,-0.096895976426397,-0.013287634682469879,-0.09237133535538801,0.016441643484749708,0.10587978418924876
352,12.047279400008849,0.019037572769980242,0.02456411491046047,0.019499695703139815,0.061802399929795755,0.00958802159749131,-0.05735773330958603,-0.0017339130860974342,-0.09681647521275513,-0.012815859130866162,-0.09237084562319299,0.019195529979515173,0.10562128798523072
353,12.051874800003134,0.019313261402431336,0.024605924492194148,0.01924369033864768,0.06179374564276289,0.00915630590654482,-0.057413854943219565,-0.0021459864100828417,-0.09672471056595888,-0.012345263162294264,-0.09237036734596386,0.021939399637296884,0.10535104261758053
354,12.056288300009328,0.019588907326957606,0.024645809065880635,0.018987439293527107,0.061783253065426626,0.008725026889953424,-0.05746787989684263,-0.0025580575853310357,-0.09662072806951985,-0.01187589878691071,-0.09236986299858695,0.02467285254314981,0.10506923042200197
355,12.060538200006704,0.019864502342806938,0.02468377070114218,0.01873095190899295,0.06177092220762619,0.008294238948943619,-0.057519813779802184,-0.002970126409441339,-0.09650457508000071,-0.011407817195811546,-0.09236929259376077,0.027395493144211098,0.10477603576107827
356,12.064626300008968,0.020140038249273098,0.02471981170981837,0.01847423750072687,0.061756753080499625,0.007863996269547063,-0.05756966242797599,-0.0033821924954383657,-0.09637630071010457,-0.010941068754238236,-0.09236861307191867,0.030106929517070787,0.10447164404269112
357,12.06884920000448,0.020415506845703348,0.024753934644988658,0.018217305357875007,0.06174074569733881,0.007434352814798167,-0.05761743190007846,-0.0037942552567364883,-0.096235955813203,-0.010475702999045424,-0.09236777777823064,0.03280677316257056,0.10415624092924813
358,12.072982300000149,0.020690899931510045,0.024786142299960224,0.017960164742062117,0.061722900074515405,0.007005362317005954,-0.05766312847396379,-0.004206313890097805,-0.09608359296825625,-0.010011768638962248,-0.09236673594492269,0.03549463859063082,0.10383001174564879
359,12.077205499997945,0.020966209306186524,0.02481643770722154,0.01770282488642223,0.06170321623248792,0.006577078270086196,-0.05770675864293417,-0.00461836735597777,-0.09591926646804548,-0.009549313557342336,-0.0923654321339346,0.03817014295383105,0.10349314091313887
360,12.080793900007848,0.021241426769327675,0.024844824137361807,0.01744529499464573,0.06168169419690302,0.00614955392193827,-0.0577483291120674,-0.005030414356510456,-0.09574303230736228,-0.00908838481747636,-0.09236380576369438,0.040832906047392696,0.10314581148044313
361,12.085189100005664,0.021516544120655658,0.02487130509795653,0.017187584240042776,0.06165833399979899,0.00572284226688267,-0.05778784679457254,-0.005442453311631985,-0.09555494817124105,-0.00862902866952536,-0.09236179091892116,0.04348255002110947,0.10278820472288688
362,12.089765099997749,0.021791553160051214,0.02489588433241947,0.016929701764622898,0.0616331356809201,0.0052969960381428535,-0.057825318808179385,-0.005854482335368818,-0.0953550734257187,-0.008171290559409993,-0.0923593165645313,0.04611869896401732,0.10242049995263444
363,12.0931222000072,0.022066445687591106,0.024918565818821126,0.01667165667819063,0.061606099289131626,0.004872067700365196,-0.057860752471573414,-0.006266499213869693,-0.09514346910977269,-0.007715215137436951,-0.09235630691243431,0.04874097874313713,0.10204287471812687
364,12.098330599998008,0.022341213503592063,0.024939353768673966,0.016413458057456913,0.0615772248839302,0.004448109442172772,-0.057894155300862234,-0.006678501384966533,-0.0949201979275195,-0.007260846265408791,-0.09235268174422295,0.05134901686200864,0.10165550487721349
365,12.103217199997744,0.022615848408661685,0.024958252625684473,0.016155114945166263,0.061546512537041215,0.004025173168754913,-0.057925535006073954,-0.007090485919085481,-0.09468532424141489,-0.006808227024597852,-0.09234835642572989,0.053942442040484186,0.10125856467368421
366,12.106750100007048,0.022890342203756648,0.024975267064472253,0.01589663634923941,0.06151396233409946,0.0036033104944816563,-0.0579548994876948,-0.007502449498937684,-0.09443891406820144,-0.006357399722173265,-0.09234324156951929,0.056520883892266914,0.10085222716961523
367,12.110543500006315,0.0231646866902486,0.024990401989256183,0.015638031241931354,0.061479574376427766,0.003182572735529464,-0.057982256833224805,-0.00791438839741902,-0.09418103507498593,-0.005908405895317394,-0.09233724303061619,0.05908397301784756,0.10043666467196
368,12.115341700002318,0.02343887366999824,0.02500366253250773,0.015379308559004741,0.06144334878291479,0.002763010902530666,-0.05800761531375217,-0.008326298457262777,-0.09391175657435769,-0.005461286313846732,-0.09233026265857741,0.061631341219367995,0.10001204933094728
369,12.120901200003573,0.02371289494543796,0.02501505405357151,0.015120477198918483,0.06140528569197522,0.0023446756932427337,-0.05803098338053233,-0.008738175075649493,-0.09363114951854887,-0.00501608097898933,-0.09232219961579594,0.06416262195491468,0.0995785538959874
370,12.124967199997627,0.023986742319663412,0.025024582137253212,0.014861546022031654,0.061365385263564866,0.0019276174852498296,-0.0580523696615514,-0.00915001319562177,-0.09333928649049958,-0.004572829119261366,-0.09231295163408994,0.0666774507635312,0.09913635211524251
371,12.131342799999402,0.02426040759653415,0.025032252592375032,0.01460252384982277,0.06132364768121747,0.001511886328711797,-0.05807178295806848,-0.009561807301905622,-0.09303624169422609,-0.00413156918567954,-0.09230241545341189,0.06917546532867044,0.09868561884772291
372,12.135626700008288,0.024533882580783345,0.025038071450298894,0.014343419464124542,0.061280073154097094,0.0010975319391516457,-0.058089232241136345,-0.009973551416239531,-0.0927220909453198,-0.003692338846637497,-0.09229048683143724,0.07165630559057096,0.098226530300902
373,12.13971709999896,0.024807159078136746,0.025042044963417547,0.01408424160637419,0.061234661919076554,0.000684603690289313,-0.05810472664809805,-0.01038523909328134,-0.09239691166031287,-0.0032551749809981803,-0.0922770608425437,0.07411961366810615,0.09775926432368295
374,12.143876900008763,0.025080228895440947,0.02504417960361384,0.013824998976879457,0.06118741424282637,0.0002731506069240307,-0.058118275479046015,-0.010796863418604863,-0.09206078284787443,-0.002820113670356357,-0.09226203201876017,0.07656503364384609,0.09728400035252985
375,12.150404200001503,0.025353083840800976,0.025044482060688315,0.013565700234100522,0.06113833042391109,-0.0001367786421533653,-0.05812988819324957,-0.011208417005864342,-0.0917137851000939,-0.002387190192611599,-0.09224529408103296,0.07899221190599316,0.09680091902043891
376,12.153878199998871,0.025625715723727273,0.02504295924075525,0.01330635399394788,0.06108741079490349,-0.0005451357512002963,-0.058139574405556685,-0.01161989199239337,-0.09135600058062643,-0.001956439017719632,-0.0922267397928728,0.0814007975000874,0.09631020164457518
377,12.15819850000844,0.025898116355292138,0.02503961826460743,0.013046968829096362,0.061034655724520194,-0.0009518727845043625,-0.05814734388278364,-0.012031280035063565,-0.09098751301283824,-0.0015278938058367138,-0.09220626133194558,0.08379044211923994,0.09581203001576567
378,12.164970800004085,0.026170277548295765,0.025034466466049902,0.012787553268315228,0.06098006561977282,-0.0013569421833174349,-0.05815320654010019,-0.01244257230919888,-0.09060840766803918,-0.0011015874049491619,-0.09218375099794995,0.08616080022624802,0.09530658673313092
379,12.1691012000083,0.026442191117441883,0.025027511390202886,0.012528115795814436,0.060923640928113296,-0.001760296772732586,-0.05815717243739806,-0.012853759510750094,-0.09021877135253856,-0.0006775518460320895,-0.09215910176420641,0.08851152917084461,0.09479405563704034
380,12.173019000008937,0.02671384887952293,0.02501876079177416,0.012268664850607144,0.060865382139565584,-0.0021618897685026913,-0.05815925177563294,-0.013264831860130494,-0.08981869239483156,-0.0002558183368160318,-0.0921322074498104,0.0908422893508857,0.0942746218324727
381,12.17782189999707,0.02698524265361471,0.025008222633301144,0.012009208825888606,0.06080528978883678,-0.002561674783803036,-0.05815945489313736,-0.01367577910592634,-0.08940826063121694,0.00016358274326274563,-0.09210296244505828,0.09315274451030946,0.09374847127201233
382,12.181631400002516,0.027256364261280416,0.02499590508336294,0.011749756068431576,0.06074336445741575,-0.002959605835921593,-0.05815779226191763,-0.014086590526282756,-0.08898756739032503,0.0005806218455750396,-0.09207126141342557,0.09544256176358433,0.09321579023590197
383,12.18558020000637,0.027527205526783997,0.02498181651476273,0.011490314877998247,0.06067960677567185,-0.0033556373528835877,-0.0581542744839443,-0.014497254929955194,-0.08855670547851723,0.0009952702527093417,-0.09203699924371335,0.09771141145895756,0.09267676481593058
384,12.192133999997168,0.027797758277312908,0.02496596550268071,0.011230893506768744,0.060614017424944176,-0.0037497241800115077,-0.05814891228744542,-0.01490776065726836,-0.0881157691656342,0.0014075000763797887,-0.09200007067305341,0.09995896692437932,0.09213158021017064
385,12.195508600008909,0.028068014343210126,0.024948360822797954,0.01097150015878614,0.06054659713963173,-0.004141821586422509,-0.058141716523215675,-0.015318095577804069,-0.08766485417266226,0.0018172842515443179,-0.09196036967168707,0.10218490410116705,0.09158041993386104
386,12.198988800009827,0.02833796555821554,0.024929011449391386,0.010712142989417885,0.06047734670930332,-0.004531885271478384,-0.05813269816096214,-0.01572824708587106,-0.08720405766075005,0.002224596527271978,-0.09191778935963568,0.10438890169547758,0.09102346560201419
387,12.202611800006707,0.0286076037597168,0.024907926553400087,0.010452830104833414,0.06040626698082811,-0.0049198713711849735,-0.058121868285694885,-0.016138202097449372,-0.0867334782175235,0.002629411458921466,-0.0918722226323796,0.10657064184746885,0.09046089760103294
388,12.20627740000782,0.028876920789009705,0.02488511550046317,0.010193569561497785,0.060333358860512824,-0.005305736464520032,-0.05810923809414249,-0.016547947051242573,-0.0862532158401321,0.0030317044050007223,-0.09182356340681595,0.1087298105709754,0.08989289603647002
389,12.210954700000002,0.029145908491568135,0.02486058784892964,0.009934369365681274,0.06025862331622287,-0.005689437579681377,-0.05809481889117071,-0.016957467916738786,-0.085763371917641,0.003431451527801542,-0.09177170790477979,0.11086609798795323,0.0893196414584266
390,12.218762400007108,0.029414558717323354,0.024834353347840506,0.009675237472984956,0.060182061379447635,-0.006070932200257655,-0.05807862208619232,-0.017366750206714725,-0.08526404921198555,0.003828629796731302,-0.09171655508861665,0.11297919871437495,0.08874131534018269
391,12.22282150000683,0.029682863320952366,0.0248064219348836,0.009416181787882342,0.06010367414731006,-0.006450178271306562,-0.05806065918955602,-0.01777577898918297,-0.08475535183692037,0.004223216993217997,-0.0916580063926243,0.11506881196283657,0.08815810000785372
392,12.22731339999882,0.029950814162175158,0.02477680373432145,0.009157210163277172,0.060023462784525326,-0.00682713420533779,-0.05804094180891255,-0.01818453889749988,-0.0842373852380584,0.004615191713414348,-0.09159596516570627,0.11713464112246944,0.08757017784552103
393,12.231473699997878,0.030218403106060526,0.024745509054892714,0.008898330400077474,0.059941428525320244,-0.00720175888821315,-0.05801948164557946,-0.018593014137340123,-0.08371025617556807,0.005004533366010876,-0.09153033647664774,0.11917639320204461,0.08697773057061745
394,12.235621200001331,0.030485622023340445,0.02471254838768742,0.008639550246785798,0.05985757267532971,-0.007574011684975144,-0.05799629049092676,-0.019001188495067232,-0.08317407270918106,0.0053912221684748775,-0.09146102770945964,0.12119377840982408,0.0863809394076502
395,12.240310200009844,0.03075246279073281,0.02467793240399639,0.008380877399105514,0.05977189661344142,-0.007943852445613324,-0.05797138022277518,-0.019409045350019898,-0.08262894418463815,0.0057752391464134765,-0.0913879490953522,0.123186510114616,0.08577998579555567
396,12.244781100002,0.031018917291272274,0.02464167195313504,0.008122319499563189,0.05968440179358271,-0.008311241510771927,-0.05794476280178757,-0.01981656768762888,-0.08207498121904441,0.006156566136123748,-0.09131101385081003,0.1251543051290832,0.08517505198452757
397,12.253700300003402,0.031284977414648925,0.024603778060241863,0.007863884137147076,0.059595089746448233,-0.008676139717385576,-0.057916450267844394,-0.02022373811293524,-0.08151229568478735,0.006535185789280776,-0.09123013819685585,0.12709688408080744,0.08456632149826
398,12.260614700004226,0.03155063505755454,0.024564261924051964,0.007605578846961832,0.059503962081166165,-0.009038508404243426,-0.057886454736393256,-0.02063053886387911,-0.0809410006915814,0.006911081579611985,-0.09114524139199669,0.1290139720669621,0.08395397940268118
399,12.264643300004536,0.031815882124036125,0.024523134914645892,0.007347411109899579,0.05941102048690735,-0.009398309417464664,-0.05785478839476491,-0.021036951825111897,-0.08036121056454494,0.00728423780998289,-0.09105624588467937,0.13090529937739137,0.08333821214042457
400,12.269059400001424,0.03208071052585654,0.02448040857117432,0.007089388352327484,0.05931626673442826,-0.009755505115867057,-0.057821463498459534,-0.021442958542645277,-0.07977304081979338,0.007654639617594551,-0.09096307742120338,0.1327706016996231,0.08271920699179228
401,12.273009500000626,0.032345112182861784,0.024436094599558974,0.006831517945791965,0.05921970267754944,-0.010110058376224683,-0.057786492367416356,-0.02184854023862621,-0.07917660814068697,0.008022272976259947,-0.09086566490790848,0.13460961981115568,0.08209715155289055
402,12.27920260000974,0.032609079023354824,0.024390204870170414,0.006573807206739547,0.05912133025456663,-0.010461932598424565,-0.05774988738227963,-0.022253677824756356,-0.07857203035616943,0.008387124696945256,-0.09076393990352075,0.13642209939870975,0.08147223354351431
403,12.285388500007684,0.03287260298447548,0.02434275141548295,0.006316263396254382,0.0590211514896095,-0.010811091710531132,-0.05771166098066345,-0.022658351912537716,-0.07795942641862837,0.008749182428332149,-0.09065783622873229,0.13820779129756003,0.08084464095742218
404,12.289595000009284,0.03313567601258635,0.024293746427707225,0.006058893719812437,0.058919168493961345,-0.011157500173745317,-0.05767182565341268,-0.023062542823208645,-0.07733891638009854,0.00910843465869985,-0.09054729006818597,0.13996645182873177,0.08021456233124484
405,12.293624300000374,0.033398290063664494,0.024243202256400906,0.005801705327052374,0.05881538346732917,-0.011501122987256706,-0.05763039394085099,-0.023466230598899414,-0.07671062136711382,0.009464870718886673,-0.09043223969721098,0.1416978428574986,0.07958218650800285
406,12.297866499997326,0.033660437103698676,0.02419113140605796,0.005544705311563207,0.058709798699063856,-0.011841925692978254,-0.05758737842901536,-0.02386939501013012,-0.07607466355638844,0.009818480782062149,-0.09031262406545443,0.14340173113876106,0.07894770146768279
407,12.301387100000284,0.03392210910909194,0.024137546533677102,0.005287900710688785,0.05860241656936335,-0.012179874380181463,-0.05754279174590615,-0.024272015554329156,-0.07543116615550964,0.010169255856254758,-0.09018838094067559,0.14507788721806622,0.07831129279694478
408,12.3050210000074,0.0341832980670696,0.024082460446309725,0.005031298505348904,0.05849323955050606,-0.012514935690058833,-0.057496646557788286,-0.024674071446769735,-0.07478025338842426,0.010517187770470527,-0.0900594461068137,0.14672608472817042,0.0776731428862333
409,12.31026670000574,0.034443995976092795,0.024025886098587634,0.0047749056198767926,0.05838227020813487,-0.012847076820229545,-0.05744895556556515,-0.025075541611933372,-0.07412205048240748,0.010862269160057234,-0.08992575427339666,0.14834610078962393,0.07703343160261363
410,12.314639700009138,0.034704194846277944,0.023967836590230773,0.004518728921872576,0.05826951120256763,-0.013176265529185651,-0.05739973150121038,-0.025476404682560322,-0.0734566836499754,0.011204493458826176,-0.08978724098055993,0.14993771748103657,0.07639233801801999
411,12.320682100005795,0.03496388669982201,0.023908325163535294,0.004262775222072596,0.05815496529008965,-0.013502470140636377,-0.05734898712421204,-0.025876639008009968,-0.0727842800627358,0.011543854899836108,-0.08964384419096588,0.15150072305540416,0.07575004185368883
412,12.324743300006958,0.035223063571433476,0.023847365200842522,0.004007051274234606,0.058038635324189555,-0.013825659547720998,-0.05729673521799741,-0.026276222667514636,-0.07210496782244838,0.011880348520402486,-0.08949550455426836,0.15303491212093628,0.07510672391851844
413,12.328606499999296,0.03548171750876862,0.023784970221989436,0.0037515637750389816,0.05792052425673356,-0.014145803217094941,-0.057242988586332505,-0.026675133480899588,-0.07141887593326225,0.012213970166792534,-0.0893421648788808,0.1545400853819719,0.07446256591712797
414,12.335514000005787,0.03573984057287299,0.02372115388174118,0.0034963193640060474,0.057800635139105674,-0.014462871192894963,-0.057187760049704925,-0.027073349017123858,-0.07072613427508771,0.012544716497521957,-0.08918377009353895,0.15601604954632578,0.07381775020762282
415,12.339773700005026,0.03599742483862784,0.023655929967206155,0.003241324623429558,0.057678971123305764,-0.01477683410058766,-0.05713106244169398,-0.0274708466046573,-0.07002687357666039,0.012872584985888743,-0.08902026732505387,0.15746261752077448,0.07317245961723855
416,12.344024600010016,0.036254462395201414,0.023589312395234208,0.0029865860783264073,0.05755553546299718,-0.01508766315069433,-0.057072908605330964,-0.027867603340715152,-0.0693212253871689,0.013197573921625023,-0.08885160546822954,0.15887960840105805,0.07252687724150778
417,12.3480705999973,0.036510945346504724,0.023521315209798485,0.0027321101964025893,0.05743033151452242,-0.015395330142386332,-0.05701331138945449,-0.02826359609779781,-0.06860932204940816,0.013519682411639006,-0.0886777346003698,0.1602668469102061,0.07188118631211704
418,12.352144400007091,0.03676686581165187,0.023451952579361533,0.0024779033880354233,0.05730336273789241,-0.01569980746697042,-0.056952283645064154,-0.028658801527701526,-0.06789129667641844,0.013838910380487828,-0.08849860522868294,0.16162416287584144,0.07123557014417119
419,12.356262700006482,0.0370222159254247,0.023381238794226065,0.002223972006272047,0.05717463269776639,-0.016001068111275676,-0.0568898382216717,-0.029053196061343392,-0.06716728312930224,0.01415525857064898,-0.08831416757673699,0.1629513910886112,0.07059021193884917
420,12.36158979999891,0.03727698783874182,0.023309188263870843,0.001970322346844199,0.05704414506444275,-0.016299085660940914,-0.056825987963652215,-0.029446755906405667,-0.06643741599512644,0.014468728541232413,-0.08812437149694716,0.16424837137551132,0.06994529446995294
421,12.368273000000045,0.0375311737191321,0.02323581551427211,0.0017169606481992658,0.05691190361485992,-0.01659383430360446,-0.05676074570660678,-0.029839457046379962,-0.06570183056408496,0.0147793226654553,-0.08792916700804074,0.16551494907835756,0.06930100011101603
422,12.37289050000254,0.03778476575121267,0.023161135185211013,0.0014638930915475189,0.05677791223359577,-0.01688528883198779,-0.056694124273736234,-0.03023127524300692,-0.06496066280313192,0.015087044129596008,-0.08772850471476487,0.1667509757280349,0.06865751115137027
423,12.37669740000274,0.03803775613717129,0.02308516202756752,0.0012111258009255147,0.056642174913846696,-0.017173424646850066,-0.05662613647221312,-0.0306221860390651,-0.06421404932712856,0.015391896933288867,-0.08752233518272978,0.16795630888823174,0.06801500958860118
424,12.381094900003518,0.038290137097253055,0.02300791090060149,0.0009586648432757009,0.056504695758402154,-0.017458217759814345,-0.05655679508955285,-0.03101216475523292,-0.06346212737387054,0.015693885886626388,-0.08731060767815552,0.16913081089499657,0.06737367603452321
425,12.385409399998023,0.038541900870251534,0.022929396769221365,0.0007065162285421954,0.05636547898065175,-0.017739644796099293,-0.056486112890011486,-0.03140118648163332,-0.06270503478648085,0.015993016600692953,-0.08709326941571491,0.17027434766512967,0.06673368838310513
426,12.388844200002495,0.03879303971400443,0.02284963470124087,0.00045468590978253097,0.056224528905635195,-0.018017682997188308,-0.05641410261104136,-0.03178922606798484,-0.06194290999906881,0.016289295472782035,-0.08687026533399539,0.17138678823680945,0.06609522095205357
427,12.392620099999476,0.03904354590589407,0.022768639864623904,0.00020317978329505826,0.056081849971137285,-0.01829231022343328,-0.05634077695982077,-0.032176258113142904,-0.06117589202322158,0.01658272966927094,-0.08664153798749592,0.17246800471067916,0.06545844439495145
428,12.396744300000137,0.03929341174335283,0.02268642752471798,-4.7996311238347275e-05,0.055937446728831164,-0.018563504956603194,-0.05626614860986238,-0.03256225695428729,-0.060404120434188815,0.016873327110054126,-0.08640702772261542,0.17351787303690533,0.06482352669111767
429,12.404447499997332,0.03954262954437386,0.022603013041476397,-0.00029883659059462114,0.05579132384546978,-0.018831246302364615,-0.056190230197681816,-0.032947196658033626,-0.059627735350351874,0.017161096460249624,-0.08616667394828158,0.17453627503731245,0.06419063512506748
430,12.40826530000777,0.039791191648027135,0.022518411866669554,-0.0005493353278370806,0.05564348610410845,-0.01909551399264712,-0.05611303431948005,-0.033331051020957576,-0.058846877401366675,0.017446047132293457,-0.08592041754845108,0.17552310063736198,0.06355993812223758
431,12.412421500004712,0.04003909041498104,0.022432639541086003,-0.000799486852128159,0.05549393840529163,-0.019356288387839548,-0.05603457352779332,-0.03371379358223114,-0.05806168768771877,0.01772818929402473,-0.0856682025920509,0.1764782485259147,0.062931605613776
432,12.416472800003248,0.04028631822802907,0.022345711691724172,-0.0010492855485270875,0.05534268576816276,-0.019613550478794574,-0.05595486032810336,-0.03409539763940321,-0.05727230774297971,0.018007533874034753,-0.08540997575637378,0.17740162471912455,0.06230580776635314
433,12.42062820000865,0.04053286749262128,0.022257644028975534,-0.0012987258577723847,0.055189733331510206,-0.019867281888688207,-0.05587390717543961,-0.03447583625589131,-0.05647887950617527,0.018284092558419292,-0.0851456843048183,0.17829314035743415,0.06168271310608299
434,12.424073900008809,0.04077873063740032,0.02216845234379974,-0.0015478022760492228,0.05503508635481028,-0.020117464874777818,-0.055791726471018425,-0.0348550822587192,-0.05568154530369745,0.018557877779388984,-0.08487527430922036,0.1791527100200865,0.06106248730255049
435,12.427849100000458,0.04102390011474222,0.022078152504892104,-0.0017965093547419317,0.05487875021929339,-0.020364082330100265,-0.0557083305589469,-0.03523310823014793,-0.054880447836710894,0.018828902701172476,-0.08459868929110406,0.17998025121210787,0.06044529323261742
436,12.43124250000983,0.0412683684013019,0.02198676045584358,-0.0020448417001719564,0.054720730429061684,-0.020607117785117555,-0.05562373172298786,-0.03560988649329046,-0.05407573016764211,0.019097181209196123,-0.08431586983186917,0.18077568500964114,0.059831292046991745
437,12.435316800008875,0.04151212799856395,0.021894292212293564,-0.002292793973321497,0.054561032612283566,-0.020846555409294424,-0.055537942183360195,-0.03598538910026474,-0.05326753570182815,0.019362727905503245,-0.08402675513516515,0.18153893745182167,0.059220644593824874
438,12.439869800000452,0.04175517143339879,0.021800763859075804,-0.0025403608895429195,0.054399662522417055,-0.02108238001258026,-0.055450974093544755,-0.03635958783174812,-0.05245600816158722,0.01962555811063541,-0.08373128578152383,0.1822699412891999,0.05861351272403119
