,time,x,y,z,vx,vy,vz,ax,ay,az,jx,jy,jz
0,7.096305800019763,-0.02476931949959353,-0.03354187877209827,0.027515710823112396,0.010221970864922065,-0.006235608050948358,0.00652150032406531,0.03366460455357558,0.07481714517714305,-0.015786809513415875,0.039428709367021565,0.18296581713941312,-0.09646250423072798
1,7.101106100017205,-0.024726059343129037,-0.03356742612793004,0.027542981166371678,0.010363811024821762,-0.005919536509755647,0.006454296553144648,0.0338291698949127,0.07558716023904581,-0.01619273653827314,0.038875482496494286,0.1834419721889693,-0.09669611997405737
2,7.105319100024644,-0.024682201580749304,-0.03359163823799525,0.027569965467660308,0.010506337964091868,-0.005600224399548359,0.006385384612940454,0.03399139082177831,0.07635915349893783,-0.016599634516908882,0.03831315091228751,0.1839070724373454,-0.09692453659948538
3,7.108680000004824,-0.02463774334663763,-0.03361450146475168,0.027596656538989628,0.010649541748772803,-0.005277663503619009,0.006314760468472284,0.034151229218828315,0.077133078181114,-0.01700748160582261,0.037741786325919006,0.18436096698499144,-0.09714775899604064
4,7.1131090999697335,-0.024592681817066257,-0.03363600213653549,0.027623047175604955,0.010793412285342112,-0.004951845803190914,0.006242420176524919,0.03430864727023175,0.07790888686645821,-0.01741625598596555,0.03716145930985539,0.1848035007968544,-0.09736579389268736
5,7.117342400015332,-0.024547014211064366,-0.033656126548398835,0.02764913015637107,0.010937939321961347,-0.004622763480160414,0.0061683598855282575,0.03446360745387479,0.0786865314760448,-0.01782593587040071,0.036572239046262375,0.1852345148893442,-0.09757864977659803
6,7.121489799988922,-0.024500737791080883,-0.0336748609629591,0.027674898244157094,0.011083112449698168,-0.004290408919900993,0.006092575835407489,0.03461607253546991,0.07946596325434586,-0.018236499511422265,0.035974193163695926,0.18565384623669226,-0.09778633704492343
7,7.12657510000281,-0.024453849863642192,-0.0336921916112601,0.027700344186220718,0.0112289211037237,-0.003954774714146656,0.006015064357403148,0.03476600556138711,0.0802471327520455,-0.01864792520949139,0.035367387526592124,0.18606132792302305,-0.09798886820938008
8,7.130336600006558,-0.02440634778000489,-0.03370810469364553,0.02772546071459157,0.011375354564474376,-0.0036158536639405163,0.005935821873846169,0.03491336985099357,0.08102998981052537,-0.019060191322075412,0.03475188647489168,0.18645678938765314,-0.09818625754568713
9,7.133948599977884,-0.024358228936803724,-0.033722586380644966,0.02775024054645355,0.011522401958784899,-0.0032736387826485867,0.005854844897903637,0.035058128991499106,0.08181448354674103,-0.019473276269636824,0.034127753466645816,0.18684005653007627,-0.09837852044514603
10,7.138199699984398,-0.02430949077669483,-0.03373562281387264,0.027774676384526065,0.011670052261006758,-0.002928123299035493,0.0057721300333035035,0.03520024683569758,0.08260056233858996,-0.019887158539021826,0.03349505149244686,0.1872109519320647,-0.09856567276059056
11,7.141619700007141,-0.024260130788994264,-0.03374720010693931,0.02779876091744404,0.01181829429412221,-0.0025793006604012646,0.00568767397405185,0.035339687500296056,0.08338817381165482,-0.020301816683951403,0.03285384300550746,0.18756929538335457,-0.0987477304791679
12,7.145919599977788,-0.02421014651031187,-0.03375730434637739,0.027822486820136782,0.011967116730848739,-0.002227164535768481,0.005601473504153477,0.03547641536306843,0.0841772648289904,-0.020717229325659288,0.032204189477870473,0.1879149041386119,-0.0989247097457473
13,7.150236000015866,-0.024159535525180544,-0.033765921592579594,0.02784584675420565,0.01211650809472912,-0.0018717088191049153,0.0055135254973238046,0.035610395057454114,0.08496778148002698,-0.021133375153579808,0.03154615078095673,0.18824759248524028,-0.09909662658836442
14,7.154615200008266,-0.02410829546668092,-0.03377303788075121,0.027868833368300486,0.012266456761190475,-0.0015129276326039567,0.005423826916703679,0.03574159146450457,0.08575966906672422,-0.021550232923677935,0.030879784712705926,0.1885671715096833,-0.09926349657941515
15,7.158691100019496,-0.024056424017061744,-0.03377863922187626,0.027891439298494893,0.012416950958566634,-0.0011508153300236455,0.005332374814585312,0.03586996970350716,0.08655287209051007,-0.02196778145628914,0.030205146798867363,0.18887344919090418,-0.09942533449696406
16,7.162163899978623,-0.024003918908355962,-0.03378271160369787,0.027913657168660358,0.012567978769078378,-0.000785366500076886,0.005239166332145245,0.035995495122261294,0.0873473342392205,-0.022385999631602413,0.029522290742609723,0.18916623047051623,-0.09958215381063815
17,7.165762999968138,-0.023950777922992852,-0.033785240991712935,0.02793547959083929,0.012719528129774064,-0.0004165759698802663,0.005144198699208258,0.036118133291481745,0.08814299837462787,-0.022804866383178548,0.028831269376923145,0.1894453174396334,-0.09973396654145758
18,7.170580799982417,-0.02389699889440621,-0.033786213330181454,0.02795689916561716,0.012871586833462822,-4.44388084491074e-05,0.0050474692340348164,0.036237850003080635,0.08893980652095132,-0.02322436069225491,0.028132134938990392,0.18971050902349043,-0.0998807833261333
19,7.175101000000723,-0.023842579707638638,-0.0337856145431506,0.027977908482493742,0.013024142529640735,0.00033104966975713645,0.0049489753431328585,0.03635461126687709,0.0897376998497341,-0.0236444615818042,0.02742493869628609,0.18996160007023108,-0.10002261365644236
20,7.1794096999801695,-0.023787518299941936,-0.03378343053549384,0.027998500120253685,0.01317718272539638,0.0007098939012127071,0.004848714521095181,0.03646838330573626,0.09053661866069435,-0.02406514811285141,0.026709730888297596,0.1901983810354605,-0.10015946628822231
21,7.183759799983818,-0.023731812661373784,-0.033779647193965465,0.028018666647336377,0.013330694786296143,0.001092098069619174,0.0047466843504421884,0.036579132551789066,0.0913365023639507,-0.02448639938197058,0.025986561252191204,0.19042063877665963,-0.1002913493582172
22,7.188060300017241,-0.023675460835390696,-0.03377425038827086,0.028038400622205195,0.013484665937257993,0.0014776661021338542,0.004642882501480317,0.03668682564598994,0.09213728946755097,-0.024908194518583948,0.025255479688660012,0.19062815767467614,-0.10041827051241319
23,7.191982500022277,-0.02361846091943735,-0.03376722597215273,0.02805769459371619,0.01363908326343307,0.001866601665558608,0.004537306732167491,0.0367914294399337,0.09293891756912497,-0.025330512683537514,0.024516536659199534,0.19082072024119395,-0.10054023705804101
24,7.196274899994023,-0.023560811065532136,-0.03375855978449343,0.028076541101486188,0.013793933711094731,0.0022589081624980944,0.00442995488798352,0.03689291099875277,0.0937413233485195,-0.025753333067677905,0.02376978349550858,0.19099810745752185,-0.10065725578250663
25,7.200361099967267,-0.023502509480849008,-0.03374823765043346,0.0280949326762604,0.0139492040885445,0.0026545887274866562,0.004320824901807514,0.03699123760553485,0.09454444256229914,-0.02617663488890587,0.023015272341230745,0.19116009916011514,-0.10076933249769159
26,7.20455409999704,-0.023443554428295422,-0.03373624538250635,0.028112861840279498,0.014104881067038241,0.0030536462231003487,0.004209914793813056,0.03708637676373044,0.09534821003962181,-0.026600397386922558,0.022253055585514853,0.19130647432095385,-0.1008764715377533
27,7.210603800020181,-0.0233839442270864,-0.03372256878178988,0.02813032110764632,0.014260951181712351,0.003456083236049156,0.004097222671389773,0.03717829619680903,0.09615255967909642,-0.02702459981606153,0.021483185296123825,0.1914370113045136,-0.10097867521579541
28,7.214687399973627,-0.02332367725331468,-0.033707193639073756,0.0281473029846923,0.014417400832507041,0.003861902073262604,0.003982746729098766,0.03726696384590134,0.0969574244468186,-0.027449221435467824,0.020705712904035143,0.19155148784444126,-0.10107594328642126
29,7.219056400004774,-0.023262751940517024,-0.033690105736043766,0.02816379997034381,0.014574216285072708,0.004271104757965466,0.0038664852486767374,0.037352347866804296,0.09776273637303223,-0.027874241497412203,0.019920689215328444,0.19164968100851015,-0.10116827275314222
30,7.22333200002322,-0.02320116678023675,-0.03367129084648245,0.028179804556488608,0.014731383671668041,0.004683693025735312,0.0037484365990896446,0.03743441662772316,0.09856842654987061,-0.028299639235851298,0.019128164557160314,0.19173136742054342,-0.10125565786833764
31,7.227225499984343,-0.02313892032258248,-0.03365073473748638,0.028195309228342638,0.014888888992047416,0.005099668320559228,0.003628599236632996,0.03751313870750359,0.09937442512988343,-0.02872539385474153,0.018328189139752656,0.19179632313196052,-0.10133809007476322
32,7.231416900001932,-0.02307601117678322,-0.03362842317069997,0.02821030646481732,0.015046718114344137,0.005519031790878981,0.003506971705083737,0.03758848289641664,0.10018066132269818,-0.02915148451610756,0.017520813372014304,0.19184432344649008,-0.10141555805814094
33,7.235081400023773,-0.023012438011739692,-0.03360434190356602,0.028224788738887625,0.01520485677596443,0.005941784285619674,0.00338355263590084,0.0376604181970439,0.10098706339207371,-0.029577890328798293,0.01670608783227228,0.19187514316552148,-0.10148804788739432
34,7.238583399972413,-0.022948199556571885,-0.03357847669059292,0.028238748517961054,0.01536329058447813,0.006367926350210146,0.0032583407484717093,0.0377289138248165,0.101793558654624,-0.030004590337734133,0.015884063606870405,0.1918885566349042,-0.10155554314314597
35,7.241930600022897,-0.0228832946011629,-0.03355081328463859,0.02825217826424778,0.015522005018517198,0.006797458222600898,0.003131334850403157,0.03779393921174647,0.10260007347726513,-0.030431563513743133,0.01505479286876891,0.1918843374877968,-0.10161802515133224
36,7.245989200018812,-0.02281772199669896,-0.033521337438211216,0.02826507043513208,0.015680985428697777,0.00723037982926303,0.0030025338378532455,0.03785546401182945,0.10340653327377745,-0.03085878874477202,0.014218328906534175,0.19186225870314172,-0.10167547335121137
37,7.250564999994822,-0.022751480656205494,-0.03349003490478681,0.028277417483545262,0.015840217038564124,0.0076666907811772725,0.002871936695896143,0.03791345810501974,0.1042128625027441,-0.0312862448288158,0.013374725896465588,0.19182209281604348,-0.10172786565748101
38,7.254499599977862,-0.02268456955507922,-0.03345689144014364,0.028289211858340164,0.015999684945544084,0.008106390369815591,0.0027395424989134,0.0379678916007175,0.10501898466588158,-0.031713910468172735,0.012524039054735779,0.19176361195267433,-0.10177517859467541
39,7.258606799994595,-0.022616987731616193,-0.03342189280371358,0.02830044600466737,0.01615937412192233,0.008549477563116187,0.002605350411007097,0.038018734843022706,0.10582482230627172,-0.032141764263503694,0.01166632466648024,0.19168658792373605,-0.10181738719787102
40,7.263019800011534,-0.0225487342875357,-0.033385024759950394,0.028311112364353182,0.016319269415840002,0.00899595100145024,0.002469359686441058,0.03806595841446687,0.10663029700747786,-0.03256978470725246,0.010801639653416854,0.19159079255165046,-0.10185446495418819
41,7.267082699981984,-0.02247980838849992,-0.03334627307971495,0.028321203376279545,0.01647935555229932,0.009445808993589476,0.0023315696701093074,0.0381095331376324,0.10743532939452721,-0.032997950177213346,0.009930041322629235,0.1914759978925469,-0.10188638354587716
42,7.2712696000235155,-0.022410209264629364,-0.03330562354167743,0.028330711476765958,0.016639617134176825,0.009899049512681174,0.0021919797980313525,0.03814943007677263,0.10823983913489303,-0.03342623892779188,0.009051587215066235,0.19134197609599488,-0.10191311233044077
43,7.2753173999954015,-0.022339936211014016,-0.03326306193373638,0.02833962909995356,0.016800038643241626,0.010355670192223984,0.0020505895978941047,0.03818562053815765,0.10904374493829787,-0.033854629079202364,0.00816633486004086,0.19118849921802641,-0.10193461802513681
44,7.2799131000065245,-0.022268988588220226,-0.033218574054454726,0.0283479486781916,0.01696060444117154,0.010815668322041281,0.001907398689637966,0.03821807606963065,0.10984696455612408,-0.034283098606076486,0.007274341477040958,0.1910153392445793,-0.10195086444421865
45,7.284213299979456,-0.022197365822793295,-0.033172145714512685,0.02835566264242645,0.017121298770567603,0.011279040844252033,0.0017624067860945055,0.038246768458447225,0.1106494147814141,-0.03471162532445212,0.006375663760034265,0.1908222683019002,-0.10196181221854897
46,7.287905999983195,-0.022125067407755848,-0.033123762738177645,0.02836276342259342,0.017282105755952053,0.01174578434924415,0.0016156136936819189,0.03827166972901854,0.1114510114500496,-0.035140186878025045,0.005470358087666545,0.19060905872643216,-0.10196741876634663
47,7.292231799976435,-0.02205209290310203,-0.03307341096479094,0.028369243448011644,0.017443009404763874,0.012215895071655266,0.001467019313158272,0.038292752142517573,0.11225166944133921,-0.03556876072489182,0.004558480546241074,0.19037548284290653,-0.10196763819975242
48,7.296105000015814,-0.021978441936287504,-0.03302107625027149,0.02837509514778221,0.017603993608353467,0.012689368886351032,0.0013166236404283992,0.038309988194815466,0.11305130267733239,-0.035997324123016095,0.0036400862291531095,0.1901213128242883,-0.10196242076409673
49,7.300417500024196,-0.021904114202715295,-0.03296674446863639,0.02838031095118982,0.01776504214296084,0.013166201304400129,0.0011644267674193166,0.0383233506101988,0.1138498241222298,-0.03642585411225801,0.0027152284133331785,0.1898463204579068,-0.10195171212527884
50,7.304501099977642,-0.02182910946621756,-0.03291040151353841,0.028384883288108304,0.017926138670657475,0.0136463874690476,0.0010104288830381813,0.03833281233238318,0.11464714577973126,-0.03685432749385022,0.0017839582787369103,0.18955027684187034,-0.10193545298422953
51,7.308571800007485,-0.021753427559533516,-0.0328520332998204,0.028388804589410312,0.018087266740248978,0.014129922151667577,0.0008546302742202287,0.03833834651587252,0.11544317868989425,-0.03728272080918646,0.0008463250485225254,0.18923295256037978,-0.10191357932809221
52,7.312906900013331,-0.02167706838478362,-0.032791625765086804,0.028392067287381643,0.018248409788144307,0.0146167997477102,0.000697031327065034,0.038339926518150984,0.1162378329279555,-0.03771101032140903,-9.762371894676906e-05,0.18889411801063863,-0.10188602325383574
53,7.316957800008822,-0.02160003191394019,-0.032729164871292175,0.02839466381614049,0.01840955113919279,0.015107014272644442,0.0005376325280392248,0.03833752589349682,0.11703101760393753,-0.038139172001120596,-0.001047841738673958,0.18853354367154895,-0.10185271359908084
54,7.3210621000034735,-0.021522318189294558,-0.03266463660634677,0.028396586612061875,0.018570674007501353,0.015600559357901717,0.00037643446523284886,0.03833111838846464,0.11782264086372883,-0.038567181513274394,-0.0020042838413168794,0.18815100033750978,-0.10181357632177088
55,7.325538999983109,-0.021443927323920812,-0.03259802698573915,0.028397828114207463,0.018731761497233563,0.016097428246827788,0.00021343782967228738,0.038320677937024976,0.11861260989065575,-0.038995014206077545,-0.0029669059846350408,0.18774625909497206,-0.10176853527120627
56,7.329658699978609,-0.021364859502136232,-0.03252932205417584,0.028398380764761026,0.018892796603386,0.01659761379063959,4.86434166699011e-05,0.03830617865595033,0.11940083090636562,-0.03942264510436253,-0.003935665014513884,0.18731909141598777,-0.10171751297659293
57,7.334093299985398,-0.02128511497995851,-0.03245850788723787,0.028398237009469602,0.019053762212548512,0.017101108444384554,-0.00011794787280733732,0.03828759484196358,0.12018720917318494,-0.03985004890511905,-0.004910518366777127,0.18686926949684476,-0.10166043117858668
58,7.338012899970636,-0.0212046940855598,-0.032385570593054434,0.028397389298090468,0.019214641103656616,0.01760790426291726,-0.00028633503075063796,0.03826490096963056,0.12097164899784912,-0.04027719997533362,-0.005891424125373453,0.18639656611780606,-0.10159721152438674
59,7.342451200005598,-0.021123597219717596,-0.032310496313993256,0.028395830084843955,0.01937541594873404,0.018117992896890117,-0.000456516940722601,0.03823807168801935,0.12175405373268162,-0.04070407235336439,-0.006878341034601741,0.18590075447974874,-0.10152777588315341
60,7.346344200021122,-0.021041824856262558,-0.03223327122836791,0.028393551828872085,0.019536069313617045,0.01863136558873991,-0.0006284923764815681,0.0382070818184901,0.12253432577795048,-0.041130639749432124,-0.007871228083968094,0.18538160894028038,-0.10145204604811187
61,7.350330399989616,-0.020959377542523302,-0.032153881552161964,0.028390546994702944,0.019696583658678386,0.019148013168698307,-0.0008022600005989568,0.038171906354844014,0.12331236658923522,-0.04155687554449091,-0.008870044338838645,0.18483890556260818,-0.10136994361388868
62,7.354544300003909,-0.02087625589976812,-0.03207231354076982,0.02838680805272094,0.019856941339552885,0.019667926050840327,-0.0009778183630741195,0.038132520462536686,0.12408807668439718,-0.04198275278968804,-0.009874749133205388,0.1842724219866466,-0.10128138991810387
63,7.358925800013822,-0.020792460623643694,-0.031988553490754086,0.02838232747964283,0.020017124607854778,0.020191094229153432,-0.001155165899947137,0.03808889947720669,0.12486135564986295,-0.042408244204743734,-0.010885302140051869,0.18368193766342336,-0.1011863060764106
64,7.363059900002554,-0.020707992484610773,-0.03190258774161943,0.028377097758999627,0.020177115611890922,0.020717507273638826,-0.0013343009319000583,0.038041018903297454,0.12563210214956508,-0.042833322177705566,-0.011901663523117821,0.18306723412351614,-0.10108461330376547
65,7.367159300018102,-0.020622852328376892,-0.03181440267760274,0.028371111381624386,0.02033689639736656,0.021247154326455693,-0.001515221662867629,0.037988854411310086,0.12640021393348203,-0.04325795876602878,-0.012923794100010752,0.18242809480131303,-0.10097623307797672
66,7.371303899970371,-0.020537041076326125,-0.031723984729479425,0.028364360846145797,0.02049644890807543,0.021780024098094285,-0.0016979261786476125,0.03793238183505415,0.1271655878451016,-0.043682125697705514,-0.013951655097247172,0.18176430514073397,-0.10086108726235622
67,7.375706300023012,-0.020450559725945994,-0.031631320376385684,0.02835683865948765,0.020655754986582425,0.022316104863582896,-0.0018824124455210113,0.03787157717095964,0.12792811983084956,-0.04410579437337609,-0.014985207612995119,0.18107565305067486,-0.10073909801228755
68,7.379378399986308,-0.02036340935125149,-0.031536396147656715,0.028348537337374025,0.020814796374907914,0.022855384458740212,-0.0020686783088801346,0.03780641657984387,0.12868770495138157,-0.04452893586667288,-0.016024411957018633,0.1803619291444853,-0.10061018753571455
69,7.382753500016406,-0.02027559110320622,-0.03143919862468051,0.028339449404840282,0.020973554715225252,0.0233978502764772,-0.0022567214918517106,0.037736876391771895,0.1294442373930248,-0.044951520924318256,-0.017069227177153312,0.17962292677506417,-0.10047427832094266
70,7.386167599994224,-0.02018710621014058,-0.03133971444276712,0.028329567396749838,0.021132011550585972,0.023943489263145636,-0.0024465395939257777,0.03766293311180384,0.13019761047936487,-0.045373519968383354,-0.018119611246431664,0.17885844226828682,-0.10033129370910858
71,7.391860899981111,-0.02009795597816679,-0.031237930293033154,0.028318883858316678,0.02129014832566559,0.024492287914937395,-0.0026381300895977834,0.03758456342328232,0.13094771668464972,-0.045794903101198194,-0.01917552175254606,0.17806827512755002,-0.10018115869437688
72,7.396270599972922,-0.02000814179159081,-0.031133832924301313,0.02830739134563354,0.021447946387516438,0.02504423227434565,-0.0028314903270387506,0.03750174418778419,0.13169444764709587,-0.046215640114336855,-0.02023691650507156,0.17725222782961664,-0.10002380079426058
73,7.400280200003181,-0.019917665113321045,-0.031027409145014638,0.028295082426205615,0.021605386986313067,0.02559930792667602,-0.0030266175268129046,0.037414452443303645,0.1324376941805762,-0.04663570050084351,-0.021303753576321003,0.17641010573079555,-0.09985915046437364
74,7.404855599976145,-0.019826527485273977,-0.030918645825165365,0.028281949679489504,0.0217624512760898,0.026157499996606003,-0.003223508780650612,0.03732266540386056,0.13317734628713754,-0.04705505346770398,-0.022375990665001153,0.17554171725974554,-0.09968714085892691
75,7.4090849999920465,-0.019734730528776702,-0.0308075298982381,0.028267985697437232,0.021919120315482845,0.026718793144801363,-0.0034221610502708426,0.03722636046303268,0.1339132931703092,-0.04747366794605852,-0.02345358422566686,0.17464687405795082,-0.09950770729917552
76,7.412889299972448,-0.0196422759449663,-0.03069404836316711,0.02825318308504511,0.022075375068497546,0.027283171564587424,-0.0036225711662399573,0.037125515200881726,0.13464542324880138,-0.047891512599205155,-0.024536489024462045,0.1737253911778441,-0.09932078707484167
77,7.417570599995088,-0.01954916551518593,-0.030578188286307487,0.02823753446090734,0.02223119640530871,0.027850618978680602,-0.003824735826861446,0.037020107391220025,0.13537362417147905,-0.04830855583114321,-0.02562465812806909,0.17277708730524485,-0.09912631953756966
78,7.421207999985199,-0.01945540110137747,-0.030459936803419914,0.028221032457774207,0.022386565103088934,0.028421118635985582,-0.004028651597106531,0.036910115008629514,0.13609778283293025,-0.04872476579536226,-0.02671804286241628,0.17180178470075416,-0.0989242460892198
79,7.427340599999297,-0.019360984646470653,-0.03033928112166874,0.02820366972311467,0.022541461846867953,0.028994653308457706,-0.004234314907577786,0.03679551623607547,0.1368177853879473,-0.049140110403287224,-0.02781659277192674,0.17079930912352723,-0.09871451024030448
80,7.431921200011857,-0.019265918174768484,-0.03021620852163313,0.02818543891968327,0.022695867230424955,0.02957120528802188,-0.004441722053510727,0.036676289472268066,0.13753351726645438,-0.04955455733355855,-0.02892025568958362,0.16976949003630423,-0.09849705775018866
81,7.436004100018181,-0.01917020379232887,-0.030090706359331042,0.028166332726091124,0.022849761757209805,0.030150756383560448,-0.004650869193815441,0.036552413338687126,0.13824486318971213,-0.04996807404165583,-0.03002897770751694,0.16871216066349362,-0.09827183678474766
82,7.440258699993137,-0.019073843687342294,-0.02996276206825569,0.02814634383738087,0.023003125841294422,0.03073328791796831,-0.004861752350159077,0.036423866687190935,0.13895170718573355,-0.05038062777050325,-0.03114270290877061,0.16762715804926903,-0.09803879798064659
83,7.444316199980676,-0.018976840130505452,-0.029832363161424277,0.028125464965605383,0.023155939808357957,0.03131878072527038,-0.005074367406096615,0.036290628609295765,0.13965393260597697,-0.05079218556063352,-0.03226137307491126,0.16651432334445362,-0.09779789437530652
84,7.448074500018265,-0.018879195475390645,-0.029699497233438694,0.02810368884041003,0.023308183896716173,0.03190721514781704,-0.005288710106238802,0.036152678446242495,0.14035142214317345,-0.05120271426020464,-0.03338492759843082,0.16537350180028615,-0.09754908162294611
85,7.452482299995609,-0.018780912158810757,-0.029564151962557822,0.028081008209618376,0.023459838258391243,0.03249857103355142,-0.00550477605546712,0.03600999579901249,0.14104405784796736,-0.05161218053697987,-0.03451330333097692,0.16420454269805768,-0.0972923182106629
86,7.4568912999820895,-0.01868199270117966,-0.029426315112781203,0.028057415839821034,0.023610882960225323,0.03309282773334477,-0.005722560718202422,0.03586256053967,0.14173172114615232,-0.052020550890160853,-0.035646434320472334,0.16300729949602924,-0.09702756546437923
87,7.460771000012755,-0.018582439706867834,-0.029285974535943744,0.028032904516967525,0.023761297985045695,0.03368996409840862,-0.005942059417719374,0.03571035282358778,0.14241429285654675,-0.052427791662417594,-0.03678425179933051,0.16178162978759011,-0.09675478763065877
88,7.465027600002941,-0.01848225586455297,-0.029143118173821137,0.028007467046960895,0.02391106323288111,0.034289958477780366,-0.006163267335516212,0.035553353100888585,0.1430916532078781,-0.0528338690524093,-0.03792668436573253,0.16052739519048623,-0.09647395178894576
89,7.468979600002058,-0.018381443947565367,-0.028997734060245705,0.027981096256254858,0.024060158522223103,0.03489278871587743,-0.0063861795107344336,0.03539154212714696,0.14376368185572724,-0.05323874912607666,-0.03907365796010936,0.1592444613707852,-0.09618502764710055
90,7.473414300009608,-0.01828000681422794,-0.028849810323232375,0.027953784992453306,0.024208563591332298,0.035498432150125235,-0.006610790839623477,0.0352249009750284,0.1444302578996142,-0.05364239782744396,-0.040225095794976795,0.15793269800142784,-0.09588798735470183
91,7.477731699997093,-0.018177947408190627,-0.028699335187114466,0.027925526124911944,0.02435625809959756,0.03610686560865499,-0.006837096075051217,0.03505341104558101,0.14509125989959407,-0.054044780988342006,-0.04138091851887909,0.1565919787916115,-0.095582805316003
92,7.482218699995428,-0.018075268758758978,-0.028546296974689016,0.027896312545341917,0.024503221628937224,0.03671806540807119,-0.007065089826050374,0.034877054078496506,0.14574656589358972,-0.054445864337637914,-0.0425410443326649,0.15522218148068173,-0.09526945786854454
93,7.487620099971536,-0.01797197398121678,-0.028390684109371334,0.027866137168415257,0.024649433685244488,0.03733200735129507,-0.007294766557406595,0.03469581216242446,0.1463960534139365,-0.05484561350825648,-0.043705389153231224,0.1538231876397647,-0.09494792268758286
94,7.491862599970773,-0.0178680662771425,-0.028232485117358458,0.02783499293237197,0.02479487369987535,0.03794866672547121,-0.007526120589263883,0.03450966774385692,0.1470395995030473,-0.05524399404140363,-0.04487386694696358,0.1523948826428097,-0.09461817842969186
95,7.495369800017215,-0.017763548934719393,-0.0280716886298013,0.02780287279962881,0.024939521031168695,0.03856801829994265,-0.007759146096748182,0.034318603634639726,0.14767708072971392,-0.05564097139059188,-0.04604638973484575,0.1509371558241981,-0.09428020459252037
96,7.499032300023828,-0.01765842532903918,-0.027908283384985123,0.02776976975738952,0.025083354965997354,0.039190036324294526,-0.007993837109606643,0.03412260302081418,0.14830837320609705,-0.05603651092468495,-0.04722286711947512,0.14944990071168157,-0.09393398159663265
97,7.5032965000136755,-0.017552698922399114,-0.02774225823051814,0.027735676818256633,0.02522635472136252,0.03981469452647201,-0.008230187511856803,0.033921649474104275,0.1489333526059856,-0.056430577932611144,-0.04840320592348706,0.14793301514390617,-0.09357949099571723
98,7.508367999980692,-0.017446373264592245,-0.027573602125527813,0.027700587020844682,0.02536849944604138,0.040441966110977424,-0.008468191041465472,0.03371572696379776,0.14955189418277468,-0.056823137628174966,-0.0495873102940407,0.1463864011832327,-0.09321671528397885
99,7.512665699992794,-0.01733945199319065,-0.027402304142864587,0.027664493430394687,0.025509768222281386,0.04107182375713931,-0.008707841290038354,0.03350481986735505,0.15016387278699198,-0.05721415515315148,-0.05077508180818951,0.14480996497422755,-0.09284563774418632
100,7.51691090001259,-0.017231938833821448,-0.027228353471312756,0.027627389139389967,0.02565014006753707,0.04170423961745687,-0.00894913170252495,0.033288912981404545,0.1507691628830863,-0.057603595580820594,-0.051966419286101864,0.14320361660449157,-0.0924662423715526
101,7.521300899970811,-0.017123837600435433,-0.02705173941780812,0.027589267268173123,0.025789593936256756,0.04233918531601014,-0.009192055576937891,0.033067991533921634,0.1513676385657842,-0.057991423918421554,-0.05316121869727998,0.14156727022724597,-0.09207851364623047
102,7.525884700007737,-0.01701515219556807,-0.026872451409662195,0.027550120965564202,0.025928108721721726,0.04297663194694197,-0.009436606064078463,0.032842041196012306,0.1519591735779087,-0.05837760510877485,-0.054359373178482585,0.13990084432360111,-0.09168243632299242
103,7.5296242000185885,-0.01690588661059267,-0.026690478996792645,0.027509943409479987,0.026065663257932,0.043616550073017936,-0.00968277616726958,0.0326110480939415,0.15254364132894072,-0.05876210403096875,-0.055560772934247264,0.13820426172062453,-0.09127799516814682
104,7.533790900022723,-0.016796044925965523,-0.026505811853959595,0.027468727807554404,0.026202236321546623,0.04425890972426435,-0.009930558742087085,0.032374998821752925,0.1531209149129897,-0.05914488549976974,-0.05676530526006482,0.13647744950387714,-0.09086517474357317
105,7.538071700022556,-0.01668563131146278,-0.026318439783007505,0.027426467397760074,0.0263378066338755,0.04490368039667927,-0.010179946496087756,0.03213388045310262,0.15369086712661975,-0.05952591426449366,-0.05797285476451121,0.1347203390868025,-0.09044395937753338
106,7.542237900022883,-0.016574650026408833,-0.026128352715112328,0.02738315544903101,0.026472352862919168,0.04555083105102031,-0.010430931988531126,0.031887680552011535,0.15425337048740353,-0.059905155008170785,-0.059183303556266435,0.13293286615270275,-0.09001433313550451
107,7.546108999988064,-0.01646310541989605,-0.025935540713033566,0.027338785261886496,0.02660585362545103,0.04620033011167166,-0.010683507630100468,0.03163638718312699,0.1548082972512607,-0.06028257234617178,-0.060396531366623686,0.13111497026361674,-0.08957627965068223
108,7.550343699986115,-0.01635100193099566,-0.025739993973370956,0.027293350169056138,0.026738287489143368,0.04685214546557761,-0.010937665682613066,0.031379988921445466,0.15535551942772402,-0.06065813082394799,-0.06161241568981907,0.12926659460861395,-0.08912978218234159
109,7.554424799978733,-0.0162383440889596,-0.02554170282882549,0.02724684353610618,0.026869632974731307,0.04750624446123788,-0.011193398258722204,0.031118474861394473,0.155894908795162,-0.061031794916148005,-0.06283083164269815,0.1273876860979908,-0.08867482387888778
110,7.558578399999533,-0.016125136513413223,-0.025340657750464544,0.027199258762067052,0.02699986855821518,0.04816259390776915,-0.011450697321620008,0.03085183462773496,0.15642633691683677,-0.06140352902656911,-0.06405165150322559,0.12547819570125504,-0.08821138799961732
111,7.562805900000967,-0.01601138391453864,-0.02513684934999079,0.02715058928006219,0.027128972673116127,0.04882116007403536,-0.011709554684739033,0.030580058388522447,0.15694967515896782,-0.06177329748913799,-0.0652747442842941,0.12353807899077149,-0.08773945832962095
112,7.566856999997981,-0.01589709109324845,-0.02493026838201463,0.027100828557938095,0.027256923712787418,0.04948190868786106,-0.011969962011463347,0.030303136869592014,0.1574647947113598,-0.06214106457134984,-0.06649997541221385,0.12156729658574059,-0.087259019722925
113,7.571867500024382,-0.015782262941349653,-0.024720905746329732,0.027049970098895572,0.027383700032791815,0.05014480493533512,-0.012231910814859021,0.03002106137022203,0.1579715666091982,-0.06250679447981468,-0.06772720660136214,0.11956581429221479,-0.08677005828924701
114,7.576861499983352,-0.015666904441697414,-0.024508752490191306,0.02699800744212206,0.02750927995334455,0.05080981346020732,-0.012495392457431842,0.02973382377867282,0.15846986175485428,-0.06287045136526637,-0.068956295784164,0.11753360323194151,-0.08627256138258356
115,7.580711700022221,-0.015551020668338425,-0.024293799810596713,0.02694493416342491,0.02763364176182132,0.051476898363375295,-0.012760398150899908,0.029441416588439,0.15895955094076372,-0.06323199932801296,-0.07018709701431632,0.11547064016289718,-0.08576651775294848
116,7.5848157000145875,-0.01543461678664359,-0.02407603905656806,0.026890743875865625,0.02775676371533787,0.05214602320247348,-0.013026918955997153,0.02914383291460163,0.15944050487392594,-0.06359140242422123,-0.07141946053695294,0.11337690777761603,-0.0852519175580847
117,7.588606800010893,-0.015317698053429708,-0.02385546173143626,0.02683543023039479,0.02787862404339545,0.05281715099156602,-0.013294945782298773,0.028841066509490722,0.15991259420129053,-0.06394862467146549,-0.072653232838774,0.11125239504236982,-0.08472875235170699
118,7.592308500024956,-0.015200269817069912,-0.02363205949512621,0.026778986916487776,0.02799920095059207,0.05349024420094904,-0.013564469388071392,0.028533111778616043,0.16037568953710768,-0.06430363005491326,-0.07388825668266363,0.10909709751820376,-0.08419701505431329
119,7.597021299996413,-0.015082337517592569,-0.023405824166442515,0.02672140766278093,0.028118472619401834,0.054165264757073533,-0.013835480380150485,0.028219963796038607,0.16082966149101324,-0.06465638253262873,-0.07512437138225925,0.10691101740707049,-0.08365670000591591
120,7.6006937000202015,-0.014963906686768353,-0.023176747725355305,0.026662686237708313,0.02823641721301544,0.05484217404258369,-0.014107969213835125,0.02790161831799345,0.16127438069576697,-0.06500684604220174,-0.07636141311751708,0.10469416356390833,-0.08310780337479691
121,7.60503759997664,-0.014844982948185266,-0.022944822315285645,0.026602816450138775,0.02835301287823402,0.05552093289647291,-0.01438192619282113,0.027578071795608505,0.16170971783543908,-0.06535498450948715,-0.07759921493152169,0.1024465516429777,-0.08255032325665065
122,7.608651200018357,-0.01472557201731139,-0.022710040245390046,0.02654179215001325,0.028468237748416548,0.05620150161435915,-0.014657341469169274,0.027249321388554182,0.16213554367437863,-0.06570076185606726,-0.07883760653231864,0.10016820426116245,-0.0819842594820606
123,7.613022300007287,-0.014605679701545126,-0.022472393992843547,0.026479607228982103,0.028582069946488424,0.05688383994888437,-0.014934205043301157,0.026915364979428036,0.16255172908677276,-0.06604414200637282,-0.08007641417580735,0.09785915122578698,-0.08140961386189066
124,7.617671400017571,-0.014485311900252661,-0.022231876205120876,0.026416255621042457,0.028694487588009788,0.05756790711023839,-0.01521250676402728,0.02657620118838875,0.1629581450875301,-0.06638508889720819,-0.08131546041449675,0.09551942993744308,-0.08082639057838213
125,7.621540499967523,-0.014364474604792416,-0.02198847970227513,0.026351731303175304,0.028805468784307134,0.05825366176681794,-0.015492236328622984,0.026231829389652753,0.16335466286522615,-0.06672356648815995,-0.0825545636478939,0.09314908562409713,-0.08023459627861365
126,7.625679499993566,-0.014243173898526182,-0.021742197479213386,0.026286028295982197,0.02891499164568028,0.058941062046027434,-0.015773383282944017,0.025882249729907623,0.16374115381495463,-0.06705953877190762,-0.08379353782465974,0.09074817126448287,-0.07963424019744696
127,7.629583299974911,-0.014121415956816614,-0.021493022707968663,0.026219140664321385,0.029023034284688776,0.0596300655352142,-0.016055937021589146,0.02552746314731238,0.16411748957062888,-0.06739296978566578,-0.08503219224675024,0.08831674755945772,-0.07902533430340261
128,7.633823600015603,-0.013999207047010744,-0.02124094873996767,0.02615106251794314,0.029129574819518576,0.060320629282740755,-0.016339886788111904,0.025167471391557273,0.16448354203759238,-0.067723823622721,-0.08627033128330784,0.08585488287403797,-0.07840789339194655
129,7.637886699987575,-0.013876553528409172,-0.02098596910829374,0.026081788012124112,0.02923459137743708,0.06101270979919416,-0.01662522167528018,0.024802277045269085,0.164839183424433,-0.06805206444465817,-0.0875077542159949,0.08336265305474183,-0.07778193526108448
130,7.641346300020814,-0.013753461852220537,-0.020728077529944423,0.026011311348300478,0.029338062098339734,0.06170626305872573,-0.01691193062539075,0.024431883545371052,0.16518428627405798,-0.06837765649437341,-0.08874425537878233,0.08084014140172138,-0.0771474808862001
131,7.646292100020219,-0.013629938561500894,-0.020467267908083165,0.025939626774699645,0.02943996513838462,0.06240124450052161,-0.017200002430638246,0.02405629520331311,0.16551872349527408,-0.06870056410977013,-0.08997962450297835,0.07828743874456408,-0.07650455441443028
132,7.6503042000113055,-0.013505990291077633,-0.02020353433428453,0.0258667285869703,0.029540278673709126,0.06309760903040794,-0.017489425733544804,0.02367551722353151,0.16584236839449965,-0.06902075173672464,-0.09121364713482712,0.0757046433953465,-0.07585318296044014
133,7.654619299981277,-0.013381623767457617,-0.01993687109077238,0.02579261112881051,0.02963898090421968,0.063795311022588,-0.017780189027438043,0.02328955572016873,0.16615509470695008,-0.0693381839410655,-0.09244610494783387,0.07309186110759185,-0.07519339658835333
134,7.658592100022361,-0.01325684580871924,-0.019667272652650513,0.025717268792593742,0.029736050057448987,0.0644943043215095,-0.018072280656981403,0.022898417732907708,0.16645677662800507,-0.06965282542138725,-0.0936767759180052,0.07044920518694597,-0.07452522817200312
135,7.662874499976169,-0.013131663324388145,-0.01939473369012513,0.02564069601999251,0.029831464392478864,0.06519454224386546,-0.01836568881875983,0.022502111242218688,0.16674728884532422,-0.06996464101985499,-0.09490543443486424,0.0677767967085868,-0.07384871304441386
136,7.666393099993002,-0.013006083315296303,-0.01911924907071866,0.02556288730259947,0.029925202203925635,0.06589597758073142,-0.01866040156190094,0.02210064518426025,0.16702650657204193,-0.07027359573207173,-0.09613185140976697,0.06507476469114462,-0.07316388913189555
137,7.670622400008142,-0.012880112873424231,-0.01884081386147427,0.025483837182545852,0.03001724182598823,0.0665985625998453,-0.018956406788743652,0.02169402946521567,0.167294305580345,-0.07057965471901013,-0.0973557945617145,0.06234324612605589,-0.07247079717047109
138,7.6751792000140995,-0.012753759181726049,-0.018559423331150498,0.025403540253116932,0.03010756163655408,0.06730224904802697,-0.019253692255559653,0.021282274973791405,0.16755056223491416,-0.07088278331869913,-0.09857702882346157,0.05958238585589529,-0.07176948085170734
139,7.679586899990682,-0.012627029513937174,-0.01827507295240546,0.025321991159364392,0.030196140061352298,0.06800698815373916,-0.019552245573320255,0.020865393592139715,0.16779515352547902,-0.07118294705938151,-0.09979531659290992,0.05679233643945398,-0.07105998725504278
140,7.683695700019598,-0.01249993123436447,-0.01798775840396994,0.02523918459871535,0.030282955578151367,0.0687127306297807,-0.019852054208528473,0.020443398206243954,0.16802795709912546,-0.07148011167483471,-0.10101041774440113,0.05397325842531752,-0.07034236712820202
141,7.688038399966899,-0.012372471797658657,-0.017697475572808947,0.02515511532157773,0.030367986720999628,0.06941942667611899,-0.02015310548411467,0.02001630271674626,0.16824885129515021,-0.07177424311988556,-0.10222208927269354,0.051125320791026704,-0.06961667503302348
142,7.691938799980562,-0.012244658748568818,-0.01740422055627101,0.025069778131941757,0.030451212084513995,0.0701270259828762,-0.02045538658039904,0.01958412205232556,0.16845771518105984,-0.07206530758695684,-0.1034300847000217,0.04824870101378095,-0.06888296948588223
143,7.696577199967578,-0.012116499721678753,-0.017107989664224627,0.024983167887977244,0.030532610328232884,0.07083547773346446,-0.020758884536126357,0.01914687218550951,0.16865442858801968,-0.07235327152276246,-0.10463415383069559,0.045343584981660356,-0.06814131279993062
144,7.700410899997223,-0.011988002441124891,-0.01680877942118121,0.024895279502626384,0.03061216018103785,0.07154473060786992,-0.021063586249568788,0.01870457014811533,0.16883887214610654,-0.0726381016435279,-0.10583404292354213,0.04241016710989187,-0.06739177074611676
145,7.704476299986709,-0.011859174720295488,-0.016506586568403925,0.02480610794419176,0.030689840445636312,0.0722547327860843,-0.021369478479688585,0.018257234045612202,0.16901092732073497,-0.0729197649488359,-0.10702949499828929,0.039448650625253955,-0.06663441251252332
146,7.708894899988081,-0.01173002446151085,-0.016201408066001788,0.024715648236919376,0.030765630003103915,0.07296543195169519,-0.02167654784735729,0.017804883069986656,0.16917047645030064,-0.07319822873650512,-0.1082202502243431,0.036459247684294066,-0.0658693106049858
147,7.712815599981695,-0.011600559655684347,-0.01589324109500833,0.024623895461576412,0.030839507817475402,0.07367677529563402,-0.02198478083664349,0.01734753751083691,0.16931740278360038,-0.07347346061560044,-0.10940604607854652,0.03344217938197965,-0.06509654026879987
148,7.716996099974494,-0.011470788381964046,-0.015582083059444191,0.02453084475602343,0.03091145294038024,0.07438870952008088,-0.02229416379614139,0.016885218766912145,0.16945159051754827,-0.07374542851645044,-0.11058661726288764,0.03039767583438394,-0.0643161792027054
149,7.721290200017393,-0.01134071880735476,-0.015267931588362952,0.024436491315780965,0.03098144451573049,0.07510118084252954,-0.02260468294034278,0.016417949357898587,0.16957292483529068,-0.07401410070125353,-0.11176169579823209,0.02732597621559118,-0.06352830757022179
150,7.7255185000249185,-0.011210359186320278,-0.014950784537879565,0.02434083039459019,0.031049461784455498,0.07581413500001269,-0.02291632435105475,0.015945752935170865,0.16968129194423268,-0.07427944577419071,-0.11293101122622284,0.02422732870017775,-0.06273300808146053
151,7.729683200013824,-0.011079717860365604,-0.014630639993180667,0.0242438573049676,0.031115484089280145,0.07652751725348658,-0.02322907397885667,0.015468654291880936,0.1697765791136695,-0.07454143269271937,-0.1140942906643729,0.021101990422935736,-0.06193036628556501
152,7.733616199984681,-0.01094880325759903,-0.014307496270516149,0.024145567418753424,0.031179490879544355,0.07724127239237262,-0.023542917644612846,0.014986679373246332,0.1698586747124744,-0.07480003078014434,-0.11525125863062813,0.01795022761341164,-0.0611204706873151
153,7.73711300001014,-0.010817623892273863,-0.013981351919171298,0.02404595616765359,0.031241461716067814,0.07795534473925878,-0.02385784104103517,0.014499855288113804,0.1699274682478611,-0.07505520973789181,-0.116401636681693,0.014772315969845084,-0.06030341264761151
154,7.741949499992188,-0.010686188364309596,-0.013652205723418845,0.02394501904377501,0.03130137627606669,0.07866967815476704,-0.024173829734298945,0.014008210322287794,0.16998285040621486,-0.07530693965724392,-0.1175451430535708,0.01156854098284623,-0.05947928619678713
155,7.746095500013325,-0.010554505358792314,-0.01332005670445019,0.023842751600153957,0.03135921435813038,0.07938421604259806,-0.024490869165704178,0.013511773953115687,0.17002471309457587,-0.07555519103004331,-0.11868149257686295,0.008339198016906146,-0.05864818769582182
156,7.750399600015953,-0.010422583645454031,-0.012984904122285045,0.023739149451277388,0.031414955887260856,0.08009890135474729,-0.02480894465338139,0.013010576863528278,0.17005294948215544,-0.07579993475757994,-0.11981039678493734,0.005084592451998258,-0.057810215427534145
157,7.7544324999907985,-0.01029043207813073,-0.012646747477658815,0.02363420827359698,0.03146858091996741,0.08081367659689861,-0.025128041394027606,0.012504650955715763,0.17006745404300963,-0.07604114215785923,-0.12093156391348778,0.0018050398672028857,-0.05696546950867847
158,7.759014800016303,-0.010158059594198873,-0.012305586513886899,0.023527923806035855,0.031520069649420966,0.08152848383399923,-0.025448144464673268,0.011994029365171906,0.1700681225990991,-0.07627878497374989,-0.12204469896284044,-0.0014991337978304653,-0.056114051802469776
159,7.766013299988117,-0.01002547521399012,-0.011961421218705207,0.023420291850487777,0.0315694024106669,0.0822432646960152,-0.025769238824486708,0.011478746473846288,0.1700548523643199,-0.0765128353795168,-0.1231495039337836,-0.004827591981096283,-0.0552560656151732
160,7.769879199971911,-0.009892688040184018,-0.011614251826086086,0.0233113082723087,0.03161655968588988,0.08295796038387647,-0.026091309316595982,0.010958837922206094,0.1700275419897639,-0.07674326598641837,-0.12424567817166324,-0.008179987383333977,-0.054391615432641524
161,7.77512210002169,-0.00975970725717846,-0.01126407881802886,0.023200969000800643,0.031661522109728106,0.08367251167561289,-0.026414340669940393,0.010434340619495898,0.16998609160871547,-0.07697004984702478,-0.12533291885807227,-0.01155596213947837,-0.05352080620222572
162,7.779469900007825,-0.00962654213043771,-0.010910902926324177,0.023089270029687692,0.03170427047462437,0.08438685893267746,-0.02673831750112862,0.009905292751666333,0.1699304028804707,-0.07719316045477909,-0.12641092146061,-0.014955148004869629,-0.05264374263209959
163,7.783781000005547,-0.009493202005817871,-0.010554725134291395,0.022976207417584243,0.03174478573620694,0.0851009421064507,-0.027063224316286553,0.009371733787853206,0.16986037903376874,-0.07741257174242556,-0.1274793799835884,-0.018377166399221195,-0.05176052925491356
164,7.787925400014501,-0.00935969630886969,-0.010195546678488253,0.022861777288455475,0.03178304901869512,0.08581470074492896,-0.027389045512902218,0.008833704486198737,0.16977592491024143,-0.07762825808210594,-0.1285379870083923,-0.021821628490689127,-0.050871270679124454
165,7.792313600017223,-0.009226034544118578,-0.00983336905039204,0.02274597583207008,0.031819041620329044,0.08652807399959407,-0.027715765381674414,0.008291246899991405,0.16967694700713803,-0.07784019428590039,-0.12958643359802907,-0.02528813533060892,-0.04997607167114311
166,7.796218300005421,-0.009092226294321774,-0.009468193998051513,0.022628799304445207,0.031852745018826824,0.08724100063246076,-0.028043368108362183,0.007744404384289543,0.16956335351964222,-0.07804835560661429,-0.13062440911025155,-0.028776277792219074,-0.049075037394604004
167,7.8000766999903135,-0.0089582812197025,-0.00910002352770883,0.022510244028283635,0.031884140876870054,0.08795341902330202,-0.028371837775640067,0.0071932216036320685,0.16943505438411188,-0.07825271774033052,-0.1316516008552318,-0.03228563634262947,-0.04816827373742047
168,7.804733500001021,-0.008824209057161001,-0.008728859905390735,0.02239030639340312,0.031913211047625775,0.08866526717706,-0.028701158364969028,0.006637744541539663,0.16929196132231297,-0.07845325682994543,-0.1326676937920226,-0.035815780933819465,-0.047255887440183546
169,7.808776699996088,-0.008690019619462294,-0.008354705658468185,0.02226898285715786,0.03193993758031183,0.0893764827314432,-0.029031313758481433,0.006078020510777037,0.16913398788557557,-0.07864994946880047,-0.13367237059572665,-0.03936627104311572,-0.04633798610204592
170,7.812924399971962,-0.00855572279440042,-0.007977563577183681,0.022146269944851978,0.03196430272580509,0.09008700296470859,-0.0293622877408825,0.005514098162289488,0.16896104949868745,-0.07884277270426758,-0.13466531192951248,-0.04293665572422949,-0.045414678064267695
171,7.816927400010172,-0.00842132854393905,-0.00759743671614548,0.022022164250145,0.03198628894228195,0.09079676480362768,-0.02969406400136541,0.004946027493178608,0.16877306350362117,-0.07903170404040195,-0.13564619639148753,-0.04652647354736369,-0.044486072351389946
172,7.821884899982251,-0.008286846903328328,-0.007214328395787956,0.021896662435449254,0.03200587890089358,0.09150570483163625,-0.030026626135535073,0.004373859856085425,0.16856994920393106,-0.07921672144103292,-0.136614700222748,-0.050135252353133104,-0.04355227888162437
173,7.825458400009666,-0.008152287980197763,-0.006828242203797313,0.02176976123231918,0.03202305549148531,0.09221375929717367,-0.030359957647349212,0.0037976479696202343,0.16835162791054886,-0.07939780333418522,-0.13757049725670734,-0.05376250895481347,-0.042613408624521724
174,7.829531499999575,-0.008017661953625002,-0.006439181996501843,0.021641457441832396,0.032037801828359545,0.09292086412221749,-0.030694041951079283,0.0032174459281716847,0.1681180229886836,-0.07957492861649527,-0.13851325907916312,-0.057407748980432,-0.041669573758823464
175,7.833765999996103,-0.007882979073180281,-0.006047151900225895,0.021511747934962532,0.03205010125607759,0.09362695491101708,-0.0310288623732887,0.0026333092109910913,0.16786905990494466,-0.07974807665895932,-0.13944265511186593,-0.06107046680264187,-0.04072088776590516
176,7.837869399983901,-0.007748249657946419,-0.005652156312606723,0.02138062965294367,0.032059937355298954,0.09433196695902431,-0.03136440215484206,0.002045294691299043,0.16760466627483103,-0.07991722731213519,-0.14035835253641366,-0.06475014523884158,-0.03976746517263216
177,7.84220929996809,-0.007613484095514188,-0.005254199903873379,0.021248099607626282,0.032067293948659724,0.09503583526202634,-0.03170064445292711,0.0014534606460094603,0.16732477191237521,-0.0800823609097289,-0.1412600161163122,-0.0684462550909975,-0.038809421434702195
178,7.846203900000546,-0.007478692840952897,-0.004853287618086796,0.021114154881824682,0.032072155106693596,0.0957384945254937,-0.03203757234309411,0.0008578667663319529,0.16702930888150078,-0.08024345827281579,-0.1421473080873834,-0.07215825500421744,-0.037846872871832714
179,7.850286300003063,-0.007343886415755987,-0.004449424674340098,0.020978792629655817,0.032074505153799365,0.09643987917414469,-0.03237516882131326,0.00025857416841710656,0.16671821154685498,-0.08040050071288232,-0.14301988816896008,-0.07588559160995349,-0.03687993633603343
180,7.85463419998996,-0.007209075406761452,-0.004042616567918285,0.020842010076869418,0.03207432867425146,0.09713992336172081,-0.03271341680603969,-0.000344354596135262,0.16639141662396265,-0.08055347003325872,-0.14387741355013772,-0.07962769968330728,-0.035908728971072106
181,7.858677899988834,-0.007074270465046911,-0.0036328690714163736,0.020703804521169444,0.03207161051825575,0.09783856098097277,-0.033052299140282876,-0.000950855529515255,0.16604886322873644,-0.08070234853013881,-0.14471953887484826,-0.08338400230230636,-0.03493336834656256
182,7.862946600012947,-0.006939482304799124,-0.0032201882358151358,0.02056417333252683,0.03206633580805055,0.09853572567385203,-0.033391798593680216,-0.0015608631770691653,0.16569049292629187,-0.08084711899513987,-0.145545916292335,-0.08715391094591414,-0.033953972955791833
183,7.86706050002249,-0.006804721702157775,-0.002804580391513573,0.020423113953483504,0.032058489944051805,0.09923135084190725,-0.033731897864587995,-0.002174310616962919,0.16531624977963374,-0.08098776472050713,-0.14635619551204684,-0.09093682557082186,-0.032970662833894555
184,7.871376299997792,-0.00666999949403334,-0.0023860521493172617,0.020280623899447556,0.03204805861104097,0.09992536965688499,-0.03407257958219866,-0.002791129450009787,0.1649260803978256,-0.08112426950686999,-0.14715002369679586,-0.09473213470848117,-0.03198355999602988
185,7.875567700015381,-0.006535326576898847,-0.001964610401381718,0.020136700758979456,0.032035027784395737,0.10061771507153111,-0.03441382630869703,-0.0034112497884357116,0.16451993398386056,-0.08125661767212987,-0.14792704510609286,-0.09853921540615886,-0.030992788495701095
186,7.879629599978216,-0.0064007139055553735,-0.0015402623221099474,0.019991342194069107,0.03201938373637232,0.10130831983059391,-0.03475562054145224,-0.004034600242708906,0.16409776238332618,-0.0813847940597066,-0.14868690071257576,-0.10235743299540515,-0.02999847444872564
187,7.883964399981778,-0.006266172491870996,-0.0011130153690033162,0.019844545940403625,0.03200111304244691,0.10199711648203452,-0.035097944715243294,-0.004661107907080891,0.16365952013422164,-0.08150878404762779,-0.1494292279973594,-0.10618614088012877,-0.029000746272153086
188,7.887959100014996,-0.006131713403492978,-0.0006828772834648679,0.01969630980762569,0.031980202587719504,0.10268403738844889,-0.035440781204527434,-0.0052906983446958065,0.163205164517404,-0.08162857355878357,-0.15015366091478125,-0.11002468048688696,-0.027999734883025512
189,7.892069800000172,-0.005997347762532898,-0.0002498560915541825,0.019546631679582264,0.031956639573380505,0.10336901473870218,-0.03578411232575185,-0.005923295572835105,0.16273465560682318,-0.08174414907168671,-0.150859830005038,-0.11387238136096715,-0.026995573721845686
190,7.897216400015168,-0.005863086744224471,0.000186039895307107,0.019395509514563498,0.03193041152323862,0.10405198055977301,-0.036127920339712516,-0.0065588220489736825,0.1622479563191607,-0.08185549763092465,-0.15154736274328853,-0.1177285613299558,-0.025988398454243302
191,7.900727299973369,-0.0057289415755538056,0.0006248020796800178,0.019242941345531627,0.031901506290304645,0.10473286672880516,-0.036472187453953774,-0.007197198658959119,0.16174503246268956,-0.0819626068554118,-0.15221588407720413,-0.12159252670367755,-0.02497834639935556
192,7.904561500006821,-0.005594923533861884,0.0010664215775040057,0.019088925280339713,0.03186991206341874,0.10541160498536252,-0.036816895825196524,-0.007838344707586447,0.16122585278523238,-0.08206546494403662,-0.15286501699888919,-0.12546357247690154,-0.023965555746465996
193,7.908968899981119,-0.00546104394541911,0.0015108892175446835,0.018933459501940118,0.03183561737391345,0.10608812694388389,-0.03716202756178528,-0.008482177911584938,0.16069038902131733,-0.08216406067732895,-0.1534943831803368,-0.12934098258877041,-0.02295016479583127
194,7.912811600021087,-0.005327314183971778,0.0019581955408943053,0.01877654226858268,0.03179861110229991,0.10676236410633436,-0.03750756472613037,-0.009128614395534498,0.16013861593795545,-0.0822583834167255,-0.15410360346698507,-0.13322403039081998,-0.021932311818246952
195,7.917139699973632,-0.005193745669260417,0.0024083308005258307,0.018618171914002665,0.031758882484965195,0.1074342478750449,-0.037853489337148834,-0.009777568689001271,0.15957051137786252,-0.08234842310505676,-0.15469229800911077,-0.13711197946658013,-0.02091213526578718
196,7.921135500015225,-0.005060349865509965,0.002861284960901339,0.018458346847598412,0.03171642112088263,0.10810370956572704,-0.038199783372710704,-0.010428953723558529,0.15898605629834678,-0.08243417026758385,-0.1552600863776066,-0.14100408498319902,-0.019889773947093573
197,7.925722100015264,-0.0049271382798917055,0.003317047697635494,0.01829706555459873,0.03167121697833417,0.10877068042063942,-0.03854642877208861,-0.011082680830895494,0.15838523480316907,-0.08251561601395899,-0.15580658790954954,-0.14489959550245235,-0.018865367073619847
198,7.92962810001336,-0.004794122460956929,0.003775608397214637,0.01813432659621995,0.03162326040163659,0.1094350916218702,-0.03889340743842056,-0.011738659742743067,0.1577680341662073,-0.08259275203965108,-0.1563314221318386,-0.14879775467019682,-0.01783905392694353
199,7.933655400003772,-0.004661313997042334,0.004236956156771901,0.017970128609812622,0.031572542117864505,0.11009687430470258,-0.03924070124117152,-0.01239679859254374,0.15713444484911504,-0.08266557062510957,-0.1568342091346509,-0.15269780220956458,-0.01681097348460934
200,7.9392920000245795,-0.004528724514647176,0.004701079783918656,0.017804470308997872,0.031519053243562516,0.11075595957104563,-0.03958829201858917,-0.013057003918516583,0.15648446051663725,-0.08273406463404488,-0.15731456975792613,-0.15659897418040902,-0.015781264403142613
201,7.943016099976376,-0.004396365676782241,0.005167967796632523,0.01763735048379345,0.031462785291442474,0.11141227850292855,-0.039936161580151,-0.013719180666894742,0.155818078052088,-0.08279822751244952,-0.15777212546949854,-0.16050050272458077,-0.014750065479598652
202,7.947001599997748,-0.0042642491812907015,0.005637608423202247,0.01746876800072953,0.03140373017706841,0.11206576217606165,-0.040284291709011884,-0.014383232193966004,0.15513529757480735,-0.08285805329075824,-0.15820649794676192,-0.16440161528365763,-0.013717516596931014
203,7.95070470002247,-0.004132386759140898,0.006109989602229711,0.01729872180295418,0.03134188022553665,0.1127163416734773,-0.04063266416446931,-0.015049060265793786,0.15443612246221483,-0.08291353659081592,-0.15861730852615774,-0.1683015336208597,-0.012683759922043288
204,7.955442600010429,-0.004000790172691038,0.00658509898268947,0.017127210910328428,0.03127722817816306,0.1133639480992763,-0.04098126068446952,-0.01571656505563011,0.15372055937548812,-0.08296467263810853,-0.15900417810428807,-0.17219947405536437,-0.01164894079411233
205,7.960904199979268,-0.003869471213925767,0.007062923924046316,0.016954234419510678,0.03120976719918494,0.1140085125924847,-0.04133006298817557,-0.016385645142805348,0.15298861827964683,-0.08301145727619817,-0.15936672804057284,-0.17609465016123935,-0.01061320779362742
206,7.964668900007382,-0.003738441702664532,0.007543451496431295,0.01677979150403019,0.031139490882457613,0.11464996634096901,-0.04167905277859479,-0.017056197517728914,0.152240312446544,-0.08305388697953445,-0.15970458162515483,-0.17998627692154676,-0.009576712228789957
207,7.968181599979289,-0.003607713484741858,0.008026668480876242,0.0166038814143494,0.031066393258114243,0.1152882405953181,-0.04202821174525455,-0.017728117593118174,0.15147565844003072,-0.08309195886357217,-0.1600173652503351,-0.18387357361346632,-0.008539607732800448
208,7.971823300002143,-0.0034772984301597344,0.00851256136960649,0.016426503477914908,0.03099046879916806,0.11592326668263377,-0.04237752156691477,-0.018401299218846198,0.1506946760946952,-0.0831256706941975,-0.16030470903949776,-0.18775576403041316,-0.007502050503078577
209,7.975447000004351,-0.0033472084312123895,0.009001116366391322,0.016247657099197003,0.030911712428047355,0.11655497602023392,-0.04272696391432294,-0.01907563469845739,0.14989738849916032,-0.08315502089985662,-0.1605662473122376,-0.1916320752115377,-0.0064642000901005674
210,7.979566499998327,-0.0032174554005837447,0.009492319386951876,0.0160673417597175,0.030830119523058894,0.11718330012930268,-0.04307652045302852,-0.019751014807925096,0.1490838219855026,-0.08318000858761272,-0.1608016192763801,-0.1955017365418029,-0.005426220004477558
211,7.983588800008874,-0.0030880512694178583,0.009986156059426338,0.015885557018065585,0.030745685924765224,0.11780817064850471,-0.04342617284627299,-0.02042732881798433,0.14825400612011436,-0.08320063356037781,-0.16101046969304492,-0.19936397971447486,-0.004388277690251591
212,7.987929399998393,-0.002959007985362772,0.010482611724892286,0.015702302509901376,0.03065840794226035,0.11842951934755844,-0.04377590275794911,-0.021104464518479894,0.147407973693438,-0.08321689633274525,-0.1611924489120464,-0.20321803890376527,-0.003350544157912309
213,7.9921152999741025,-0.002830337510588201,0.01098167143794598,0.015517577947946889,0.030568282359342395,0.11904727814076409,-0.04412569185562402,-0.021782308240996674,0.14654576070937697,-0.08322879814513663,-0.16134721215979397,-0.20706315053837804,-0.002313193689401407
214,7.995751400012523,-0.0027020518197774946,0.011483319967338422,0.01533138312196418,0.030475306440599023,0.11966137910048795,-0.04447552181361742,-0.02246074487722187,0.14566740637693362,-0.08323634097715468,-0.16147441874838303,-0.21089855267811639,-0.001276403819757434
215,8.000684799975716,-0.002574162898094171,0.011987541796667996,0.015143717898720448,0.03037947793742576,0.12027175447062008,-0.04482537431613694,-0.023139657894926936,0.14477295310486035,-0.0832395275615758,-0.16157373216647836,-0.21472348501331479,-0.00024035548332996707
216,8.00457719998667,-0.0024466827391232886,0.012494321125129654,0.01495458222193981,0.03028079509397708,0.1208783366800136,-0.04517523106047393,-0.02381892935709377,0.14386244649330227,-0.083238361398932,-0.16164482119629858,-0.21853719024043175,0.0007947669449765183
217,8.008835899992846,-0.0023196233427879563,0.013003641868320523,0.014763976112241542,0.030179256653023928,0.12148105835587218,-0.04552507376026139,-0.024498439947286,0.14293593531688512,-0.08323284677185021,-0.16168736109040371,-0.22233891566643002,0.001828775871432627
218,8.012813300010748,-0.002192996713241466,0.013515487659101625,0.014571899667064478,0.03007486186169156,0.12207985233704714,-0.045874884148790325,-0.02517806899866721,0.1419934715028716,-0.08322298875777034,-0.1617010339482449,-0.2261279137121792,0.0028614809573114606
219,8.017036999983247,-0.002066814856735572,0.014029841848515266,0.01437835306057736,0.02996761047707313,0.12267465168724133,-0.04622464398237456,-0.025857694522537496,0.14103511011001765,-0.08320879323930158,-0.16168552845382028,-0.22990344163571116,0.0038926895830778247
220,8.021328500006348,-0.0019410897794654345,0.01454668750675774,0.014183336543574962,0.029857502771727645,0.1232653897081285,-0.046574335043754155,-0.026537193235146445,0.14006090930905515,-0.0831902669130385,-0.1616405396046918,-0.23366476113667403,0.0049222069238033335
221,8.025686100008897,-0.0018158334853916843,0.015066007424207004,0.013986850443359828,0.029744539539068176,0.12385199995239313,-0.046923939145534325,-0.027216440583951798,0.1390709303648731,-0.08316741729928344,-0.1615657688273711,-0.23741113781916764,0.005949835558239472
222,8.029605799994897,-0.0016910579740400723,0.01558778411250499,0.013788895163609484,0.029628722098639076,0.12443441623669999,-0.047273438133670596,-0.027895310775402367,0.1380652376215157,-0.08314025275414871,-0.16146092460069647,-0.24114184051848908,0.006975374981340183
223,8.033759900019504,-0.0015667752382791747,0.016111999805694305,0.01358947118422889,0.02951005230127065,0.12501257265460786,-0.04762281389100944,-0.02857367680643679,0.13704389849002294,-0.08310878248337672,-0.16132572340656193,-0.24485614084410498,0.00799862141984321
224,8.037872700020671,-0.0014429972620767122,0.016638636461409097,0.013388579061187879,0.029388532534091592,0.12558640358943693,-0.047972048340889605,-0.02925141050025825,0.13600698343727036,-0.08307301655599239,-0.16115989047732132,-0.24855331312622064,0.009019368182456694
225,8.0422275000019,-0.001319736018235121,0.017167675762119913,0.013186219426343343,0.029264165725382943,0.12615584372708866,-0.04832112345079752,-0.029928382544115884,0.1349545659742589,-0.0830329659151796,-0.16096315980575873,-0.25223263443072413,0.010037406308963976
226,8.046131599985529,-0.0011970034661070697,0.017699099116432332,0.012982392987245945,0.02913695534927293,0.12672082806881474,-0.04867002123606004,-0.030604462525163315,0.13388672264482895,-0.08298864238647728,-0.16073527343539007,-0.25589338399805717,0.011052524847344381
227,8.049699199968018,-0.001074811549291565,0.018232887660439158,0.012777100526931259,0.029006905430289495,0.1272812919439421,-0.049018723763568764,-0.031279518962274364,0.13280353301866707,-0.08294005868632637,-0.16047598088343493,-0.2595348423291502,0.012064510526471997
228,8.054050399980042,-0.0009531721933112013,0.01876902225912602,0.012570342903695176,0.028874020547787704,0.12783717102258313,-0.04936721315554461,-0.031953419337051085,0.13170507968770362,-0.08288722843301718,-0.16018503984015825,-0.263156291485158,0.013073147219248632
229,8.058380100002978,-0.0008320973032710489,0.0193074835078304,0.012362121050853405,0.028738305840241618,0.1283884013283303,-0.04971547159335416,-0.03262603013151814,0.1305914482565999,-0.08283016615974928,-0.15986221815148316,-0.2667570170439995,0.014078215690628545
230,8.06290479999734,-0.000711598761499826,0.019848251733753954,0.012152435976484795,0.028599767009354838,0.12893491925088646,-0.050063481321384024,-0.0332972168757966,0.12946272732269926,-0.08276888732769692,-0.1595072954296347,-0.27033630976347195,0.015079493870024146
231,8.066949200001545,-0.000591688425174235,0.020391306997527708,0.011941288763158267,0.028458410323951636,0.12947666155859103,-0.05041122465096699,-0.033966844199337376,0.128319008452534,-0.0827034083367791,-0.15912006286061944,-0.27389346522852376,0.01607675730950722
232,8.070742100011557,-0.0004723781239274245,0.020936629094829663,0.011728680567643134,0.028314242623656838,0.13001356541085268,-0.05075868396434696,-0.03463477587697669,0.12716038616474157,-0.08263374653487336,-0.15870032195475928,-0.2774277823008565,0.017069779341226412
233,8.075750100018922,-0.0003536796574423931,0.021484197558054512,0.011514612620602703,0.028167271322399805,0.13054556837053197,-0.05110584171868252,-0.035300874869666515,0.12598695791960413,-0.0825599202272626,-0.15824788426408115,-0.280938562691575,0.018058331046077254
234,8.079743399983272,-0.00023560479303099725,0.02203399165803533,0.011299086226270946,0.028017504411751944,0.1310726084162861,-0.051452680450091284,-0.03596500336815444,0.12479882410555693,-0.08248194868611228,-0.1577625728234564,-0.28442511267299786,0.01904218139001234
235,8.08390430000145,-0.00011816526319929945,0.022585990405817057,0.011082102762112099,0.027864950464063513,0.13159462395483812,-0.05179918277773315,-0.036627022845828285,0.1235960880143385,-0.0823998521587713,-0.15724422404852376,-0.28788674541269366,0.02002109757501046
236,8.087848299997859,-1.3727632002087489e-06,0.023140172554481326,0.01086366367846301,0.02770961863535692,0.13211155383311285,-0.0521453314079244,-0.03728679411834987,0.12237885580787917,-0.08231365187429907,-0.1566926884863346,-0.2913227815760525,0.020994845167906343
237,8.092341899988241,0.00011476105142549232,0.02369651660102196,0.010643770498158161,0.027551518667962262,0.1326233373502277,-0.05249110913827584,-0.03794417740280952,0.12114723648838609,-0.08222337005068343,-0.15610783003485218,-0.29473254762780016,0.021963187687953568
238,8.095899200008716,0.00023022456731866143,0.02425500078827059,0.010422424816137223,0.02739066089291335,0.1331299142693771,-0.05283649886186758,-0.03859903237079896,0.11990134187950911,-0.08212902990483464,-0.15548952455317305,-0.2981153738444138,0.022925886034414363
239,8.100186600000598,0.0003450062157809106,0.024815603106872062,0.01019962829903499,0.027227056232137135,0.13363122482966508,-0.05318148357147114,-0.0392512181958834,0.11864128661313343,-0.08203065566461497,-0.15483765933011157,-0.3014705947575999,0.023882698449535528
240,8.104492000013124,0.0004590944752625238,0.025378301297309513,0.009975382684753443,0.027060716200450682,0.13412720975787867,-0.053526046363825394,-0.039900593602207345,0.11736718810681764,-0.08192827257914387,-0.15415213402751443,-0.30479755193848407,0.02483338139637003
241,8.108792399987578,0.000572477873858358,0.02594307285197874,0.009749689782015736,0.02689165290734201,0.13461781028013076,-0.05387017044394529,-0.040547016919896164,0.11607916652718245,-0.08182190692344869,-0.1534328621140382,-0.30809559628763594,0.02577769070987428
242,8.113193899975158,0.0006851449918107303,0.02650989501731115,0.009522551469902047,0.02671987905850137,0.13510296813332576,-0.05421383912943688,-0.04119034614571421,0.11477734474809895,-0.08171158599909374,-0.15267977168247376,-0.3113640882947234,0.026715382287166037
243,8.11717059998773,0.0007970844640181907,0.02707874479594452,0.009293969697367288,0.026545407957092187,0.13558262557645104,-0.05455703585481133,-0.041830439005336756,0.11346184831189464,-0.08159733813302868,-0.15189280588502097,-0.31460239731732403,0.027646212556141414
244,8.121241600019857,0.000908284982549093,0.027649598948940847,0.009063946482740694,0.026368253504758892,0.13605672540171648,-0.05489974417579027,-0.04246715301766707,0.11213280539360397,-0.0814791926742784,-0.1510719236035601,-0.31780990119479763,0.02856993903128156
245,8.126020799973048,0.0010187352991588392,0.028222433998050744,0.008832483913207343,0.026188430202357206,0.13652521094554537,-0.055241947773592,-0.043100345562742615,0.11079034676542018,-0.08135717998811938,-0.15021710010410316,-0.32098598652717836,0.029486320991439306
246,8.129862300003879,0.0011284242278095892,0.0287972262280237,0.008599584144271713,0.026005953150391156,0.13698802609941516,-0.05558363045918785,-0.04372987395155341,0.10943460575860146,-0.08123133144707205,-0.1493283270655222,-0.32413004945881674,0.03039512018315599
247,8.133822500007227,0.0012373406471911789,0.029373951688963583,0.008365249399203424,0.025820838049156473,0.1374451153205281,-0.05592477617751268,-0.044355595494189735,0.10806571822133552,-0.08110167941916509,-0.148405611939035,-0.32724149629978805,0.031296101231130614
248,8.138027500011958,0.0013454735032420349,0.029952586198728606,0.008129481968465403,0.025633101198604756,0.13789642364229793,-0.05626536901162261,-0.04497736756427635,0.10668382247542221,-0.08096825725547743,-0.14744897712547964,-0.33031974380753837,0.032189031540115806
249,8.142060699989088,0.0014528118116689513,0.030533105345374983,0.007892284209124675,0.02544275949794524,0.13834189668465624,-0.05660539318680078,-0.04559504766020439,0.10528905927177058,-0.0808310992792272,-0.14645845942337934,-0.3333642195973571,0.033073680802066616
250,8.146435100003146,0.0015593446604646563,0.031115484489643522,0.007653658544246018,0.025249830444994244,0.13878148066416512,-0.05694483307462336,-0.04620849346492601,0.10388157174363108,-0.08069024077745661,-0.14543410991399547,-0.33637436242087965,0.03394982060489325
251,8.150330599979497,0.0016650612124221211,0.031699698767488294,0.00741360746226857,0.025054332135274308,0.1392151224039305,-0.05728367319699544,-0.046817562906220064,0.10246150535975153,-0.0805457179934097,-0.14437599425465658,-0.33934962239548094,0.03481722447036514
252,8.155054699978791,0.0017699507076445534,0.03228572309264655,0.0071721335163655595,0.02485628326085705,0.13964276934332084,-0.05762189823015292,-0.04742211421895246,0.10102900787568105,-0.08039756811789867,-0.14328419315311391,-0.3422894616457199,0.035675668182308586
253,8.15933860000223,0.0018740024660499793,0.032873532159249104,0.0069292393237872785,0.024655703108938946,0.14006436954747128,-0.057959493008625865,-0.04802200600932926,0.09958422928153406,-0.08024582927892271,-0.14215880264756153,-0.34519335462269474,0.036524930083854185
254,8.16326180001488,0.001977205889869265,0.033463100444470116,0.006684927565187491,0.02445261156014407,0.1404798717165632,-0.05829644252915312,-0.04861709731951086,0.09812732175060972,-0.08009054053053574,-0.1409999340994676,-0.34806078815038316,0.037364791074489964
255,8.16716399998404,0.0020795504661364327,0.03405440221121549,0.006439200983933501,0.02424702908655673,0.1408892251948964,-0.058632731954552084,-0.04920724769180485,0.0966584395867664,-0.07993174184249004,-0.1398077142719384,-0.3508912621165921,0.03819503471415329
256,8.171488799969666,0.0021810257691701426,0.03464741151084892,0.006192062385400033,0.02403897674948462,0.1412923799797264,-0.058968346617546276,-0.049792317233938926,0.095177739167233,-0.07976947408822889,-0.13858228576258716,-0.35368428982136957,0.0390154480312341
257,8.17566100001568,0.0022816214630452065,0.03524210218595458,0.005943514636247127,0.023828476196942755,0.1416892867298558,-0.059303272024534164,-0.0503721666868924,0.09368537888705471,-0.07960377902773824,-0.13732380755335802,-0.35643939781987916,0.03982582285121629
258,8.179577799979597,0.0023813273040529217,0.035838447873135386,0.005693560663682334,0.023615549660846436,0.14207989677400465,-0.0596374938592726,-0.050946657494790944,0.09218151910322507,-0.07943469928437082,-0.1360324554154569,-0.35915612664791424,0.04062595682435052
259,8.183685299998615,0.0024801331431489864,0.036436422005846014,0.005442203454707652,0.02340021995390766,0.14246416211893215,-0.05997099798645081,-0.05151565187614194,0.09066632207303313,-0.07926227831905915,-0.1347084223193889,-0.3618340317846518,0.04141565348753486
260,8.188070599979255,0.002578028928387746,0.03703599781725948,0.0051894460553516784,0.02318251046622928,0.14284203545728877,-0.060303770455157085,-0.05207901289717597,0.08913995189010261,-0.07908656040661954,-0.13335191893401235,-0.3644726841193037,0.04219472154124441
261,8.192059200024232,0.002675004707341479,0.03763714834316616,0.004935291569887401,0.022962445161584903,0.14321347017520036,-0.060635797502253584,-0.05263660454727723,0.08760257441881639,-0.07890759061604324,-0.13196317385102974,-0.3670716704374068,0.042962974035650796
262,8.196873300010338,0.0027710506295033723,0.03823984642490407,0.004679743160035986,0.022740048573378985,0.14357842035956897,-0.06096706555567733,-0.05318829181421204,0.08605435722626793,-0.07872541479364183,-0.13054243332258775,-0.3696305935555498,0.043720228020448774
263,8.20042090001516,0.0028661569486728472,0.03884406471231931,0.004422804044156822,0.022515345800294368,0.14393684080508495,-0.061297561237673354,-0.053733940757353556,0.08449546951555327,-0.07854007954628191,-0.12908996077651638,-0.37214907197885216,0.044466304486609286
264,8.20496840000851,0.0029603140253219484,0.03944977566675529,0.004164477496424126,0.022288362501636842,0.14428868702096706,-0.061627271367954754,-0.05427341857883543,0.08292608206060166,-0.07835163222502019,-0.12760603627205166,-0.3746267395262362,0.04520102798938978
265,8.209096100006718,0.003053512328941537,0.04005695156406977,0.003904766845990426,0.02205912489238457,0.14463391523742675,-0.06195618296679828,-0.05480659369220127,0.08134636714261749,-0.0781601209115071,-0.12609095576067517,-0.37706324481977355,0.04592422601711248
266,8.212880000006407,0.0031457424403660648,0.04066556449767849,0.003643675476137147,0.021827659737955578,0.14497248241187397,-0.0622842832580901,-0.05533333578734498,0.0797564984892035,-0.07796559440692792,-0.12454503029653793,-0.3794582506279251,0.046635728602474405
267,8.217281599994749,0.003236995054075782,0.04127558638162435,0.0033812068234124874,0.021593994348711305,0.14530434623486976,-0.06261155967232843,-0.05585351589252306,0.07815665121632341,-0.07776810222167369,-0.12296858574411124,-0.3818114330375169,0.047335368222084215
268,8.221581899968442,0.0033272609804753093,0.04188698895367108,0.0031173643767567695,0.021358156574202813,0.1456294651358442,-0.06293799984958245,-0.056367006436837466,0.07654700177438545,-0.07756769456512681,-0.12136196305791436,-0.38412248085706424,0.048022979718509586
269,8.22529959998792,0.0034165311481474804,0.04249974377842047,0.0028521516766154406,0.021120174797149102,0.14594779828859578,-0.06326359164240912,-0.056873681314599286,0.07492772789522063,-0.07736442233598732,-0.11972551827009441,-0.3863910953123574,0.04869839999652504
270,8.229616899974644,0.0035047966060812942,0.043113822250452294,0.0025855723140399047,0.02088007792714229,0.14625930561656356,-0.06358832311873074,-0.057373415947707194,0.07329900854072524,-0.07715833711461174,-0.11805962122662667,-0.38861698808637074,0.04936146720127553
271,8.233532799989916,0.003592048525872844,0.043729195597485844,0.0023176299297763357,0.02063789539410157,0.14656394779789494,-0.06391218256468734,-0.05786608733938768,0.07166102386631551,-0.07694949116024768,-0.1163646532142539,-0.390799876807934,0.050012019483015695
272,8.237264900002629,0.003678278203898244,0.04434583488356244,0.002048328213342532,0.020393657141526658,0.14686168627041066,-0.06423515848749108,-0.0583515741166256,0.07001395520749223,-0.07673793741375631,-0.11464100539575676,-0.3929394819548737,0.05064989466970625
273,8.241463700018357,0.0037634770634578465,0.04496371101224873,0.0017776709020927348,0.02014739361959507,0.14715248323655947,-0.06455723961830145,-0.05882975657075134,0.06835798506932758,-0.07652372949759907,-0.1128890802756409,-0.395035529719502,0.05127493244902984
274,8.246297499979846,0.0038476366568911454,0.045582794729860834,0.0015056617802703155,0.019899135778074402,0.14743630166829486,-0.0648784149150796,-0.05930051671219188,0.06669329708894246,-0.07630692170021819,-0.11110929538031303,-0.39708775860652806,0.05188697823553161
275,8.249966299976222,0.0039307486676614135,0.046203056628708626,0.0012323046780485993,0.019648915058959375,0.14771310531171433,-0.06519867356533222,-0.05976373834199344,0.06502007596953148,-0.07608756894351631,-0.10930208565991587,-0.3990959228916829,0.05248588595264733
276,8.25433799996972,0.004012804912408713,0.04682446715035888,0.0009576034705604875,0.01939676338878289,0.1479828586913815,-0.0655180049886925,-0.06021930712676229,0.06333850741376719,-0.07586572674385138,-0.10746790315674924,-0.40105979141856024,0.053071518931822215
277,8.258679300022777,0.0040937973429699,0.04744699658891591,0.0006815620769175862,0.01914271317062312,0.14824552711440558,-0.06583639883933613,-0.06066711066740015,0.061648778067938774,-0.07564145117195825,-0.10560721577821296,-0.40297914597437945,0.05364375035009673
278,8.262998100020923,0.004173718048364446,0.048070615094318966,0.00040418445921951976,0.018886797275836784,0.1485010766742939,-0.06615384500822542,-0.06110703856373042,0.0599510754690096,-0.07541479881026528,-0.10372050664411273,-0.40485378043721704,0.05420246365217041
279,8.267170900013298,0.0042525592567449555,0.0486952926756553,0.00012547462155419536,0.018629049035523,0.1487494742545864,-0.06647033362516647,-0.061538982477747,0.05824558799592424,-0.07518582670926807,-0.10180827346701082,-0.4066834996078072,0.05474755217920693
280,8.271224199968856,0.00433031333731123,0.04932099920448808,-0.0001545633910101761,0.01836950223172487,0.14899068753229877,-0.06678585506068649,-0.0619628361930318,0.05653250482648588,-0.07495459234796631,-0.09987102733331613,-0.40846811768232655,0.05527891775494131
281,8.27532329998212,0.004406972802186825,0.0499477044181984,-0.0004359254934405964,0.01810819108839389,0.1492246849811945,-0.06710039992775853,-0.06237849566775744,0.05481201590150106,-0.07472115360212267,-0.09790929096640819,-0.41020745593368,0.05579646841134987
282,8.279037499974947,0.004482530308257166,0.05057537792334075,-0.0007186075617617566,0.017845150262145983,0.14945143587492668,-0.06741395908341193,-0.0627858590795046,0.053084311901148165,-0.07448556872381758,-0.09592359651441736,-0.41190133899755593,0.056300115395103205
283,8.28250339999795,0.004556978658968396,0.05120398919901136,-0.0010026054340850912,0.01758041483284918,0.14967091029011126,-0.06772652363028515,-0.06318482685966888,0.051349584240341466,-0.07424789633487183,-0.09391448317407529,-0.41354959021653653,0.05678977017637498
284,8.28606579999905,0.004630310806086375,0.05183350760022955,-0.0012879149116443074,0.017314020294090446,0.14988307910942997,-0.06803808491818102,-0.06357530171830429,0.049608025084236874,-0.07400819543154522,-0.09188249557741784,-0.41515202845839766,0.05726534274997644
285,8.289924499986228,0.004702519851415392,0.05246390236133215,-0.0015745317598375133,0.017046002543554494,0.15008791402483396,-0.06834863454565897,-0.0639571886649688,0.04785982737034131,-0.07376652539223974,-0.08982818390417388,-0.41670846944614,0.057726742163083794
286,8.294272599974647,0.0047735990484762845,0.05309514259938178,-0.001862451709276131,0.016776397873315408,0.15028538754083248,-0.06865816436165507,-0.06433039503451253,0.046105184812838214,-0.0735229459777622,-0.08775210599593314,-0.4182187320341838,0.05817387915506403
287,8.300175199983642,0.0048435418041435484,0.05372719731758891,-0.002151670456840643,0.01650524295999868,0.15047547297773295,-0.06896666646707654,-0.06469483052569495,0.04434429187193942,-0.0732775173168371,-0.08565483039673188,-0.41968264606049255,0.058606669447001485
288,8.304680300003383,0.004912341680240757,0.05436003540874737,-0.002442183666742908,0.016232574854748213,0.15065814447467196,-0.06927413321629988,-0.0650504072525322,0.04257734369220591,-0.07303029987871755,-0.08353693823825228,-0.42110005688737046,0.059025035679388875
289,8.308752999990247,0.004979992395093331,0.05499362565868191,-0.0027339869715945013,0.01595843097295673,0.1508333769923369,-0.06958055721853523,-0.06539703979876113,0.04080453603372985,-0.07278135444241002,-0.08139902268798788,-0.42247082388288865,0.05942890729724641
290,8.313005700008944,0.005046487825037638,0.055627936749706564,-0.0030270759734804995,0.015682849083774965,0.15100114631541847,-0.06988593133906582,-0.065734645264548,0.03902606522322047,-0.07253074207025088,-0.07924168683592181,-0.4237948153187669,0.05981821941843955
291,8.316984299977776,0.005111822005885571,0.05626293726409284,-0.0033214462450382393,0.01540586729944943,0.15116142905492114,-0.07019024870039013,-0.066063143303188,0.03724212812807434,-0.0722785240866441,-0.07706554189241635,-0.42507190468786044,0.06019291199564356
292,8.32127750001382,0.0051759891343440235,0.05689859568754749,-0.003617093330540703,0.015127524064523112,0.1513142026503977,-0.07049350268328271,-0.06638245615266533,0.03545292213841638,-0.07202476205868227,-0.07487120634170132,-0.4263019692327162,0.060552929711667036
293,8.325691899983212,0.0052389835693886925,0.05753488041269951,-0.003914012746984195,0.014847858144907957,0.1514594453721087,-0.07079568692777338,-0.06669250866523713,0.03365864515353903,-0.07176951777576418,-0.07265930543503124,-0.4274848884859172,0.06089822233551426
294,8.329650099971332,0.0053007998335916915,0.05817175974259605,-0.004212199985179957,0.01456690861683687,0.15159713632314314,-0.07109679533403672,-0.06699322833473297,0.03185949557621309,-0.07151285322722283,-0.07043047061809014,-0.4286205433128279,0.061228745152122475
295,8.333820200001355,0.005361432614402488,0.05880920189420723,-0.004511650510849325,0.01428471485570673,0.15172725544152998,-0.07139682206318324,-0.06728454532132552,0.030055672307173584,-0.07125483057833062,-0.0681853390345033,-0.4297088160969942,0.06154445930330986
296,8.338045099982992,0.005420876765381732,0.059447175001939793,-0.004812359765721992,0.014001316524822166,0.15184978350231246,-0.07169576153794711,-0.06756639247465669,0.028247374737872078,-0.07099551214506142,-0.06592455328941389,-0.4307495907385705,0.061845332138548134
297,8.342247599968687,0.00547912730738757,0.060085647121159394,-0.005114323168636945,0.013716753564044178,0.15196470211959875,-0.07199360844326529,-0.06783870535662083,0.026434802744975793,-0.07073496036714709,-0.06364876178814761,-0.43174275291592856,0.062131337781384875
298,8.346490199968684,0.0055361794297140565,0.060724586231721465,-0.005417536116645599,0.013431066178342388,0.15207199374859004,-0.07229035772673865,-0.06810142226733769,0.02461815668092086,-0.07047323777807825,-0.0613586198753473,-0.43268819065600855,0.06240245795766573
299,8.350384999997914,0.005592028491181241,0.06136396024151054,-0.005721993986116609,0.013144294826225342,0.15217164168755173,-0.072586004598959,-0.0683544842775112,0.02279763736361705,-0.07021040697119883,-0.05905479101482964,-0.43358579420272464,0.06265868279960343
300,8.354791200021282,0.0056466700211763214,0.06200373698998773,-0.006027692133841753,0.012856480208020755,0.152263630079755,-0.07288054453368521,-0.06859783526432026,0.020973446068107218,-0.0699465305629478,-0.0567379469325503,-0.43443545555306995,0.06290001128944901
301,8.358670499990694,0.005700099720645215,0.06264388425174632,-0.006334625898142224,0.012567663254004107,0.15234794391537787,-0.07317397326786118,-0.06883142194497924,0.01914578452017153,-0.06968167115522428,-0.05440876665747504,-0.4352370679916452,0.06312645133352845
302,8.36330009996891,0.005752313463033921,0.06328436974007524,-0.006642790599974663,0.012277885112396787,0.15242456903339305,-0.07346628680147568,-0.0690551939045664,0.017314854891899642,-0.06941589129800685,-0.0520679354392805,-0.43599052641236075,0.06333801973632279
303,8.3680192999891,0.00580330729517921,0.06392516111053059,-0.006952181544036276,0.011987187137260762,0.15249349212343177,-0.07375748139726607,-0.0692691036204866,0.015480859792590701,-0.06914925345193661,-0.04971614444759358,-0.43669572804591017,0.06353474211307548
304,8.371800899971277,0.005853077438148222,0.0645662259645147,-0.007262794019868375,0.011695610876291085,0.15255470072759508,-0.07404755358026359,-0.06947310648777155,0.01364400225821041,-0.0688818199516711,-0.04735409104666055,-0.4373525728356813,0.06371665241782884
305,8.375658000004478,0.005901620288026541,0.06520753185286286,-0.00757462330295767,0.011403198058497899,0.15260818324222913,-0.07433650013718907,-0.06966716084585135,0.011804485739131128,-0.06861365297243464,-0.04498247902295113,-0.43796096406309654,0.06388379216469547
306,8.379467999970075,0.005948932416654254,0.06584904627943743,-0.007887664655834735,0.011109990581773895,0.15265392891963336,-0.07462431811571703,-0.06985122800576797,0.009962514084332338,-0.06834481449991826,-0.04260201835745535,-0.43852080860843523,0.06403620977149588
307,8.383837400004268,0.005995010572309513,0.06649073670472881,-0.00820191332916911,0.010816030500347563,0.152691927869703,-0.07491100482361836,-0.07002527227503277,0.008118291526948287,-0.06807536630234737,-0.040213424261935325,-0.43903201726664587,0.06417395989040815
308,8.388171700004023,0.006039851680339128,0.0671325705494634,-0.008517364562860563,0.010521360012141701,0.15272217106151578,-0.07519655782778964,-0.07018926097673871,0.00627202266581374,-0.06780536990600823,-0.03781741576090012,-0.43949450583305283,0.06429710235742638
309,8.392131500004325,0.006083452843735861,0.06777451519821791,-0.008834013587126033,0.010226021446066009,0.15274465032481926,-0.07548097495319007,-0.07034316446249797,0.004423912441885197,-0.0675348865761465,-0.035414714481023256,-0.43990819531193476,0.06440570094462691
310,8.39652379998006,0.006125811343662208,0.0684165380030398,-0.009151855623581952,0.00993005724926684,0.15275935835141938,-0.07576425428171027,-0.07048695612137806,0.0025741661180333514,-0.06726397730298206,-0.03300604404966764,-0.4402730114962244,0.06449982244394595
311,8.401275800017174,0.006166924639920512,0.06905860628707333,-0.009470885886321683,0.009633509974344683,0.15276628869649791,-0.07604639415099158,-0.07062061238778349,0.0007229892589973292,-0.06699270279030933,-0.030592129975083218,-0.44058888564902227,0.06457953650495775
312,8.404796399991028,0.0062067903713692914,0.06970068734819097,-0.009791099582987914,0.009336422266537659,0.1527654357798325,-0.0763273931531991,-0.07074411274938472,-0.0011294122945516355,-0.06672112344287576,-0.028173699548326037,-0.4408557552004281,0.06464491616810797
313,8.408661599969491,0.006245406356285623,0.07034274846262978,-0.010112491915839787,0.009038836850872348,0.15275679488689614,-0.07660725013373487,-0.07085743975417547,-0.002982832451913504,-0.0664492993504997,-0.025751481574880865,-0.4410735634207288,0.06469603854464656
314,8.412943799979985,0.006282770592673457,0.07098475688863204,-0.010435058082814471,0.008740796519287972,0.15274036216985937,-0.07688596418987739,-0.07096057901614566,-0.004837064895548588,-0.0661772902697335,-0.02332620601833474,-0.4412422590020638,0.06473298510632869
315,8.418462499976158,0.006318881258517771,0.07162667987009005,-0.010758793278582854,0.008442344117739529,0.1527161346484949,-0.0771635346693407,-0.07105351921934344,-0.006691903103464343,-0.06590515560554612,-0.020898603579490346,-0.4413617958219582,0.06475584150157397
316,8.422641900018789,0.006353736711984468,0.0722684846401944,-0.011083692695599006,0.008143522533287829,0.15268411021099165,-0.07743996116875987,-0.07113625212001018,-0.008547140370416787,-0.06563295439453157,-0.01846940529657023,-0.44143213282941046,0.06476469741268621
317,8.427180400001816,0.0063873354915660145,0.07291013842508556,-0.011409751525143142,0.007844374681184684,0.1526442876146811,-0.07771524353210897,-0.07120877254728179,-0.010402569829339754,-0.06536074528779176,-0.01603934225759435,-0.44145323388069957,0.06475964694002144
318,8.431879699986894,0.0064196763161727755,0.07355160844750827,-0.011736964958357781,0.007544943491957052,0.1525966664866712,-0.07798938184904268,-0.07127107840290604,-0.012257984471166106,-0.06508858653091562,-0.013609145610290677,-0.44142506780694873,0.06474078945769668
319,8.435675800021272,0.006450758085170079,0.07419286193046848,-0.012065328187276772,0.007245271898494595,0.1525412473244061,-0.07826237645314593,-0.07132317066202713,-0.01411317716682493,-0.06481653593966889,-0.011179547217914405,-0.4413476089063057,0.0647082306818231
320,8.439728299970739,0.006480579878361017,0.07483386610089243,-0.012394836405846743,0.006945402823127235,0.15247803149611522,-0.07853422792007118,-0.07136505337841581,-0.015967940691200007,-0.06454465087099369,-0.008751280574915732,-0.44122083689916364,0.06466208379627461
321,8.443890599999577,0.006509140955914876,0.07547458819328738,-0.01272548481094046,0.006645379164668746,0.1524070212411715,-0.0788049370655443,-0.07139673369295105,-0.017822067744750588,-0.06427298818923513,-0.0063250809981785705,-0.4410447364823311,0.06460247070160847
322,8.448011600004975,0.006536440758241031,0.07611499545340368,-0.013057268603361519,0.006345243785423013,0.15232821967035876,-0.0790745049432179,-0.0714182218404577,-0.019675350973722236,-0.0640016042266425,-0.003901684911478474,-0.4408192969067678,0.06452952356211007
323,8.452381499984767,0.006562478905808152,0.07675505514189775,-0.013390182988839665,0.006045039498170144,0.15224163076606007,-0.07934293284234523,-0.07142953115217332,-0.021527582988218056,-0.06373055473659146,-0.00148182898095117,-0.44054451226197466,0.06444338662153044
324,8.456514600024093,0.0065872551989087,0.07739473453799574,-0.013724223179015923,0.005744809053151997,0.15214725938237317,-0.0796102222852403,-0.07143067805531865,-0.023378556384800114,-0.06345989483882218,0.0009337500688110056,-0.4402203825483447,0.06434421788211732
325,8.460767399985343,0.006610769617368737,0.07803400094315749,-0.014059384392416566,0.005444595125061902,0.15204511124510892,-0.07987637502449142,-0.07142168207401851,-0.025228063773574817,-0.06318967895854764,0.003344314664813962,-0.43984691358367556,0.06423219035214901
326,8.46574369998416,0.006633022320203057,0.07867282168474017,-0.01439566185541483,0.005144440300022443,0.15193519295167895,-0.0801413930399095,-0.07140256583551254,-0.027075897800008485,-0.06291996076120504,0.005749125026126311,-0.4394241167930199,0.06410749333316032
327,8.470546600001398,0.006654013645215533,0.07931116411966128,-0.014733050803179227,0.004844387062522979,0.1518175119709108,-0.08040527853519307,-0.07137335508250431,-0.02892185117024621,-0.06265079308074371,0.008147438078834663,-0.4389520112170853,0.06397033422074141
328,8.474770399974659,0.006673744108544442,0.07994899563806077,-0.015071546480607224,0.004544477782293615,0.15169207664272275,-0.0806680339342738,-0.07133407868849294,-0.030765716689809996,-0.06238222783923906,0.010538507391892906,-0.43843062582898357,0.06382094008241895
329,8.4791212999844,0.006692214404152476,0.08058628366696124,-0.015411144143242838,0.004244754701113847,0.15155889617761353,-0.08092966187730581,-0.07128476867066147,-0.03260728730839214,-0.06211431596191685,0.012921584365745468,-0.4378599998822529,0.0636595578161557
330,8.483506700024009,0.006709425403261185,0.08122299567392587,-0.0157518390581766,0.0039452599195781935,0.1514179806559608,-0.08119016521629686,-0.07122546019521689,-0.03444635616147883,-0.06184710729543479,0.015295920495718159,-0.4372401814130998,0.06348645295073618
331,8.488270699977875,0.006725378153729733,0.08185909917071264,-0.016093626504926427,0.0036460353838599535,0.1512693410271609,-0.08144954701041075,-0.07115619157125255,-0.03628271660255344,-0.06158065053299079,0.0176607700779725,-0.4365712254437263,0.0633019080152402
332,8.49392340000486,0.006740073879378083,0.08249456171692506,-0.0164365017762981,0.0033471228725284285,0.15111298910865653,-0.08170781052096895,-0.07107700423334201,-0.03811616222961732,-0.06131499314631065,0.020015392040669638,-0.4358531929095835,0.06310622076416304
333,8.498073700000532,0.0067535139792549385,0.08312935092365822,-0.016780460179224122,0.0030485639834589994,0.15094893758485378,-0.08196495920618133,-0.07098794272000872,-0.03994648690837562,-0.061050181325675926,0.02235904998633025,-0.4350861501671845,0.06289970189248466
334,8.502230399986729,0.0067657000268508925,0.0837634344571404,-0.01712549703557989,0.0027504001208313276,0.15077720000595474,-0.08222099671564362,-0.07088905465596378,-0.04177348479462077,-0.06078625993111872,0.024691011229524277,-0.43427016915477024,0.06268267239328745
335,8.506354900018778,0.006776633769257078,0.08439678004236936,-0.017471607682976308,0.002452672482188744,0.15059779078668636,-0.08247592688465792,-0.07078039073866481,-0.04359695035876885,-0.060523272454661305,0.027010546354385035,-0.4334053277454335,0.062455461538950215
336,8.510731099988334,0.0067863171262695365,0.08502935546674316,-0.017818787475528224,0.0021554220455494346,0.15041072520492696,-0.08272975372841276,-0.07066200472427323,-0.04541667841121143,-0.060261260988480954,0.02931692985127745,-0.4324917101689892,0.06221840570764837
337,8.515531999990344,0.0067947521894395286,0.08566112858368499,-0.01816703178459811,0.001858689556583872,0.15021601940022186,-0.08298248143603595,-0.07053395340886127,-0.04723246413039816,-0.06000026619701398,0.03160944101780877,-0.4315294073128623,0.06197184751132968
338,8.520025899983011,0.006801941221070114,0.08629206731626152,-0.018516335999514508,0.0015625155158839749,0.15001369037217385,-0.08323411436454019,-0.07039629660679544,-0.04904410309071788,-0.05974032729245076,0.033887364017268676,-0.43051851705086,0.06171613510988749
339,8.523792100022547,0.006807886653159448,0.08692213966079414,-0.018866695528264824,0.001266940166322248,0.1498037559787245,-0.0834846570326699,-0.07024909713145226,-0.050851391293344865,-0.05948148201260484,0.03614998750182453,-0.4294591458560255,0.06145162212395464
340,8.5297230000142,0.006812591086291103,0.08755131369046289,-0.019218105798162046,0.000972003480483043,0.14958623493428527,-0.08373411411466083,-0.07009242077676911,-0.0526541252076775,-0.05922376659714101,0.038396605123648515,-0.4283514116013129,0.061178668700183014
341,8.534314399992581,0.006816057288471711,0.08817955755890201,-0.01957056225648508,0.0006777451481767838,0.14936114680767054,-0.08398249043388709,-0.0699263362936635,-0.05445210182572697,-0.05896721575648965,0.04062651701273014,-0.42719544652878516,0.060897642829099395
342,8.53786579996813,0.006818288193916331,0.08880683950378648,-0.019924060371092067,0.0003842045640694444,0.1491285120197715,-0.08422979095635935,-0.06975091535916145,-0.05624511872851491,-0.058711862636997014,0.04283903120499524,-0.4259913979527289,0.0606089203462801
343,8.542066299996804,0.006819286901782106,0.08943312785040801,-0.020278595631006067,9.142081545628086e-05,0.14888835184093108,-0.08447602078407902,-0.069566232540812,-0.058032974146372464,-0.05845773878982967,0.04503346437977425,-0.42473942510269985,0.06031288344205989
344,8.54616749996785,0.006819056674850856,0.09005839101523949,-0.02063416354697251,-0.0002005673298095594,0.1486406883881109,-0.08472118514827506,-0.06937236525961647,-0.05981546699880067,-0.0582048741486521,0.047209142170853154,-0.42343969543079274,0.06000991865175991
345,8.550405099987984,0.006817600938161262,0.09068259750948723,-0.020990759651988024,-0.0004917214352316908,0.14838554462193118,-0.08496528940257045,-0.06916939375182832,-0.061592396923728504,-0.057953297015425294,0.049365399579699744,-0.4220923835161049,0.05970041573109048
346,8.554980300017633,0.006814923277591307,0.0913057159426305,-0.021348379501800453,-0.0007820034074207712,0.1481229443435918,-0.08520833901609967,-0.06895740102840876,-0.06336356430816424,-0.057703034047537634,0.05150158163844955,-0.4206976711821933,0.05938476768816868
347,8.558691399986856,0.0068110274383916865,0.09192771502594783,-0.021707018675379823,-0.001071375507668339,0.14785291219165445,-0.085450339566567,-0.06873647283125364,-0.06512877031844082,-0.05745411024333436,0.05361704407726013,-0.4192557470033174,0.059063371076151415
348,8.562607200001366,0.006805917323670959,0.0925485635760296,-0.02206667277536001,-0.00135980036332914,0.1475754736387095,-0.08569129673324236,-0.06850669758703928,-0.0668878169267167,-0.057206548926788614,0.05571115353456705,-0.4177668064937711,0.05873662613464864
349,8.567199599987362,0.006799596992833278,0.09316823051827626,-0.022427337428450836,-0.0016472409790069934,0.14729065498793537,-0.0859312162898907,-0.06826816636168193,-0.06864050694281278,-0.05696037173184215,0.05778328718621091,-0.4162310530647482,0.05840493661374679
350,8.571669699973427,0.0067920706599695155,0.09378668489038199,-0.022789008285820287,-0.0019336607475543062,0.14699848336949783,-0.08617010409763629,-0.06802097281730116,-0.07038664404875657,-0.05671559858855566,0.05983283231608307,-0.4146486976260449,0.05806870926041673
351,8.575763800006825,0.006783342692202531,0.0944038958458027,-0.023151681023446637,-0.002219023460896175,0.14669898673681897,-0.08640796609777564,-0.06776521317028847,-0.07212603282727106,-0.056472247711766725,0.06185918641104996,-0.41301995849728346,0.05772835339075514
352,8.579511999967508,0.006773417607987307,0.09501983265720827,-0.023515351342440257,-0.0025032933206774253,0.14639219386273694,-0.08664480830454645,-0.06750098614747277,-0.07385847879557272,-0.056230335590835845,0.06386175781223379,-0.41134506229092604,0.05738428056375965
353,8.583873499999754,0.00676230007536672,0.09563446471991835,-0.02388001496933494,-0.0027864349487182424,0.1460781343354909,-0.08688063679785436,-0.06722839293871428,-0.07558378844128284,-0.055989876981046655,0.06583996661894052,-0.40962424290671146,0.05703690393458412
354,8.587825499998871,0.00674999491018379,0.09624776155532076,-0.02424566765634858,-0.0030684133972627156,0.14575683855457894,-0.0871154577159696,-0.06694753714547168,-0.07730176924777284,-0.05575088489878846,0.06779324552250526,-0.4078577403693495,0.05668663727095512
355,8.59213980002096,0.006736507074251296,0.09685969281427251,-0.02461230518161311,-0.003349194159002127,0.14542833772652983,-0.08734927724821322,-0.06665852472638667,-0.0790122297203053,-0.05551337062122443,0.06972104024722786,-0.40604580161804854,0.05633389417601333
356,8.596198200015351,0.006721841673479773,0.09747022828048267,-0.02497992334937369,-0.0036287431768660793,0.1450926638605413,-0.08758210162765097,-0.06636146394214466,-0.08071497941801606,-0.055277343688006915,0.0716228096978881,-0.40418868116132084,0.05597908768707239
357,8.60054349998245,0.006706003955964826,0.09807933787387671,-0.025348517990157235,-0.0039070268535822865,0.14474984976398295,-0.08781393712379398,-0.06605646529981936,-0.08240982898555946,-0.055042811904318444,0.07349802612188154,-0.4022866409870343,0.05562262979030334
358,8.604945499973837,0.006688999310034763,0.09868699165394158,-0.02571808496091025,-0.004184012060999864,0.1443999290377685,-0.08804479003531816,-0.06574364149637046,-0.08409659018433434,-0.05480978134666661,0.07534617536763512,-0.40033995046263277,0.055264930871794245
359,8.608682799967937,0.0066708332622595415,0.09929315982305113,-0.02608862014510615,-0.00445966614917416,0.1440429360715962,-0.0882746666828136,-0.06542310736081608,-0.0857750759232906,-0.05457825637053944,0.0771667573402444,-0.39834888617644887,0.05490639933103954
360,8.612928199989256,0.006651511475422033,0.0998978127297712,-0.026460119452822152,-0.004733956955203952,0.14367890603906217,-0.08850357340156831,-0.06509497979390033,-0.08744510028882123,-0.054348239619449276,0.0789592865038113,-0.39631373182182766,0.05454744153968788
361,8.61708950001048,0.006631039746452684,0.10050092087214395,-0.026832578820785935,-0.005006852811809122,0.14330787489264946,-0.08873151653439368,-0.06475937770604312,-0.0891064785745948,-0.05411973203293492,0.08072329196023682,-0.39423477826272696,0.054188462171106004
362,8.621249300020281,0.006609424004328678,0.10110245490095082,-0.02720599421239222,-0.005278322555646263,0.14292987935859064,-0.08895850242447546,-0.06441642195634542,-0.09075902731199897,-0.0538927328528352,0.08245831685207161,-0.39211232397993245,0.05382986435082508
363,8.625537700019777,0.006586670307938694,0.10170238562295371,-0.02758036161768933,-0.005548335535373635,0.14254495693160107,-0.08918453740825197,-0.06406623529555866,-0.09240256430372384,-0.053667239630026446,0.08416391746147873,-0.3899466753511291,0.05347204946838185
364,8.629785700002685,0.006562784843914275,0.10230068400411364,-0.027955677053335924,-0.005816861619487371,0.14215314586945904,-0.08940962780832168,-0.06370894231266411,-0.0940369086565597,-0.05344324823227776,0.08583966281879168,-0.38773814649025407,0.05311541671794274
365,8.63376050000079,0.006537773924428718,0.10289732117278637,-0.02833193656252792,-0.006083871203937381,0.1417544851874634,-0.08963377992638748,-0.0633446693811327,-0.09566188081363002,-0.05322075285484997,0.0874851351757755,-0.3854870600374124,0.052760362466281366
366,8.638145499979146,0.006511643984964421,0.10349226842289448,-0.028709136214895913,-0.006349335219511822,0.14134901465274272,-0.08985700003625337,-0.06297354460152622,-0.09727730259382919,-0.052999746033663656,0.0890999308438026,-0.38319374818723145,0.05240727954652058
367,8.642550199991092,0.0064844015820497,0.10408549721707515,-0.029087272106373258,-0.006613225138970508,0.14093677477838149,-0.09007929437687938,-0.06259569774071144,-0.09888299723269987,-0.0527802186618349,0.09068366069465168,-0.38085855278668107,0.05205655639907303
368,8.64667470002314,0.006456053390966172,0.10467697918980287,-0.029466340359035084,-0.006875512983918413,0.1405178068173856,-0.09030066914551729,-0.06221126017025158,-0.10047878942269296,-0.05256216001006454,0.09223595018830869,-0.3784818254242327,0.051708576539587416
369,8.650812399981078,0.006426606203427796,0.10526668615048648,-0.029846337120908673,-0.007136171331421206,0.1400921527564701,-0.09052113049093694,-0.06182036480538677,-0.10206450535479442,-0.05234555774764636,0.09375643926784805,-0.3760639276419645,0.05136371854952743
370,8.6547243000241,0.006396066925232642,0.10585459008653969,-0.03022725856575555,-0.00739517332036582,0.13965985530967484,-0.0907406845067385,-0.06142314604430913,-0.10363997276056819,-0.05213039796293551,0.0952447824090121,-0.3736052314961078,0.05102235578745884
371,8.658860999974422,0.006364442573888468,0.1064406631664244,-0.03060910089282564,-0.007652492657565541,0.13922095791179873,-0.0909593372247509,-0.061019739706726486,-0.10520502095849499,-0.05191666518678364,0.09670064894299617,-0.37110611993058784,0.05068485557732096
372,8.66302119998727,0.00633174027621317,0.1070248777426661,-0.03099186032658386,-0.007908103623604142,0.1387755047116259,-0.09117709460854108,-0.06061028297042411,-0.10675948089915518,-0.051704342419830664,0.0981237236785563,-0.36856698619254036,0.050351578387077274
373,8.6673226999701,0.006297967265911233,0.10760720635484018,-0.03137553311640972,-0.008161981078407708,0.13832354056498017,-0.09139396254704178,-0.060194914304599,-0.10830318520665441,-0.05149341116284416,0.09951370760574048,-0.3659882341371303,0.05002287710262385
374,8.671333400008734,0.006263130881127343,0.10818762173252898,-0.031760115536270346,-0.008414100466528386,0.137865111027603,-0.0916099468483159,-0.05977377340050611,-0.10983596822636878,-0.05128385145011462,0.10087031822890707,-0.3633702786490127,0.04969909648375633
375,8.675469600013457,0.006227238561978424,0.10876609679824825,-0.03214560388436767,-0.008664437822133223,0.13740026234780653,-0.09182505323346496,-0.05934700110199326,-0.11135766606991325,-0.05107564188436797,0.10219328941635772,-0.3607135439320875,0.0493805727395473
376,8.679478799982462,0.006190297848065315,0.1093426046703424,-0.03253199448276025,-0.008912969773703991,0.1369290414589736,-0.09203928733068693,-0.05891473933741135,-0.1128681166485106,-0.05086875967373023,0.10348237101768572,-0.35801846162168827,0.04906763323590551
377,8.683592899993528,0.006152316375965297,0.10991711866584795,-0.032919283676960495,-0.009159673548453666,0.13645149597193035,-0.09225265466949546,-0.05847713105336585,-0.11436715970209088,-0.05066318066909823,0.1047373283016149,-0.3552854692428254,0.048760596617545976
378,8.687263600004371,0.006113301876706649,0.11048961230332464,-0.033307467835507906,-0.00940452697646937,0.13596767416720143,-0.0924651606750918,-0.0580343201513525,-0.11585463681970043,-0.05045887940007901,0.10595794155002439,-0.35251500831334626,0.048459772861603516
379,8.691493600024842,0.0060732621732263485,0.1110600593056538,-0.03369654334951899,-0.009647508494596212,0.13547762498721122,-0.09267681066288616,-0.05758645142492143,-0.11733039145265654,-0.050255829111909886,0.10714400671638605,-0.3497075240897903,0.04816546318276875
380,8.696146700007375,0.006032205177811979,0.11162843360280386,-0.03408650663221445,-0.00988859715005203,0.13498139802842846,-0.09288760983317997,-0.05713367049077805,-0.11879426893282014,-0.05005400180219525,0.10829533736230497,-0.34686346692256126,0.047877960910029896
381,8.700730099983048,0.005990138889529046,0.11219470933456276,-0.03447735411842438,-0.010127772603732073,0.13447904353341375,-0.09309756326599603,-0.05667612370966865,-0.12024611649714198,-0.04985336825045677,0.10941176657782843,-0.3439832934476939,0.0475975528544053
382,8.704576699994504,0.005947071391635104,0.11275886085323655,-0.034869082264072024,-0.010365015133158706,0.13397061238275795,-0.09330667591600922,-0.056213958101339265,-0.12168578331595331,-0.04965389804337307,0.11049314734484424,-0.34106746710023295,0.04732451958822609
383,8.70898210001178,0.005903010848982278,0.11332086272631406,-0.03526168754563634,-0.010600305635071238,0.13345615608689185,-0.09351495260758878,-0.055747321262366506,-0.12311312052182752,-0.0494555596019823,0.11153935138795791,-0.3381164572021578,0.047059135247364735
384,8.712863399996422,0.005857965505409624,0.11388068973909665,-0.03565516645959409,-0.010833625627684917,0.1329357267777819,-0.09372239802995769,-0.05527636129077594,-0.12452798123020387,-0.049258320208584255,0.11255026761189604,-0.3351307367670057,0.046801667144910075
385,8.716565800015815,0.005811943681126655,0.11443831689729306,-0.03604951552184171,-0.011064957252647103,0.13240937720056659,-0.09392901673246105,-0.05480122671700809,-0.1259302205497949,-0.04906214603719039,0.11352580088664872,-0.3321107803037088,0.04655237490660945
386,8.721149899996817,0.005764953770089263,0.11499371942957888,-0.036444731267097644,-0.011294283276715963,0.13187716070516467,-0.0941348131199815,-0.05432206643874885,-0.12731969558474934,-0.0488670021876934,0.11446587179938887,-0.3290570618089907,0.04631151053018299
387,8.725385300000198,0.0057170042373691325,0.11554687279012084,-0.03684081024828566,-0.011521587093168828,0.13133913123789334,-0.09433979144849476,-0.053839029653980845,-0.12869626542818352,-0.048672852715818636,0.11537041732731342,-0.3259700541569433,0.0460793193895224
388,8.729678399977274,0.005668103616517822,0.11609775266106584,-0.0372377490358998,-0.011746852722918127,0.13079534333313086,-0.09454395582073685,-0.05335226579015796,-0.13005979115921312,-0.048479660658852404,0.11623939100566895,-0.3228502305465081,0.04585604085394346
389,8.733113800000865,0.0056182605069268,0.11664633495499513,-0.03763554421735133,-0.011970064815324378,0.13024585210495968,-0.09474731018197594,-0.05286192443584431,-0.1314101358486522,-0.04828738806038797,0.11707276164586501,-0.31969806457649164,0.04564190839286814
390,8.737743099976797,0.0055674835711846905,0.11719259581734312,-0.03803419239629812,-0.012191208648737488,0.12969071323878112,-0.09494985831588747,-0.052368155280664234,-0.13274716455667532,-0.048095995995173925,0.11787051182234878,-0.3165140282572187,0.04543714951828272
391,8.74119560001418,0.00551578153243276,0.11773651162878106,-0.03843369019195691,-0.012410270130804962,0.1291299829829782,-0.09515160384053499,-0.051871108059660574,-0.13407074432180274,-0.04790544459434384,0.11863263790923456,-0.31329859224226536,0.0452419856201485
392,8.746096900023986,0.005463163171719572,0.11827805900756576,-0.0388340342383989,-0.012627235798545479,0.12856371814062292,-0.09535255020445733,-0.051370932492936776,-0.13538074416051046,-0.047715693071648205,0.11935915176402602,-0.3100522289382886,0.045056631803387745
393,8.750793799990788,0.0054096373253558535,0.11881721481185357,-0.03923522118382917,-0.012842092818149738,0.1279919760611423,-0.09555270068286992,-0.05086777821586182,-0.13667703508235646,-0.04752669975005436,0.12005008257624299,-0.30677541514387124,0.04488129685352086
394,8.75467110000318,0.0053552128822708265,0.11935395614197908,-0.03963724768985029,-0.013054828984467337,0.12741481463189852,-0.09575205837397555,-0.05036179470317282,-0.1379594901117729,-0.04733842208826727,0.12070547740929578,-0.3034686331721441,0.04471618302454741
395,8.758787899976596,0.005299898781371388,0.11988826034269824,-0.04004011043071074,-0.013265432720169624,0.12683229226967185,-0.09595062619538865,-0.04985313119462499,-0.13922798431262903,-0.04715081670911256,0.12132540022635502,-0.30013237092150563,0.04456148565596272
396,8.76407560001826,0.005243704008905474,0.12042010500539553,-0.040443806092538497,-0.013473893074611595,0.12624446791203428,-0.09614840688068466,-0.04934193662728275,-0.14048239481061797,-0.046963839429276615,0.1219099303469084,-0.29676712091402646,0.04441739297203942
397,8.76748919999227,0.005186637595830811,0.12094946797025458,-0.040848331372560394,-0.013680199722425589,0.1256514010086442,-0.09634540297607425,-0.048828359574143804,-0.14172260080973637,-0.04677744528937685,0.12245916129320351,-0.2933733790840532,0.04428408605845505
398,8.771605100017041,0.005128708615190101,0.12147632732839209,-0.04125368297830778,-0.013884342961867252,0.12505315151248156,-0.09654161683720548,-0.048312548186127055,-0.14294848360448817,-0.04659158858389827,0.12297320012711489,-0.2899516441479573,0.0441617389227818
399,8.776687400008086,0.005069926179493675,0.12200066142395484,-0.041659857626809016,-0.014086313712921593,0.12444977987104,-0.0967370506260897,-0.047794650136270954,-0.14415992659106655,-0.04640622289075529,0.12345216693039984,-0.2865024172728039,0.04405051894817328
400,8.780658899981063,0.0050102994381105975,0.12252244885617956,-0.042066852043769254,-0.01428610351517988,0.12384134701746798,-0.09693170630815215,-0.047274812566090355,-0.14535681527677244,-0.0462213010974146,0.12389619441049592,-0.2830262020798881,0.04395058798044891
401,8.784212299971841,0.004949837574669169,0.12304166848141546,-0.04247466296273816,-0.014483704525494766,0.12322791436168168,-0.09712558564937747,-0.04675318203308853,-0.14653903729122617,-0.046036775421318954,0.1243054276739406,-0.2795235054161979,0.043862103192452075
402,8.787891099986155,0.004888549804467743,0.12355829941510936,-0.04288328712426572,-0.01467910951541598,0.12260954378141198,-0.09731869021353201,-0.04622990445901865,-0.1477064824022709,-0.04585259742874433,0.12468002398851309,-0.2759948377717695,0.04378521721269248
403,8.792279399989638,0.004826445371896779,0.12407232103375303,-0.043292721275046575,-0.014872311868410539,0.12198629761318364,-0.09751102135946782,-0.04570512507939524,-0.14885904253069263,-0.045668718054142306,0.12502015260222502,-0.2724407127439028,0.04372007810178386
404,8.796262699994259,0.00476353354787303,0.12458371297679247,-0.043702962167053175,-0.015063305576874029,0.12135823864323851,-0.09770258023850756,-0.0451789883932772,-0.14999661176161969,-0.045485087619195286,0.12532599490379784,-0.26886164587113043,0.04366682923557784
405,8.800634099985473,0.004699823627286719,0.1250924551484989,-0.044114006556658154,-0.015252085238928698,0.12072543009841895,-0.09789336779190866,-0.044651638111430296,-0.15111908634944118,-0.045301655853141276,0.12559774484471167,-0.26525815420937693,0.043625608803951464
406,8.804650100006256,0.004635324926462637,0.12559852771980148,-0.04452585120374615,-0.015438646054998995,0.12008793563704964,-0.0980833847484191,-0.04412321710256247,-0.1522263647256438,-0.04511837191604225,0.12583560941096014,-0.2616307567064988,0.04359654866480802
407,8.808728999982122,0.0045700467806361125,0.12610191113008162,-0.04493849287081563,-0.015622983824157714,0.11944581933975515,-0.09827263162193715,-0.043593867337520756,-0.15331834750687845,-0.04493518442874221,0.12603980916039922,-0.25797997329314926,0.043579772929196896
408,8.813130899972748,0.004503998541444819,0.1266025860889285,-0.04535192832207105,-0.015805094940232453,0.11879914570027394,-0.09846110870931898,-0.04306372983100964,-0.154394937495155,-0.04475204150802896,0.12621057883744247,-0.2543063242491792,0.043575397531790905
409,8.817183099978138,0.004437189574437473,0.12710053357785614,-0.04576615432250624,-0.01598497638766185,0.1181479796162743,-0.09864881608833397,-0.042532944580620874,-0.15545603968058294,-0.04456889080020272,0.1263481679908564,-0.2506103299249515,0.04358353019513592
410,8.821677699976135,0.004369629256600476,0.1275957348519818,-0.04618116763697938,-0.016162625737089518,0.11749238638014528,-0.09883575361575446,-0.04200165050335868,-0.15650156123922337,-0.04438567951653847,0.12645284136214835,-0.246892510040766,0.04360427054533084
411,8.825727800023742,0.00430132697390365,0.12808817144166562,-0.04659696502928034,-0.016338041140686727,0.11683243166983072,-0.09902192092560923,-0.041469985371404776,-0.15753141152994074,-0.044202354465882096,0.1265248787892123,-0.24315338454986418,0.043637711187330896
412,8.829812599986326,0.004232292118866196,0.12857782515411187,-0.04701354326119095,-0.016511221327206376,0.11616818153964666,-0.09920731742754721,-0.040938085749453505,-0.15854550209950924,-0.044018862081073785,0.12656457463105933,-0.23939347359166777,0.04368393900177872
413,8.833860500017181,0.004162534088144004,0.1290646780749315,-0.0474308990915386,-0.016682165596778906,0.11549970241107237,-0.09939194230531305,-0.04040608693531259,-0.1595437466790714,-0.043835148440643075,0.12657223680241356,-0.23561329604471004,0.043743036313789035
414,8.837924499996006,0.004092062280139361,0.12954871256966596,-0.04784902927524371,-0.016850873815466978,0.11482706106359761,-0.09957579451529325,-0.039874122905353436,-0.16052606117708051,-0.04365115928540743,0.12654818543749527,-0.2318133699471214,0.043815081137077806
415,8.84211480000522,0.00402088609263403,0.13002991128527283,-0.04826793056236108,-0.017017346409602833,0.11415032462557295,-0.09975887278513121,-0.03934232626634405,-0.16149236367929382,-0.04346684003811517,0.1264927513701713,-0.22799421314886759,0.0439001466729413
416,8.846646899997722,0.003949014920446561,0.1305082571515727,-0.04868759969711573,-0.017181584359938086,0.1134695605650571,-0.09994117561243851,-0.03881082821367517,-0.1624425744471976,-0.04328213582425562,0.12640627484502046,-0.22415634340703558,0.043998300935325994
417,8.850336499977857,0.0038764581531145446,0.13098373338265779,-0.04910803341693343,-0.017343589195629932,0.11278483668068043,-0.10012270126358488,-0.038279758494027975,-0.16337661591880132,-0.04309699149485369,0.12628910463612925,-0.2203002795536054,0.04410960589824991
418,8.854516699968372,0.003803225172602476,0.1314563234782622,-0.04952922845146634,-0.01750336298807712,0.11209622109248567,-0.1003034477726011,-0.03774924537100754,-0.16429441271687906,-0.04291135165444675,0.12614159723463353,-0.21642654284984789,0.04423411687714288
419,8.858555399987381,0.0037293253510358245,0.13192601122509343,-0.049951181521614346,-0.017660908344617293,0.11140378223272215,-0.1004834129402041,-0.03721941559464005,-0.16519589166114862,-0.04272516068907968,0.12596411573605196,-0.21253565745473385,0.04437188261034704
420,8.86335409997264,0.0036547680484618735,0.1323927806981252,-0.050373889338542505,-0.017816228402106532,0.1107075888365841,-0.10066259433293524,-0.03669039437635936,-0.1660809817804504,-0.042538362793596664,0.12575702870636588,-0.20862815023757159,0.04452294532962776
421,8.867047899984755,0.003579562610637764,0.13285661626185127,-0.05079734860269511,-0.01796932682040645,0.11000770993290253,-0.10084098928241482,-0.03616230536803586,-0.1669496143233515,-0.04235090199904348,0.12552070965630271,-0.20470455054409809,0.04468734095755888
422,8.871196200023405,0.0035037183668460807,0.13331750257149985,-0.05122155600280688,-0.01812020777578745,0.10930421483479436,-0.10101859488471064,-0.03563527064138218,-0.1678017227683585,-0.04216272219830012,0.12525553711596532,-0.2007653901968619,0.04486509923694672
423,8.875552300014533,0.003427244627738347,0.13377542457420888,-0.05164650821491174,-0.018268875954242706,0.1085971731302685,-0.10119540799980806,-0.03510941066635478,-0.16863724283452466,-0.04197376717239512,0.12496189473165974,-0.19681120344770248,0.04505624345057004
424,8.879567799973302,0.0033501506832068137,0.13423036751016154,-0.052072201901349535,-0.01841533654470986,0.1078866546727858,-0.1013714252511997,-0.03458484428974568,-0.16945611249126322,-0.04178398061849405,0.12464017104239213,-0.19284252660516515,0.04526079038602241
425,8.88401999999769,0.003272445800284933,0.1346823169136821,-0.05249863370977135,-0.018559595232205045,0.10717272957178263,-0.1015466430255908,-0.03406168871546283,-0.17025827196582277,-0.0415933061765094,0.12429075906806318,-0.18885989803471254,0.045478750732636956
426,8.888516000006348,0.0031941392210768625,0.1351312586142918,-0.05292580027214377,-0.018701658190878826,0.10645546818316799,-0.1017210574727126,-0.03354005948658345,-0.17104366375310226,-0.04140168745375248,0.12391405606322825,-0.18486385890347165,0.04571012952496288
427,8.892101700010244,0.0031152401607163088,0.13557717873772476,-0.053353698203752624,-0.018841532076999356,0.1057349410997646,-0.10189466450523488,-0.0330200704677043,-0.17181223262938672,-0.04120906804781549,0.12351046353924472,-0.18085495308968313,0.04595492637766086
428,8.89640710002277,0.003035757805355017,0.13602006370690364,-0.053782324102206513,-0.018979224021859965,0.10501121914169052,-0.10206745979877176,-0.03250183382680885,-0.17256392566140105,-0.041015391569248896,0.12308038718993168,-0.1768337263886732,0.046213135461738566
429,8.900379099999554,0.002955701310181233,0.1364599002428746,-0.054211674546440596,-0.01911474162460988,0.10428437334672418,-0.10223943879198481,-0.03198546001824244,-0.17329869221337124,-0.040820601664643255,0.12262423636830834,-0.17280072707119618,0.04648474535175003
430,8.90463429997908,0.002875079797468456,0.13689667536570194,-0.05464174609572098,-0.019248092945018707,0.1035544749606266,-0.1024105966867829,-0.031471057768978,-0.17401648396077152,-0.040624642040591026,0.12214242320475524,-0.16875650630532657,0.04676973868759409
431,8.908834500005469,0.002793902354654723,0.13733037639532178,-0.05507253528865019,-0.01937928649619171,0.10282159542739087,-0.10258092844862672,-0.030958734069003884,-0.17471725490093198,-0.04042745648961131,0.1216353616815663,-0.1647016167076042,0.047068091649137896
432,8.912284899968654,0.0027121780324525988,0.13776099095235472,-0.055504038642174146,-0.019508331237253478,0.10208580637947526,-0.10275042880694654,-0.030448594165368905,-0.17540096135460675,-0.04022898891852797,0.12110346707846417,-0.16063661122214573,0.047379773944828715
433,8.916971599974204,0.002629915842989958,0.13818850695887744,-0.0559362526505911,-0.019635236566013157,0.10134717962803941,-0.10291909225568532,-0.029940741557231153,-0.17606756196715942,-0.04002918337449009,0.12054715618633173,-0.1565620442886742,0.047704750025453616
434,8.921038199972827,0.0025471247579816315,0.1386129126391532,-0.056369173784563194,-0.0197600123116065,0.10060578715316755,-0.10308691305393516,-0.029435277988106412,-0.1767170177199496,-0.03982798406314726,0.119966847996874,-0.15247847366374417,0.04804298053298859
435,8.925357399974018,0.002463813706932042,0.13903419652032137,-0.05680279849013077,-0.01988266872709593,0.09986170109400899,-0.1032538852266332,-0.02893230343511968,-0.1773492919468276,-0.039625335362491076,0.11936296387118073,-0.14838646051519883,0.048394423260020504
436,8.929538599972147,0.0023799915753690516,0.13945234743304497,-0.05723712318772975,-0.020003216482022246,0.09911499373886264,-0.10342000256531442,-0.028431916099836665,-0.17796435034631497,-0.039421181832965516,0.11873592665808168,-0.14428656937620768,0.0487590336387871
437,8.933585499995388,0.0022956672031092073,0.13986735451211685,-0.05767214427121228,-0.020121666654927605,0.0983657375152151,-0.10358525862889252,-0.02793421240492639,-0.17856216099771274,-0.039215468227197584,0.11808615929125267,-0.14017936819104396,0.049136764274330606
438,8.938012800004799,0.0022108493825544417,0.14027920719702358,-0.05810785810687069,-0.02023803072587919,0.09761400497968983,-0.10374964674449455,-0.027439286996785377,-0.17914269437366687,-0.039008139504032015,0.11741408364301509,-0.1360654276133412,0.04952756481624586
439,8.942056100000627,0.0021255468570201635,0.14068789523246705,-0.058544261032465135,-0.020352320569014246,0.0968598688079796,-0.10391316000835973,-0.026947232751835172,-0.1797059233503776,-0.038799140839339975,0.1167201198668859,-0.13194532184864222,0.04993138288098403
440,8.946321600000374,0.0020397683190946244,0.14109340866884376,-0.058981349356255104,-0.020464548445116672,0.09610340178470979,-0.10407579128676495,-0.026458140784673047,-0.18025182322724737,-0.03858841763230091,0.11600468606914595,-0.12781962940191027,0.05034816478913849
441,8.95042090001516,0.001953522409029411,0.14149573786268121,-0.059419119356034875,-0.020574726994230585,0.09534467679320573,-0.10423753321697637,-0.025972100457130314,-0.1807803717433737,-0.03837591551001365,0.11526819820940822,-0.1236889324690802,0.0507778557276764
