,time,x,y,z,vx,vy,vz,ax,ay,az,jx,jy,jz
0,7.396215200002189,-0.02667473281443649,-0.029913128756011518,0.005528617866267639,-0.0029853410868787922,-0.010319156923619325,0.0032578329570110134,0.027313691811613812,0.013578237446690533,-0.00016079516951266227,0.05832471415303833,0.10717356931702728,-0.023095983151112085
1,7.400406100001419,-0.026687355691460368,-0.02995751308609907,0.005542668705189496,-0.0028669836664378117,-0.010259591571100072,0.0032569245345711556,0.02756588171460177,0.014042649074226561,-0.0002611562972768088,0.058606463409605486,0.10816049820634044,-0.02343995048635128
2,7.403967499994906,-0.026699465699691914,-0.03000163616680218,0.005556714692120578,-0.0027475358292510274,-0.010198013844814635,0.0032555800147254007,0.02781927785722145,0.014511316076549182,-0.00036300685720325296,0.058883969698473204,0.10914659825901225,-0.023786577947170352
3,7.408562099997653,-0.026711058124507175,-0.03004548927836333,0.005570753932143056,-0.0026269924118010836,-0.010134405397342613,0.0032537929482104647,0.028073861750548653,0.014984234588773326,-0.0004663582696052848,0.059157146875225906,0.11013173403033256,-0.024135839994471716
4,7.412682700000005,-0.026722128229181897,-0.03008906362192119,0.00558478450241461,-0.0025053483311214425,-0.010068747899192784,0.003251556836740436,0.028329614537137435,0.015461400157124874,-0.0005712218422116066,0.059425910114013714,0.11111576778430056,-0.02448770993001621
5,7.41764119999425,-0.026732671255242407,-0.030132350319593448,0.005598804451958019,-0.002382598586374101,-0.01000102304136655,0.003248865133502554,0.028586516996288235,0.01594280772849828,-0.0006776087650152266,0.05969017581028135,0.11209855936940855,-0.02484215980187433
6,7.421106900001178,-0.02674268242282324,-0.030175340414570765,0.005612811801452942,-0.0022587382604055887,-0.009931212537964806,0.0032457112436771124,0.028844549549315607,0.016428451640060855,-0.0007855301046092337,0.05994986156994977,0.11307996613757178,-0.025199160369252308
7,7.424979300005361,-0.026752156931031435,-0.030218024871222094,0.005626804543029988,-0.002133762521279242,-0.00985929812884106,0.0032420885249821014,0.02910369226472302,0.016918325608111028,-0.0008949967987322529,0.060204885944638055,0.11405984293860383,-0.02555868118356808
8,7.429204000000027,-0.026761089958317396,-0.030260394575211527,0.005640780640067199,-0.0020076666237865593,-0.009785261582304422,0.003237990288240167,0.029363924861186406,0.017412422717634962,-0.0010060196513036453,0.0604551678804612,0.11503804248230738,-0.025920690665483023
9,7.433192399999825,-0.026769476662852214,-0.030302440333626925,0.005654738026989011,-0.0018804459109537362,-0.009709084697862818,0.003233409797966084,0.029625226707973844,0.017910735414288493,-0.0011186093276335015,0.060700626328947425,0.11601441566820571,-0.0262851560886553
10,7.437456600004225,-0.026777312182911524,-0.030344152875120434,0.005668674609067804,-0.0017520958155494016,-0.00963074930899515,0.003228340272975036,0.029887576824572572,0.018413255496798283,-0.0012327763493176847,0.060941180084884444,0.11698881172064461,-0.02665204349868724
11,7.441682699994999,-0.02678459163726584,-0.03038552285006103,0.005682588262228113,-0.0016226118615943696,-0.009550237285960063,0.003222774887014129,0.030150953879709817,0.01891997411010925,-0.0013485310887485994,0.06117674764583917,0.11796107858864396,-0.02702131760102464
12,7.446006700003636,-0.026791310125577436,-0.030426540830699268,0.00569647683285362,-0.0014919896658778227,-0.009467530538627218,0.003216706769418027,0.030415336189767894,0.019430881741235164,-0.0014658837630431648,0.06140724706628345,0.11893106329702843,-0.02739294165013789
13,7.450195400000666,-0.026797462728803758,-0.030467197311344247,0.005710338137597027,-0.0013602249394807366,-0.009382611019321857,0.0032101290057928444,0.030680701716546615,0.019945968215435202,-0.0015848444275975715,0.06163259584947485,0.11989861198446955,-0.027766877398189022
14,7.454120700000203,-0.026803044509607445,-0.0305074827085529,0.005724169963192947,-0.0012273134893113669,-0.009295460725689065,0.0032030346387273865,0.030947028064745672,0.02046522269239273,-0.001705422969572416,0.06185271108795789,0.12086357012497095,-0.028143085032906322
15,7.458404599994537,-0.026808050512772994,-0.030547387361331668,0.0057379700662739085,-0.001093251219650392,-0.00920606170357129,0.003195416668533244,0.031214292480939113,0.020988633664302574,-0.0018276291009115143,0.06206750976621416,0.12182578273851541,-0.028521523115429624
16,7.462292700001853,-0.026812475765630107,-0.03058690153135062,0.005751736173189636,-0.0009580341336952477,-0.00911439604988911,0.0031872680540162564,0.03148247185366863,0.021516188953866994,-0.0019514723512908405,0.06227690887411836,0.1227850943155903,-0.028902148539787103
17,7.467571500004851,-0.026816315278483677,-0.03062601540316997,0.005765465979829708,-0.0008216583351044649,-0.00902044591553605,0.0031785817132774373,0.03175154271339679,0.022047875711731862,-0.002076962060787755,0.06248082535831825,0.12374134886566962,-0.029284916416691984
18,7.471871600006125,-0.02681956404505046,-0.03066471908447917,0.005779157151449745,-0.0006841200295424074,-0.008924193508281452,0.003169350524547678,0.0320214812321809,0.022583680414900886,-0.00220410737182748,0.06267917604117104,0.1246943898848606,-0.029669780037063408
19,7.475186499999836,-0.02682221704290239,-0.030703002606348482,0.005792807322501273,-0.0005454155262264241,-0.00882562109567898,0.0031595673270581478,0.032292263222926915,0.02312358886389267,-0.0023329172215376314,0.0628718775883148,0.12564406013975693,-0.030056691050384048
20,7.479260299995076,-0.026824269233916585,-0.030740855923493147,0.005806414096465414,-0.0004055412394780219,-0.008724711007994015,0.003149224921940955,0.032563864138783545,0.02366758617929029,-0.0024634003352333477,0.06305884656812497,0.12659020157555229,-0.03044559967273661
21,7.483380399993621,-0.026825715564732063,-0.030778268914550218,0.005819975045690524,-0.0002644936902752455,-0.008621445641141926,0.003138316073155749,0.03283625907290908,0.024215656798105663,-0.0025955652205665106,0.06323999936523549,0.12753265511066103,-0.030836454830028337
22,7.487563999995473,-0.02682655096721313,-0.030815231382368077,0.005833487711233877,-0.00012226950780586189,-0.008515807459646831,0.0031268335084408553,0.033109422757119464,0.02476778446855737,-0.0027294201622464435,0.06341525206706154,0.12847126050707053,-0.031229204303861342
23,7.491695899996557,-0.026826770358919488,-0.03085173305430879,0.005846949602707506,2.113456896859701e-05,-0.008407778999624912,0.00311476992028542,0.033383329560676175,0.025323952245316573,-0.002864973217447525,0.06358452060430918,0.1294058563865662,-0.031623794870672406
24,7.4957741999969585,-0.026826368643583128,-0.030887763582563364,0.005860358198128274,0.0001657216897491938,-0.008297342871784193,0.003102117966920162,0.03365795349014645,0.025884142484424794,-0.003002232211730219,0.06374772067531491,0.1303362800415063,-0.03202017245988679
25,7.499930799996946,-0.02682534071159192,-0.03092331254447998,0.005873710943772262,0.00031149489133433614,-0.008184481764451699,0.0030888702733247097,0.03393326818753845,0.02644833683690745,-0.0031412047358130475,0.06390476757851817,0.13126236726197932,-0.03241828235782941
26,7.504343299995526,-0.026823681440480016,-0.03095836944290536,0.005887005254033532,0.0004584570960400495,-0.008069178446628328,0.0030750194322461963,0.034209246928716276,0.027016516242200538,-0.0032818981432527223,0.06405557634756581,0.13218395237897665,-0.03281806935904338
27,7.508045900001889,-0.026821385695425057,-0.03099292370653936,0.005900238511287301,0.0006066111101210538,-0.007951415771072716,0.0030605580052266105,0.03448586262270063,0.027588660922136618,-0.003424319548521512,0.06420006169727085,0.13310086842657737,-0.033219477839324114
28,7.512475600000471,-0.026818448329752206,-0.031026964690302937,0.005913408065757566,0.0007559596221850038,-0.007831176677407991,0.00304547852363798,0.03476308780961764,0.028164750375770632,-0.003568475825317423,0.06433813788851833,0.13401294705002664,-0.03362245177182644
29,7.516524599996046,-0.026814864185445035,-0.03106048167571954,0.005926511235389209,0.0009065052015958696,-0.007708444195250274,0.0030297734897242984,0.0350408946588341,0.028744763372572892,-0.0037143736047805208,0.06446971878229947,0.1349200183382506,-0.034026934686581745
30,7.521085200001835,-0.026810628093663323,-0.031093463871310078,0.005939545305724609,0.001058250296872091,-0.007583201447374157,0.003013435377652096,0.03531925496737241,0.02932867794581005,-0.0038620192734538723,0.06459471788293697,0.13582191095894067,-0.03443286954893356
31,7.524967499994091,-0.026805734875267773,-0.031125900413001607,0.0059525075297848125,0.0012111972340762842,-0.007455431652898303,0.002996456634569957,0.03559814015841875,0.02991647138690342,-0.004011418970451156,0.0647130484515913,0.13671845209903544,-0.03484019850279048
32,7.52902190000168,-0.026800179341351694,-0.031157780364549782,0.005965395127955286,0.0013653482152005253,-0.007325118130499597,0.002978829681683527,0.03587752128071718,0.030508120238296504,-0.004162578583202701,0.06482462365213781,0.137609467481061,-0.03524886253295469
33,7.53322460000345,-0.02679395629377965,-0.031189092717975278,0.005978205287876358,0.001520705316550831,-0.007192244301660272,0.0029605469153517255,0.036157369008336285,0.03110360028795428,-0.00431550374171007,0.06492935664304185,0.13849478160627007,-0.035658801094898225
34,7.537408799995319,-0.026787060525733083,-0.031219826394014247,0.005990935164338428,0.001677270487130429,-0.007056793693929517,0.0029416007082113185,0.03643765364085586,0.031702886564328236,-0.004470199811098258,0.06502716058820368,0.13937421765189426,-0.03606995175266351
35,7.541736600003787,-0.026779486822262902,-0.03124997024258288,0.006003581879182112,0.0018350455470258484,-0.006918749944214039,0.0029219834103373834,0.036718345103227114,0.03230595332996927,-0.004626671882746516,0.06511794860826206,0.14024759749282384,-0.036482249929027204
36,7.546204400001443,-0.02677122996084903,-0.03127951304325625,0.0060161425212034636,0.0019940321857889855,-0.006778096802094766,0.0029016873504443923,0.03699941294553925,0.032912774076679766,-0.00478492476468526,0.06520163385087195,0.14111474185837325,-0.03689562878250824
37,7.550029000005452,-0.026762284711966955,-0.03130844350576148,0.006028614146064478,0.002154231960821179,-0.0066348181331592395,0.0028807048371295215,0.03728082634348596,0.033523321520478856,-0.004944962971665872,0.06527812944751385,0.14197547032674349,-0.037310019178970984
38,7.554188900001463,-0.026752645839661218,-0.03133675027048535,0.00604099377620904,0.002315646295759301,-0.006488897922361743,0.002859028160159401,0.03756255409775938,0.03413756759670674,-0.005106790715312634,0.06534734826483704,0.14282960150880916,-0.037725349783551555
39,7.558224199994584,-0.02674230810212588,-0.03136442190899645,0.006053278400784529,0.0024782764788546037,-0.006340320277397931,0.0028366495917983804,0.0378445646323715,0.03475548345657545,-0.00527041189498556,0.0654092027912217,0.14367695316712145,-0.038141547213253434
40,7.5624059999972815,-0.026731266252292,-0.03139144692458187,0.006065464975569226,0.0026421236613443297,-0.006189069432094718,0.0028135613881741036,0.03812682599306951,0.03537703946329975,-0.005435830089248739,0.06546360512058186,0.144517342253554,-0.03855853612615782
41,7.56648110000242,-0.02671951503842215,-0.03141781375279863,0.006077550422905696,0.0028071888558168887,-0.006035129749818279,0.0027897557906793754,0.03840930584551746,0.03600220518897271,-0.005603048547502767,0.06551046687665109,0.14535058512013677,-0.03897623923901079
42,7.570936599993729,-0.026707049204711994,-0.031443510762039766,0.0060895316316402935,0.00297347293456778,-0.005878485726890896,0.002765225027409921,0.03869197147305846,0.036630949412515386,-0.005772070181604814,0.06554969918062704,0.14617649762183815,-0.03939457736361472
43,7.575194000004558,-0.02669386349189899,-0.03146852625411521,0.006101405457068947,0.0031409766279454653,-0.005719121996016645,0.002739961314638546,0.03897478977461719,0.03726324011743909,-0.005942897557814994,0.06558121267815632,0.14699489518122524,-0.03981346950552669
44,7.5788636000070255,-0.02667995263787823,-0.03149284846484747,0.006113168720889377,0.0033097005226891967,-0.005557023329717547,0.002713956858322371,0.039257727262694934,0.0378990444903529,-0.006115532889267881,0.0656049176257747,0.1478055929938662,-0.04023283299913638
45,7.583387599996058,-0.026665311378325493,-0.03151646556468212,0.00612481821115989,0.003479645060257592,-0.0053921746437721315,0.0026872038556419392,0.039540750062017745,0.03853832892049785,-0.006289978029084174,0.06562072406928274,0.1486084061257191,-0.04065258363057604
46,7.587305900000501,-0.0266499344473275,-0.03153936565931315,0.006136350682264868,0.003650810535154801,-0.005224561000655604,0.002659694496567876,0.039823823909070306,0.03918105899909464,-0.006466234463902532,0.06562854194640969,0.14940314946978359,-0.0410726356445334
47,7.5913791000057245,-0.026633816578019404,-0.031561536790323155,0.006147762854887082,0.003823197093255061,-0.005054167612984038,0.002631420965455795,0.04010691415162978,0.039827199518503845,-0.0066443033070500085,0.06562828117866602,0.15018963783255962,-0.041492901734734904
48,7.594652700005099,-0.026616952503229496,-0.03158296693583836,0.006159051415986941,0.00399680473012484,-0.004880979846961786,0.0026023754426718754,0.04038998574909203,0.040476714472319486,-0.0068241852919917875,0.06561985187126826,0.15096768605304092,-0.04191329318042826
49,7.598073400004068,-0.026599336956131172,-0.031603644011198584,0.006170213018788821,0.004171633289350207,-0.004704983225824867,0.002572550106244276,0.04067300327373019,0.04112956705555578,-0.007005880766679029,0.06560316446453623,0.15173710882968738,-0.04233372007875441
50,7.602037000004202,-0.02658096467090208,-0.03162355586964195,0.006181244282774572,0.004347682460869832,-0.004526163433286764,0.0025419371335374716,0.04095593091232698,0.04178571966324803,-0.0071893896890032295,0.06557812975002177,0.15249772045020166,-0.042754091614932196
51,7.606244900001911,-0.02656183038339045,-0.03164269030300459,0.006192141793684284,0.004524951779316439,-0.0043445063169938805,0.002510528702942883,0.041238732467572384,0.04244513388830822,-0.007374711623474893,0.06554465879482005,0.15324933472680932,-0.043174316217638474
52,7.610957199998666,-0.026541928831788558,-0.03166103504243514,0.006202902103524379,0.004703440622361863,-0.004159997891989841,0.0024783169955818643,0.041521371359043026,0.04310777051956757,-0.007561845738018327,0.06550266289308074,0.1539917651583072,-0.043594301599502866
53,7.616784400001052,-0.026521254757313335,-0.03167857775912436,0.006213521730583071,0.0048831482090669525,-0.00397262434418783,0.0024452941970239837,0.04180381062418156,0.043773589541030104,-0.007750790800999653,0.06545205334973409,0.15472482496245438,-0.04401395497735854
54,7.620724099993822,-0.02649980290489406,-0.031695306065049576,0.006223997159453279,0.005064073598235075,-0.003782372033841335,0.002411452499015651,0.042086012917410265,0.044442550130194616,-0.00794154517992166,0.06539274125892129,0.15544832677340026,-0.04443318346130482
55,7.624918000001344,-0.026477568023867172,-0.03171120751373421,0.006234324841063001,0.005246215686754371,-0.0035892274990309597,0.0023767841012096555,0.04236794050919903,0.045114610654698024,-0.00813410684180818,0.06532463776345349,0.15616208254436661,-0.04485189436273482
56,7.628187499998603,-0.026454544868678275,-0.031726269601022365,0.006244501192713145,0.005429573207943222,-0.003393177459164123,0.0023412812128904793,0.042649555287417235,0.0457897286697978,-0.008328473354556234,0.06524765434117029,0.1568659036341642,-0.04526999538349755
57,7.632777999999234,-0.026430728199591216,-0.03174047976586848,0.006254522598122792,0.0056141447299041655,-0.003194208818483595,0.0023049360546921697,0.04293081875887208,0.046467860915761675,-0.008524641888952269,0.06516170272390077,0.15755960074235056,-0.04568739478068416
58,7.6374644000025,-0.02640611278340428,-0.03175382539114222,0.006264385407481841,0.005799928653882635,-0.0029923086695897104,0.002267740860306259,0.04321169204996138,0.04714896331479068,-0.00872260922144588,0.06506669485425984,0.15824298390916755,-0.046104001604406065
59,7.64177170000039,-0.02638069339417345,-0.03176629380444852,0.006274085937511007,0.005986923212626504,-0.00278746429697545,0.002229687878175708,0.04349213590783917,0.04783299096840833,-0.008922371738217316,0.06496254296663985,0.15891586259120236,-0.04651972593558625
60,7.645833600006881,-0.026354464813942737,-0.03177787227896295,0.006283620471529083,0.006175126468754883,-0.002579663180571177,0.002190769373167738,0.043772110701767224,0.04851989815503638,-0.009123925440002574,0.06484915947373722,0.1595780456074178,-0.04693447896026439
61,7.649994999999762,-0.02632742183348151,-0.03178854803428234,0.0062929852595273676,0.006364536313129325,-0.002368892999300634,0.0021509776282261474,0.04405157642330171,0.04920963832691839,-0.009327265946801923,0.06472645694501622,0.16022934117155058,-0.04734817292499951
62,7.654309100005776,-0.02629955925302889,-0.031798308237290844,0.006302176518251178,0.006555150463224228,-0.0021551416346522164,0.002110304946003524,0.04433049268745893,0.04990216410797501,-0.009532388502320265,0.06459434828497851,0.16086955708659362,-0.04776072106255942
63,7.658389599993825,-0.02627087188304513,-0.03180714000304136,0.00631119043128836,0.0067469664615081,-0.001938397174253471,0.002068743650475258,0.044608818734439906,0.0505974272924053,-0.009739287978034594,0.06445274673315257,0.1614985007448414,-0.04817203750279245
64,7.6617034999944735,-0.02624135454496998,-0.03181503039565243,0.006320023149164728,0.00693998167382884,-0.0017186479154544386,0.002026286088536662,0.04488651343079599,0.05129537884254239,-0.00994795887686547,0.06430156605325897,0.1621159792684131,-0.04858203708751173
65,7.665308900002856,-0.026211002071987986,-0.03182196642922056,0.006328670789446349,0.007134193287805057,-0.0014958823689206493,0.0019829246315853128,0.045163535272785355,0.051995968888667074,-0.010158395335647524,0.06414072084661804,0.16272179977943116,-0.048990635151622955
66,7.668976000000839,-0.026179809309800735,-0.03182793506874814,0.006337129436848637,0.007329598311240307,-0.0012700892622180733,0.0019386516770968593,0.0454398423902423,0.052699146729194235,-0.010370591126912758,0.06397012641167968,0.16331576924869315,-0.04939774750559975
67,7.673032299993792,-0.02614777111740585,-0.03183292323108669,0.006345395143352225,0.007526193570547789,-0.001041257543404508,0.0018934596501919785,0.045715392548721936,0.05340486082918098,-0.010584539661209872,0.06378969871698859,0.16389769438760038,-0.04980329063404934
68,7.676598499994725,-0.026114882367882803,-0.03183691778589573,0.006353463928325583,0.007723975709183091,-0.0008093763846273998,0.001847341005192176,0.04599014315313629,0.05411305881958075,-0.010800233990600554,0.06359935449840026,0.16446738196160274,-0.0502071819618659
69,7.680191399995238,-0.026081137949185443,-0.0318399055566171,0.006361331778654312,0.007922941186100247,-0.0005744351857216643,0.0018002882271565804,0.04626405125073763,0.05482368749845547,-0.011017666813274853,0.06339901099440423,0.1650246389739305,-0.05060933989611158
70,7.683597600000212,-0.02604653276494113,-0.031841873321464854,0.006368994648877011,0.008123086274210222,-0.0003364235777970518,0.001752293833397927,0.04653707353247125,0.05553669283181468,-0.011236830477408769,0.06318858592444465,0.16556927250346462,-0.05100968360716375
71,7.687961300005554,-0.026011061735256545,-0.031842807814430524,0.006376448461327662,0.00832440705884864,-9.533142682872934e-05,0.0017033503749860747,0.04680916633577179,0.05625201995342903,-0.011457716983891628,0.062967997569895,0.1661010897047369,-0.05140813297467349
72,7.691861200000858,-0.025974719797530067,-0.031842695726303986,0.0063836891062844575,0.00852689943625839,0.0001488511627537461,0.0016534504382404605,0.04708028564661457,0.05696961316566942,-0.011680317989717469,0.06273716461744631,0.16661989781874345,-0.051804608878006184
73,7.695870700001251,-0.025937501907270656,-0.0318415237057097,0.006390712442125063,0.008730559112075053,0.0003961338444830842,0.0016025866462043594,0.04735038710096083,0.05768941593941375,-0.011904624813217987,0.06249600597542677,0.16712550405406054,-0.052199033536711806
74,7.700160799999139,-0.025899403038923297,-0.031839278360158485,0.006397514295488167,0.008935381599821974,0.0006465260262644836,0.0015507516600921961,0.047619425985224534,0.0584113709138605,-0.01213062844039109,0.06224444057375959,0.16761771569491854,-0.05259133058888714
75,7.704429799996433,-0.025860418186700873,-0.03183594625711471,0.006404090461441222,0.009141362219399719,0.0009000368667906801,0.0014979381807092092,0.047887357235991856,0.05913541989736781,-0.012358319530809861,0.06198238756926153,0.16809634015523978,-0.052981424850689594
76,7.7084152000024915,-0.025820542365422635,-0.031831513925079005,0.006410436703654249,0.009348496095578722,0.001156675271959408,0.0014441389498477876,0.04815413544225904,0.05986150386773321,-0.01258768842187648,0.061709766578179795,0.16856118473006648,-0.05336924195561361
77,7.713395700004185,-0.025779770611359082,-0.03182596785468638,0.006416548754579618,0.00955677815650805,0.0014164498912908612,0.001389346751670437,0.04841971484715798,0.06058956297088835,-0.012818725131619302,0.06142649753008493,0.16901205639019307,-0.05375470811133227
78,7.716846900002565,-0.02573809798308329,-0.031819294499819815,0.0064224223156377856,0.009766203132222939,0.001679369114333894,0.0013335544140819862,0.04868404934893359,0.061319536519407046,-0.013051419360849107,0.06113250073829015,0.16944876192268607,-0.054137749934869174
79,7.720903599998564,-0.025695519562328673,-0.03181148027873938,0.006428053057408917,0.009976765553161987,0.001945441067070612,0.0012767548100939526,0.04894709250327692,0.06205136299241225,-0.013285760494534232,0.06082769718087148,0.16987110804976843,-0.05451829428506826
80,7.725015200005146,-0.025652030454853102,-0.031802511575226865,0.0064334366198303865,0.010188459748694818,0.00221467360832177,0.0012189408591848855,0.049208797526726814,0.06278498003510968,-0.01352173760251157,0.06051200855445975,0.17027890125588516,-0.054896268135616814
81,7.729157900001155,-0.025607625791309367,-0.03179237473974589,0.0064385686124001406,0.010401279845668623,0.0024870743261473397,0.0011601055286585972,0.04946911729946707,0.06352032445720295,-0.013759339439766306,0.06018535697730975,0.17067194767962715,-0.05527159854530369
82,7.735549200006062,-0.025562300728121833,-0.031781056090617585,0.006443444614385914,0.010615219766959949,0.0027626505342382346,0.0011002418350020938,0.049728004366166555,0.0642573322314948,-0.013998554446886332,0.059847664783847156,0.17105005320017935,-0.05564421269451454
83,7.74143880000338,-0.0255160504483694,-0.031768541915211855,0.006448060175040305,0.010830273230028492,0.003041409268304812,0.0010393428452398859,0.04998541093700394,0.06499593849304802,-0.014239370750656821,0.059498854508375,0.17141302324283259,-0.0560140378919754
84,7.747624800002086,-0.02546887016267463,-0.03175481847115419,0.00645241081382168,0.011046433745477728,0.003323357282461359,0.0009774016782867902,0.05024128888836728,0.06573607753610893,-0.014481776164572826,0.05913884883654531,0.17176066235742882,-0.05638100157204829
85,7.752039400002104,-0.025420755110099124,-0.031739871987548116,0.006456492020620912,0.011263694615614734,0.003608501045588053,0.000914411506297818,0.05049558976346007,0.06647768280963151,-0.014725758189410512,0.05876757063770893,0.17209277425075184,-0.05674503126368344
86,7.756355699995765,-0.025371700559045085,-0.03172368866621341,0.006460299255993938,0.011482048933016053,0.003896846737676836,0.0008503655560160491,0.05074826477327995,0.06722068691448041,-0.014971304013471918,0.058384943186569616,0.17240916215406982,-0.05710605457687312
87,7.760352600002079,-0.025321701808163052,-0.03170625468294007,0.006463827951400121,0.01170148957909596,0.004188400246169247,0.0007852571101204087,0.05099926479913688,0.06796502160212578,-0.015218400513039328,0.05799089073596394,0.17270962895279524,-0.05746399924320059
88,7.76438190000772,-0.025270754187265817,-0.031687556188758105,0.006467073509446433,0.011922009222694041,0.004483167162291036,0.0007190795085696213,0.0512485403985731,0.06871061777296478,-0.015467034252969842,0.057585338965239256,0.17299397706761424,-0.0578187931455649
89,7.7685358000017,-0.02521885305824835,-0.031667579311223146,0.006470031304137417,0.01214360031869454,0.004781152777375515,0.0006518261499448585,0.05149604181174943,0.06945740547399099,-0.015717191487406176,0.05716821505615061,0.17326200867062316,-0.058170364401930394
90,7.77278290000686,-0.025165993816013622,-0.03164631015571795,0.006472696681130945,0.012366255106669029,0.005082362079178068,0.0005834904927875613,0.05174171896801991,0.07020531389898045,-0.01596885816109372,0.05673944798459955,0.1735135259987354,-0.058518641438297825
91,7.776796899997862,-0.025112171889404244,-0.03162373480676979,0.006475064957999727,0.012589965609552466,0.005386799748201107,0.0005140660569307255,0.0519855214948349,0.07095427138886481,-0.01622201991072085,0.05629896884473321,0.17374833123486086,-0.05886355300084467
92,7.780898800003342,-0.025057382742139703,-0.031599839329383685,0.006477131424498553,0.012814723632362676,0.0056944701540118025,0.00044354642482516155,0.05222739872711166,0.0717042054308923,-0.016476662066340714,0.055846710822108306,0.1739662265726972,-0.05920502818024783
93,7.784390000000712,-0.025001621873759056,-0.03157460977039154,0.00647889134283724,0.01304052076095725,0.006005377351559798,0.00037192524285851444,0.05246729971590591,0.07245504265955979,-0.01673276965292137,0.05538260919353261,0.17416701450857097,-0.05954299641709526
94,7.787853999994695,-0.024944884820568888,-0.03154803215981714,0.006480339947959255,0.01326734836082783,0.006319525077502982,0.0002991962226681508,0.05270517323778111,0.07320670885829147,-0.016990327391814268,0.05490660155416611,0.17435049792792678,-0.0598773875032294
95,7.79258629999822,-0.0248871671565964,-0.031520092512257014,0.00648147244782599,0.013495197575937829,0.0066369167465396865,0.00022535314244751073,0.05294096780543911,0.07395912896111703,-0.01724931970231596,0.05441862796887078,0.1745164800944365,-0.060208131615525504
96,7.796874799998477,-0.024828464494547408,-0.031490776828277035,0.006482284023706652,0.013724059327608437,0.006957555447748935,0.000150389848245522,0.053174631678395104,0.07471222705425634,-0.017509730703427994,0.053918630982699195,0.17466476472567663,-0.06053515939965182
97,7.800755999996909,-0.02476877248676903,-0.03146007109582487,0.006482769830473746,0.013953924313448425,0.007281443940936311,7.430025525776999e-05,0.053406112873698806,0.07546592637845052,-0.017771544216141202,0.05340655564820918,0.1747951561445553,-0.06085840211327296
98,7.80468450000626,-0.024708086826216915,-0.03142796129165811,0.006482924996904111,0.014184783006332635,0.007608584652994316,-2.921650893794581e-06,0.05363535917684499,0.07622014933185296,-0.018034743766430977,0.052882349601252154,0.1749074593656567,-0.061177791757098164
99,7.808338200004073,-0.024646403247426757,-0.03139443338278812,0.006482744625985434,0.014416625653425918,0.007938979674273178,-8.128181289552513e-05,0.05386231815314851,0.07697481747310524,-0.018299312588672095,0.05234596315786086,0.17500148016004377,-0.0614932611559396
100,7.812663599994266,-0.02458371752748993,-0.031359473327939466,0.006482223795228206,0.014649442275259748,0.008272630754967746,-0.00016078610049183038,0.054086937159490645,0.07772985152478717,-0.01856523362933326,0.05179734914141326,0.17507702496898447,-0.06180474403977157
101,7.816674999994575,-0.024520025487032977,-0.03132306707902493,0.006481357556983024,0.01488322266485749,0.008609539301518062,-0.00024144030925171613,0.054309163354203126,0.07848517137574852,-0.018832489551091208,0.05123646261809652,0.17513390072006305,-0.06211217511398008
102,7.820787999997265,-0.024455322991200783,-0.03128520058263601,0.006480140938763182,0.01511795638689629,0.008949706373016366,-0.0003232501593540278,0.05452894370653237,0.07924069608297263,-0.01910106273713128,0.050663260918326646,0.17517191482172517,-0.06241549007152535
103,7.8244636000017636,-0.024389605950643295,-0.03124585978154891,0.0064785689435724585,0.015353632776913982,0.009293132677623751,-0.00040622129439109257,0.054746225006708275,0.07999634387386105,-0.01937093529536646,0.05007770360973061,0.17519087516348683,-0.06271462550512531
104,7.828824099997291,-0.02432287032250555,-0.031205030616245973,0.006476636550238023,0.015590240940557842,0.009639818568996875,-0.0004903592801903584,0.0549609538751754,0.08075203214809905,-0.01964208906198035,0.049479752432279436,0.17519058998067166,-0.06300951873973416
105,7.83320609999646,-0.02425511211142086,-0.031162699026452478,0.006474338713748391,0.015827769752871132,0.009989764042720707,-0.0005756696036486011,0.05517307677210214,0.0815076774787733,-0.019914505604201053,0.04886937131458175,0.17517086775176532,-0.06330010775958975
106,7.837224899994908,-0.024186327370507004,-0.03111885095268885,0.00647167036559639,0.016066207857623884,0.010342968732744883,-0.0006621576715774925,0.0553825400067525,0.0822631956133519,-0.020188166223214805,0.04824652620644872,0.17513151709585742,-0.06358633117173022
107,7.841803799994523,-0.02411651220236518,-0.031073472337838217,0.00646862641412707,0.016305543666680297,0.010699431907824908,-0.0007498288095629435,0.05558928974555083,0.0830185014739173,-0.020463051956625105,0.04761118499740942,0.1750723465832284,-0.06386812802496968
108,7.847690199996578,-0.024045662760081656,-0.0310265491287293,0.006465201744890512,0.016545765359399087,0.011059152467960518,-0.0008386882608318863,0.055793272020750614,0.08377350915651234,-0.0207391435798047,0.0469633175172409,0.17499316468692985,-0.06414543762616393
109,7.852261000007275,-0.023973775248231903,-0.030978067277734698,0.006461391220999514,0.016786860882075677,0.011422128940831245,-0.0009287411851232806,0.055994432738503824,0.08452813193095543,-0.02101642160676967,0.046302895352110116,0.17489377985314516,-0.06441819937538196
110,7.856113400004688,-0.023900845923887047,-0.03092801274438455,0.0064571896834921365,0.017028817947412154,0.011788359478233179,-0.0010199926575624367,0.05619271768594359,0.08528228224079355,-0.021294866290109477,0.04562989183335733,0.17477400060900833,-0.06468635254840624
111,7.860236599997734,-0.02382687109762258,-0.03087637149699553,0.006452591951699103,0.017271624034020557,0.01215784185251413,-0.001112447667531418,0.05638807253915677,0.08603587170404764,-0.021574457619984725,0.04494428209204021,0.17463363577346047,-0.06494983619540698
112,7.864190599997528,-0.023751847134529096,-0.030823129514315283,0.00644759282361609,0.01751526638596162,0.012530573453016823,-0.0012061111175347184,0.05658044287073719,0.08678881111498454,-0.021855175323183082,0.044246043096467604,0.1744724945815175,-0.06520858914092642
113,7.86779089999618,-0.02367577045522498,-0.030768272787182093,0.006442187076280911,0.01775973201231321,0.012906551282529344,-0.0013009878220615197,0.056769774158081994,0.08754101044593446,-0.022136998862116914,0.043535153868549795,0.17429038686806717,-0.06546254996363804
114,7.872616199994809,-0.023598637536870876,-0.030711787320199937,0.006436369466155623,0.018005007686780653,0.013285771953744013,-0.0013970825064427224,0.05695601179281128,0.08829237885064847,-0.022419907433704592,0.04281159574845759,0.17408712345157853,-0.06571165696796563
115,7.876943299997947,-0.02352044491418572,-0.03065365913342872,0.006430134729513571,0.018251079947346427,0.013668231685736791,-0.0014943998057035523,0.05713910109134765,0.08904282466942617,-0.02270387996812329,0.04207535269177031,0.17386251645820366,-0.06595584813678973
116,7.880826399996295,-0.023441189180464245,-0.030593874264089677,0.006423477582831391,0.018497935095971748,0.0140539263004704,-0.0015929442634098315,0.057318987306899244,0.08979225543526916,-0.022988895127282295,0.041326411367003046,0.173616379565054,-0.06619506107742071
117,7.884825700006331,-0.023360866988595585,-0.030532418768285795,0.00641639272318601,0.01874555919834965,0.014442851219326803,-0.0016927203305074153,0.05749561564088065,0.09054057788110732,-0.02327493130310973,0.040564761074253136,0.1733485282055359,-0.06642923302834722
118,7.888574099997641,-0.0232794750520829,-0.030469278722737116,0.006408874828656659,0.018993938083705097,0.014835001459672667,-0.0017937323641536824,0.057668931254194124,0.09128769794772379,-0.023561966616084087,0.03979039367527708,0.1730587798124213,-0.06665830096191966
119,7.891977999999653,-0.023197010146063728,-0.03040444022653079,0.006400918558731953,0.019243057344645372,0.015230371631460213,-0.001895984626544304,0.05783887927804728,0.0920335207930781,-0.023849978914406766,0.039003303490506645,0.1727469540558298,-0.06688220174375835
120,7.895418200001586,-0.023113469108330873,-0.030337889402885704,0.0063925185547220285,0.01949290233705352,0.015628955933873107,-0.0019994812837375955,0.05800540482434591,0.09277795080228414,-0.0241389457739088,0.038203487347716385,0.17241287292969548,-0.06710087235295929
121,7.898890800002846,-0.02302884884035369,-0.030269612400931473,0.006383669440175762,0.019743458180028397,0.016030748152013385,-0.002104226404480481,0.05816845299693146,0.09352089159767932,-0.024428844499123064,0.03739094471741207,0.17205636086482845,-0.06731425011717246
122,7.903674100001808,-0.022943146308299498,-0.03019959539750165,0.006374365821303037,0.019994709755875046,0.01643574165363421,-0.002210223959042095,0.058327968903141895,0.09426224604977781,-0.024719652125218965,0.03656567768005051,0.17167724495089706,-0.06752227296119402
123,7.908455299999332,-0.02285635854405493,-0.030127824598940887,0.006364602287402025,0.020246641710144488,0.01684392938592129,-0.002317477818056437,0.058483897664766346,0.09500191628925475,-0.025011345421219217,0.03572769075877348,0.17127535529320181,-0.06772487977172897
124,7.913140899996506,-0.022768482646247014,-0.030054286242925936,0.006354373411291438,0.020499238451718596,0.017255303872329014,-0.0024259917513837223,0.058636184428162985,0.09573980372097728,-0.025303900895081253,0.03487699084365559,0.17085052526620714,-0.06792201070674551
125,7.917003399998066,-0.02267951578126379,-0.02997896660030009,0.0063436737497476305,0.020752484152937175,0.017669857209482928,-0.002535769426996875,0.05878477437456023,0.09647580903817589,-0.025597294799582743,0.03401358738619174,0.17040259144345749,-0.06811360728060648
126,7.920959900002344,-0.022589455184274295,-0.029901851976920902,0.0063324978439464556,0.0210063627497717,0.01808758106413811,-0.002646814409893652,0.05892961273185237,0.09720983223587093,-0.02589150313813742,0.03313749266950371,0.16993139346274713,-0.06829961229789018
127,7.924998799993773,-0.022498298160247676,-0.029822928715520877,0.006320840219909757,0.021260857942054154,0.01850846667019747,-0.002759130161033305,0.05907064478723182,0.09794177262388075,-0.02618650167010968,0.03224872191113585,0.16943677393396017,-0.06847996973039365
128,7.929160200001206,-0.022406042084971205,-0.029742183197580905,0.006308695388956398,0.021515953193759745,0.018932504825782365,-0.0028727200362945555,0.059207815899871535,0.09867152883945315,-0.026482265915569337,0.031347293484677824,0.16891857834718269,-0.06865462464828778
129,7.935647100006463,-0.022312684406066954,-0.029659601845216228,0.0062960578481577375,0.021771631733345148,0.019359685890359846,-0.0029875872854532746,0.05934107151546915,0.09939899885948088,-0.026778771160012316,0.030433229194954097,0.1683766547920146,-0.06882352324173087
130,7.939770600001793,-0.02221822264400689,-0.029575171123074652,0.006282922080797482,0.022027876554156695,0.01978999978191866,-0.003103735051181181,0.059470357181303404,0.10012408001071159,-0.027075992459301867,0.029506554235140446,0.16781085364368187,-0.06898661286134058
131,7.945246400005999,-0.022122654393126027,-0.029488877540246882,0.0062692825568358024,0.022284670414898504,0.02022343597418459,-0.0032211663680661493,0.05959561856040834,0.10084666897925551,-0.0273739046447384,0.028567297127367323,0.16722102746620637,-0.06914384203177053
132,7.94995409999683,-0.022025977322633488,-0.029400707652188753,0.006255133733377632,0.02254199584016295,0.020659983493878452,-0.0033398841616546432,0.059716801446117324,0.1015666618199601,-0.027672482328117812,0.027615489636101095,0.16660703094733326,-0.06929516039087784
133,7.955829099999391,-0.02192818917762108,-0.029310648062655216,0.006240470055145045,0.022799835121024254,0.02109963091801233,-0.0034598912475156617,0.059833851775489985,0.1022839539653563,-0.027971699906276546,0.026651166730340778,0.16596872082813158,-0.06944051854653584
134,7.959506700004567,-0.02182928778006922,-0.0292186854256459,0.006225285954953636,0.023058170315684797,0.02154236637122475,-0.0035811903303223816,0.05994671564353014,0.1029984402344259,-0.028271531564914666,0.025674366799597496,0.16530595588728722,-0.06957986790505187
135,7.963106900002458,-0.02172927102984996,-0.02912480644736209,0.006209575854192813,0.02331698325019136,0.021988177523152526,-0.003703784002949084,0.06005533931847592,0.10371001484141228,-0.028571951281660703,0.02468513165977343,0.16461859685396518,-0.06971316054280917
136,7.967497300007379,-0.021628136905726722,-0.02902899788817495,0.00619333416330997,0.023576255519213333,0.022437051585841968,-0.0038276747455792373,0.06015966925606843,0.10441857140383602,-0.028872932828787425,0.02368350652593323,0.16390650618129898,-0.06984034918333468
137,7.971696099994006,-0.021525883466350596,-0.02893124656460484,0.006176555282298477,0.02383596848688206,0.02288897531118987,-0.003952864924825852,0.06025965211460698,0.10512400294935166,-0.029174449776078838,0.02266954008740783,0.1631695481546792,-0.06996138717159031
138,7.975063999998383,-0.021422508851252856,-0.028831539351311615,0.0061592336011894394,0.024096103287698928,0.023343934988413865,-0.004079356792864295,0.06035523476986563,0.10582620192469745,-0.029476475493324182,0.02164328441665527,0.16240758920988027,-0.07007622837944702
139,7.979182199997012,-0.021318011281833416,-0.02872986318309577,0.006141363500547168,0.02435664082750338,0.02380191644157062,-0.004207152486574163,0.0604463643293622,0.10652506020529649,-0.029778983152369473,0.020604795050330322,0.16162049794961225,-0.07018482716647283
140,7.983202699993853,-0.02121238906234499,-0.02862620505691014,0.006122939351968342,0.02461756178450411,0.02426290502710902,-0.004336254026689794,0.06053298814797418,0.10722046910434933,-0.03008194572927322,0.019554131199533815,0.1608081454735375,-0.07028713842720428
141,7.987324700006866,-0.021105640580872654,-0.028520552033882162,0.006103955518584807,0.024878846610381797,0.024726885631466817,-0.004466663316960733,0.060615053844021514,0.10791231938528206,-0.030385336006765778,0.01849135580398589,0.15997040586422348,-0.07038311764792589
142,7.99163899999985,-0.020997764310308503,-0.0284128912413463,0.006084406355569983,0.025140475531459025,0.025193842668731176,-0.004598382143323466,0.06069250931534987,0.10860050127503114,-0.03068912657689488,0.017416535580883297,0.15910715631137334,-0.07047272099044864
143,7.997406399997999,-0.02088875880932111,-0.028303209874886485,0.006064286210648805,0.02540242854994178,0.025663760078349942,-0.004731412173084706,0.06076530275583489,0.10928490447756319,-0.030993289844207735,0.01632974104102649,0.1582182774415289,-0.07055590545552338
144,8.001742799999192,-0.02077862272331947,-0.028191495200388307,0.0060435894246111755,0.025664685445231747,0.026136621322908827,-0.0048657549541205785,0.06083338267160457,0.1099654181900041,-0.0312977980298063,0.01523104649413469,0.15730365378853814,-0.07063262907734436
145,8.005890700005693,-0.020667354785411148,-0.028077734556100607,0.006022310331828818,0.025927225775307743,0.026612409385981806,-0.00500141191409489,0.0608966978975894,0.1106419311202175,-0.0316026231762073,0.014120530119335195,0.15636317418245152,-0.07070285116013265
146,8.010152400005609,-0.0205549538173543,-0.02796191535470622,0.006000443260775469,0.0261900288781808,0.027091106770059954,-0.00513838435970024,0.060955197614352814,0.11131433150628872,-0.03190773715343849,0.012998274029731137,0.15539673218671535,-0.07076653252120357
147,8.014314800006105,-0.02044141873050327,-0.02784402508540144,0.005977982534550281,0.026453073873420788,0.027572695494569928,-0.005276673475928885,0.06100883136519835,0.11198250713787486,-0.03221311166599554,0.011864364331651694,0.15440422644486737,-0.07082363561113963
148,8.018386399999144,-0.020326748526747436,-0.027724051315983857,0.005954922471404303,0.026716339663759074,0.028057157093986988,-0.00541628032537386,0.06105754907351124,0.11264634537867967,-0.032518718259975,0.010718891141433897,0.15338556076129267,-0.07087412449773921
149,8.021962700004224,-0.020210942299442994,-0.02760198169494809,0.005931257385269914,0.026979804936764756,0.02854447261604736,-0.0055572058475613795,0.06110130106001034,0.11330573318850022,-0.03282452832989276,0.009561948531394174,0.1523406440251812,-0.07091796474836501
150,8.025171700006467,-0.020093999234337332,-0.027477803953589054,0.00590698158629306,0.02724344816659614,0.029034622620051454,-0.005699450858310784,0.06114003805962363,0.11396055714504584,-0.033130513124801995,0.008393634448013106,0.1512693902489415,-0.0709551233421276
151,8.029214099995443,-0.019975918610485702,-0.027351505908112334,0.005882089381368212,0.02750724761582256,0.029527587175264453,-0.005843016049119716,0.06117371123803435,0.11461070346631613,-0.033436643754354095,0.0072140506745906425,0.1501717185299286,-0.07098556864298106
152,8.032644899998559,-0.01985669980115989,-0.02722307546175124,0.005856575074675909,0.027771181337318606,0.03002334585941258,-0.005987901986576349,0.06120227220823431,0.11525605803208974,-0.03374289119468451,0.00602330278290354,0.1490475529155735,-0.07100927033607049
153,8.036133600005996,-0.019736342274748537,-0.027092500606890165,0.00583043296822278,0.028035227176228725,0.030521877757269066,-0.006134109111795346,0.061225673046652995,0.1158965064051389,-0.034049226293924525,0.004821500149009881,0.14789682252227132,-0.07102619938998996
154,8.041416000007303,-0.019614845595648862,-0.026959769427193827,0.005803657362383956,0.028299362772000604,0.031023161459333436,-0.006281637739877638,0.06124386630984725,0.11653193385374382,-0.03435561977776156,0.0036087561370194724,0.14671946181083304,-0.07103632810953356
155,8.04479430000356,-0.019492209425149447,-0.026824870099742024,0.005776242556447755,0.028563565560493755,0.0315271750606117,-0.0064304880593943434,0.061256805052215695,0.11716222537528345,-0.03466204225540599,0.002385188325989041,0.14551541081917194,-0.07103963023417754
156,8.048303200004739,-0.019368433522303764,-0.026687790897169408,0.005748182849162544,0.028827812776165702,0.03203389615949915,-0.006580660131898026,0.06126444284464578,0.11778726572075728,-0.034968464226001035,0.0011509187372332713,0.14428461525354178,-0.07103608098947928
157,8.053946600004565,-0.0192435177447941,-0.026548520189809865,0.00571947253928564,0.029092081454341445,0.032543301856772094,-0.00673215389146191,0.0612667337941892,0.11840693941916315,-0.03527485608503299,-9.39259334665211e-05,0.1430270263376679,-0.07102565713844658
158,8.058055899993633,-0.01911746204978551,-0.026407046447844994,0.005690105926134146,0.029356348433569372,0.033055368754680965,-0.006884969144246437,0.06126363256471216,0.11902113080071754,-0.03558118813118426,-0.0013492140836496899,0.14174260060809046,-0.07100833710446205
159,8.06235999999626,-0.01899026649476942,-0.02626335824345631,0.005660077310137593,0.029620590358068872,0.033570072956142366,-0.007039105568097604,0.061255094398574024,0.11962972401946786,-0.03588743057380405,-0.0026148090636263638,0.14043129976163565,-0.07098410105769518
160,8.06556640000781,-0.01886193123839645,-0.026117444252980695,0.0056293809933922415,0.029884783680273266,0.034087390064027244,-0.007194562712177964,0.0612410751384901,0.1202326030751969,-0.03619355354050686,-0.0038905692899017155,0.13909309058492617,-0.07095293096516529
161,8.070260399996187,-0.018732456541298098,-0.025969293259068736,0.005598011280216906,0.030148904663466026,0.03460729518054191,-0.007351339996630516,0.06122153124823178,0.12082965183542702,-0.03649952708507503,-0.005176348493506867,0.13772794485875794,-0.07091481062853851
162,8.074968400003854,-0.018601842766896817,-0.025818894152845516,0.005565962477710155,0.03041292938450228,0.03512976290670604,-0.007509436712277882,0.06119641983234702,0.12142075405649964,-0.036805321195383316,-0.00647199572051769,0.13633583920072592,-0.0708697256975923
163,8.079244199994719,-0.018470090382204207,-0.025666235936073464,0.005533228896308732,0.03067683373661515,0.03565476734191553,-0.007668852020354558,0.06116569865685603,0.12200579340422191,-0.03711090580141762,-0.007777355202035354,0.13491675524236724,-0.07081766371082841
164,8.083455400003004,-0.0183371999586069,-0.02551130772331691,0.005499804850347066,0.030940593432315814,0.03618228208359862,-0.007829584952275266,0.0611293261700934,0.12258465347647424,-0.03741625078354988,-0.009092266548675386,0.13347067996556944,-0.07075861402518623
165,8.087699199997587,-0.018203172172639726,-0.025354098744107902,0.0054656846586176875,0.031204184006379622,0.03671228022697379,-0.007991634409438595,0.06108726152172595,0.12315721782675915,-0.03772132597995048,-0.010416565053362178,0.13199760581575407,-0.0706925676038557
166,8.09189250000054,-0.018068007806745834,-0.02519459834511285,0.005430862644932436,0.031467580818910226,0.037244734364909014,-0.008154999163059295,0.06103946458098272,0.12372336998778526,-0.03802610119303264,-0.011750081739762427,0.13049753074989756,-0.07061951682725956
167,8.095560999994632,-0.01793170775002343,-0.02503279599229956,0.005395333138684325,0.03173075905848298,0.03777961658788313,-0.008319677854027511,0.06098589595525501,0.12428299349543033,-0.03833054619523418,-0.013092643384334565,0.128970458378163,-0.07053945528905599
168,8.099824899996747,-0.017794272998958784,-0.024868681273104203,0.005359090475409957,0.031993693745369506,0.038316898484051815,-0.00848566899279096,0.060926517008136144,0.12483597191354713,-0.03863463073370213,-0.014444072726771937,0.12741639817936395,-0.07045237756231414
169,8.104304799999227,-0.017655704658145137,-0.024702243898597792,0.005322128997352409,0.03225635973483673,0.03885655113942292,-0.008652970959254576,0.060861289876206044,0.12538218885978522,-0.03893832453405728,-0.01580418870192433,0.12583536571625625,-0.07035827894830037
170,8.108764300006442,-0.01751600394098726,-0.024533473705651634,0.0052844430540245155,0.03251873172051625,0.039398545138145245,-0.00882158200269516,0.060790177485070276,0.1259215280322541,-0.03924159730291163,-0.017172806672851215,0.12422738288028148,-0.07025715515892572
171,8.112491499996395,-0.01737517217039129,-0.024362360659101308,0.005246027002772487,0.03278078423784173,0.039942850562913884,-0.008991500241682744,0.06071314356413412,0.12645387323745633,-0.039544418728893506,-0.01854973848512928,0.12259247811851216,-0.07014900212236307
172,8.115890100001707,-0.017233210779439633,-0.024188894853908627,0.005206875209339872,0.03304249166754572,0.04048943699549995,-0.00916272366400409,0.060630152662173094,0.12697910841890853,-0.03984675848348808,-0.019934792168490683,0.12093068653454346,-0.07003381600454146
173,8.120777000003727,-0.017090121312050642,-0.024013066517321047,0.0051669820484318355,0.03330382823923137,0.04103827351740285,-0.0093352501265913,0.060541170164680955,0.12749711768594485,-0.04014858622224793,-0.02132777160788742,0.11924204997089002,-0.0699115932441584
174,8.125011500000255,-0.016945905423622697,-0.023834866011028,0.005126341904279736,0.03356476803501893,0.04158932871062848,-0.009509077355455753,0.060446162312277875,0.12800778534304877,-0.04044987158593559,-0.022728476149460334,0.11752661730148807,-0.06978233052594106
175,8.129121499994653,-0.016800564881662428,-0.023654283833313593,0.005084949171205976,0.033825284993276236,0.04214257065859455,-0.009684202945626582,0.06034509622145766,0.12851099592117995,-0.04075058420150346,-0.02413670021593982,0.1157844449057263,-0.06964602476831654
176,8.133416700002272,-0.016654101566396618,-0.023471310621205124,0.005042798254189109,0.03408535291244422,0.04269796694717902,-0.00986062436109306,0.06023793990631379,0.1290066342111954,-0.04105069368312997,-0.025552233155789094,0.1140155968524793,-0.06950267323009733
177,8.137488399996073,-0.016506517471367423,-0.02328593715261674,0.004999883569429188,0.034344945454954805,0.04325548466591374,-0.010038338934752014,0.060124662300588064,0.12949458529676394,-0.041350169634119846,-0.026974859210843916,0.11222014481993071,-0.06935227379292686
178,8.141539100004593,-0.01635781470401047,-0.023098154348487655,0.0049561995449133225,0.034604036151246624,0.04381509040931684,-0.010217343868366608,0.06000523327967578,0.12997473458709569,-0.04164898165037689,-0.02840435758092939,0.11039816807356323,-0.06919482526926188
179,8.145636700006435,-0.01620799548621544,-0.02290795327491432,0.004911740620981385,0.03486259840387277,0.04437675027836872,-0.01039763623254371,0.05987962368211695,0.13044696784966667,-0.04194709932496114,-0.029840502445775057,0.10854975332490978,-0.069030327560548
180,8.149789300005068,-0.016057062154868726,-0.0227153251452759,0.0048665012508917645,0.03512060549170188,0.044940429882126764,-0.010579212966731994,0.059747805331412454,0.13091117124172977,-0.04224449225292619,-0.03128306295102338,0.10667499455934384,-0.06885878170163057
181,8.155529600000591,-0.01590501716237778,-0.022520261322352516,0.004820475901387088,0.03537803057421412,0.04550609433947313,-0.010762070879241038,0.059609751057635905,0.13136723134155373,-0.042541130036259464,-0.03273180327890565,0.10477399306889669,-0.06868018989592373
182,8.160362900001928,-0.0157518630771767,-0.022322753320435648,0.004773659053259808,0.03563484669588869,0.046073708280998965,-0.01094620664728204,0.05946543471864013,0.1318150351802172,-0.04283698228902297,-0.03418648268917414,0.10284685744060401,-0.06849455552091377
183,8.164435400001821,-0.015597602584212738,-0.02212279280743011,0.004726045201917576,0.035891026790682776,0.046643235851026525,-0.01113161681703127,0.05931483122131593,0.1322544702727472,-0.04313201864234102,-0.03564685556376238,0.1008937033999585,-0.06830188306186516
184,8.168815800003358,-0.015442238485413243,-0.021920371606947032,0.004677628857948281,0.036146543686602424,0.04721464070976197,-0.011318297803713807,0.05915791654241325,0.13268542464856267,-0.04342620874896909,-0.03711267161834318,0.09891465364382548,-0.06810217796466876
185,8.175446399996872,-0.01528577370013273,-0.02171548170038724,0.004628404547684695,0.03640137011036112,0.047787886035580096,-0.011506245891706412,0.058994667747974905,0.13310778688117156,-0.043719522287012084,-0.03858367617858705,0.09690983778590859,-0.0678954463263446
186,8.179519800003618,-0.015128211265579651,-0.021508115229014534,0.004578366813768636,0.036655478692118326,0.04836293452743338,-0.011695457234653341,0.05882506301177451,0.13352144611814387,-0.044011928961823224,-0.04005961036524291,0.09487939248121037,-0.06768169441809861
187,8.183520299993688,-0.014969554337222569,-0.0212982644960183,0.004527510215714606,0.03690884197029711,0.04893974840739524,-0.011885927855585595,0.05864908163315354,0.13392629211188248,-0.04430339850560784,-0.04154021114336701,0.09282346138883954,-0.06746092820993481
188,8.18760900000052,-0.014809806189175377,-0.02108592196856483,0.004475829330472924,0.03716143239647657,0.04951828942333454,-0.012077653647033318,0.05846670405503461,0.13432221524927532,-0.04459390067522116,-0.043025211093328436,0.09074219504128288,-0.06723315312075352
189,8.191636600007769,-0.014648970214561265,-0.020871080279836866,0.0044233187529924,0.03741322234036483,0.05009851885171467,-0.01227063037112605,0.058277911883733984,0.13470910658133842,-0.04488340524961627,-0.04451433801800388,0.08863575093625144,-0.06699837408844092
190,8.19509900000412,-0.014487049925855039,-0.02065373223106078,0.0043699730967826,0.03766418409486242,0.050680397500523756,-0.012464853659683106,0.058082687910363515,0.13508685785366045,-0.04517188202824654,-0.04600731466184999,0.0865042936621804,-0.06675659586974865
191,8.19975980000163,-0.014324048955203401,-0.020433870793520832,0.004315786994475742,0.03791428988121989,0.051263885712336386,-0.01266031901430005,0.05788101613306668,0.13545536153712842,-0.04545930083110058,-0.04750385856563606,0.0843479949785925,-0.06650782332820467
192,8.203366700006882,-0.014159971054722782,-0.020211489110559942,0.0042607550983882105,0.03816351185429301,0.051848943367508886,-0.012857021806439377,0.0576728817796737,0.13581451085906548,-0.04574563149958842,-0.04900368197731483,0.08216703385880529,-0.06625206139901511
193,8.2086782999977,-0.013994820096774285,-0.01998658049956638,0.004204872081081676,0.038411822107895816,0.05243552988750967,-0.013054957277524622,0.05745827133070647,0.13616419983432507,-0.0460308438962737,-0.05050649194581843,0.07996159643640068,-0.06598931454994121
194,8.214162999996915,-0.01382860007421533,-0.01975913845394581,0.004148132635923797,0.038659192680254285,0.05302360423838275,-0.013254120539028745,0.0572371725412245,0.1365043232959669,-0.046314907901108926,-0.052011990724026465,0.07773187600012854,-0.06571958578691635
195,8.222298599997885,-0.013661315100627562,-0.019529156645078097,0.0040905314776485706,0.038905595559547854,0.05361312493434273,-0.013454506572535755,0.05700957446035357,0.13683477692630716,-0.0465977934025893,-0.05351987624456071,0.07547807296115075,-0.06544287563405213
196,8.229552899996634,-0.013492969410520684,-0.01929662892425834,0.00403206334291651,0.039151002689531526,0.05420405004150617,-0.01365611022975278,0.05677546744902706,0.13715545728731193,-0.04687947028518873,-0.05502984257059146,0.07320039465276003,-0.06515918168458308
197,8.235803600007785,-0.013323567359511861,-0.019061549324621493,0.00397272299087489,0.03939538597523047,0.054796337181748776,-0.01385892623246331,0.056534843195625586,0.13746626184991956,-0.04715990841663976,-0.05654158023410102,0.07089905531997495,-0.06486849894670717
198,8.239673100004438,-0.013153113424480433,-0.01882391206305012,0.003912505203718323,0.03963871728869704,0.05538994353668974,-0.014062949172429525,0.056287694730800204,0.13776708902434434,-0.04743907763835302,-0.05805477631382853,0.06857427626011645,-0.06457082066743461
199,8.2447669999965,-0.01298161220369765,-0.01858371154206464,0.003851404787249852,0.03988096847483325,0.05598482585181034,-0.014268173511262897,0.056034016442439626,0.13805783819061163,-0.04771694775980438,-0.059569114481051434,0.066226285774129,-0.06426613912377785
200,8.25010370000382,-0.012809068416931161,-0.018340942351695554,0.003789416571442642,0.04012211135727691,0.0565809404407017,-0.014474593580278092,0.055773804090098494,0.13833840972844155,-0.04799348855577985,-0.06108427520815943,0.0638553191879536,-0.06395444617073211
201,8.254505300006713,-0.012635486905523964,-0.018095599271337054,0.0037265354110023324,0.04036211774434857,0.0571782431894412,-0.014682203580339804,0.05550705481816526,0.13860870504796852,-0.04826866976548998,-0.06259993603344859,0.06146161898761859,-0.06363573363951867
202,8.25870930000383,-0.012460872632447594,-0.017847677271581482,0.0036627561859300492,0.040600959435051265,0.05777668956110524,-0.01489099758170902,0.055233767168006126,0.13886862662079033,-0.04854246109325038,-0.06411577160643238,0.059045434776352164,-0.06330999374773408
203,8.263272099997266,-0.012285230682329317,-0.017597171516034016,0.003598073802086084,0.040838608225122204,0.05837623460041349,-0.015100969523895726,0.05495394109074205,0.1391180780103177,-0.04881483221113441,-0.06563145345036855,0.05660702329062093,-0.06297721956623845
204,8.266585100005614,-0.01210856626145311,-0.01734407736310706,0.003532483191754179,0.04107503591314275,0.0589768329385035,-0.01531211321552805,0.054667577961441324,0.13935696390296173,-0.04908575276368139,-0.06714664962753475,0.05414664854585738,-0.06263740543767626
205,8.270862399993348,-0.011930884697734146,-0.01708839036779375,0.0034659793142063316,0.041310214306712556,0.05957843879784399,-0.015524422334245589,0.05437468059478415,0.1395851901397406,-0.04935519237415982,-0.06866102441466677,0.051664581874588854,-0.06229054728476854
206,8.274218999998993,-0.011752191440666505,-0.01683010628341994,0.0033985571562680024,0.04154411522869465,0.060181005997282114,-0.015737890426622585,0.05407525326205516,0.13980266374779599,-0.049623120651935165,-0.07017423816254716,0.04916110189931843,-0.061936642854171595
207,8.278894799994305,-0.011572492061243795,-0.016569221063374186,0.003330211732883581,0.041776710523536195,0.06078448795722865,-0.015952510908124808,0.053769301708019315,0.14000929297176573,-0.049889507200836784,-0.07168594744993684,0.046636494402453134,-0.06157569194048146
208,8.283860499999719,-0.011391792251852327,-0.016305730862814994,0.003260938087681966,0.04200797206365914,0.061388837704975885,-0.016168277063104915,0.05345683316658647,0.14020498730417824,-0.05015432162845817,-0.07319580541046534,0.04409105218923121,-0.06120769656947338
209,8.28745259999414,-0.011210097826136604,-0.016039632040354912,0.0031907312935420713,0.042237871755916104,0.061994007880145044,-0.016385182044839564,0.05313785637486724,0.14038965751564264,-0.05041753355610463,-0.07470346205999309,0.04152507498471814,-0.06083266111089066
210,8.292623999994248,-0.01102741471883681,-0.01577092115972081,0.003119586453158086,0.042466381548102325,0.0625999507402646,-0.01660321887561059,0.0528123815860135,0.14056321568435454,-0.05067911262906654,-0.07620856438266475,0.03893886930344853,-0.060450592304832754
211,8.296084500005236,-0.010843748985598117,-0.015499594991389832,0.00304749869960428,0.04269347343552228,0.06320661816647224,-0.01682238044683074,0.05248042058253189,0.14072557522516163,-0.05093902852679468,-0.07771075633072343,0.03633274847738827,-0.060061499256325084
212,8.300115499994718,-0.010659106802751523,-0.01522565051420049,0.0029744631968991794,0.04291911946761649,0.06381396166934394,-0.017042659519212636,0.0521419866891259,0.1408766509193107,-0.051197250973126635,-0.07920967937629396,0.03370703258033924,-0.059665393462358655
213,8.304533999995328,-0.010473494467065993,-0.014949084916938332,0.002900475140568915,0.04314329175463895,0.06442193239485253,-0.017264048722982726,0.05179709478124927,0.14101635894286108,-0.05145374974669538,-0.08070497382966639,0.031062047846396944,-0.059262288761723236
214,8.310310800006846,-0.010286918395471696,-0.014669895599895632,0.002825529758209551,0.043365962474357686,0.06503048113044187,-0.017486540558140043,0.051445761286575485,0.14114461689141475,-0.051708494690722924,-0.08219628009539315,0.028398125985687205,-0.05885220114047243
215,8.31435159999819,-0.010099385124754336,-0.014388080176404654,0.0027496223100482017,0.04358710387874489,0.0656395583111988,-0.01771012739475464,0.051088004182715106,0.14126134380262687,-0.051961455721750684,-0.08368323886202939,0.025715604110537225,-0.05843514850139449
216,8.319150199997239,-0.009910901311220676,-0.014103636474344101,0.002672748089502786,0.043806688300657794,0.06624911402612152,-0.017934801473301672,0.05072384299704842,0.14136646018029894,-0.05221260283744438,-0.08516549041291965,0.023014825323957853,-0.05801115049398731
217,8.32295570000133,-0.009721473730335236,-0.013816562537618305,0.0025949024237402613,0.04402468816052732,0.06685909802449931,-0.018160554905027153,0.05035329881038844,0.14145988802196605,-0.052461906123857656,-0.08664267384747838,0.02029613935536645,-0.05758022848336979
218,8.327334200002952,-0.009531109276328116,-0.013526856627608634,0.0025160806742332235,0.04424107597307059,0.06746945972241895,-0.0183873796723447,0.04997639426353144,0.14154155084847428,-0.05270933576296877,-0.08811442689023513,0.01755990266332709,-0.05714240561339937
219,8.331128100006026,-0.009339814961773784,-0.013234517224596554,0.0024362782373147183,0.04445582435403607,0.06808014820939963,-0.018615267629266317,0.049593153562567265,0.14161137373245428,-0.05295486204048871,-0.08958038663618197,0.014806478069674741,-0.056697706784717514
220,8.335412800006452,-0.00914759791714071,-0.012939543029157804,0.0023554905447311235,0.0446689060269619,0.06869111225514493,-0.018844210501866493,0.049203602478999915,0.14166928332474235,-0.05319845535320851,-0.09104019074188152,0.012036234161512808,-0.056246158480069156
221,8.339974600006826,-0.008954465390311852,-0.012641932963527202,0.0022737130641929584,0.04488029382992208,0.06930230031640572,-0.019074199888776365,0.04880776834478241,0.14171520787769515,-0.05344008621530042,-0.09249347836119497,0.009249544587237037,-0.055787788488641875
222,8.346334999994724,-0.008760424746076096,-0.012341686172933618,0.002190941299923502,0.04508996072224194,0.06991366054393325,-0.01930522726170218,0.04840568004436504,0.14174907726553773,-0.05367972526328715,-0.0939398902637961,0.006446787836528706,-0.055322625667288995
223,8.349827099998947,-0.008565483465590804,-0.012038802026904799,0.00210717079320513,0.04529787979117576,0.07052514078951758,-0.019537283965962323,0.04799736800870781,0.14177082300578028,-0.05391734326028314,-0.09537906792423324,0.003628347644050595,-0.05485069992043547
224,8.353332700004103,-0.008369649145815646,-0.01173328012054162,0.0020223971229233,0.04550402425857059,0.07113668861312544,-0.019770361221042376,0.0475828642151872,0.1417803782830488,-0.054152911100790506,-0.09681065233361556,0.0007946134815594368,-0.054372042368276245
225,8.357938999994076,-0.008172929498917667,-0.011425120275761336,0.0019366159061081011,0.04570836748754303,0.07174825129014425,-0.020004450121173512,0.04716220219185993,0.1417776779747471,-0.05438639981639129,-0.09823428367794776,-0.002054019506045694,-0.05388668531918092
226,8.362271300007706,-0.007975332351647513,-0.011114322542509335,0.0018498227984732481,0.045910882989179856,0.07235977581874135,-0.020239541635936657,0.04673541702014467,0.14176265867433593,-0.05461778058030533,-0.09964960243078033,-0.004917151642901726,-0.0533946617527834
227,8.367563599997084,-0.007776865644686701,-0.010800887199938908,0.0017620134949524193,0.046111544429237934,0.07297120892730882,-0.020475626610880215,0.046302545329659744,0.14173525870714154,-0.05484702470862327,-0.10105625095036713,-0.0077943802262623015,-0.05289600458181886
228,8.371064599996316,-0.007577537431966038,-0.010484814757558775,0.0016731837302329225,0.04631032563480031,0.07358249708195913,-0.020712695768134854,0.045863625287126446,0.14169541814065936,-0.05507410365849643,-0.10245387402967512,-0.010685300288843364,-0.05239074609801346
229,8.375046200002544,-0.007377355879955474,-0.01016610595634819,0.0015833292792867286,0.0465072006008804,0.07419358649405883,-0.020950739707015626,0.045418696586461964,0.1416430787937861,-0.05529898902458961,-0.10384211826358208,-0.013589504470138108,-0.051878917677966235
230,8.37934430000314,-0.007176329266925551,-0.00984476176983948,0.0014924459578989433,0.0467021434969926,0.07480442312780383,-0.021189748904606148,0.04496780044314174,0.14157818424823346,-0.05552165253473366,-0.10522063111967031,-0.016506582483453602,-0.0513605497378357
231,8.383388100002776,-0.006974465982180564,-0.009520783405167798,0.0014005296231938014,0.04689512867370786,0.07541495270785159,-0.021429713716323216,0.044510979592308465,0.14150067986235804,-0.0557420660459874,-0.10658906018878102,-0.019436120512503187,-0.05083567197748418
232,8.388454800006002,-0.006771774525263467,-0.009194172304087816,0.0013075761741582672,0.047086130669207964,0.07602512072701567,-0.021670624376467013,0.04404827828959975,0.14141051278778052,-0.055960201542396365,-0.10794705293187597,-0.02237770080209294,-0.05030431367622304
233,8.39200969999365,-0.006568263505132485,-0.008864930143957101,0.0012135815521632824,0.047275124215848244,0.0766348724540413,-0.021912470998766392,0.0435797423114409,0.14130763198674665,-0.05617603113360604,-0.1092942576029039,-0.025330902290070616,-0.04976650350195843
234,8.396081300001242,-0.006363941639309404,-0.008533058838685737,0.0011185417414826626,0.0474620842467144,0.0772441529414497,-0.02215524357691712,0.0431054189479112,0.14119198824329468,-0.05638952705097414,-0.11063032528221621,-0.028295302311339973,-0.04922226872011867
235,8.400023399997735,-0.006158817752999624,-0.008198560539652018,0.0010224527698097022,0.04764698590212367,0.07785290703341002,-0.022398931985093615,0.042625356985494835,0.14106353416591622,-0.05660066163935948,-0.11195491155960254,-0.03127047806840366,-0.048671634470126166
236,8.407460200003698,-0.00595290077818436,-0.007861437636584168,0.0009253107087716555,0.04782980453603283,0.07846107937360658,-0.022643525978416363,0.04213960668542796,0.1409222241860376,-0.056809407346992455,-0.11326767662752758,-0.034256006540565896,-0.0481146238180794
237,8.412229599998682,-0.005746199752685418,-0.007521692758408164,0.0008271116744423096,0.04801051572235259,0.07906861441309768,-0.02288901519337627,0.041648219765645283,0.14076801456146393,-0.05701573671771841,-0.11456828379296273,-0.03725146268667235,-0.04755125861155361
238,8.415833899998688,-0.005538723819202918,-0.007179328774061657,0.000727851827852805,0.048189095261199834,0.07967545641821262,-0.023135389148235153,0.041151249391965274,0.1406008633903652,-0.057219622388242346,-0.11585639733563036,-0.04025641727936814,-0.04698156060414232
239,8.419316500003333,-0.005330482224326138,-0.006834348793273671,0.0006275273755007534,0.04836551918513597,0.08028154947853115,-0.023382637243426336,0.04064875017851322,0.14042073063340368,-0.05742103709007343,-0.11713168121022467,-0.043270435807348136,-0.04640555217865075
240,8.423654400001396,-0.0051214843175174185,-0.006486756167309686,0.0005261345698576022,0.04853976376542285,0.08088683751497135,-0.023630748761971913,0.04014077819010214,0.14022757813719003,-0.05761995365300857,-0.11839380003240065,-0.0462930794821388,-0.04582325612123104
241,8.428041599996504,-0.004911739550069038,-0.006136554489681565,0.0004236697098741527,0.04871180551828162,0.0814912642879714,-0.023879712869913385,0.039627390934149874,0.14002136964772546,-0.057816345005128444,-0.11964242241342012,-0.049323908444877385,-0.045234694459176536
242,8.432968099994469,-0.004701257474033124,-0.005783747596822055,0.00032012914148420976,0.04888162121107894,0.08209477340569353,-0.024129518616728903,0.039108647334292715,0.13980207080619364,-0.05801018416625494,-0.12087722451455067,-0.052362485265729966,-0.044639887205938575
243,8.437348399995244,-0.004490047741125158,-0.00542833956872394,0.0002155092581065006,0.049049187868358185,0.0826973083321694,-0.024380154935707457,0.038584607691639426,0.13956964913221404,-0.0582014442371207,-0.12209789131873745,-0.055408376230211095,-0.04403885198160659
244,8.442035600004601,-0.004278120101601862,-0.005070334729544272,0.00010980650114509624,0.049214482777691415,0.08329881239535958,-0.024631610644272686,0.03805533364741438,0.139324074008537,-0.05839009838955256,-0.12330411525003387,-0.05846114991224266,-0.043431604660489384
245,8.445964200000162,-0.004065484403114217,-0.004709737648173999,3.0173604885367656e-06,0.04937748349538833,0.08389922879516695,-0.024883874444272383,0.037520888156121514,0.13906531667660707,-0.058576119861227585,-0.12449559382643394,-0.06152037474142187,-0.042818160466190414
246,8.450212600000668,-0.0038521505895360965,-0.004346553138773063,-0.0001048616249922445,0.049538167852116684,0.08449850061145787,-0.02513693492225707,0.03698133546843597,0.13879335024224473,-0.05875948195530354,-0.12567202790719598,-0.06458561711271812,-0.042198534964587975
247,8.454054100002395,-0.003638128699768805,-0.003980786261270833,-0.00021383386694719909,0.049696513958463695,0.08509657081212461,-0.025390780549766307,0.03643674111948804,0.13850814968751698,-0.05894015804374117,-0.1268331204781433,-0.06765644000169224,-0.0415727448232095
248,8.457549700004165,-0.0034234288665217307,-0.003612442321831651,-0.0003239027270517092,0.04985250021045537,0.0856933822612089,-0.025645399683635935,0.0358871719222338,0.1382096918883653,-0.0591181215734856,-0.12797857518475111,-0.07073240141043396,-0.04094080843308119
249,8.461170900001889,-0.003208061315069269,-0.0032415268732851835,-0.00043507151651251595,0.05000610529506071,0.08628887772711645,-0.02590078056633771,0.03533269596839378,0.13789795563988277,-0.05929334607515323,-0.12910809481760324,-0.07381305291454088,-0.040302746358408165
250,8.465823200007435,-0.0029920363619839944,-0.0028680457155211003,-0.0005473434955751957,0.05015730819571915,0.08688299989095857,-0.02615691132636148,0.034773382634889265,0.13757292168647706,-0.05946580517309239,-0.13022138129103494,-0.07689793964875288,-0.03965858139163733
251,8.470718900003703,-0.0027753644138458974,-0.0024920048958474686,-0.0006607218730333849,0.050306088197900285,0.0874756913550269,-0.026413779978641617,0.03420930258496522,0.13723457274727138,-0.05963547259454529,-0.13131813817546595,-0.07998660253215749,-0.03900833815915289
252,8.474852300001658,-0.002558055965927595,-0.00211341070931232,-0.0007752098057399352,0.05045242489464101,0.08806689465135414,-0.026671374425018227,0.033640527752780654,0.1368828935270711,-0.05980232217630708,-0.13239807454951763,-0.0830785815591226,-0.038352042635038
253,8.479168799996842,-0.0023401216008558,-0.0017322696989881925,-0.000890810398120117,0.05059629819197228,0.08865655225028339,-0.02692968245472103,0.033067131311300124,0.13651787071337448,-0.05996632786969309,-0.13346090763229163,-0.08617341783615382,-0.037689722042018446
254,8.484491099996376,-0.0021215719872497156,-0.0013485886562197725,-0.0010075267016869491,0.05073768831417928,0.0892446065690031,-0.02718869174487343,0.032489187634175964,0.1361394929697678,-0.060127463746343396,-0.13450636292705123,-0.08927065338813506,-0.03702140525885782
255,8.489179099997273,-0.0019024178783371263,-0.0009623746208348075,-0.0011253617145587508,0.05087657580889935,0.08983099998005943,-0.02744838986102646,0.031906772262400275,0.13574775093460756,-0.060285704006704556,-0.13553417287747882,-0.09236982984090335,-0.03634712341983027
256,8.49265309999464,-0.0016826701105488128,-0.0005736348813183125,-0.0012443183809790774,0.051012941552094446,0.09041567481987985,-0.02770876425773601,0.03131996187777935,0.13534263722578072,-0.0604410229910057,-0.13654407570622046,-0.09547048745660161,-0.03566691033065536
257,8.495875900000101,-0.0014623396020917484,-0.0001823769749499531,-0.0013643995908392522,0.051146766752920264,0.09099857339732652,-0.02796980227919149,0.030728834279605304,0.13492414644770884,-0.06059339519132845,-0.13753581487512842,-0.09857216483103377,-0.03498080260513485
258,8.500210199999856,-0.0012414373515015076,0.00021139131209553814,-0.0014856081792037255,0.05127803295849744,0.09157963800228035,-0.028231491159897173,0.03013346836278688,0.13449227519871906,-0.06074279526376176,-0.13850913855054334,-0.10167439858895111,-0.03428883967713575
259,8.503771999996388,-0.0010199744361743025,0.0006076619446850302,-0.0016079469258384839,0.051406722058592015,0.09215881091425797,-0.028493818025405692,0.02953394409913398,0.13404702208067704,-0.06088919804057521,-0.13946379879324947,-0.10477672273718444,-0.033591063811824605
260,8.50808010000037,-0.0007979620108790144,0.0010064266387009141,-0.0017314185547427376,0.051532816290225165,0.09273603441107886,-0.028756769893104425,0.02893034252247655,0.13358838771193823,-0.06103257854247075,-0.1403995513154013,-0.1078786684625033,-0.032887520104269506
261,8.512573600004544,-0.0005754113062494627,0.0014076768610525425,-0.0018560257336841135,0.051656298242225306,0.09331125077759408,-0.029020333673054684,0.028322745712046075,0.13311637473872473,-0.061172911990743956,-0.14131615665858258,-0.11097976518742733,-0.03217825644517516
262,8.51668939999945,-0.0003523336272571664,0.0018114038297254494,-0.001981771073737582,0.05177715085969446,0.09388440231445154,-0.029284496168882998,0.027711236767431584,0.13263098783896826,-0.061310173819240144,-0.14221338179655818,-0.11407954203034161,-0.03146332350712944
263,8.520505599997705,-0.00012874035166508235,0.0022175985138684065,-0.002108657128828338,0.05189535744834431,0.09445543134685785,-0.029549244078723457,0.027095899778134515,0.13213223372109087,-0.061444339686396995,-0.1430910003838482,-0.11717752816874395,-0.030742774748101432
264,8.524701400005142,9.535707153703858e-05,0.0026262516339182304,-0.0022366863952788594,0.05201090167869991,0.09502428023333312,-0.029814563996212882,0.02647681979638034,0.1316201211247143,-0.06157538548723087,-0.1439487921684242,-0.12027325268707623,-0.030016666131400232
265,8.533220299999812,0.00031994712371517895,0.0030373536617623637,-0.002365861311360372,0.05212376759020119,0.0955908913744789,-0.030080442411536568,0.025854082811739967,0.13109466082075338,-0.06170328736296354,-0.14478654388007534,-0.12336624604149206,-0.02928505519423249
266,8.53744290000759,0.000545018218191081,0.003450894820939322,-0.0024961842568489274,0.05223393959518776,0.09615520722173379,-0.030346865712506506,0.025227775716277625,0.13055586559948917,-0.06182802170497314,-0.14560405169365237,-0.12645604299237476,-0.028547999728205334
267,8.541704100003699,0.0007705587018591498,0.003866865086876808,-0.0026276575525861733,0.05234140248269973,0.0967171702860385,-0.03061382018564121,0.02459798625792235,0.1300037502453641,-0.06194956515303789,-0.14640112230559266,-0.12954218379701873,-0.027805557041254213
268,8.545021099998849,0.0009965568568192688,0.00428525418716691,-0.0027602834600447446,0.05244614142206025,0.097276723146374,-0.03088129201722879,0.0239648029963289,0.12943833151476605,-0.06206789459291985,-0.14717757077518637,-0.1326242117927203,-0.02705778439628107
269,8.548506299994187,0.001223000902024609,0.004706051601877872,-0.0028940641808982044,0.052548141966295564,0.09783380845823497,-0.031149267294385923,0.023328315274872228,0.1288596281316738,-0.06218298715839264,-0.14793321743393723,-0.13570166994831326,-0.026304740010147785
270,8.554050899998401,0.0014498789949439481,0.005129246563902394,-0.0030290018565955717,0.05264739005547596,0.09838836896213032,-0.031417732006138434,0.02268861320317068,0.12826766079519017,-0.06229482023744335,-0.14866788751298562,-0.13877410025457101,-0.025546483620096934
271,8.558094099993468,0.001677179233238302,0.00555482805934273,-0.0031650985679405838,0.05274387201998504,0.09894034749212169,-0.031686672044533765,0.02204578763229463,0.12766245218044642,-0.062403371479186655,-0.1493814134437457,-0.14184104592851182,-0.024783076598105885
272,8.562296599993715,0.0019048896564514463,0.00598278482793265,-0.0033023563346758207,0.0528375745836468,0.09948968698433173,-0.03195607320578119,0.021399930117442553,0.12704402692711933,-0.06250861880105321,-0.15007363601535795,-0.14490205253936503,-0.02401458233082573
273,8.56559460000426,0.0021329982477135256,0.0064131053634959405,-0.003440777115071805,0.05292848486667294,0.10003633048538357,-0.032225921191426324,0.020751132883164537,0.126412411630622,-0.06261054039898145,-0.15074440195265482,-0.14795666548778907,-0.02324106704810248
274,8.569286700003431,0.0023614929354570002,0.006845777914441167,-0.003580362805521257,0.053016590388489895,0.1005802211608331,-0.03249620160957923,0.02009948880693277,0.12576763485236733,-0.06270911476175345,-0.1513935597191648,-0.15100442563394226,-0.022462600574417395
275,8.572708000006969,0.002590361595144644,0.00728079048429292,-0.003721115240138791,0.05310187907054443,0.10112130230369691,-0.03276689997621261,0.019445091420571672,0.1251097271486745,-0.06280432068766924,-0.15202095662525267,-0.15404486619288854,-0.02167925657465202
276,8.576104899999336,0.0028195920510096935,0.007718130832260147,-0.0038630361903663683,0.05318433923914302,0.10165951734313407,-0.03303800171653379,0.018788034918775877,0.12443872110781513,-0.06289613730100285,-0.1526264380818464,-0.15707751183073138,-0.02089111231565554
277,8.579417400003877,0.003049172077808342,0.008157786473842295,-0.004006127364584829,0.053263959628330915,0.10219480985329357,-0.033309492166424814,0.0181284141669783,0.12375465138671732,-0.06298454406661973,-0.15320984841682672,-0.16010187971669926,-0.020098248007130816
278,8.583558500002255,0.003279089402584725,0.008599744681473967,-0.004150390407731771,0.05334072938279939,0.10272712356231274,-0.033581356573940575,0.017466324702825303,0.1230575547389356,-0.0630695208007467,-0.1537710334901551,-0.16311748298769713,-0.019300745558031757
279,8.587409300002037,0.0035093317064484935,0.009043992485208688,-0.004295826900926003,0.05341463806077755,0.10325640236140603,-0.03385358010084182,0.016801862721484578,0.12234747002146701,-0.06315104767486109,-0.15430984509263526,-0.16612383648388504,-0.018498687027434655
280,8.591674700001022,0.0037398866263647487,0.009490516673441975,-0.004442438361098648,0.05348567563681283,0.10378259031392216,-0.034126147824126804,0.01613512503917309,0.1216244381732414,-0.0632291052130967,-0.15482614489984436,-0.16912046196141675,-0.01769215375964703
281,8.596081399999093,0.0039707417569556005,0.009939303793673235,-0.004590226240630813,0.05355383250434814,0.10430563166424742,-0.034399044737541934,0.015466209044355207,0.12088850217696821,-0.06330367428867167,-0.15531980544245427,-0.17210688943562635,-0.016881226757172938
282,8.599996300006751,0.004201884652312335,0.010390340153305639,-0.004739191926997723,0.05361909947808142,0.10482547084653362,-0.0346722557530826,0.014795212652899877,0.1201397070260395,-0.06337473612451194,-0.15579070846590165,-0.1750826549047085,-0.01606598769224043
283,8.60424950000015,0.004433302827817328,0.010843611820483318,-0.0048893367424193345,0.05368146779615587,0.10534205249331591,-0.03494576570250922,0.014122234273429547,0.11937809970601396,-0.06344227229840535,-0.15623874311020608,-0.17804729736295904,-0.01524651964076675
284,8.608162799995625,0.004664983761975108,0.01129910462496558,-0.005040661943517554,0.053740929122220595,0.10585532144408095,-0.0352195593388925,0.013447372778179676,0.11860372918728611,-0.06350626474995688,-0.1566638053261135,-0.18100035685397478,-0.014422907395084865
285,8.61240070000349,0.004896914898252048,0.011756804159038022,-0.00519316872098018,0.05379747554736949,0.10636522275382153,-0.0354936213381895,0.012770727473384475,0.11781664642336503,-0.0635666957884406,-0.15706579817224628,-0.18394137363579485,-0.013595237707755548
286,8.616778800002066,0.00512908364692415,0.012216695778460542,-0.005346858199231714,0.053851099591946346,0.10687170170158988,-0.03576793630085663,0.012092398067572958,0.1170169043507457,-0.06362354810185819,-0.15744463199989936,-0.1868698878858988,-0.01276359947738485
287,8.62069340000744,0.005361477386932313,0.012678764603452247,-0.005501731436111223,0.053901794207210266,0.10737470379905116,-0.03604248875350386,0.011412484640360493,0.1162045578897326,-0.06367680476639392,-0.15780022405398292,-0.1897854395824277,-0.011928083647280228
288,8.624906099998043,0.005594083467744486,0.013142995519713247,-0.005657789422557419,0.053949552776871544,0.10787417479904392,-0.036317263150589287,0.010731087614187429,0.11537966394533573,-0.06372644925459892,-0.15813249774558388,-0.1926875686593272,-0.011088782771064122
289,8.629215499997372,0.0058268892112241805,0.013609373179483415,-0.005815033082301138,0.053994369118513255,0.10837006070414125,-0.03659224387614393,0.010048307729386115,0.11454228140675593,-0.06377246544109871,-0.15844138208461342,-0.19557581528382473,-0.010245790539753077
290,8.633334199999808,0.006059881913504891,0.014077882002638037,-0.005973463271565303,0.05403623748491206,0.10886230777520688,-0.03686741524551557,0.009364246020813968,0.11369247114588706,-0.06381483760669779,-0.1587268117560763,-0.19844972012532397,-0.009399201648071313
291,8.637586299999384,0.006293048846870003,0.014548506177820381,-0.006133080778772445,0.05407515256525822,0.10935086253994335,-0.03714276150712891,0.008679003792262522,0.1128302960144816,-0.06385355044293382,-0.15898872797841684,-0.20130882468490693,-0.00854911204730846
292,8.641599099995801,0.006526377261637734,0.015021229663611094,-0.0062938863242598475,0.054111109486255596,0.10983567180142367,-0.037418266844268744,0.007992682585685725,0.11195582083981037,-0.06388858905836356,-0.15922707958442112,-0.20415267171042895,-0.007695619312578846
293,8.645695600003819,0.0067598543880505345,0.015496036189734368,-0.006455880560002455,0.054144103813076244,0.11031668264660209,-0.03769391537689433,0.007305384146284262,0.11106911241824717,-0.06391993898628535,-0.1594418233124919,-0.20698080570279886,-0.006838822787245904
294,8.64977610000642,0.0069934674381682636,0.015972909258300763,-0.006619064069343668,0.0541741315501592,0.11079384245479035,-0.03796969116348915,0.006617210389221087,0.11017023950656088,-0.06394758619227095,-0.15963292256052833,-0.20979277315336758,-0.005978823310859969
295,8.653989800004638,0.007227203607764479,0.01645183214508649,-0.006783437366734209,0.05420118914187791,0.11126709890609335,-0.03824557820294032,0.0059282633754557685,0.1092592728134522,-0.063971517079541,-0.15980034481032984,-0.21258812214355574,-0.0051157228572044295
296,8.657547299997532,0.007461050078225373,0.01693278790084901,-0.00694900089747913,0.05422527347313055,0.11173639998981243,-0.03852156043643466,0.005238645300679165,0.10833628499429973,-0.06399171849337436,-0.15994405905228046,-0.2153664013572811,-0.004249624479290002
297,8.662290599997505,0.007694994018451152,0.017415759352678813,-0.007115755037493038,0.05424638186991202,0.11220169401283567,-0.038797621749376184,0.004548458493364499,0.10740135065121627,-0.06400817772600904,-0.16006403505567102,-0.21812715960415105,-0.003380632254994094
298,8.666750599993975,0.00792902258675991,0.017900729105387387,-0.007283700093063641,0.05426451209988744,0.11266292960804167,-0.039073745973324435,0.00385780540999681,0.1064545463319082,-0.06402088252058259,-0.16016024534561632,-0.2208699474755447,-0.002508850888562482
299,8.670834499993362,0.008163122932793957,0.01838767954293151,-0.007452836300623695,0.05427966237292296,0.11312005574268001,-0.03934991688794596,0.003166788616069571,0.10549595051544515,-0.06402982107259528,-0.16023266828819457,-0.2235943199994559,-0.0016343851394445337
300,8.674981599993771,0.008397282199428263,0.018876592829873508,-0.007623163826531392,0.05429183134149538,0.11357302172665228,-0.03962611822296529,0.0024755107546992673,0.10452564358821653,-0.0640349820289231,-0.16028128922803883,-0.2262998369047339,-0.000757339686428607
301,8.678283000001102,0.008631487524680329,0.019367450912876984,-0.007794682766859127,0.05430101810095214,0.11402177722068509,-0.03990233366010787,0.0017840745178082415,0.10354370782742167,-0.06403635448810897,-0.16030609863300235,-0.22898605964997168,0.00012218022452491586
302,8.682028099996387,0.008865726043620873,0.019860235522237587,-0.007967393147190655,0.05430722218967238,0.11446627224446869,-0.040178546835053584,0.0010925826307448716,0.10255022740265757,-0.0640339280049644,-0.16030708982606046,-0.23165254857453654,0.0010040680287017444
303,8.687552200004575,0.009099984890285087,0.020354928173448947,-0.00814129492242671,0.054310443589194235,0.11490645718484371,-0.04045474133941936,0.00040113784303283547,0.10154528838398644,-0.0640276925973444,-0.16028425943508848,-0.2342988638564979,0.0018882157200358917
304,8.691711899999063,0.009334251199584422,0.020851510168804075,-0.00831638797659926,0.054310682724296094,0.11534228280400934,-0.04073090072277115,-0.0002901570908888559,0.10052897873525966,-0.06401763875180685,-0.1602376099651945,-0.23692456915914495,0.0027745141037695455
305,8.69523399999889,0.009568512109218545,0.021349962599032102,-0.008492672122694488,0.05430794046295776,0.11577370024765245,-0.04100700849465534,-0.0009811994431075824,0.09950138829072756,-0.06400375742820778,-0.16016715135970316,-0.2395292334252531,0.003662852686433577
306,8.69986950000748,0.009802754761586794,0.02185026634496981,-0.008670147102484572,0.054302218116170434,0.11620066105295404,-0.0412830481266504,-0.001671886544963373,0.09846260873288457,-0.06398604006630976,-0.16007290064063145,-0.24211242958033677,0.004553119194009754
307,8.704007499996806,0.01003696630569849,0.022352402079267444,-0.008848812586368365,0.054293517437615575,0.11662311715652725,-0.0415590030544553,-0.002362115815389088,0.09741273358026575,-0.06396447859453391,-0.15995488143671996,-0.24467373337612647,0.005445199524830088
308,8.708688800004893,0.010271133899081625,0.022856350268128718,-0.009028668173221184,0.054281840623230396,0.11704102090231845,-0.04183485668001662,-0.003051784789565098,0.09635185817526913,-0.06393906543697472,-0.15981312434836484,-0.24721272392613017,0.006338978250738133
309,8.712509899996803,0.010505244709689424,0.02336209117308479,-0.00920971339025385,0.05426719031063953,0.11745432504944027,-0.04211059237367755,-0.0037407911504076597,0.09528007966733198,-0.06390979351782856,-0.1596476665680476,-0.24972898346097339,0.007234338824445103
310,8.715992099998402,0.010739285917804129,0.023869604852801846,-0.009391947692881012,0.05424956957844886,0.11786298277992753,-0.04238619347634315,-0.004429032753949121,0.09419749700286378,-0.06387665626661967,-0.15945854945214802,-0.2522220941420986,0.00813116299101383
311,8.719771500007482,0.010973244717937473,0.024378871164921972,-0.009575370464598866,0.05422898194545828,0.11826694770648341,-0.042661643301674435,-0.00511640763987882,0.0931042109359101,-0.06383964762770573,-0.1592458155215836,-0.254691633672705,0.009029329780618427
312,8.72392669999681,0.01120710832072767,0.024889869767937573,-0.009759981016872407,0.05420543136986453,0.11866617388032741,-0.042936925138335684,-0.0058028140310484155,0.09200032405594907,-0.06379876207419308,-0.15900950758108728,-0.2571371739181922,0.009928715026683974
313,8.729142399999546,0.011440863954833012,0.02540258012309995,-0.009945778589032533,0.05417892224847828,0.11906061579918127,-0.043212022252308524,-0.006488150336414974,0.09088594081045642,-0.06375399462159918,-0.15874967103233878,-0.2595582846103115,0.010829191944155249
314,8.733472099993378,0.011674498868822103,0.025916981496362606,-0.010132762348183267,0.054149459415901546,0.11945022841531164,-0.04348691788925711,-0.007172315170501216,0.08976116750074699,-0.06370534083677928,-0.15846635765297848,-0.2619545394376339,0.0117306321241459
315,8.737575399994967,0.011908000333060364,0.0264330529603592,-0.010320931389119256,0.05411704814357689,0.11983496714348009,-0.04376159527691924,-0.007855207388939385,0.08862611225199854,-0.06365279684300822,-0.15815962747273438,-0.26432551936107507,0.012632905915196493
316,8.741714000003412,0.012141355641592064,0.026950773396415446,-0.010510284734253627,0.05408169413865824,0.12021478786872719,-0.04403603762751534,-0.008536726124116463,0.0874808849804909,-0.063596359325618,-0.1578295470847959,-0.2666708106641155,0.013535881888084736
317,8.745733200004906,0.01237455211401708,0.02747012149659422,-0.010700821333556265,0.054043403542752534,0.12058964695403993,-0.044310228140188236,-0.0092167708061506,0.08632559738045016,-0.06353602554169664,-0.15747618649718,-0.26899000016672403,0.014439425905499513
318,8.749254599999404,0.012607577097362073,0.027991075765773595,-0.010892540064502718,0.05400218293060964,0.12095950124802224,-0.044584150003495825,-0.009895241171373708,0.08516036293257627,-0.06347179333375148,-0.1570996175365026,-0.2712826723588598,0.015343400625835961
319,8.756077199999709,0.012840417967945954,0.028513614523758123,-0.01108543973203398,0.05395803930879078,0.12132430809263604,-0.044857786397968676,-0.01057203726953755,0.08398529691561596,-0.06340366114368864,-0.1566999146803118,-0.27354841083857123,0.01624766596014851
320,8.76018219999969,0.013073062133239563,0.029037715907423656,-0.011279519068527451,0.05391098011429628,0.1216840253309716,-0.04513112049872332,-0.011247059479476705,0.08280051640248418,-0.06333162802253431,-0.1562771572557235,-0.2757868027984031,0.017152080281536836
321,8.76439240000036,0.0133054970337193,0.029563357872895657,-0.011474776733779278,0.053861013213098906,0.12203861131495505,-0.045404135478103735,-0.01192020853528184,0.08160614023313364,-0.06325569363398108,-0.15583143106389932,-0.2779974432168024,0.01805650156040683
322,8.771218199995928,0.013537710144714152,0.03009051819776051,-0.011671211314998094,0.053808146898545815,0.12238802491288478,-0.04567681450832519,-0.012591385555976711,0.08040228897451791,-0.06317585825431557,-0.15536282835599274,-0.2801799356383269,0.01896078774852298
323,8.775089999995544,0.013769688978245539,0.03061917448330885,-0.011868821326810167,0.05375238988963585,0.12273222551679352,-0.045949140764115125,-0.013260492071483932,0.07918908488673021,-0.06309212277265164,-0.15487144711354042,-0.28233389081162874,0.01986479651391977
324,8.779224800004158,0.01400142108485948,0.031149304156810383,-0.012067605211275926,0.0536937513291975,0.12307117304969263,-0.04622109742535902,-0.013927430046094058,0.07796665189471633,-0.06300448869314483,-0.15435739100874307,-0.28445892596836064,0.02076838485723705
325,8.783631300000707,0.014232894055450718,0.03168088447381971,-0.012267561337917928,0.05363224078196375,0.12340482797269016,-0.04649266767976036,-0.014592101904088703,0.07673511556063421,-0.06291295813853541,-0.15382076952586085,-0.2865546639720983,0.021671408833227924
326,8.787442400003783,0.014464095523078278,0.03221389252051256,-0.012468688003760338,0.05356786823252897,0.12373315129199666,-0.046763834725517074,-0.015254410554256876,0.07549460306290892,-0.06281753385476531,-0.1532616969230125,-0.28862073132417415,0.02257372317564587
327,8.791706799995154,0.014695013164771968,0.03274830521605203,-0.012670983433379983,0.05350064408321229,0.12405610456586262,-0.047034581774021325,-0.015914259406561753,0.07424524318579548,-0.06271821921775717,-0.1526802906770661,-0.29065675617250025,0.023475181013160824
328,8.795967800004291,0.014925634703329508,0.03328409931498469,-0.012874445778969122,0.053430579151870695,0.12437364991149417,-0.047304892052594444,-0.016571552383241404,0.07298716631561131,-0.06261501824048202,-0.15207667128271013,-0.29266236859985234,0.02437563437470951
329,8.800020299997414,0.015155947909104156,0.033821251409666485,-0.013079073120410092,0.05335768466966662,0.12468575001195806,-0.04757474880724768,-0.017226193933742185,0.07172050442781212,-0.06250793557537879,-0.15145096368439936,-0.29463720398602533,0.02527493551364808
330,8.808862100006081,0.015385940601782588,0.03435973793271838,-0.013284863465361896,0.05328197227875227,0.12499236812298584,-0.047844135305438004,-0.017878089058172578,0.07044539105421974,-0.06239697650999877,-0.15080329886055302,-0.296580906734531,0.026172938177092077
331,8.812569700006861,0.015615600652152544,0.034899535159511,-0.013491814749358625,0.05320345402983482,0.12529346807959613,-0.0481130348387913,-0.018527143335903135,0.06916196123794847,-0.062282146958474796,-0.15013381416629534,-0.29849313168422315,0.02706949810940149
332,8.816654399997788,0.0158449159838597,0.03544061921067735,-0.013699924835919535,0.053122142379614046,0.12558901430251,-0.04838143072578456,-0.01917326295197707,0.06787035148845519,-0.06216345345282224,-0.14944265232267012,-0.3003735431304902,0.027964472816473976
333,8.820914700001595,0.01607387457515321,0.03598296605465285,-0.01390919151667061,0.0530380501881197,0.12587897180438537,-0.048649306314394035,-0.019816354716990368,0.06657069974490964,-0.062040903136441575,-0.14872995999289962,-0.30222181260972963,0.028857720928091593
334,8.82531270000618,0.016302464460619618,0.03652655151024183,-0.014119612511477482,0.052951190715977585,0.1261633061959165,-0.04891664498472138,-0.020456326081220045,0.06526314535035742,-0.061914503760920316,-0.14799588664768384,-0.3040376164908539,0.02974910138507862
335,8.82906709999952,0.0165306737329048,0.037071351249210155,-0.01433118546858965,0.052861577621625105,0.12644198369184548,-0.04918343015161422,-0.021093085144715428,0.06394782903586788,-0.06178426368654777,-0.14724058367589965,-0.3058206339738403,0.03063847270626779
336,8.832598599998164,0.016758490544423854,0.0376173407989036,-0.014543907964796007,0.05276922495849026,0.12671497111692484,-0.04944964526729673,-0.0217265406637546,0.06262489291196317,-0.061650191885440714,-0.14646420354760734,-0.30757054574934534,0.03152569244892929
337,8.839118599993526,0.01698590310905873,0.038164495544891916,-0.014757777505591756,0.05267414717215149,0.12698223591185526,-0.049715273824017144,-0.022356602053715098,0.06129448046432947,-0.06151229794671293,-0.145666899486507,-0.3092870340430913,0.03241061690323502
338,8.842701899993699,0.017212899703843598,0.038712790733638425,-0.014972791525356771,0.05257635909749192,0.12724374613921113,-0.04998029935672298,-0.02298317939270472,0.05995673654486301,-0.06137059208223667,-0.14484882645620567,-0.31096978522055124,0.03329310157271133
339,8.846408800003701,0.017439468670637923,0.03926220147519519,-0.015188947387545594,0.052475875955827866,0.127499470489301,-0.050244705445758236,-0.023606183432940537,0.05861180734491127,-0.06122508512766742,-0.14401014307345303,-0.3126184938830619,0.034173002417748344
340,8.850078200004646,0.017665598417787077,0.039812702745923204,-0.015406242384889066,0.05237271335196494,0.12774937828586228,-0.05050847571954741,-0.0242255256208848,0.057259840350982666,-0.06107578853747785,-0.14315101284027615,-0.3142328651152231,0.03505017679012379
341,8.855361599999014,0.017891277421770012,0.04036426939123664,-0.015624673739607473,0.05226688727115282,0.12799343949153963,-0.05077159385724991,-0.024841118119253332,0.055900984298599875,-0.06092271437792068,-0.1422716041981516,-0.3158126135883265,0.0359244835791929
342,8.859127500007162,0.018116494228833598,0.04091687612837033,-0.015844238603635083,0.052158414075951516,0.1282316247131816,-0.05103404359138334,-0.025452873827618756,0.054535389135744086,-0.06076587532080142,-0.14137209018684768,-0.317357461398732,0.036795782982157146
343,8.862558099994203,0.018341237456613268,0.04147049754916972,-0.01606493405885592,0.05204731050300839,0.12846390520700363,-0.0512958087104242,-0.0260607064014758,0.05316320599535618,-0.060605284638423094,-0.14045264779660968,-0.318867136727114,0.03766393626304239
344,8.867600800003856,0.018565495795739545,0.04202510812290284,-0.016286757117350732,0.05193359365975994,0.12869025288364738,-0.05155687306138756,-0.026664530267255952,0.0517845871703474,-0.06044095619943828,-0.13951345701154305,-0.3203413735050433,0.0385288055399303
345,8.871190599995316,0.01878925801143024,0.04258068219909395,-0.016509704721655027,0.05181728102107931,0.12891064031312827,-0.051817220552391956,-0.02726426063314023,0.05039968608897689,-0.06027290446562928,-0.13855470004758197,-0.3217799109487982,0.03939025389861596
346,8.876373299994157,0.01901251294506805,0.043137194010378195,-0.016733773745028165,0.05169839042588478,0.1291250407296824,-0.052076835155211325,-0.02785981349749994,0.04900865729388404,-0.060101144486779674,-0.13757656115258754,-0.3231824930073955,0.04024814587539148
347,8.88054959999863,0.01923524951576351,0.04369461767537702,-0.016958960991733402,0.051576940073714474,0.12933342803653308,-0.05233570090779562,-0.028451105657984945,0.04761165642222776,-0.05992569189328963,-0.1365792263356794,-0.32454886753240697,0.04110234782757499
348,8.883977100005723,0.01945745672190304,0.04425292720159399,-0.01718526319732874,0.051452948521256425,0.12953577681056658,-0.05259380191675907,-0.02903805471762941,0.04620884019188069,-0.05974656288785099,-0.1355628821036794,-0.32587878421367733,0.04195272805014502
349,8.887848200000008,0.01967912364268194,0.04481209648833051,-0.017412677028968426,0.05132643467887063,0.12973206230697942,-0.052851122359828945,-0.029620579083039635,0.04480036639937656,-0.05956377423705636,-0.13452771428258783,-0.3271719937662926,0.042799156486337475
350,8.891700199994375,0.01990023943962246,0.04537209932962175,-0.01764119908571493,0.05119741780713475,0.12992226046393648,-0.05310764648826146,-0.030198597960332915,0.04338639391311828,-0.05937734326557084,-0.13347390840601278,-0.32842825070980514,0.043641504640930355
351,8.895757499994943,0.020120793358076997,0.04593290941719257,-0.017870825898861294,0.05106591751340118,0.13010634790715972,-0.053363358629240264,-0.030772031356676263,0.04196708264734949,-0.05918728784848921,-0.13240165126692272,-0.3296473171309306,0.04447964631514279
352,8.900014600003487,0.02034077472871644,0.04649450034343299,-0.018101553932263783,0.050931953748329484,0.13028430195436166,-0.05361824318822637,-0.031340800089611945,0.04054259352290265,-0.05899362639916778,-0.13131113201999392,-0.3308289639228656,0.04531345799096484
353,8.904236000002129,0.02056017296900347,0.04705684560439238,-0.01833337958268452,0.05079554680236303,0.13045610061949559,-0.053872284651251705,-0.03190482579810591,0.03911308843047921,-0.0587963778582661,-0.13020254178162183,-0.3319729691234147,0.046142818252518814
354,8.908335300002364,0.020778977584650506,0.04761991860279161,-0.018566299180143922,0.05065671730216609,0.1306217226168722,-0.05412546758717451,-0.03246403094842272,0.037678730205734375,-0.05859556168657058,-0.12907607257027728,-0.33307911582983013,0.04696760686720641
355,8.91243320000649,0.020997178171062267,0.04818369265105274,-0.01880030898828279,0.0505154862070498,0.13078114736519483,-0.054377776649910954,-0.03301833883603263,0.036239682610545505,-0.058391197861962944,-0.1279319166693174,-0.3341471911142716,0.04778770402917695
356,8.918567300002906,0.02121476441476289,0.04874814097434597,-0.019035405204734,0.050371874805392826,0.13093435499151465,-0.0546291965806644,-0.03356767358598964,0.034796110317452986,-0.058183306878770324,-0.12677026661645233,-0.3351769854117895,0.0486029901598015
357,8.922807399998419,0.02143172609480761,0.049313236713653466,-0.01927158396150381,0.050225904711064036,0.13108132633513153,-0.05487971221015143,-0.034111960154747684,0.033348178896208405,-0.05797190974645496,-0.12559131569454737,-0.3361682922924561,0.049413345967157185
358,8.926700099997106,0.02164805308417902,0.04987895292884997,-0.01950884132536277,0.05007759785982751,0.1312220429514332,-0.055129308460819745,-0.03465112433477274,0.031896054800181164,-0.057757027988451164,-0.12439525847305209,-0.33712090798287175,0.05021865243968335
359,8.93129300000146,0.021863735351167722,0.05044526260179974,-0.019747173298246167,0.049926976505725425,0.1313564871156789,-0.05537797034906422,-0.03518509276102985,0.030439905357034548,-0.05753868364090971,-0.1231822915318075,-0.33803463071014106,0.05101879100394595
360,8.934997599993949,0.02207876296073741,0.05101213863946977,-0.019986575817664033,0.049774063217427104,0.13148464182675812,-0.055625682987433964,-0.03571379292183931,0.028979898760791704,-0.05731689925017381,-0.12195261430875957,-0.3389092605937188,0.051813643756514885
361,8.939333100002841,0.02229312607587402,0.05157955387705918,-0.02022704475712064,0.04961888087451825,0.13160649081090575,-0.05587243158682656,-0.03623715317267676,0.02751620406344475,-0.05709169786952317,-0.1207064296306673,-0.339744599848296,0.052603093593473454
362,8.94685340000433,0.022506814958918767,0.052147481081144524,-0.020468575926543442,0.04946145266373092,0.13172201852538842,-0.056118201458667076,-0.03675510275160773,0.026048991165270482,-0.056863103055532695,-0.11944394449602092,-0.34054045402833566,0.05338702430850305
363,8.951516400004039,0.022719819972884813,0.05271589295284092,-0.02071116507272136,0.04930180207509965,0.1318312101621362,-0.05636297801707088,-0.03726757179984176,0.024578430795703137,-0.056631138863970365,-0.11816537140414206,-0.3412966342668922,0.05416532082989213
364,8.956561900005909,0.022932131582757132,0.05328476213097869,-0.020954807879752388,0.04913995289801408,0.13193405165126382,-0.05660674678098726,-0.037774491388632814,0.02310469448433626,-0.056395829844111345,-0.11687092932336524,-0.34201295887221256,0.05493786951237319
365,8.96028440000373,0.02314374035677511,0.053854061195294935,-0.021199499969500366,0.04897592921714302,0.13203052966445228,-0.05684949337631319,-0.03827579354818574,0.021627954528021902,-0.05615720103211824,-0.1155608435880081,-0.3426892530148331,0.05570455811567738
366,8.964318500002264,0.02335463696769726,0.054423762669639275,-0.02144523690206082,0.048809755408237725,0.13212063161818624,-0.05709120353797984,-0.03877141129366786,0.02014838396457185,-0.0559152779455402,-0.11423534475192366,-0.34332534605949033,0.056465275226736306
367,8.967741500004195,0.023564812194047623,0.05499383902519337,-0.021692014176235747,0.04864145613383153,0.13220434567690872,-0.0573318631120189,-0.03926127864422524,0.01866615656287388,-0.05567008658167772,-0.11289466668188264,-0.3439210678468052,0.057219909464742154
368,8.971296699994127,0.023774256921343374,0.05556426268370391,-0.021939827230017264,0.048471056338879104,0.13228166075617326,-0.05757145805763496,-0.03974533063254628,0.017181446828670153,-0.05542165341893953,-0.11153904501244154,-0.3444762467580434,0.05796834924861722
369,8.974922499997774,0.0239829621433036,0.05613500602072928,-0.022188671441080277,0.048298581246373574,0.13235256652584843,-0.057809974449283555,-0.04022350331054848,0.01569443001136838,-0.055170005417213404,-0.11016871697680888,-0.34499071067732795,0.05871048291112833
370,8.979905600004713,0.02419091896303912,0.05670604136890023,-0.022438542127284064,0.04812405635293672,0.13241705341332877,-0.05804739847874676,-0.04069573375748289,0.014205282101519402,-0.05491517001823859,-0.10878392200225932,-0.3454642890454775,0.05944619887706786
371,8.983507500000997,0.024398118594223188,0.05727734102119422,-0.022689434547182842,0.047947507424366174,0.13247511260671757,-0.058283716457214405,-0.04116196009075743,0.012714179819910312,-0.0546571751444395,-0.10738490212681563,-0.3458968145449952,0.06017538618706372
372,8.987482299999101,0.024604552362242918,0.057848877234223564,-0.022941343900545308,0.04776896049113226,0.13252673605794368,-0.058518914817349645,-0.04162212147763598,0.011221300600505982,-0.05439604919477932,-0.1059719021926206,-0.34628812433267075,0.06089793502166598
373,8.993433800002094,0.024810211705331146,0.05842062223153665,-0.02319426532888302,0.047588441843824256,0.13257191648579714,-0.0587529801153344,-0.042076158147729845,0.009726822568908777,-0.054131821039072534,-0.10454516965209706,-0.3466380606027347,0.061613736918219954
374,8.99738200000138,0.025015088175678553,0.05899254820693226,-0.02344819391598759,0.04740597802853948,0.13261064737886014,-0.058985899032885834,-0.042524011403024656,0.00823092452044186,-0.053864520011967607,-0.10310495325460155,-0.34694646847819793,0.062322683970884675
375,9.001065400007064,0.02521917344052576,0.05956462732778612,-0.02370312468847646,0.047221595842243044,0.13264292299835362,-0.05921765837924992,-0.04296562361904185,0.006733785916799898,-0.05359417591416077,-0.1016515012577586,-0.34721319157870856,0.06302466694397099
376,9.004352699994342,0.025422459283235416,0.060136831738389726,-0.023959052616347284,0.04703532232814693,0.13266873838103935,-0.05944824509322838,-0.043400938239435104,0.005235586902367557,-0.05332081902265457,-0.10018506113580963,-0.34743807066077326,0.06371957462944208
377,9.009522699998342,0.025624937604344436,0.06070913356330195,-0.024215972613541203,0.04684718477111636,0.13268808934220724,-0.05967764624526072,-0.04382989977463583,0.003736508312600748,-0.05304448009751437,-0.09870588165386825,-0.3476209485022905,0.06440729585730169
378,9.013349300003028,0.025826600422596456,0.06128150491071366,-0.024473879538515184,0.04665721069306053,0.1327009724786498,-0.0599058490395095,-0.044252453814343784,0.0022367316482072457,-0.05276519037478367,-0.09721421596564996,-0.34776167738095226,0.06508772206214611
379,9.016770500005803,0.026027439875954305,0.061853917875824935,-0.024732768194823278,0.04646542784823127,0.1327073851714266,-0.06013284081588122,-0.044668547052896,0.0007364390190132816,-0.052482981551099504,-0.09571032325044627,-0.3478601226079488,0.06576074805060281
380,9.02151109999977,0.026227448222591907,0.06242634454423358,-0.0249926333317064,0.04627186421839489,0.13270732558835463,-0.06035860905197887,-0.0450781273158793,-0.0007641869123403892,-0.05219788576998721,-0.09419446816656075,-0.34791616060540964,0.0664262714446101
381,9.025071700001718,0.0264266178418651,0.0629987569953338,-0.025253469644690423,0.04607654800790127,0.13270079268628696,-0.06058314136500464,-0.045481143580784096,-0.00226496296994637,-0.051909935611278546,-0.09266691960948066,-0.3479296752432845,0.0670841918551432
382,9.029393699995126,0.026624941235261004,0.0635711273057244,-0.025515271776192387,0.045879507638677555,0.13268778621326183,-0.06080642551362109,-0.04587754599290391,-0.0037657054893335687,-0.05161916408453456,-0.09112794999226935,-0.34790055557814453,0.06773441013593942
383,9.0336427000002,0.026822411027325643,0.06414342755262595,-0.025778034316134638,0.04568077174516003,0.1326683067105684,-0.061028449399797166,-0.04626728587978129,-0.005266230337508183,-0.05132560462490166,-0.08957783517591589,-0.3478286953787899,0.0683768283508701
384,9.037531499998297,0.027019019966569593,0.06471562981730683,-0.026041751802566956,0.04548036916916324,0.1326423555147228,-0.06124920107063366,-0.04665031576650641,-0.0067663529335641555,-0.051029291086815975,-0.08801685500433498,-0.3477139930509129,0.06901135011518653
385,9.041919099996448,0.027214760926351354,0.0652877061885175,-0.026306418722296457,0.04527832895467986,0.13260993475935617,-0.061468668720154856,-0.04702658939477839,-0.008265888268074244,-0.050730257736915536,-0.08644529428195848,-0.34755635161584064,0.06963788067076146
386,9.045876999996835,0.027409626905738123,0.06585962876593271,-0.02657202951152517,0.045074680342585396,0.13257104737702335,-0.06168684069107286,-0.047396061746637345,-0.009764650923517096,-0.050428539247095575,-0.08486344354696052,-0.3473556786333343,0.0702563268856257
387,9.05001340000308,0.027603611030343485,0.06643136966360148,-0.026838578556495157,0.04486945276523332,0.13252569710091472,-0.06190370547651934,-0.04775868907019615,-0.01126245509300232,-0.05012417068742469,-0.08327159927628662,-0.34711188513196617,0.0708665970708501
388,9.054216999997152,0.027796706553141568,0.06700290101340406,-0.027106060194141034,0.044662675840937756,0.1324738884665034,-0.062119251721748765,-0.048114428905141254,-0.012759114591470146,-0.04981718752077986,-0.0816700632213301,-0.34682488406473355,0.07146860045664061
389,9.058527300003334,0.027988906855257133,0.06757419496851605,-0.027374468712749782,0.04445437936834868,0.13241562681316044,-0.062333468225823835,-0.048463240102733465,-0.014254442861093385,-0.049507625600282254,-0.08005914125663807,-0.3464945898339193,0.0720622469370531
390,9.062636000002383,0.028180205446731204,0.06814522370687937,-0.027643798352627806,0.04424459332076203,0.1323509182857554,-0.0625463439432966,-0.04880508284137677,-0.01574825297837816,-0.04919552116613451,-0.07843914368796959,-0.3461209208622106,0.07264744808712711
391,9.066724000003887,0.02837059596726207,0.06871595943468016,-0.027914043306775254,0.04403334784036058,0.13227976983621031,-0.06275786798586662,-0.04913991864927668,-0.017240357681746393,-0.04888091083428194,-0.0768103870844143,-0.3457038049079905,0.07322411921662719
392,9.07079139999405,0.02856007218692124,0.06928637438983316,-0.028185197721567377,0.043820673232328626,0.13220218922486232,-0.06296802962396426,-0.049467710435814355,-0.018730569424490463,-0.048563831575532644,-0.07517319521831746,-0.34524318244091207,0.07379218043313682
393,9.075016000002506,0.02874862800684367,0.06985644084547138,-0.028457255697442507,0.04360659995882218,0.13211818502156075,-0.06317681828822874,-0.049788422522313504,-0.020218700431476087,-0.04824432069504757,-0.07352789824945279,-0.34473900504305915,0.0743515557139741
394,9.078670600007172,0.02893625745989169,0.07042613111343989,-0.02873021128959617,0.04339115863281821,0.13202776660654067,-0.06338422357091446,-0.05010202066637655,-0.021704562738304126,-0.047922415819467025,-0.07187483114203666,-0.344191231233766,0.07490217133858978
395,9.08333219999622,0.029122954711292188,0.07099541754779307,-0.029004058508681187,0.04317438001187493,0.13193094417118206,-0.063590235227258,-0.05040847207899539,-0.02318796821199503,-0.04759815488992416,-0.07021433245366192,-0.3435998244377833,0.07544395533127898
396,9.088231899993843,0.029308714059246697,0.07156427254829496,-0.029278791321513595,0.04295629499183343,0.13182772871870496,-0.06379484317682421,-0.05070774543843998,-0.024668728572622416,-0.047271576153979054,-0.06854674454107343,-0.3429647558200765,0.0759768388672086
397,9.092582900004343,0.029493529935514243,0.0721326685639225,-0.029554403651784356,0.04273693460045811,0.131718132064742,-0.06399803750480361,-0.05099981090914425,-0.02614665543845275,-0.0469427181465027,-0.06687241475407685,-0.34228600951533444,0.07650075906134492
398,9.09631769999396,0.029677396905966578,0.07270057809637079,-0.029830889380776455,0.042516329990975425,0.13160216683764414,-0.06419980846319354,-0.051284640165894325,-0.027621560392692843,-0.04661161965755158,-0.06519169541931676,-0.34156358513382373,0.07701566117146393
399,9.100038100004896,0.029860309671115276,0.07326797370355896,-0.030108242348086817,0.042294512435505645,0.13147984647847738,-0.06440014647181844,-0.051562206412574474,-0.029093255050247006,-0.04627831969424673,-0.06350494214437313,-0.34079749663918085,0.0775214989226205
400,9.10422639999888,0.030042263066610314,0.07383482800313547,-0.030386456352352202,0.042071513318439856,0.1313511852407526,-0.06459904211918216,-0.05183248439172511,-0.0305615511147835,-0.04594285744584917,-0.06181251222768939,-0.3399877696683917,0.07801823355314659
401,9.10832980000123,0.03022325206371003,0.0744011136759816,-0.03066552515197847,0.0418473641297893,0.13121619818992997,-0.06479648616318694,-0.05209545038957154,-0.03202626042237171,-0.045605272253868956,-0.06011476386987967,-0.3391344388711626,0.07850583268814708
402,9.11243249999825,0.030403271769722323,0.07496680346971245,-0.030945442465872684,0.041622096458518984,0.13107490120277235,-0.06499246953172783,-0.05235108223877807,-0.03348719497559586,-0.045265603586858764,-0.05841205577494666,-0.338237545879575,0.07898426871810023
403,9.116053100005956,0.030582317428417112,0.07553187020217492,-0.031226201974177498,0.041395741985873244,0.1309273109665554,-0.06518698332319424,-0.0525993593200365,-0.03494416696967684,-0.04492389102451038,-0.05670474705732295,-0.3372971371897334,0.07945351667136615
404,9.120355199993355,0.03076038442040995,0.07609628676494185,-0.03150779731900759,0.04116833247869566,0.13077344497819565,-0.06538001880692719,-0.052840262564018345,-0.03639698880831132,-0.044580174250801734,-0.05499319764148984,-0.33631326387906313,0.07991355312199504
405,9.125119799995446,0.03093746826351686,0.07666002612680246,-0.03179022210518799,0.0409398997827378,0.13061332154332392,-0.0655715674236617,-0.05307377445641075,-0.03784547312735475,-0.04423449304751552,-0.05327776932227766,-0.33528598463467,0.08036435687614696
406,9.129794000007678,0.03111356461308022,0.07722306133724857,-0.03207346990099434,0.040710475815935655,0.1304469597752091,-0.06576162078592813,-0.053299879049015654,-0.039289432836785536,-0.043886887281464615,-0.051558827104313004,-0.33421536860604123,0.08080591016553089
407,9.133383499996851,0.03128866926226559,0.07778536552995569,-0.03235753423889468,0.04048009256162265,0.1302743795934696,-0.0659501706783844,-0.05351856197634093,-0.040728681168997694,-0.04353739688771515,-0.04983673980731656,-0.33310149592269317,0.08123819910128678
408,9.137545699995826,0.03146277814232907,0.0783469119262581,-0.03264240861629256,0.04024878206166297,0.1300956017225805,-0.06613720905807258,-0.053729810471921276,-0.04216303172523068,-0.043186061852896376,-0.048111880055387676,-0.3319444579324924,0.08166121402120068
409,9.14564230000542,0.03163588732285487,0.07890767383861717,-0.03292808649627106,0.04001657640952373,0.12991064769018443,-0.06632272805460708,-0.053933613384816906,-0.04359229852591798,-0.04283292219542838,-0.046384625282285284,-0.33074435975412986,0.0820749511539974
410,9.150585900002625,0.0318079930119629,0.07946762467408179,-0.03321456130833751,0.03978350774326601,0.12971953982516435,-0.06650671997026075,-0.05412996120460683,-0.045016296079136625,-0.04247801793447443,-0.04465535987691904,-0.329501325505509,0.08247941497415123
411,9.155430600003456,0.0319790915564859,0.08002673793774004,-0.033501826449168264,0.03954960823840139,0.12952230125536401,-0.06668917727988521,-0.05431884609639624,-0.04643483947606003,-0.042121389049854234,-0.04292447620906213,-0.3282155020862066,0.08287461892633727
412,9.160428100003628,0.03214917944211537,0.08058498723616002,-0.03378987528335273,0.03931491010058099,0.12931895590483725,-0.06687009263065108,-0.05450026193465842,-0.04784774449203801,-0.04176307544474659,-0.041192373474128935,-0.3268870570199613,0.08326058342623649
413,9.164649300000749,0.032318253293515654,0.08114234628081776,-0.03407870114413589,0.03907944555816008,0.1291095284906964,-0.06704945884164658,-0.05467420432827625,-0.049254827663437216,-0.04140311692284927,-0.03945945560699129,-0.3255161718366664,0.08363733241390911
414,9.16823110000405,0.032486309874405726,0.08169878889151087,-0.03436829733415889,0.03884324685467104,0.12889404451969877,-0.06722726890342073,-0.05484067063638703,-0.05065590633162895,-0.041041553180815045,-0.0377261287471232,-0.3241030347017478,0.08400489018595511
415,9.17202250000264,0.03265334608760832,0.082254288999757,-0.0346586571261976,0.03860634624125133,0.12867253028471556,-0.06740351597751673,-0.054999659971556314,-0.05205079865624473,-0.04067842381273985,-0.035992799098889756,-0.32264783548874304,0.0843632791462543
416,9.175293099993723,0.03281935897506643,0.08280882065217698,-0.034949773763899204,0.03836877596908905,0.12844501286120397,-0.06757819339605381,-0.05515117319716389,-0.05343932361665627,-0.040313768322002744,-0.03425987285556579,-0.3211507672036003,0.08471251988446842
417,9.179579599993303,0.032984345717827226,0.08336235801386295,-0.03524164046251711,0.03813056828187346,0.12821152010366335,-0.06775129466136277,-0.055295212929922115,-0.05482130103751818,-0.03994762612507684,-0.03252775781056536,-0.31961203441970043,0.08505263417847649
418,9.18532370000321,0.03314830363599345,0.08391487537173085,-0.035534250409644426,0.037891755408218805,0.12797208064188698,-0.06792281344560076,-0.055431783551161656,-0.05619655166301513,-0.03958003653746785,-0.030796865107330974,-0.31803186388754906,0.08538364876640035
419,9.189843100000871,0.03331123018864198,0.08446634713785621,-0.03582759676594555,0.0376523695540175,0.1277267238767777,-0.06809274359026546,-0.055560891224445776,-0.05756489727393225,-0.03921103874498455,-0.029067609217981523,-0.31641050991570113,0.08570559716436275
420,9.194180599995889,0.033473122973709246,0.08501674785279059,-0.036121672665885445,0.03741244289471198,0.1274754799755897,-0.068261079105562,-0.05568254390667184,-0.058926160808322414,-0.03884067177399588,-0.027340405317834195,-0.3147482514356476,0.08601851861570062
421,9.197992500005055,0.03363397972784313,0.08556605218885628,-0.036416471218455766,0.03717200756755213,0.12721837986670326,-0.06842781416966064,-0.05579675134303618,-0.06028016645325601,-0.03846897447176633,-0.025615666268794253,-0.3130453863773472,0.08632245597353587
422,9.201828200006275,0.03379379832622157,0.0861142349534177,-0.036711985507897726,0.03693109566391056,0.12695545523407498,-0.06859294312789395,-0.05590352505211189,-0.06162673971696712,-0.03809598549497966,-0.023893801452579924,-0.3113022271113961,0.08661745418809234
423,9.205493700006627,0.033952576782338206,0.08666127109212819,-0.037008208594421325,0.03668973922166876,0.12668673851139012,-0.06875646049191553,-0.05600287831074814,-0.06296570748128374,-0.03772174330312392,-0.022175217138265597,-0.30951909530344124,0.08690355923614003
424,9.210710300001663,0.03411031324775527,0.08720713569215098,-0.03730513351492092,0.03644797021766266,0.12641226287606055,-0.06891836093884016,-0.056094826142318754,-0.06429689802938411,-0.037346286156250616,-0.02046031697970215,-0.3076963183013936,0.08718081750525042
425,9.214369900000747,0.03426700601182406,0.08775180398535419,-0.03760275328368707,0.03620582056017016,0.12613206224313767,-0.0690786393103831,-0.05617938530591262,-0.06562014106706011,-0.036969652113671654,-0.018749501809931964,-0.30583423041615343,0.08744927644180817
426,9.220121699996524,0.03442265350137303,0.08829525135147931,-0.03790106089311465,0.03596332208144994,0.12584617125912684,-0.0692372906119891,-0.05625657428280872,-0.06693526776152214,-0.03659187902612823,-0.017043169726966387,-0.3039331792315553,0.08770898678944702
427,9.223815899997136,0.03457725428036391,0.08883745332128282,-0.03820004931440721,0.03572050653034566,0.1255546252955656,-0.06939431001190408,-0.056326413266406555,-0.06824211081709718,-0.036213004515177234,-0.015341716700106657,-0.30199353199896894,0.08796000446835209
428,9.22722359999898,0.03473080704951597,0.08937838557964926,-0.038499711498277064,0.035477405564911656,0.1252574604421851,-0.06954969284012627,-0.05638892415393178,-0.06954050456919851,-0.03583306594914779,-0.013645535899567593,-0.3000156748406883,0.08820238933184857
429,9.231197999994038,0.03488331064589854,0.0899180239686739,-0.0388000403756406,0.03523405074508866,0.1249547134996776,-0.06970343458727059,-0.056444130530583406,-0.07083028505315166,-0.03545210043325432,-0.011955016528771848,-0.2980000049052842,0.0884362018508651
430,9.235062699997798,0.03503476404249208,0.09045634449071338,-0.0391010288583086,0.0349904735254663,0.12464642197226414,-0.06985553090343442,-0.05649205765116589,-0.0721112900304899,-0.035070144814155546,-0.010270543413821854,-0.29594692465754985,0.08866150111268216
431,9.23873120000644,0.035185166347718275,0.09099332331140424,-0.039402669839671715,0.03474670524811724,0.12433262406023524,-0.07000597759710131,-0.05653273242069481,-0.0733833590085207,-0.034687235687331924,-0.008592497187645853,-0.29385684572697535,0.08887834555452875
432,9.242159800007355,0.03533451680493928,0.09152893676264925,-0.03970495619538136,0.034502777135527005,0.12401335865234979,-0.07015477063407041,-0.0565661833776175,-0.07464633329982126,-0.034303409395316085,-0.006921255446329444,-0.2917301977929204,0.08908679558206925
433,9.245748700006516,0.035482814791926796,0.0920631613455704,-0.04000788078402597,0.03425872028357289,0.12368866531786245,-0.0703019061363449,-0.05659244068439421,-0.07590005611845554,-0.0339187020124811,-0.005257193818457544,-0.2895674328203975,0.08928691544906826
434,9.24925730000541,0.035630059820300805,0.09259597373342636,-0.04031143644780227,0.03401456565453499,0.1233585842980925,-0.07044738038093024,-0.05661153611994372,-0.07714437267601104,-0.033533149327055436,-0.003600685965488412,-0.28736902082335203,0.08947877207756268
435,9.252663799998118,0.035776251534938304,0.09312735077449279,-0.04061561601318116,0.03377034407014034,0.12302315649762277,-0.07059118979856735,-0.05662350307022771,-0.07837913024126646,-0.033146786836089355,-0.0019521024799669406,-0.2851354383871192,0.08966243096305611
436,9.25609500000428,0.03592138971335204,0.0936572694949039,-0.0409204122915681,0.03352608620465513,0.12268242347535374,-0.07073333097248753,-0.056628376511191514,-0.07960417813721408,-0.032759649762794926,-0.0003118096420088881,-0.2828671557639631,0.08983795167915823
437,9.259392399995704,0.03606547426503968,0.09418570710145552,-0.04122581807995823,0.03328182257807601,0.12233642743572815,-0.07087380063729522,-0.056626192988620906,-0.08081936768940332,-0.032371773090292995,0.0013198307433024625,-0.280564630301502,0.09000538557461643
438,9.262849499995356,0.03620850523080377,0.09471264098437102,-0.041531826161587106,0.03303758354939613,0.12198521122023073,-0.07101259567801396,-0.05661699059968012,-0.08202455216627137,-0.031983191598820425,0.002942460901728151,-0.2782283078039788,0.0901647762370793
439,9.266631399994369,0.03635048278204283,0.095238048720031,-0.04183842930657759,0.03279339930995563,0.1216288182991276,-0.07114971312929023,-0.05660080897660055,-0.08321958673923022,-0.03159393989547628,0.004555725696072124,-0.27585863234626706,0.09031616350455383
