,time,x,y,z,vx,vy,vz,ax,ay,az,jx,jy,jz
0,7.695203499999479,-0.017191987323965617,0.0050416834988641,0.028117672700025152,0.01430985872948841,0.0031226381482841814,-0.0004260460415812392,0.07132600341392449,0.05089236078164075,-0.09227728507790302,0.09949904523249076,0.135715167718927,-0.26101098167222525
1,7.700267299995176,-0.017127226085222325,0.005056169269204023,0.028114841599076325,0.014630090126672738,0.003351777147442271,-0.000841667094091407,0.07177026675799941,0.05150026861997734,-0.09344731291527356,0.09901494744682406,0.13592503080959026,-0.2618130652969372
2,7.704847999993944,-0.017061027132487822,0.005071686689085032,0.028110138578030797,0.01495230507094356,0.003583639070440768,-0.0012625328907058552,0.07221232854005336,0.05210908384399535,-0.09462088575744805,0.09851521465812443,0.13612056466357222,-0.2625949420693505
3,7.708432699990226,-0.016993381610022874,0.005088247954624874,0.028103540127405114,0.015276493552132262,0.0038182278349537975,-0.001688659095460035,0.07265211856228752,0.05271874198945488,-0.09579791250808165,0.09799974967981594,0.13630162204257285,-0.2633563187559553
4,7.712430400002631,-0.016924280707594025,0.005105865278829996,0.028095022668520507,0.015602645244914073,0.004055547068657429,-0.0021200609617297505,0.0730895661969456,0.053329177935479186,-0.09697830075848679,0.09746845703744138,0.1364680566756693,-0.2640969023167138
5,7.7166776999947615,-0.016853715661888435,0.005124550890291024,0.028084562555354034,0.015930749506901137,0.004295600106300979,-0.0025567533263607836,0.07352460039159608,0.053940325908494804,-0.09816195678919197,0.09692124216133338,0.13661972312631965,-0.2648164000743594
6,7.720857399996021,-0.01678167775793721,0.0051443170318651735,0.028072136076415975,0.016260795376747992,0.0045383899867931414,-0.0029987506038058813,0.07395714967194915,0.05455211948576034,-0.0993487855716303,0.09635801121701762,0.13675647676943725,-0.2655145196853974
7,7.725028799992287,-0.016708158330547205,0.00516517595934564,0.02805771945665346,0.016592771572269856,0.004783919450304876,-0.003446066780269496,0.07438714214562081,0.055164491599101334,-0.10053869076943864,0.0957786714630383,0.13687817381314735,-0.2661909690433603
8,7.731041999999434,-0.016633148765741183,0.005187139940118081,0.028041288859380273,0.016926666488581803,0.0050321909353889735,-0.003898715407856402,0.0748145055081528,0.05577737453863385,-0.10173157473928024,0.0951831317446403,0.13698467133019335,-0.26684545631748613
9,7.735764500001096,-0.01655664050220628,0.005210221251804221,0.02802282038823286,0.017262468196270933,0.005283206576116276,-0.004356709598723799,0.07523916705119596,0.056390699956780456,-0.10292733853249006,0.0945713027741069,0.13707582730747558,-0.267477690097821
10,7.741016400002991,-0.016478625032750542,0.0052344321808926965,0.02800229008915248,0.017600164439608802,0.005536968199231187,-0.004820062019244658,0.0756610536710395,0.05700439887243724,-0.10412588189719625,0.09394309716965633,0.13715150066785997,-0.26808737943394695
11,7.744494700003997,-0.016399093905767367,0.005259785021357204,0.02797967395239346,0.01793974263479994,0.0057934773213251965,-0.005288784884178813,0.07608009187714256,0.057618401675185026,-0.1053271032803122,0.09329842961966202,0.13721155130051377,-0.2686742338930373
12,7.7479428999940865,-0.016318038726707732,0.005286292073262038,0.02795494791455752,0.018281189868270653,0.0060527351460300865,-0.0057628899508541396,0.07649620780213351,0.05823263812972794,-0.10653089983017765,0.09263721716811872,0.13725584005230793,-0.26923796369521746
13,7.751940200003446,-0.016235451159559957,0.005313965641355117,0.02792808786065412,0.018624492895007047,0.006314742561231186,-0.00624238851336129,0.07690932721289684,0.05884703738002766,-0.10773716739976244,0.09195937942279026,0.13728422867581405,-0.2697782796507698
14,7.756553100000019,-0.0161513229283368,0.005342818033648578,0.02789906962618675,0.018969638136943075,0.006579500136297584,-0.006727291396763546,0.07731937552243563,0.05946152795327647,-0.10894580054874553,0.09126483887916612,0.13729657989951707,-0.2702948929086227
15,7.760193699999945,-0.016065645818569653,0.005372861559987005,0.027867868999265095,0.019316611681404746,0.006847008119330951,-0.007217608951310169,0.07772627780385837,0.060076037764660035,-0.11015669254446732,0.09055352128326044,0.13729275761882465,-0.2707875149900631
16,7.764381400003913,-0.01597841167880957,0.005404108530603399,0.027834461722743137,0.019665399279623373,0.007117266434438387,-0.007713351046654773,0.07812995880548895,0.06069049412304024,-0.11136973536431047,0.08982535545724961,0.1372726270678334,-0.2712558579823385
17,7.768803200000548,-0.015889612422134762,0.005436571254662995,0.027798823496383077,0.02001598634531504,0.007390274679032106,-0.008214527066089989,0.07853034296329274,0.061304823737255536,-0.11258481969838524,0.08908027251147438,0.13723605493421429,-0.27169963457253676
18,7.7727820000000065,-0.015799240027664346,0.0054702620387950575,0.027760929979045033,0.02036835795330508,0.007666032121158687,-0.008721145900789875,0.07892735440893285,0.061918952722832155,-0.11380183495221359,0.08831820513811584,0.1371829093917703,-0.2721185582120187
19,7.777835400003823,-0.015707286542078154,0.005505193185612794,0.027720756790902502,0.02072249883817966,0.007944537696858833,-0.009233215944068606,0.07932091697587357,0.0625328066085759,-0.1150206692508864,0.08753908748505636,0.13711306007145072,-0.2725123434259671
20,7.783473000003141,-0.015613744081142546,0.005541376992221514,0.02767827951568346,0.021078393392964887,0.008225790007555623,-0.0097507450856601,0.07971095420630755,0.06314631034302388,-0.11624120944451849,0.08674285551413292,0.13702637802519077,-0.27288070592453895
21,7.786994699999923,-0.015518604831242053,0.005578825748715165,0.027633473702937027,0.021436025667840405,0.00850978731747203,-0.010273740706025537,0.08009738936046612,0.06375938830071266,-0.11746334111340082,0.08592944756953347,0.13692273566533353,-0.27322336238056005
22,7.79047150000406,-0.015421861050916693,0.005617551736661376,0.02758631487032551,0.021795379368901847,0.008796527551075281,-0.0108022096706791,0.0804801454286344,0.0643719642880877,-0.11868694857146553,0.08509880473075575,0.13680200672708911,-0.27354003041495323
23,7.794297200001893,-0.015323505072404701,0.005657567227575112,0.027536778505941877,0.022156437856981973,0.009086008290547265,-0.011336158324526514,0.08085914514362108,0.0649839615494354,-0.11991191487130774,0.08425087084659866,0.13666406629406033,-0.2738304288966074
24,7.799753500003135,-0.015223529303190398,0.005698884481381078,0.027484840070652473,0.022519184146524752,0.009378226773281999,-0.011875592486235747,0.0812343109930779,0.06559530277302118,-0.12113812181033484,0.08338559262938439,0.13650879089248344,-0.27409427792784
25,7.804128100004164,-0.01512192622755699,0.005741515744864972,0.02743047500046488,0.022883600904516778,0.009673179889410986,-0.012420517442630582,0.08160556523281277,0.066205910097865,-0.12236544993565812,0.08250291976848849,0.13633605866058604,-0.2743312987379426
26,7.80759539999417,-0.01501868840814401,0.005785473250113736,0.027373658708920827,0.02324967044948052,0.009970864179361324,-0.01297093794310511,0.08197282990012551,0.06681570512139542,-0.12359377854928917,0.08160280502745342,0.1361457494682876,-0.274541213736519
27,7.811999899990042,-0.014913808487509133,0.005830769212944954,0.027314366589514034,0.023617374750525107,0.010271275831449577,-0.013526858194063818,0.08233602682799031,0.06742460890729672,-0.12482298571350897,0.08068520445667393,0.135937744928021,-0.2747237465182758
28,7.816315799995209,-0.014807279189694102,0.005877415831325558,0.027252574018132907,0.023986695426466545,0.010574410679510135,-0.014088281853384142,0.08269507766029527,0.06803254199325973,-0.12605294825610716,0.0797500773834424,0.13571192841170998,-0.2748786219259259
29,7.819756700002472,-0.014699093321794428,0.005925425283780003,0.02718825635552794,0.024357613745014908,0.010880264200558461,-0.014655212024903457,0.08304990386593579,0.06863942439898094,-0.1272835417763142,0.07879738616808898,0.13546818505678643,-0.2750055663063984
30,7.823021099990001,-0.014589243775532591,0.005974809727788053,0.027121388949803767,0.024730110622020705,0.011188831512491053,-0.015227651252934724,0.0834004267518712,0.06924517563396723,-0.12851464065233412,0.07782709606585385,0.13520640170702275,-0.2751043077092562
31,7.826917600003071,-0.014477723528834483,0.0060255812981723665,0.027051947138935648,0.025104166620778964,0.01150010737181856,-0.015805601516820915,0.0837465674759817,0.06984971470500534,-0.12974611804905273,0.07683917534293032,0.1349264669705072,-0.27517457582880456
32,7.831245699999272,-0.01436452564740884,0.006077752105475994,0.026979906253310267,0.02547976195139067,0.011814086171432599,-0.01638906422551966,0.08408824706116376,0.07045296012448551,-0.1309778459250522,0.07583359555734688,0.13462827140344627,-0.27521610195077956
33,7.83548169999267,-0.014249643286329399,0.006131334234329968,0.026905241618290707,0.025856876470193035,0.012130761938413387,-0.01697804021222046,0.08442538641070131,0.0710548299195163,-0.13220969503984215,0.07481033151774348,0.13431170760692324,-0.2752286189231612
34,7.839576500002295,-0.014133069691619435,0.006186339741811182,0.026827928556805415,0.02623548967925852,0.012450128331878146,-0.01757252972899406,0.08475790632199219,0.07165524164111432,-0.13344153496061276,0.07376936092269658,0.13397667025953594,-0.2752118612094557
35,7.843330999996397,-0.014014798201838399,0.006242780655790715,0.026747942391961082,0.026615580725947986,0.012772178640870992,-0.018172532441470116,0.08508572749869077,0.07225411237361123,-0.13467323406994294,0.07271066436560421,0.1336230561149752,-0.2751655651210484
36,7.847643000000971,-0.013894822249670452,0.006300668973272825,0.026665258449679246,0.026997128402518403,0.01309690578229555,-0.018778047423555568,0.08540877056447808,0.07285135874382181,-0.1359046595746334,0.0716342256811692,0.13325076398999264,-0.2750894689090744
37,7.851908199998434,-0.01377313536351462,0.006360016658724768,0.026579852061356452,0.02738011114579926,0.013424302298886913,-0.019389073152191374,0.08572695607830602,0.07344689693034319,-0.13713567751423705,0.0705400321600349,0.13285969486355123,-0.27498331278843297
38,7.856168300000718,-0.013649731169076224,0.006420835642397635,0.026491698566547792,0.02776450703693675,0.01375436035722749,-0.02000560750214724,0.08604020455008873,0.0740406426736105,-0.13836615277010708,0.06942807466719583,0.1324497519734211,-0.27484683906833907
39,7.8600467999931425,-0.013524603390959318,0.006483137818638412,0.026400773315673656,0.028150293801210615,0.014087071745808989,-0.020627647740859345,0.08634843645700677,0.0746325112860608,-0.139595949075096,0.06829834772708668,0.1320208408465786,-0.27467979231227857
40,7.864091900002677,-0.01339774585425977,0.0065469350441934695,0.026307051672749483,0.028537448807924293,0.014422427873139236,-0.021255190523311904,0.08665157225996015,0.0752224176624608,-0.1408249290240356,0.0671508496031692,0.1315728693825823,-0.27448191947816847
41,7.868327799995313,-0.013269152486158673,0.006612239136503674,0.026210509018138328,0.02892594907036904,0.014760419765896609,-0.021888231886968694,0.08694953242058492,0.0758102762908171,-0.14205295408469049,0.06598558240941893,0.13110574796845967,-0.2742529699519342
42,7.871750599995721,-0.013138817317515752,0.006679061871991356,0.026111120751325986,0.02931577124586639,0.015101038067134524,-0.02252676724675266,0.08724223741870422,0.07639600126373242,-0.14327988460853872,0.06480255218727043,0.13061938954526,-0.2739926956492713
43,7.875619500002358,-0.013006734484462396,0.006747414984339354,0.026008862293718498,0.0297068916358885,0.015444273034537518,-0.023170791390073955,0.08752960777003356,0.07697950628991146,-0.14450557984263626,0.06360176893731388,0.13011370963085253,-0.27370085113192716
44,7.879771799998707,-0.012872898229993983,0.006817310162762369,0.02590370909146178,0.030099286186259094,0.015790114538728733,-0.02382029847191575,0.08781156404391562,0.07756070470572125,-0.14572989794143842,0.06238324670896396,0.12958862632873372,-0.2733771935978378
45,7.883305600000312,-0.012737302905561118,0.006888759050270855,0.025795636618283116,0.030492930487432554,0.016138552061629473,-0.024475282009968083,0.08808802688182822,0.07813950948677591,-0.1469526959785761,0.061147003902338036,0.12904406034706403,-0.273021483050351
46,7.887408299997332,-0.012599942972659458,0.006961773241927693,0.02568462037835435,0.030887799774860544,0.016489574694870397,-0.02513573487981909,0.08835891701782138,0.07871583325966729,-0.14817382996019196,0.059893063696833185,0.12847993507960662,-0.2726334823708972
47,7.89135809999425,-0.012460813004417667,0.007036364283097862,0.025570635909176423,0.03128386892945404,0.01684317113825608,-0.02580164931020823,0.08862415530086161,0.07928958831427432,-0.1493931548373672,0.058621454435355526,0.12789617668724293,-0.2722129572222787
48,7.894890499999747,-0.012319907687183107,0.007112543667691361,0.025453658784485054,0.03168111247814997,0.01719932969828639,-0.026473016878328755,0.08888366271870839,0.07986068661622336,-0.15061052451859205,0.057332209679912476,0.12729271407703838,-0.27175967622279235
49,7.8985250999976415,-0.012177221822104721,0.00719032283639965,0.02533366461717733,0.03207950459458696,0.017558038286732584,-0.027149828505192566,0.08913736042075611,0.08042903981901009,-0.15182579188375117,0.05602536775953411,0.12666947895772449,-0.27127341116856085
50,7.903834299999289,-0.012032750326712673,0.007269713174925825,0.02521062906225887,0.03247901909987645,0.017919284419267198,-0.02783207445105786,0.08938516973786378,0.08099455927695651,-0.1530388087985843,0.05470097115586737,0.12602640613766095,-0.2707539371642517
51,7.908534599991981,-0.011886488236494328,0.007350726012208793,0.025084527819811357,0.03287962946345597,0.01828305521415613,-0.028519744310923443,0.0896270121996972,0.08155715606000005,-0.15424942612984185,0.05335906613080216,0.12536343388603935,-0.2702010326717516
52,7.9125763999909395,-0.011738430706466258,0.007433372618641742,0.024955336637980025,0.03328130880401544,0.018649337391020905,-0.02921282701009204,0.0898628095512253,0.08211674096988388,-0.1554574937601812,0.05199970277955043,0.12468050412625288,-0.26961447947581413
53,7.916404399991734,-0.011588573012741929,0.007517664204285231,0.024823031315980904,0.033684029890498145,0.01901811726967569,-0.02991131079979794,0.09009248377053755,0.08267322455667687,-0.15666286060301476,0.050622935449183164,0.1239775623627154,-0.2689940627954023
54,7.920468600001186,-0.01143691055409474,0.007603611917075258,0.024687587707127454,0.03408776514318654,0.019389380769037432,-0.03061518325290323,0.09031595708908677,0.08322651713430891,-0.15786537461840305,0.04922882324400512,0.12325455748563448,-0.26833957143388254
55,7.924707899990608,-0.011283438853516002,0.0076912268410265884,0.02454898172187633,0.034492486634884384,0.019763113406101943,-0.031324431259667704,0.0905331520140303,0.08377652879534328,-0.15906488282924713,0.04781743026733712,0.12251144173723558,-0.26765079785643675
56,7.929182499996386,-0.011128153559767389,0.007780519994431656,0.024407189330891883,0.03489816609220257,0.020139300294986267,-0.03203904102359003,0.0907439913506372,0.08432316942620958,-0.16026123133787462,0.04638882533869621,0.12174817079896895,-0.26692753832525196
57,7.933305700003984,-0.010971050448927402,0.007871502328055323,0.024262186568129146,0.03530477489694183,0.02051792614604112,-0.03275899805732614,0.09094839822209773,0.08486634872275683,-0.16145426534344232,0.04494308154408281,0.1209647038228513,-0.26616959303953514
58,7.937695500004338,-0.010812125425931452,0.007964184723325838,0.02411394953393488,0.035712284087555855,0.020898975265032482,-0.03348428717868618,0.09114629608790499,0.08540597620576687,-0.16264382915977552,0.043480276242912334,0.12016100345584804,-0.265376766228447
59,7.941598699995666,-0.010651374526105225,0.008058577990522264,0.023962454398166397,0.03612066436069857,0.021282431552392907,-0.034214892506712564,0.09133760876372644,0.08594196123672572,-0.16382976623360254,0.04200049135595428,0.11933703586130687,-0.2645488661453409
60,7.945878500002436,-0.01048879391669091,0.008154692866958737,0.023807677403327693,0.03652988607286515,0.021668278502544287,-0.034950797457840174,0.09152226044236302,0.08647421303352888,-0.16501191916234248,0.04050381352753384,0.11849277069622037,-0.2636857051303561
61,7.950068799997098,-0.010324379898365878,0.008252540015165837,0.02364959486772266,0.03693991924212686,0.022056499203289743,-0.035691984742133635,0.09170017571507257,0.08700264068604915,-0.1661901297129,0.038990334279924384,0.11762818115111479,-0.26278709981013676
62,7.953632299992023,-0.01015812890675338,0.008352130021069392,0.023488183188624903,0.03735073354996299,0.022447076335275755,-0.03643843635961574,0.09187127959391102,0.08752715317219897,-0.1673642388412409,0.03746015029427592,0.1167432440889376,-0.26185287109175087
63,7.957789299995056,-0.009990037513924827,0.008453473392167045,0.0233234188454638,0.03776229834319566,0.022839992171527823,-0.03719013359667996,0.09203549753557054,0.08804765937474149,-0.16853408671113246,0.03591336367404793,0.11583794014690577,-0.26088284411931206
64,7.963085299998056,-0.00982010242989317,0.008556580555702898,0.023155278403026454,0.03817458263603513,0.023235228577063085,-0.03794705702258665,0.09219275546607877,0.08856406809826459,-0.16969951271333064,0.034350081959808945,0.11491225377136519,-0.25987684839089076
65,7.971381800001836,-0.009648320504096874,0.008661461856840608,0.022983738514675098,0.038587555112235744,0.02363276700857792,-0.038709186486047265,0.09234297980476949,0.08907628808630401,-0.17086035548536707,0.03277041784841195,0.11396617334607546,-0.25883471783955997
66,7.975412500003586,-0.009474688726873992,0.008768127556835238,0.02280877592557963,0.03900118412735575,0.024032588514213835,-0.03947650111189771,0.09248609748646805,0.08958422803946571,-0.17201645293146167,0.031174488962808687,0.11299969135185647,-0.2577562908875273
67,7.979349899993394,-0.009299204230925914,0.008876587831204258,0.022630367475964808,0.039415437711111875,0.024434673733407304,-0.04024897929786083,0.09262203598340155,0.09008779663397803,-0.17316764224279416,0.029562417954497936,0.11201280440988796,-0.2566414105184333
68,7.983269999996992,-0.009121864292770369,0.00898685276789805,0.022448490104371745,0.03983028356983527,0.024839002896821713,-0.041026598711401165,0.09275072332830134,0.09058690254020167,-0.1743137599180639,0.027934332689538783,0.1110055133062608,-0.25548992435911394
69,7.9891688999923645,-0.008942666334183183,0.0090989323654703,0.022263120850933273,0.040245689089032866,0.025245555826362884,-0.041809336286671515,0.09287208813797829,0.0910814544414016,-0.17545464178449324,0.02629036637134251,0.10997782301600409,-0.2543016847967565
70,7.994254299992463,-0.008761607923628355,0.009212836531248643,0.022074236860662764,0.040661621336054374,0.02565431193527907,-0.0425971682215557,0.09298605963752443,0.09157136105247213,-0.1765901230194362,0.024630657637835725,0.10892974271243856,-0.25307654910827926
71,7.998752300001797,-0.008578686777675945,0.009328575079505946,0.021881815386755966,0.041078047062870264,0.02606525022834408,-0.04339006997480856,0.09309256768475799,0.09205653113879254,-0.17772003817253978,0.02295535057852343,0.10786128583303813,-0.2518143795381863
72,8.003682599999593,-0.008393900762407277,0.0094461577296326,0.021685833793905433,0.04149493270895759,0.02647834930212608,-0.044188016263297054,0.09319154279457775,0.09253687353554173,-0.17884422118804966,0.021264594806535038,0.10677247012761927,-0.25051504336228986
73,8.007275500000105,-0.008207247894807,0.009565594104310203,0.021486269561627042,0.04191224440429598,0.026893587345343587,-0.04499098105933998,0.09328291616405303,0.09301229716698517,-0.1799625054275419,0.019558545559686637,0.10566331759507772,-0.24917841308456695
74,8.010875199994189,-0.008018726344141473,0.009686893727687041,0.02128310028759825,0.042329947972478035,0.027310942139306925,-0.045798937588152525,0.09336661969768267,0.09348271106522327,-0.18107472369399077,0.017837363728966965,0.10453385437505974,-0.24780436673790085
75,8.014383200003067,-0.007828334433322976,0.009810066023555723,0.02107630369100748,0.042748008933931436,0.027730391058442057,-0.04661185832540142,0.09344258603274001,0.09394802438850866,-0.18218070825719254,0.016101216081093918,0.10338411080576512,-0.2463927880052283
76,8.017876500001876,-0.007636070640259261,0.009935120313533346,0.020865857615914266,0.043166392509256225,0.028151911070895985,-0.0474297149948771,0.0935107485665241,0.09440814644051194,-0.18328029087891767,0.014350275638598283,0.10221412184225628,-0.24494356601561026
77,8.0215651000035,-0.007441933599187889,0.010062065815244556,0.02065174003461947,0.04358506362269083,0.028575478739233055,-0.048252478566273974,0.09357104148510689,0.09486298669238347,-0.1843733028365093,0.012584721728915393,0.10102392761054789,-0.24345659524351246
78,8.025793499997235,-0.007245922101994748,0.010190911640507946,0.020433929051045296,0.044003986905706685,0.02900107022123783,-0.04908011925307384,0.09362339979102399,0.09531245480697893,-0.1854595749471337,0.010804739719919765,0.09981357361796213,-0.2419317756822639
79,8.02931979999994,-0.0070480350995162176,0.010321666793526297,0.020212402904124474,0.044423126700722126,0.029428661270828257,-0.049912606510543224,0.09366775932965446,0.09575646066280419,-0.18653893759293153,0.009010520916788495,0.09858311054264633,-0.24036901302314012
80,8.0334514999995,-0.006848271702824446,0.010454340169081155,0.019987139971198175,0.04484244706493315,0.029858227239072877,-0.05074990903384196,0.09370405681598831,0.0961949143763567,-0.18761122074687137,0.0072022627342475274,0.09733259397226257,-0.23876821892173405
81,8.037567199993646,-0.006646631184495217,0.010588940550732178,0.019758118771422133,0.04526191177426691,0.030289743075303976,-0.051591994756251924,0.09373222986254823,0.09662772632373125,-0.18867625400028532,0.005380168856939193,0.09606208442595138,-0.2371293112492728
82,8.041811299990513,-0.0064431129798578415,0.010725476609021676,0.019525317969180424,0.04568148432746242,0.030723183328328203,-0.052438830847532106,0.09375221700759254,0.097054807163158,-0.1897338665909722,0.003544449134302708,0.09477164754769055,-0.23545221415070905
83,8.045752499994705,-0.0062377166882264965,0.010863956899684795,0.019288716377506305,0.04610112795027651,0.031158522147741466,-0.053290383712398914,0.09376395774209596,0.09747606785833902,-0.19078388743125313,0.0016953192893421518,0.09346135419831587,-0.23373685810257988
84,8.04978420000407,-0.006030442074112465,0.011004389861865823,0.0190482929615096,0.04652080559980604,0.03159573328534845,-0.05414661898913238,0.09376739253534568,0.09789141970181015,-0.1918261451365927,-0.00016699914467561928,0.09213128044585775,-0.23198318006818378
85,8.058792499999981,-0.0058212890684167864,0.01114678381634109,0.01880402684181001,0.04694047996892297,0.03203479009668662,-0.055007501548312666,0.09376246286135538,0.0983007743381909,-0.19286046805504362,-0.0020422785440738903,0.09078150763057968,-0.23019112366168132
86,8.063192999994499,-0.005610257769602797,0.01129114696374891,0.018555897297975812,0.04736011349083304,0.032475665542653874,-0.055872995491689836,0.09374911122696909,0.09870404378812857,-0.19388668429733666,-0.003930284953946577,0.08941212254670339,-0.22836063924475303
87,8.067299899994396,-0.005397348444847972,0.01143748738282705,0.018303883771967296,0.047779668343762405,0.03291833219124689,-0.056743064151189716,0.0937272812004309,0.09910114047317488,-0.1949046217671907,-0.005830778034373707,0.08802321757516156,-0.22649168403828904
88,8.071170900002471,-0.005182561531174516,0.01158581302865823,0.018047965871584346,0.048199106455772016,0.033362762219411424,-0.05761767008805498,0.0936969174399702,0.09949197724091834,-0.19591410819240246,-0.007743511023794554,0.08661489066922463,-0.22458422231568306
89,8.075140499990084,-0.004965897636558108,0.011736131730924167,0.01778812337391757,0.048618389509700176,0.03380892741500566,-0.05849677509212932,0.09365796572269931,0.09987646738973227,-0.19691497115688666,-0.009668230646951338,0.08518724526993424,-0.22263822554789156
90,8.07922659999167,-0.004747357541014246,0.01188845119216864,0.0175243362288023,0.0490374789482356,0.034256799178872026,-0.05938034018128531,0.09361037297402273,0.10025452469315017,-0.19790703813306437,-0.011604677023014319,0.08374039038335522,-0.2206536725195578
91,8.083435799999279,-0.004526942197661588,0.012042778986070075,0.017256584562274836,0.04945633597912318,0.03470634852701874,-0.06026832560099852,0.0935540872973572,0.10062606342530526,-0.19889013651494258,-0.013552583612405012,0.08227444078138549,-0.21863054950755864
92,8.087448599995696,-0.004304652733761694,0.012199122555724152,0.01698484868003025,0.04987492158050314,0.03515754609291935,-0.061160690824071495,0.09348905800401694,0.10099099838710336,-0.1998640936521008,-0.015511677170382007,0.08078951719496598,-0.21656885034943973
93,8.091660999998567,-0.004080490451734569,0.012357489211936964,0.016709109070881113,0.05029319650638428,0.035610362129928554,-0.062057394550512075,0.09341523564334918,0.10134924493339195,-0.2008287368833833,-0.017481677672743848,0.07928574654173778,-0.2144685764339709
94,8.095349399998668,-0.0038544568301494193,0.01251788613152925,0.016429346410216386,0.05071112129225287,0.03606476651382495,-0.06295839470755898,0.09333257203328449,0.10170071900117092,-0.201783893570801,-0.019462298195020065,0.07776326194085255,-0.2123297369368542
95,8.100441899994621,-0.003626553524689986,0.012680320355652318,0.01614554156345991,0.05112865626081942,0.03652072874547939,-0.06386364844986361,0.0932410202915537,0.10204533713689419,-0.20272939113533384,-0.02145324470351588,0.0762222024465119,-0.2101523490873643
96,8.104252299992368,-0.003396782369093856,0.012844798788116165,0.015857675589527682,0.05154576152790697,0.0369782179536421,-0.0647731121598361,0.09314053486810871,0.10238301652229526,-0.20366505709321936,-0.023454215770748195,0.07466271287321725,-0.20793643832405573
97,8.108279799998854,-0.0031651453760650895,0.013011328193730343,0.015565729744283236,0.051962397008488065,0.037437202897842206,-0.06568674144815193,0.0930310715788866,0.10271367500012456,-0.20459071909314883,-0.025464902443991955,0.07308494396116526,-0.20568203853332984
98,8.112419299999601,-0.0029316447381594916,0.013179915196658037,0.015269685483990391,0.05237852242287531,0.03789765197140529,-0.06660449115443098,0.09291258763940718,0.10303723110145553,-0.2055062049546915,-0.027484988466801006,0.07148905262339567,-0.20338919215292936
99,8.116405099994154,-0.0026962828286418257,0.013350566278783945,0.014969524468762551,0.052794097303059076,0.03835953320459728,-0.06752631534808812,0.09278504169655423,0.10335360407363432,-0.20641134270641698,-0.029514150576204278,0.06987520202192263,-0.20105795023073064
100,8.120563499993295,-0.0024590622023143516,0.013523287778096494,0.014665228566007838,0.05320908099918255,0.03882281426789222,-0.06845216732935341,0.0926483938595126,0.10366271390826731,-0.2073059606248459,-0.031552058434382156,0.06824356155802482,-0.19868837259975267
101,8.125097199997981,-0.00221998559631608,0.013698085887084972,0.014356779853869264,0.05362343268615636,0.03928746247536671,-0.06938199963047144,0.0925026057321611,0.10396448136908391,-0.20818988727413884,-0.033598374269986755,0.06659430690991723,-0.19628052797550608
102,8.129055700002937,-0.0019790559308921,0.013874966651152133,0.014044160624659121,0.05403711137042359,0.03975344478821707,-0.07031576401707679,0.09234764044722034,0.10425882802026132,-0.2090629515459183,-0.03565275271688447,0.06492762027617376,-0.1938344941156756
103,8.133383799999137,-0.0017362763101322755,0.014053935967042809,0.013727353388286848,0.054450075896880105,0.0402207278184073,-0.07125341148974979,0.09218346270008905,0.10454567625646627,-0.20992498270038715,-0.037714841047892,0.06324369066289731,-0.19135035807609102
104,8.137653400001,-0.0014916500226786276,0.014234999581289168,0.013406340875679493,0.0548622849559424,0.0406892778324552,-0.0721948922857601,0.09201003878089965,0.10482494933375039,-0.21077581040844184,-0.039784279459596124,0.06154271398173716,-0.18882821635933378
105,8.141754700001911,-0.0012451805424007637,0.014418163088673221,0.013081106042193967,0.05527369709075489,0.04115906075535689,-0.07314015588099945,0.09182733660580505,0.10509657140046935,-0.2116152647941211,-0.041860701071823506,0.05982489298874963,-0.18626817496255266
106,8.14604330000293,-0.0009968715290387426,0.01460343193070721,0.012751632071020213,0.05568427070453786,0.041630042174649676,-0.07408915099210514,0.09163532574903896,0.10536046752763092,-0.2124431764771472,-0.043943731732292754,0.058090437066526744,-0.18367034944551777
107,8.14951979999023,-0.0007467268288127309,0.014790811394132478,0.012417902376574445,0.056093964068081675,0.04210218734460823,-0.07504182557877359,0.0914339774759513,0.10561656373786388,-0.21325937661598374,-0.04603298987233015,0.05633956194872498,-0.18103486507903793
108,8.152915500002564,-0.0004947504749987831,0.014980306609437425,0.012079900607881612,0.056502735327390474,0.04257546119056677,-0.07599812684626935,0.09122326477636013,0.10586478703330017,-0.21406369695170557,-0.04812808647041332,0.05457248945187447,-0.17836185699011625
109,8.15631669999857,-0.0002409466884700765,0.015171922549395067,0.011737610651946178,0.05691054251147495,0.04304982831336486,-0.07695800124813125,0.09100316239791333,0.10610506542214317,-0.2148559698523559,-0.05022862498939937,0.05278944721653206,-0.17565147026187913
110,8.159879400001955,1.4680121797065289e-05,0.015365664027620783,0.011391016637110358,0.05731734354029463,0.04352525299390736,-0.07792139448907853,0.09077364688000243,0.10633732794423277,-0.21563602835771062,-0.05233420117603601,0.05099066872582501,-0.17290386001913036
111,8.163348499991116,0.00027212535825303256,0.0155615356971507,0.011040102936398885,0.05772309623285427,0.0440016991978391,-0.0788882515281177,0.09053469658891904,0.10656150469777964,-0.2164037062244014,-0.05444440285149,0.04917639370794803,-0.17011919158388777
112,8.167099099999177,0.0005313842343413796,0.015759542049041276,0.01068485417084944,0.05812775831546084,0.04447913058034414,-0.0798585165818525,0.09028629175364362,0.10677752686853324,-0.2171588379720722,-0.0565588100293841,0.047346868675231725,-0.16729764070398764
113,8.171302299990202,0.0007924517741025975,0.01595968741099065,0.010325255212827783,0.05853128743014024,0.044957510491081536,-0.08083213312800404,0.0900284144999454,0.1069853267613415,-0.21790125893054868,-0.05867699543770781,0.04550234739290289,-0.164439393718494
114,8.175679599997238,0.001055322811815905,0.016161975945982416,0.00996129118932668,0.058933641143199544,0.045436801979267104,-0.08180904390914294,0.0897610488814993,0.1071848378335149,-0.21863080528747547,-0.06079852499424882,0.043643091092543586,-0.16154464766872165
115,8.179680699991877,0.001319991991679666,0.016366411650952442,0.00959294748524762,0.059334776953922294,0.04591696779890783,-0.08278919093663586,0.08948418090972998,0.10737599472829695,-0.21934731413647926,-0.06292295778935941,0.04176936832374802,-0.158613610376693
116,8.185074799999711,0.0015864537675310166,0.016572998355479512,0.009220209746664418,0.05973465230339785,0.04639797041418327,-0.08377251549480885,0.08919779858508313,0.10755873330690038,-0.22005062352550844,-0.0650498456514029,0.03988145467683283,-0.15564650046174847
117,8.189369500003522,0.0018547024026053164,0.016781739720500323,0.008843063884067663,0.0601332245834966,0.046879772004966694,-0.08475895814532651,0.08890189193075934,0.10773299067949543,-0.2207405725051449,-0.06717873277508511,0.037979632608528775,-0.15264354740759248
118,8.193652399990242,0.002124731969336117,0.016992639237049533,0.008461496075589119,0.06053045114600131,0.047362334472483905,-0.08574845873178782,0.08859645302731235,0.10789870523568579,-0.22141700117754376,-0.0693091558506523,0.03606419147765264,-0.14960499173513211
119,8.1974976999918,0.0023965363491963523,0.017205700225025423,0.008075492770205042,0.06092628931189202,0.047845619445107186,-0.08674095638454343,0.08828147604522645,0.10805581667581617,-0.22207975074629238,-0.07144064466773441,0.034135427695865736,-0.14653108516476707
120,8.200960899994243,0.0026701092325814198,0.017420925831981807,0.007685040690917451,0.061320696380769014,0.04832958828429434,-0.08773638952573774,0.0879569572741094,0.10820426604279776,-0.22272866356680282,-0.07357272272014963,0.032193644683434844,-0.14342209072168882
121,8.204376699999557,0.00294544411873472,0.017638319031946854,0.007290126837912312,0.061713629640399024,0.04881420209066754,-0.08873469587457729,0.08762289514985606,0.10834399575301981,-0.22336358319711336,-0.07570490743590404,0.030239152811551668,-0.14027828287754504
122,8.208471699996153,0.00322253431571619,0.01785788262426942,0.006890738491693652,0.062105046376381354,0.049299421710229066,-0.08973581245282759,0.08727929028178244,0.10847494962765875,-0.22398435444954912,-0.07783671013545017,0.028272269455850724,-0.1370999477149929
123,8.214415800001007,0.0035013729404143683,0.0180796192324935,0.006486863216192542,0.062494903881936986,0.049785207740720434,-0.09073967559054397,0.08692614548016292,0.1085970729240688,-0.22459082344299655,-0.07996763600622568,0.026293318865042502,-0.1338873830496181
124,8.218334099990898,0.003781952918602554,0.018303531303261483,0.006078488861849903,0.06288315946782119,0.0502715205381191,-0.0917462209320363,0.08656346578359231,0.10871031236591522,-0.22518283765565542,-0.08209718415236517,0.024302632026080104,-0.1306408985118583
125,8.222907000003033,0.004064266985039606,0.018529621105246776,0.005665603568672101,0.06326977047235757,0.05075832022326732,-0.09275538344207206,0.08619125848607803,0.10881461617335797,-0.2257602459780466,-0.08422484765739603,0.022300546717416648,-0.1273608155327955
126,8.22673450000002,0.004348307683615918,0.01875789072811638,0.005248195769258228,0.06365469427159318,0.05124556668863906,-0.09376709741231558,0.08580953316384096,0.10890993409366165,-0.22632289876563685,-0.08635011375128024,0.02028740748406488,-0.12404746730952772
127,8.232022700001835,0.004634067367545124,0.01898834208152408,0.004826254191798055,0.06403788828957245,0.051733219605242874,-0.09478129646800214,0.08541830170091236,0.10899621743115592,-0.22687064789153677,-0.08847246425917214,0.018263565415735265,-0.12070119877641326
128,8.237015899998369,0.004921538199602038,0.01922097689413484,0.004399767863039571,0.06441931000872149,0.05222123842965696,-0.09579791357484896,0.08501757831191767,0.10907341907585949,-0.22740334679886803,-0.09059137627348926,0.016229377818108907,-0.11732236650200999
129,8.2429065000033,0.00521071215240731,0.019455796712680943,0.00396872611122507,0.06479891698032593,0.052709582411188276,-0.09681688104619804,0.08460737956165748,0.10914149353049793,-0.2279208505525388,-0.09270632266987128,0.014185207965779436,-0.11391133861028997
130,8.2463843000005,0.0055015810087591654,0.019692802901050473,0.0035331185689947537,0.06517666683509048,0.053198210599149476,-0.09783813055039063,0.08418772438327275,0.10920039693691613,-0.22842301589090583,-0.0948167720236956,0.012131425106838942,-0.11046849481214874
131,8.250584399997024,0.005794136362012579,0.019931996639408606,0.0030929351762568084,0.06555251729377941,0.05368708185025442,-0.09886159311837252,0.08375863409857306,0.10925008710313722,-0.22890970127783183,-0.09692218769716686,0.010068404676169571,-0.10699422658172268
132,8.25455040000088,0.00608836961650626,0.020173378923352282,0.0026481661830229267,0.06592642617795806,0.05417615483613734,-0.09988719915153448,0.08332013244437371,0.10929052353168421,-0.22938076695592594,-0.09902202657395598,0.00799652856120963,-0.10348893739262423
133,8.26299889999791,0.0063842719880379825,0.020416950563098807,0.0021988021522082,0.0662983514208691,0.05466538805100186,-0.10091487842979413,0.08287224560415073,0.10932166744901796,-0.22983607500071565,-0.10111573835688371,0.005916185314986282,-0.09995304290533806
134,8.266564999998081,0.006681834504388927,0.02066271218270899,0.0017448339623943002,0.06666825107845734,0.055154739819403685,-0.10194456011992134,0.08241500224066473,0.10934348183576575,-0.2302754893755648,-0.1032027657631259,0.0038277701854682045,-0.09638697115185152
135,8.270372899991344,0.0069810480058976965,0.02091066421934542,0.0012862528105548445,0.06703608334053807,0.05564416830417022,-0.10297617278411164,0.08194843352586856,0.10935593145642199,-0.23069887598749822,-0.10528254520745921,0.00173168499814102,-0.09279116274123639
136,8.274173400001018,0.007281903146084633,0.021160806922566486,0.0008230502147418337,0.06740180654208959,0.056133631514449084,-0.10400964438881134,0.08147257316741512,0.10935898288852566,-0.2311061027439599,-0.1073545075748857,-0.00037166191023268324,-0.08916607095144159
137,8.277903499998502,0.007584390392326919,0.021413140353656705,0.0003552180167320207,0.0677653791746588,0.056623087313888945,-0.10504490231379904,0.08098745743164891,0.10935260455176811,-0.2314970396094594,-0.10941808000956799,-0.0024818560836533717,-0.08551216128953829
138,8.283573399996385,0.007888500026584986,0.021667664384993974,-0.00011725161536794477,0.06812675989785956,0.057112493428948585,-0.10608187336151777,0.08049312515410034,0.10933676673366118,-0.23187155865839348,-0.11147269000448207,-0.004598477905775144,-0.08182991020681372
139,8.28768900000432,0.008194222146180544,0.021924378699454267,-0.0005943661845586836,0.0684859075508722,0.05760180745730748,-0.10712048376662936,0.07998961772586906,0.1093114416100615,-0.2322295341201909,-0.11351777018229683,-0.006721103556363822,-0.07811980346915556
140,8.293855700001586,0.008501546664625933,0.02218328278985418,-0.0010761328624284674,0.06884278116381999,0.058090986876358615,-0.1081606592057507,0.07947697906132252,0.10927660326227703,-0.23257084241754658,-0.11555276030253116,-0.008849305533931708,-0.07438233522699454
141,8.297733799990965,0.00881046331250398,0.022444375958431656,-0.0015625584866775395,0.06919733996897956,0.05857998905177217,-0.10920232480735033,0.07895525556651244,0.109232227692913,-0.232895362203241,-0.11757710583581596,-0.010982652617712307,-0.07061800817049703
142,8.301760399990599,0.009120961638397703,0.022707657316365176,-0.0020536495586870843,0.0695495434118746,0.059068771246130185,-0.11024540516181429,0.07842449611963573,0.10917829284331881,-0.2332029743997637,-0.11959025558003336,-0.013120709397948103,-0.06682733410751754
143,8.305937700002687,0.009433031009869475,0.022973125783331782,-0.0025494122411336504,0.06989935116231134,0.059557290627646434,-0.11128982433169742,0.07788475206078992,0.10911477861363857,-0.23349356224130607,-0.12159166034299283,-0.01526303596623423,-0.06301083424105133
144,8.310157999992953,0.009746660614489505,0.023240780087104326,-0.0030498523556498854,0.07024672312538066,0.060045504278980553,-0.11233550586216508,0.07733607718422601,0.10904166688302987,-0.2337670113158685,-0.12358077281617438,-0.017409187930398678,-0.05916903907379526
145,8.314345399994636,0.010061839460913494,0.023510618763188388,-0.003554975380532427,0.07059161945242413,0.06053336920613891,-0.11338237279162139,0.07677852772923409,0.10895894152958115,-0.2340232096063988,-0.12555704790379663,-0.01955871648646769,-0.055302488212457215
146,8.31831339999917,0.010378556380009275,0.023782640154499202,-0.004064786448497774,0.07093400055195455,0.06102084234746701,-0.1144303476625192,0.07621216236945054,0.10886658844988625,-0.2342620475311477,-0.12751994302332,-0.021711168699944584,-0.051411730246339424
147,8.321641299990006,0.010696800026032217,0.02405684241107907,-0.004579290344486946,0.0712738271005263,0.06150788058272561,-0.11547935253234952,0.07563704220105372,0.10876459557644394,-0.23448341798372044,-0.12946891843190406,-0.02386608799412302,-0.04749732268930907
148,8.325152299992624,0.011016558877849181,0.024333223489855525,-0.00509849150351972,0.07161106005355017,0.06199444074223886,-0.11652930898481008,0.07505323072914893,0.10865295289286135,-0.23468721637291268,-0.13140343770149318,-0.026023014647848026,-0.043559831850428346
149,8.329383199990843,0.011337821240210728,0.024611781154440647,-0.005622394008599268,0.07194566065604191,0.062480479616106484,-0.11758013814115131,0.07446079385171141,0.10853165244679784,-0.23487334066160417,-0.1333229683300179,-0.028181486182877098,-0.03959983256082423
150,8.333709600003203,0.011660575245071282,0.024892512974971682,-0.0061510015886679596,0.07227759045329327,0.06296595396346784,-0.11863176067169305,0.07385979984050013,0.10840068836170103,-0.2350416914041498,-0.1352269823557184,-0.030341037489873518,-0.035617907812756096
151,8.337632900002063,0.011984808852956871,0.025175416327993274,-0.006684317616615082,0.07260681130144968,0.06345082052181912,-0.11968409680750525,0.07325031931950175,0.10826005684862278,-0.23519217178204224,-0.13711495681195968,-0.0325012008426075,-0.0316146484201432
152,8.341794899999513,0.012310509854379972,0.025460488396381504,-0.007222345107337209,0.07293328537798839,0.06393503601638319,-0.12073706635224388,0.0726324252417732,0.10810975621782816,-0.23532468763826436,-0.13898637399064867,-0.0346615058246947,-0.027590652960029913
153,8.346264399995562,0.01263766587130104,0.025747726169309985,-0.007765086715851867,0.07325697519208885,0.0644185571695307,-0.12179058869413918,0.07200619286552759,0.10794978689126722,-0.2354391475124279,-0.14084072103142897,-0.0368214790265087,-0.023546528138724144
154,8.349794199995813,0.012966264358636187,0.026037126442258234,-0.008312544735465215,0.07357784359489673,0.06490134071026156,-0.1228445828181461,0.07137169973465417,0.10778015141689698,-0.23553546267840322,-0.14267748830385862,-0.03898064372511261,-0.019482889548647152
155,8.354644099992584,0.013296292605810592,0.026328685817062644,-0.008864721095994474,0.07389585378972,0.06538334338375429,-0.12389896731826935,0.07072902566928602,0.10760085448401831,-0.23561354718623304,-0.14449616737012067,-0.04113851955449944,-0.015400362530343156
156,8.358887399997911,0.013627737738357447,0.026622400702010333,-0.009421617362045935,0.07421096934220846,0.06586452196098473,-0.12495366041008907,0.07007825276455665,0.10741190294054972,-0.23567331790747828,-0.14629625064641882,-0.04329462241942086,-0.011299582150817934
157,8.362685200001579,0.013960586719562485,0.026918267311976215,-0.009983234731349514,0.0745231541905387,0.06634483324843005,-0.12600857994349177,0.06941946538419871,0.10721330580913563,-0.23571469457693792,-0.1480772348078234,-0.04544846590294882,-0.0071811915424232434
158,8.370927900003153,0.014294826352154098,0.02721628166860372,-0.010549574033150716,0.0748323726555364,0.06682423409783163,-0.12706364341556944,0.06875275012882236,0.10700507429182042,-0.23573759982312553,-0.1498386268885568,-0.047599563956547894,-0.0030458391916718588
159,8.375391099994886,0.014630443280038475,0.02751643960052925,-0.011120635726660652,0.0751385894505772,0.06730268141594092,-0.12811876798362337,0.06807819577490766,0.10678722176207674,-0.2357419591857201,-0.151579948345833,-0.049747432513716244,0.0011058228549036945
160,8.380400800000643,0.01496742399007835,0.02781873674365015,-0.011696419899564414,0.07544176969116302,0.067780132174211,-0.12917387047821938,0.06739589320670583,0.10655976375503519,-0.2357277011299825,-0.15330073414262338,-0.05189158911884578,0.005273138443448859
161,8.383884800001397,0.015305754813913854,0.028123168541435897,-0.012276926266587952,0.0757418789042133,0.0682565434184549,-0.1302288674163207,0.06670593536344221,0.10632271796283482,-0.2356947570691054,-0.15500052999073638,-0.054031552323461046,0.009455446000824333
162,8.391568699997151,0.01564542192982444,0.02842973024528254,-0.012862154168124003,0.07603888303716867,0.06873187227849559,-0.13128367501454333,0.06600841719589584,0.10607610423025739,-0.23564306139037364,-0.1566788927020526,-0.05616684254959,0.013652078696049544
163,8.395301500000642,0.01598641136463122,0.028738416914910286,-0.013452102568917629,0.07633274846689361,0.06920607597778523,-0.13233820920252304,0.06530343561045839,0.10581994454234939,-0.2355725514760691,-0.15833539288621395,-0.05829698353854612,0.017862365476673192
164,8.398900599990156,0.016328708995638586,0.029049223418804008,-0.014046770056811793,0.0766234420082793,0.06967911184294436,-0.13339238563635786,0.06459108940156555,0.10555426300708769,-0.23548316772035402,-0.1599696152168271,-0.06042150245172399,0.022085630832550517
165,8.402819099996123,0.016672300552613557,0.029362144434696247,-0.014646154841553231,0.07691093092254142,0.07015093731322593,-0.13444611971212622,0.06387147919337312,0.1052790858420993,-0.23537485355229038,-0.16158115573031206,-0.06253992877618694,0.0263211932353574
166,8.408273699998972,0.017017171619801666,0.02967717445009244,-0.015250254753659036,0.077195182925301,0.07062150994993566,-0.1354993265795355,0.0631447073963675,0.10499444136712355,-0.23524755546669182,-0.1631696199384213,-0.06465179358546337,0.030568364451341683
167,8.411789399993722,0.017363307637978654,0.029994307762838228,-0.015859067243344696,0.0774761661944938,0.07109078744582861,-0.13655192115571635,0.06241087816593745,0.10470035999734877,-0.23510122305329487,-0.16473462320095048,-0.06675662993218039,0.0348264503636657
168,8.416612799992436,0.017710693906537154,0.03031353848172881,-0.016472589379514166,0.07775384937808022,0.07155872763446985,-0.1376038181391323,0.061670097355648275,0.10439687423235984,-0.23493580902024974,-0.16627579163138126,-0.0688539736846014,0.03909475194852115
169,8.420821299994714,0.018059315585607395,0.030634860527160045,-0.017090817848812414,0.07802820160153655,0.07202528849953213,-0.13865493202358445,0.0609224724677068,0.10408401864198671,-0.23475126921455391,-0.16779276272419577,-0.07094336404239593,0.043372565883750575
170,8.425048799996148,0.01840915769821095,0.03095826763182102,-0.01771374895474085,0.07829919247512142,0.07249042818402983,-0.13970517711230393,0.06016811260062022,0.10376182985063503,-0.23454756264009494,-0.1692851861295726,-0.07302434396928462,0.04765918510513544
171,8.429371899997932,0.01876020513244648,0.03128375334142782,-0.01834137861683603,0.07856679210089848,0.07295410499947641,-0.1407544675321181,0.05940712839272639,0.10343034651926188,-0.23432465147310438,-0.1707527240309559,-0.07509646052106565,0.05195389898722507
172,8.433357599991723,0.019112442643706345,0.03161131101549807,-0.018973702369911877,0.07883097107949744,0.07341627743495702,-0.14180271724768137,0.05863963196647291,0.10308960932677008,-0.23408250107858203,-0.1721950502681685,-0.07715926455015178,0.05625599278044104
173,8.437656299996888,0.019465854856922878,0.03194093382816591,-0.01961071536336579,0.0790917005166379,0.07387690416611936,-0.1428498400757884,0.057865736879796834,0.1027396609546288,-0.2338210800307885,-0.17361184878177108,-0.0792123098752668,0.06056474676485626
174,8.443445199998678,0.01982042626884338,0.03227261476903701,-0.020252412360548977,0.07934895202945522,0.07433594406410866,-0.1438957496997884,0.05708555808432893,0.10238054607570024,-0.23354036013724433,-0.17500281226768474,-0.08125515275216137,0.06487943552277688
175,8.447569199997815,0.020176141250333027,0.03260634664408356,-0.02089878773820159,0.07960269775265019,0.07479335620445852,-0.1449403596841131,0.056299211888816425,0.10201231134359803,-0.23324031646573407,-0.17636764091321072,-0.08328735141464932,0.06919932714686713
176,8.451162800003658,0.020532984048704916,0.03294212207657883,-0.02154983548595311,0.0798529103444875,0.0752490998759306,-0.14598358348893273,0.05550681592864175,0.10163500538562238,-0.23292092737539372,-0.1777060408079678,-0.08530846491922033,0.07352368236659276
177,8.454876999996486,0.020890938790076658,0.033279933508071305,-0.02220554920588868,0.08009956299267253,0.07570313458934226,-0.1470253344849624,0.0547084891434696,0.1012486788024608,-0.23258217455153443,-0.17901772279630168,-0.08731805250162253,0.07785175425861686
178,8.458433799998602,0.02124998948175304,0.03361977319939828,-0.022865922112182014,0.08034262942014975,0.07615542008640354,-0.1480655259684298,0.053904351757038296,0.10085338416688275,-0.23222404303932234,-0.18030240321197402,-0.08931567435554427,0.08218278914845173
179,8.461931300000288,0.021610120014634516,0.03396163323173907,-0.023530947030795717,0.08058208389079864,0.07660591634853313,-0.1491040711761829,0.05309452524823031,0.10044917601647006,-0.23184652127053115,-0.1815598056740287,-0.09130089263749568,0.08651602810721946
180,8.466468400001759,0.021971314165650853,0.03430550550770754,-0.02420061639924944,0.08081790121497308,0.07705458360563029,-0.15014088330089723,0.05227913231478804,0.10003611084331647,-0.23144960108382384,-0.18278966233916152,-0.09327327211645985,0.09085070826897267
181,8.470923899993068,0.022333555600219213,0.034651381752483834,-0.024874922266456313,0.0810500567548725,0.0775013823447986,-0.15117587550636513,0.051458296833173905,0.09961424708094271,-0.23103327773971336,-0.18399171532313402,-0.09523238143181538,0.09518606425400591
182,8.47500749999017,0.022696827874725878,0.034999253514984986,-0.025553856292627967,0.08127852642972193,0.07794627331900074,-0.15220896094283698,0.05063214380956237,0.09918364508273586,-0.23059754992810363,-0.18516571869840598,-0.09717779480432484,0.09952132982910628
183,8.479266599999391,0.023061114439030698,0.035349112169074125,-0.02623740974924829,0.08150328672070453,0.07838921755558925,-0.1532400527623779,0.049800799321818405,0.09874436709354864,-0.2301424197683887,-0.18631143984540388,-0.09910909300377399,0.10385573918228294
184,8.483405799997854,0.02342639863899297,0.03570094891480746,-0.026925573519115925,0.08172431467562222,0.07883017636470711,-0.15426906413420985,0.04896439045839373,0.098296477219477,-0.22966789280558303,-0.18742865986715032,-0.10102586367891744,0.10818852770212184
185,8.491645799993421,0.023792663719017608,0.03605475477971867,-0.02761833809645534,0.0819415879132812,0.07926911134754794,-0.15529590826003375,0.048123045256593736,0.09784004139650596,-0.2291739780034443,-0.18851717384039318,-0.10292770155006231,0.11251893306961815
186,8.495848899998236,0.024159892824620274,0.03641052062013984,-0.02831569358709649,0.08215508462760004,0.07970598440447589,-0.15632049838931,0.04727689263922579,0.09737512735856325,-0.22866068773083031,-0.18957679097616398,-0.10481420863145571,0.11684619638084211
187,8.500094599992735,0.02452806900501032,0.0367682371225585,-0.029017629708722677,0.08236478359142814,0.08014075774299993,-0.15734274783445845,0.04642606235142891,0.09690180460417454,-0.22812803774477228,-0.19060733320684892,-0.10668499344914108,0.12116956130518307
188,8.50377209999715,0.024897175215690116,0.03712789480501,-0.029724135791186268,0.08257066416008826,0.08057339388559524,-0.1583625699859874,0.0455706849099698,0.0964201443715183,-0.22757604718436664,-0.19160863113342042,-0.10853966820469926,0.12548827061627288
189,8.507978099994943,0.025267194321069678,0.03748948401850453,-0.030435200776891977,0.08277270627474118,0.08100385567745418,-0.15937987832763897,0.044710891576350595,0.09593021963046963,-0.22700473858490156,-0.19258051878091953,-0.11037784534097714,0.1298015616320969
190,8.511627899992163,0.025638109097096125,0.03785299494848886,-0.031150813221248155,0.08297089046568748,0.08143210629423646,-0.16039458645164445,0.043846814353050816,0.0954321050883968,-0.22641413791256626,-0.19352282897483836,-0.11219913444777861,0.13410866187644754
191,8.515237100000377,0.026009902233897878,0.03821841761634277,-0.03187096129318664,0.08316519785569856,0.08185810924987204,-0.1614066080741804,0.04297858599802309,0.09492587720990345,-0.2258042746174137,-0.1944353904054618,-0.11400313993896631,0.13840878602933024
192,8.518607099991641,0.02638255633844391,0.03858574188091063,-0.032595632775752385,0.08335561016344822,0.082281828404488,-0.16241585705109812,0.042106340047213434,0.0944116142434185,-0.22517518169536813,-0.1953180281926576,-0.11578946126533152,0.1427011360883481
193,8.522685399992042,0.026756053937218673,0.03895495744006876,-0.03332481506676413,0.08354210970704519,0.08270322797244943,-0.16342224739393482,0.04123021082400131,0.09388939623903282,-0.2245268957397431,-0.19617056977832203,-0.11755769672677886,0.14698490700415104
194,8.526718599998276,0.027130377478912972,0.039326053832329,-0.034058495179547336,0.08372467940754925,0.083122272530446,-0.1644256932861042,0.04035033340897409,0.09335930504096461,-0.2238594569528038,-0.19699285503127192,-0.11930745059221075,0.15125929718575268
195,8.53080449999834,0.027505509337130366,0.039699020438478484,-0.034796659743739786,0.08390330279223324,0.08353892702546539,-0.16542610909901112,0.039466843558913924,0.09282142424166298,-0.22317290910324739,-0.19778474483703143,-0.12103833960057674,0.1555235177671414
196,8.534903199994005,0.027881431813107236,0.04007384648325456,-0.03553929500616878,0.08407796399737393,0.08395315678246902,-0.1664234094078616,0.03857987759968133,0.09227583911607964,-0.22246729945481597,-0.19854612257813337,-0.12274999391777817,0.15977679451038296
197,8.538380800004234,0.02825812713844417,0.04045052103705326,-0.036286386831798245,0.0842486477705552,0.08436492751177711,-0.16741750900713845,0.037689572331951256,0.09172263656720685,-0.2217426787067415,-0.19927688890604928,-0.12444205338422744,0.16401836289655364
198,8.541879399999743,0.028635577477846653,0.040829033017670345,-0.03703792070474447,0.08441533947261518,0.08477420531625693,-0.1684083229258782,0.03679606497089538,0.09116190509393875,-0.2209991009663018,-0.19997695478896294,-0.12611416310407572,0.1682474615689221
199,8.54591509999591,0.029013764931873878,0.04120937119207413,-0.03779388172935997,0.0845780250794094,0.08518095669842013,-0.16939576644290105,0.0358994931141505,0.09059373477609206,-0.2202366237479584,-0.20064623761955766,-0.12776597123750214,0.17246332877414491
200,8.55013049999252,0.029392671539695214,0.04159152417821003,-0.03855425463138552,0.08473669118347125,0.08558514856747693,-0.17037975510208006,0.0349999947163417,0.0900182172620296,-0.21945530797776902,-0.20128466121432495,-0.1293971293502292,0.17666520308760744
201,8.553845899994485,0.02977227928185389,0.04197548044683655,-0.03931902375917074,0.08489132499554712,0.08598674824632266,-0.1713602047276106,0.03409770805705693,0.08943544575055228,-0.21865521798603244,-0.20189215732105179,-0.1310072936319365,0.18085232580350136
202,8.55798899999354,0.0301525700830372,0.042361228323392376,-0.0400881730849628,0.0850419143459701,0.08638572347842985,-0.17233703143921375,0.033192771701876025,0.08884551496761606,-0.21783642149030638,-0.2024686670537458,-0.13259612585438063,0.18502394279253023
203,8.563303299990366,0.030533525814852476,0.04274875598989405,-0.04086168620626306,0.0851884476858463,0.08678204243462637,-0.1733101516672537,0.03228532445750062,0.08824852113964746,-0.2169989895714234,-0.2030141423658291,-0.1341632943205108,0.1891793067645334
204,8.567485399995348,0.03091512829860793,0.04313805148686372,-0.04163954634725117,0.08533091408802695,0.08717567371974862,-0.17427948216772643,0.031375505319596,0.08764456196176457,-0.21614299663625497,-0.20352854753476998,-0.1357084749065789,0.1933176798896024
205,8.574258299995563,0.031297359308097315,0.0435291027152864,-0.042421736360275825,0.08546930324782781,0.08756658637913524,-0.17524494003704386,0.030463453414631466,0.08703373656176414,-0.21526852037026456,-0.20401185917368658,-0.13723135091890307,0.19743833423489934
206,8.577980999994907,0.031680200572387206,0.043921897438595835,-0.0432082387274112,0.0856036054834806,0.08795474990495793,-0.17620644272659777,0.029549307947618283,0.0864161454696248,-0.21437564169636167,-0.20446406359877747,-0.13873161127584516,0.20154054893221035
207,8.58197040000232,0.03206363377860571,0.04431642328468842,-0.043999035562078105,0.08573381173638464,0.08834013424244214,-0.17716390805717563,0.0286332081675153,0.08579189059776804,-0.21346444475280937,-0.20488515438121416,-0.14020894896758612,0.20562360777400468
208,8.588218199991388,0.03244764057473199,0.044712667747964764,-0.04479410861072946,0.08585991357124863,0.08872270979602122,-0.1781172542333268,0.02771529333688098,0.08516107522434864,-0.21253501687359697,-0.20527513443275222,-0.14166306254698455,0.20968680289036262
209,8.593662999992375,0.03283220257238626,0.045110618191398694,-0.04559343925460003,0.08598190317607057,0.08910244743540754,-0.17906639985760262,0.0267957026786098,0.08452380396017033,-0.2115874485334338,-0.2056340216702538,-0.1430936604833613,0.21372944316072107
210,8.597798899994814,0.033217301349619116,0.04551026184863316,-0.04639700851151936,0.08609977336180283,0.0894793185014505,-0.18001126394443023,0.025874575294878733,0.08388018269300362,-0.21062183325282482,-0.20596185288451865,-0.14450046390954252,0.21775085939412928
211,8.603944299989962,0.033602918453698526,0.04591158582610168,-0.04720479703778573,0.08621351756160646,0.08985329481170914,-0.180951765933503,0.024952050079252077,0.08323031852991156,-0.20963826749669368,-0.20625868242486653,-0.1458832051800106,0.22175040201814877
212,8.607774599993718,0.033989035403892504,0.04631457710517412,-0.04801678513009895,0.08632312982972949,0.09022434866579399,-0.1818878257027469,0.024028265647402805,0.0825743197544741,-0.2086368506001459,-0.2065245772653297,-0.14724162441774813,0.22572743436753084
213,8.612329600000521,0.03437563369424605,0.04671922254432598,-0.04883295272755036,0.08642860484014114,0.09059245285055671,-0.18281936358104622,0.023103360293382023,0.08191229580002457,-0.20761768472716796,-0.2067596137355943,-0.14857546768563393,0.2296813291593492
214,8.616569199992227,0.034762694796351606,0.047125508881330595,-0.04965327941366954,0.08652993788501862,0.09095758064519237,-0.18374630036084047,0.02217747194960305,0.08124435722324268,-0.20658087482794307,-0.20696387951257053,-0.1498844894437346,0.23361147297425577
215,8.620692800002871,0.035150200162112434,0.04753342273547411,-0.05047774441852709,0.08662712487302313,0.09131970582619275,-0.18466855731046794,0.021250738125283483,0.08057061565539465,-0.20552652855743656,-0.20713747788653566,-0.15116845703818613,0.23751727395777478
216,8.625286499998765,0.03553813122649765,0.04794295060979204,-0.051306326620891844,0.08672016232723567,0.0916788026720121,-0.18558605618603372,0.02032329582824121,0.07989118373574441,-0.20445475616377404,-0.20728052855644527,-0.1524271517652955,0.24139816332606479
217,8.62878099999216,0.035926469410287126,0.04835407889332597,-0.05213900455043984,0.08680904738273303,0.09203484596742442,-0.1864987192427542,0.019395281496217304,0.07920617505326845,-0.20336567039334819,-0.20739316370030877,-0.15366036554360119,0.24525358881011416
218,8.633609199998318,0.03631519612280483,0.04876679386339915,-0.05297575639001311,0.08689377778390873,0.09238781100766744,-0.18740646924597568,0.01846683095384778,0.0785157041098568,-0.20225938643788066,-0.2074755233321768,-0.15486789726620617,0.24908300777784367
219,8.637694499993813,0.03670429276463974,0.049181081687910265,-0.053816559977927295,0.08697435188166396,0.09273767360247052,-0.18830922948204487,0.01753807938554808,0.07781988629467976,-0.20113602190109586,-0.2075277544318335,-0.15604955278259564,0.25288588708481446
220,8.641745599990827,0.03709374073035403,0.04959692842764512,-0.05466139281032771,0.08705076863048573,0.0930844100799692,-0.18920692376902926,0.01660916130027534,0.07711883784755164,-0.19999569674711926,-0.207550013701025,-0.1572051477904803,0.25666170814777695
221,8.646030199990491,0.03748352141117784,0.050014320038605425,-0.055510232043592955,0.08712302758532241,0.09342799729040513,-0.19009947646712577,0.015680210479740678,0.07641267580741132,-0.1988385332217356,-0.20754246962534637,-0.15833450976102229,0.2604099702042248
222,8.650091000003158,0.0378736161976895,0.05043324237435359,-0.05636305449678413,0.08719112889819831,0.0937684126095794,-0.19098681248867616,0.01475135992471463,0.0757015179584525,-0.1976646557716097,-0.20750530143749585,-0.15943747730927946,0.26413018861646764
223,8.654284499993082,0.03826400648248,0.05085368118837246,-0.0572198366541381,0.08725507331460855,0.09410563394207033,-0.19186885730785266,0.01382274181251981,0.07498548278423967,-0.1964741909807254,-0.2074386961972063,-0.16051389778661795,0.26782189054035305
224,8.65778510000382,0.03865467366280089,0.051275622136438874,-0.05808055466760342,0.08731486216975318,0.09443963972427608,-0.19274553697010438,0.012894487469475111,0.0742646894353897,-0.1952672675283777,-0.20734284577279907,-0.16156362473665278,0.2714846103785767
225,8.662264700004016,0.039045599143195116,0.05169905077901065,-0.05894518435941816,0.08737049738468532,0.09477040892734306,-0.19361677810146694,0.011966727355407774,0.07353925770646083,-0.194044016166311,-0.20721794569740437,-0.16258651685779812,0.2751178879302298
226,8.66692439999315,0.03943676433811041,0.05212395258362638,-0.05981370122472914,0.08742198146240672,0.09509792106000174,-0.1944825079178042,0.01103959104633605,0.07280930801292082,-0.19280456969327534,-0.20706419703929527,-0.16358243970872904,0.27872127207953457
227,8.670936800001073,0.03982815067449513,0.05255031292731776,-0.06068608043425251,0.08746931748386085,0.09542215617128888,-0.19534265423389016,0.010113207202239101,0.07207496135276967,-0.19154906289914533,-0.20688180968947723,-0.16455126944108467,0.28229432721964604
228,8.67519569999422,0.04021973959437587,0.05297811709903378,-0.061562296836974284,0.08751250910373992,0.09574309485303975,-0.1961971454721505,0.009187703520311057,0.07133633925009478,-0.1902776324819741,-0.2066710041694986,-0.16549289483969704,0.285836636499701
229,8.679395799990743,0.040611512557415706,0.053407350302075364,-0.06244232496288913,0.08755156054605959,0.09606071824210519,-0.19704591067100194,0.008263206686548423,0.07059356369843066,-0.18899041696304658,-0.20643201051226404,-0.1664072162030663,0.2893478002217471
230,8.683920900002704,0.04100345104345218,0.053837997656539384,-0.0633261390257756,0.08758647659953259,0.09637500802233674,-0.19788887949283337,0.007339842339022451,0.06984675711433547,-0.18768755661828312,-0.20616506520306255,-0.16729414261414535,0.2928274309555765
231,8.687760699991486,0.0413955365550142,0.05427004420177109,-0.06421371292600632,0.08761726261281465,0.0966859464263882,-0.19872598223173127,0.006417735046848723,0.06909604230518107,-0.1863691934370221,-0.20587040793770092,-0.16815358860114615,0.29627514720015535
232,8.691688499995507,0.041787750619817404,0.05470347489882424,-0.06510502025339242,0.08764392448968993,0.0969935162374124,-0.1995571498210918,0.005497008302478847,0.06834154245262014,-0.18503547111016272,-0.2055482788096416,-0.16898547132380598,0.29969056832560964
233,8.695153799999389,0.042180074793237994,0.055138274632928724,-0.06600003429006183,0.08766646868424788,0.09729770079071476,-0.20038231384124008,0.004577784525849176,0.06758338110556315,-0.18368653503422408,-0.20519891664559825,-0.16978970937452992,0.3030733125707579
234,8.699966200001654,0.04257249066076493,0.0555744282159655,-0.06689872801337192,0.08768490219610585,0.09759848397538724,-0.2012014065270787,0.003660185071571301,0.06682168217437696,-0.18232253231741294,-0.2048225594683128,-0.17056622309638023,0.3064229978152197
235,8.70340369999758,0.04296497984043098,0.056011920388948824,-0.06780107409885626,0.0876992325656503,0.09789585023590994,-0.20201436077576126,0.002744330228938249,0.06605656992101536,-0.1809436117767713,-0.20441944564847603,-0.17131493529923747,0.3097392433903282
236,8.706933299996308,0.04335752398522233,0.05645073582451555,-0.06870704492320594,0.08770946786925948,0.09818978457369668,-0.20282111015431528,0.001830339218803648,0.06528816894680695,-0.17954992392803387,-0.2039898146319741,-0.17203577183048038,0.3130216710753565
237,8.711129399991478,0.04375010478546685,0.05689085912942118,-0.0696166125672846,0.08771561671451668,0.09848027254858731,-0.20362158890722504,0.0009183301870780297,0.06451660417747733,-0.1781416209738581,-0.20353390848617448,-0.1727286634034005,0.3162699077383972
238,8.71775529999286,0.04414270397120089,0.05733227484704251,-0.0705297488191776,0.08771768823537468,0.09876730028025925,-0.20441573196394913,8.420187766524692e-06,0.06374200083457007,-0.17671885677004195,-0.20305197466550545,-0.17339354934186027,0.3194835917591353
239,8.722281399997883,0.04453530331451424,0.05777496745988635,-0.07144642517727436,0.08771569208721723,0.09905085444946392,-0.20520347494620086,-0.0008992748482907158,0.06296448438694882,-0.17528178675626088,-0.2025442687612751,-0.17403038091758793,0.322662379200471
240,8.726033899991307,0.044927884631872715,0.058218921392103204,-0.07236661285338264,0.08770963844174363,0.09933092229900417,-0.20598475417484582,-0.0018046401549956326,0.06218418049234473,-0.17383056786704087,-0.20201105579786374,-0.17463912282943406,0.32580594679129077
241,8.729839099993114,0.045320429786417336,0.05866412101200476,-0.07329028277587271,0.08769953798165804,0.0996074916344475,-0.20675950667638535,-0.0027075621738546067,0.061401214935617135,-0.17236535843579534,-0.20145261095650582,-0.17521975486760627,0.3289139948465458
242,8.733723600002122,0.04571292069023937,0.05911055063458394,-0.07421740559284964,0.08768540189517038,0.09988055082455082,-0.2075276701889951,-0.0036079286020344564,0.060615713555403676,-0.17088631807965926,-0.20086922107585295,-0.17577227431380824,0.3319862517533444
243,8.737493099994026,0.046105339306630286,0.0595581945240362,-0.07514795167535149,0.08766724187025547,0.10015008880131705,-0.20828918316797762,-0.004505628448656964,0.059827802160896316,-0.16939360756336916,-0.20026118486534988,-0.17629669631810935,0.33502247490307135
244,8.741699199992581,0.04649766765230541,0.06000703689628009,-0.07608189112057041,0.08764507008865005,0.10041609505967498,-0.20904398479058248,-0.005400552084764895,0.05903760645511796,-0.16788738867575345,-0.19962881044707656,-0.17679305121857847,0.3380224451571514
245,8.745971199998166,0.04688988779960015,0.06045706192147569,-0.07701919375509403,0.0876188992196646,0.10067855965684905,-0.20979201496035318,-0.006292591277612499,0.05824525197569153,-0.16636782414315174,-0.19897241225018622,-0.17726138097173322,0.3409859598797218
246,8.750236199994106,0.04728198187863824,0.060908253726539505,-0.07795982913816543,0.08758874241387345,0.10093747321150895,-0.21053321431117233,-0.007181639212832319,0.05745086405006922,-0.16483507756827268,-0.1982923086419425,-0.17770173674425982,0.3439128283555887
247,8.754673899995396,0.0476739320794715,0.061360596397655315,-0.07890376656496073,0.08755461329672813,0.10119282690273873,-0.21126752421106124,-0.008067590507520091,0.05665456775785906,-0.1632893133846291,-0.197588820118004,-0.1781141771039922,0.3468028680132057
248,8.758591499994509,0.048065720654190916,0.06181407398277985,-0.07985097506988312,0.0875165259621304,0.10144461246884914,-0.21199488676581715,-0.00895034121620202,0.05585648790224752,-0.16173069682920563,-0.1968622678016884,-0.17849876617088095,0.3496559011374066
249,8.76268759999948,0.04845732991900884,0.06226867049414296,-0.08080142342987294,0.08747449496599219,0.10169282220609091,-0.2127152448225683,-0.009829788830485948,0.05505674898887756,-0.16015939392631953,-0.1961129725081996,-0.1788555730960197,0.3524717538468724
250,8.766739400001825,0.04884874225631245,0.06272436991074183,-0.0817550801677336,0.08742853531981168,0.10193744896727802,-0.21342854197326655,-0.010705832276652125,0.05425547520193462,-0.15857557146944146,-0.19534125560367444,-0.17918467412163167,0.35525025898995677
251,8.770969599994714,0.04923994011668844,0.0631811561808288,-0.08271191355547289,0.08737866248425488,0.10217848616028694,-0.2141347225580798,-0.011578371922994077,0.05345279036458493,-0.15697939697913452,-0.1945474414619567,-0.17948615618854824,0.3579912620308934
252,8.775323599998956,0.04963090602091901,0.06363901322439212,-0.08367189161765926,0.08732489236266598,0.10241592774632574,-0.21483373166850814,-0.01244730959940101,0.05264881788276939,-0.15537103863218507,-0.19373185875386092,-0.17976011899965455,0.3606946245538826
253,8.779331099998672,0.050021622561948496,0.06409792493562834,-0.08463498213479104,0.08726724129447362,0.10264976823793023,-0.21552551515014173,-0.013312548616239425,0.05184368068717108,-0.15375066518817523,-0.1928948396412953,-0.18000667433992948,0.3633602229803933
254,8.783657799998764,0.05041207240682031,0.06455787518540507,-0.0856011526466774,0.08720572604853223,0.1028800026967136,-0.21621001960511985,-0.014173993776721775,0.05103750118309575,-0.15211844593009563,-0.1920367183953388,-0.18022594436406264,0.3659879450311418
255,8.787575399997877,0.05080223829858396,0.06501884782371323,-0.08657037045582962,0.0871403638164176,0.10310662673091386,-0.21688719239435708,-0.0150315513834179,0.05023040120776764,-0.15047455062258824,-0.1911578299746542,-0.18041805980925327,0.3685776865545641
256,8.791861499994411,0.05119210305817202,0.0654808266821079,-0.08754260263086189,0.08707117220570991,0.10332963649276129,-0.21755698163962858,-0.01588512923789845,0.04942250199620793,-0.14881914948094888,-0.1902585086600193,-0.1805831580294466,0.37112934943562226
257,8.796068199997535,0.05158164958624697,0.06594379557613698,-0.0885178160099013,0.08699816923329251,0.10354902867572041,-0.21821933622551884,-0.016734636635023416,0.04861392415612697,-0.14715241314808916,-0.18933908717518774,-0.18072138185398112,0.3736428390997328
258,8.804424899994046,0.0519708608650182,0.06640773830775734,-0.08949597720400614,0.08692137331868607,0.10376480051163267,-0.21887420580130065,-0.017579984354716017,0.04780478764401948,-0.14547451268588243,-0.18839989681124267,-0.18083288014856258,0.37611806431948835
259,8.808400099995197,0.0523597199600292,0.06687263866773789,-0.09047705260059259,0.086840803277421,0.10397694976774446,-0.21952154078280647,-0.01842108465736437,0.04699521173503522,-0.14378561955385585,-0.18744126907281652,-0.1809178109693207,0.37855494385148614
260,8.812545399996452,0.05274821002191522,0.06733848043804917,-0.09146100836686986,0.08675647831441273,0.1041854747435801,-0.22016129235411663,-0.019257851290331376,0.046185314970840934,-0.14208590554112718,-0.18646353841561458,-0.18097634628463255,0.3809534152581922
261,8.816678000002867,0.05313631428813117,0.06780524739423842,-0.09244781045328199,0.0866684180172759,0.10439037426750311,-0.22079341246882142,-0.020090199507861166,0.04537521508722391,-0.14037554266612864,-0.1854670436572608,-0.18100867350252703,0.38331343754016706
262,8.822587999995449,0.05352401608464939,0.06827292330778835,-0.0934374245969542,0.08657664234952145,0.10459164769294117,-0.2214178538508117,-0.020918046090218047,0.0445650289482815,-0.1386547030849815,-0.18445212587003176,-0.18101499214273853,0.38563498554531933
263,8.826126400002977,0.05391129882762672,0.06874149194845845,-0.09442981632514187,0.08648117164369944,0.10478929489435831,-0.2220345699947208,-0.02174130934472991,0.04375487250381456,-0.13692355904126513,-0.18341912479139116,-0.18099550865194014,0.3879180408546965
264,8.829621099997894,0.05429814602504086,0.06921093708660772,-0.09542495095868082,0.08638202659458684,0.10498331626309845,-0.2226435151662655,-0.022559909092796353,0.042944860769928,-0.1351822828559767,-0.18236837705306655,-0.1809504332491699,0.3901625867501225
265,8.834663100002217,0.054684541278296424,0.06968124249549873,-0.0964227936154393,0.08627922825244665,0.10517371270318394,-0.22324464440259803,-0.023373766655079776,0.04213510781466219,-0.13343104692234709,-0.18130021634575944,-0.18087998099132524,0.3923686100743062
266,8.840088199998718,0.05507046828380103,0.07015239195358276,-0.09742330921377146,0.08617279801634822,0.1053604856270305,-0.2238379135126007,-0.024182804839987904,0.041325726729055816,-0.13167002367915004,-0.18021497441588424,-0.1807843751005839,0.3945361061270865
267,8.843635299999733,0.05545591083451151,0.07062436924676553,-0.09842646247597195,0.0860627576275295,0.10554363695098672,-0.22442327907699897,-0.024986947937787128,0.0405168295829921,-0.1298993855616896,-0.1791129816653398,-0.18066384864613455,0.39666508104198844
268,8.848259399994276,0.0558408528214506,0.07109715817065237,-0.09943221793173043,0.08594912916277005,0.10572316909065374,-0.2250006984482172,-0.025786121714453825,0.03970852738120778,-0.12811930495383567,-0.17799456606731057,-0.18051864276632715,0.3987555487674527
269,8.85178569999698,0.05622527823519382,0.07157074253277208,-0.10044053992158489,0.08583193502780827,0.10589908495603102,-0.2255701297500626,-0.026580253396082575,0.03890093003505361,-0.12632995416603385,-0.17686005116430462,-0.18034900281750346,0.4008075244341595
270,8.85607059999893,0.05660917116732724,0.07204510615477865,-0.10145139260037327,0.08571119795085407,0.1060713879465832,-0.22613153187738402,-0.02736927164481707,0.03809414635297682,-0.12453150544671288,-0.17570975418205573,-0.18015517510355736,0.40282101796964515
271,8.859924499993213,0.056992515811876324,0.07252023287463091,-0.10246473994068377,0.0855869409762215,0.10624008194630066,-0.22668486449585795,-0.028153106526375052,0.0372882840415567,-0.1227241310174527,-0.17454398503244192,-0.17993740614158524,0.40479603212009063
272,8.863280899997335,0.05737529646670664,0.07299610654875013,-0.10348054573630457,0.08545918745813215,0.10640517131877568,-0.22723008804196226,-0.02893168947705393,0.03648344970256056,-0.12090800310209984,-0.17336304774511646,-0.17969594538936262,0.40673256746535846
273,8.867925099999411,0.05775749753489726,0.07347271105415554,-0.10449877360567386,0.08532796105464308,0.10656666090223663,-0.22776716372302272,-0.02970495328407086,0.0356797488095645,-0.11908329391704364,-0.17216724350552096,-0.17943105108894877,0.4086306321522001
274,8.873846899994533,0.05813910352608716,0.07395003029057742,-0.10551938699533002,0.0851932857216262,0.10672455600441486,-0.22829605351709972,-0.030472832079762896,0.03487728565270075,-0.11725017561320555,-0.17095687302558243,-0.17914299630374922,0.41049025059765953
275,8.87875659999554,0.05852009905779465,0.0744280481825468,-0.1065423491833606,0.08505518570674821,0.1068788623970843,-0.22881672017251553,-0.031235261343148215,0.03407616326123812,-0.11540882018840753,-0.16973223749126298,-0.17883207118078853,0.41231146728378737
276,8.883627000002889,0.05890046885670993,0.07490674868145956,-0.10756762328284827,0.08491368554343591,0.10702958631023535,-0.22932912720695658,-0.031992177902608186,0.033276483328078775,-0.11355939939539318,-0.16849363825271302,-0.17849858159753734,0.4140943456924834
277,8.88759339999524,0.05928019775996052,0.07538611576761405,-0.10859517224531182,0.08476881004483217,0.10717673442593857,-0.22983323890617738,-0.03274351993467502,0.032478346144451525,-0.11170208466373083,-0.16724137567269817,-0.1781428463954683,0.41583896412560284
278,8.891793599992525,0.059659270716349654,0.07586613345222022,-0.10962495886414042,0.08462058429777207,0.10732031387193403,-0.2303290203224037,-0.033489226956405604,0.03168185054917219,-0.10983704704525069,-0.16597574802490403,-0.17776519405089697,0.417545410483136
279,8.89606709999498,0.060037672787567845,0.07634678577937985,-0.11065694577802039,0.08446903365680716,0.10746033221504078,-0.23081643727254814,-0.034229239814307436,0.030887093893137655,-0.1079644571826907,-0.16469705069117735,-0.17736596019915984,0.41921377835348506
280,8.900615599995945,0.06041538914937776,0.07682805682803676,-0.11169109547435349,0.08431418373828074,0.10759679745442839,-0.23129545633633256,-0.0349635006695266,0.030094172010748346,-0.10608448529013127,-0.1634055756182141,-0.17694548643489227,0.42084416523233975
281,8.904220800002804,0.06079240509277275,0.07730993071389668,-0.11272737029266683,0.08415606041448466,0.10772971801477062,-0.23176604485432853,-0.03569195298191028,0.029303179195141523,-0.10419730113758476,-0.162101611299199,-0.17650411975087313,0.4224366711693249
282,8.908484600004158,0.061168706025109425,0.07779239159131629,-0.11376573242801366,0.08399468980787729,0.10785910273929519,-0.23222817092594192,-0.0364145414950304,0.028514208174636905,-0.10230307404354459,-0.16078544284117754,-0.17604221218990435,0.4239913980731349
283,8.912503699990339,0.06154427747121443,0.07827542365516085,-0.11480614393436524,0.0838300982853744,0.10798496088272672,-0.2326818034073865,-0.03713121222084919,0.027727350091086123,-0.10040197286579483,-0.15945735230365526,-0.17556012038047625,0.425508450424768
284,8.916758199993637,0.061919105074465915,0.07875901114263004,-0.11584856672799347,0.08366231245270436,0.1081073021041426,-0.23312691190958637,-0.0378419124277738,0.02694269448047481,-0.09849416598757484,-0.15811761897068646,-0.17505820526536925,0.4269879353734611
285,8.920936800001073,0.06229317459784977,0.07924313833505163,-0.116892962590844,0.08349135914880598,0.10822613645974233,-0.23356346679602566,-0.038546590627757435,0.026160329253701455,-0.09657982130753003,-0.1567665188849788,-0.17453683198613285,0.4284299621807369
286,8.924995900000795,0.06266647192499096,0.07972778955964265,-0.11793929317389962,0.08331726544029916,0.10834147439553135,-0.233991439180561,-0.039245196560183535,0.025380340678213577,-0.09465910623085316,-0.15540432459572057,-0.17399636967022922,0.42983464208046834
287,8.929272900000797,0.06303898306116026,0.08021294919123753,-0.11898752000053374,0.08314005861602695,0.10845332673992596,-0.234410800925192,-0.03993768117670961,0.02460281336069194,-0.09273218766048771,-0.1540313049677195,-0.17343719094677762,0.43120208779427205
288,8.933233899995685,0.06341069413425675,0.08069860165398308,-0.12003760446985388,0.08295976618166195,0.10856170469628217,-0.2348215246377949,-0.04062399662344294,0.023827830233021503,-0.09079923199260706,-0.15264772424147446,-0.17285967043837552,0.43253241088647343
289,8.936856300002546,0.06378159139576622,0.08118473142299978,-0.12108950786003486,0.08277641585440787,0.10866661983537503,-0.23522358366985258,-0.04130409621737071,0.023055472548476,-0.0888604051314947,-0.15125384063912825,-0.17226418197369378,0.43382571670785525
290,8.940316899999743,0.0641516612216963,0.08167132302600938,-0.12214319133164192,0.0825900355578169,0.10876808408789335,-0.23561695211432143,-0.041977934416057,0.02228581989264014,-0.0869158725302841,-0.14984990503121007,-0.1716510959762116,0.4350821000061883
291,8.944747000001371,0.06452089011348844,0.08215836104492905,-0.12319861593094485,0.08240065341676256,0.10886610973701677,-0.2360016048037261,-0.04264546678213836,0.021518950202968727,-0.08496579924513097,-0.14843616123539688,-0.17102077948448538,0.4363016457613909
292,8.950138999993214,0.06488926469890802,0.08264583011743253,-0.12425574259322406,0.08220829775257489,0.10896070941108559,-0.23637751730851117,-0.04330664995569513,0.02075493977952743,-0.0830103499684772,-0.14701284849407006,-0.17037360059944992,0.43748443773096785
293,8.954198699997505,0.06525677173291283,0.08313371493847867,-0.12531453214606994,0.0820129970782606,0.10905189607627394,-0.23674466593543375,-0.04396144164092469,0.01999386326474221,-0.08104968900672925,-0.1455802040952774,-0.1697099345043337,0.438630568902337
294,8.958399700000882,0.06562339809850037,0.08362200026180698,-0.12637494531267457,0.08181478009375752,0.1091396830290784,-0.23710302772571534,-0.044609800601974156,0.019235793600253265,-0.0790839802199589,-0.14413846459116206,-0.16903016512906574,0.4397401446674984
295,8.963203299994348,0.06598913080753385,0.08411067090139894,-0.1274369427151145,0.08161367568119211,0.1092240838886049,-0.23745258045289458,-0.04525168666052027,0.01848080199176562,-0.07711338697116374,-0.14268786502498984,-0.16833468230294665,0.4408132775942716
296,8.966885999994702,0.06635395700154702,0.0845997117329045,-0.12850048487762322,0.08140971290015557,0.10930511258874272,-0.237793302620525,-0.0458870606846829,0.017728957891390732,-0.07513807211277287,-0.14122863689974585,-0.16762387796462136,0.4418500804635102
297,8.970967200002633,0.0667178639525279,0.08508910769503332,-0.12956553222985343,0.08120292098306053,0.10938278337029335,-0.23812517345990697,-0.04651588456842099,0.01698032899642326,-0.07315819799823427,-0.13976100697823746,-0.16689814333761127,0.442850662458795
298,8.975433999992674,0.06708083906368209,0.08557884379091087,-0.1306320451101291,0.08099332933060166,0.10945711077313348,-0.23844817292788914,-0.047138121209705244,0.01623498125696566,-0.0711739265026281,-0.13828519780424,-0.16615786935498947,0.4438151291439383
299,8.97959190000256,0.0674428698701758,0.08606890508939946,-0.1316999837686881,0.08078096750730772,0.10952810962841218,-0.23876228170478492,-0.04775373449457908,0.015492978870903517,-0.06918541903445553,-0.13680142919405133,-0.1654034496388571,0.4447435867405461
300,8.983324300003005,0.06780394403985933,0.08655927672638451,-0.13276930837091566,0.08056586523714483,0.10959579505066885,-0.23906748119227947,-0.048362689288682856,0.01475438426485958,-0.06719283651796173,-0.13530991962949943,-0.164635281700065,0.445636146270843
301,8.988025300001027,0.06816404937397084,0.08704994390602505,-0.13383997900056815,0.08034805239914444,0.10966018242985995,-0.2393637535111879,-0.048964951433784244,0.014019258078429858,-0.06519633936784046,-0.13381088675934757,-0.16385376661070183,0.4464929237856038
302,8.995483299993793,0.06852317380782064,0.08754089190196856,-0.13491195566298658,0.08012755902303761,0.10972128742333583,-0.23965108149913592,-0.04956048774379074,0.013287659148069366,-0.06319608746951678,-0.1323045473620513,-0.16305930958273912,0.44731404055916474
303,8.999969299999066,0.06888130541145582,0.08803210605852972,-0.13598519828829958,0.07990441528491869,0.1097791259477232,-0.2399294487081414,-0.050149266000946637,0.012559644486148519,-0.06119224015210603,-0.13079111788803272,-0.16225232020011296,0.44809962413656856
304,9.004204099997878,0.0692384323903058,0.08852357179183254,-0.13705966673461523,0.07967865150291364,0.10983371417071452,-0.24019883940205305,-0.0507312549566997,0.01183526926276141,-0.05918495615932307,-0.12927081418690392,-0.1614332114143652,0.44884980678276865
305,9.00880060000054,0.06959454308580822,0.08901527459091561,-0.13813532079120114,0.07945029813283597,0.10988506850278762,-0.24045923855387166,-0.051306424325456394,0.011114586793772656,-0.05717439363632308,-0.1277438497670227,-0.16060239772522866,0.449564720763065
306,9.012731700000586,0.06994962597601548,0.08950720001880016,-0.1392121201816523,0.07921938576391092,0.10993320558888804,-0.24071063184307082,-0.051874744769869065,0.010397648538912032,-0.055160710142857686,-0.12621043453879235,-0.15976029289618401,0.4502444935054198
307,9.016872099993634,0.07030366967618244,0.08999933371352081,-0.14029002456704717,0.07898594511456315,0.10997814230013164,-0.24095300565303598,-0.052436187883341936,0.009684504110270343,-0.05314406268341989,-0.12467077444575539,-0.15890730840765407,0.45088924570431305
308,9.021015399994212,0.07065666293933529,0.09049166138911935,-0.1413689935490926,0.0787500070282975,0.11001989572556302,-0.2411863470686551,-0.052990726172016056,0.008975201284240182,-0.05112460773737343,-0.12312507235481614,-0.1580438541932551,0.4514990933336194
309,9.02538029999414,0.07100859465682226,0.09098416883660174,-0.14244898667325837,0.07851160246964789,0.11005848316396494,-0.24141064387402733,-0.05353833304524404,0.008269786003421297,-0.049102501271079575,-0.12157352960443243,-0.1571703413851145,0.4520741521354788
310,9.029460399993695,0.07135945385884632,0.09147684192485857,-0.14352996343190155,0.07827076252014342,0.11009392211563385,-0.24162588455016218,-0.05407898281143354,0.007568302363986839,-0.04707789872784469,-0.12001634681811035,-0.15628718376628406,0.45261454032803006
311,9.033526799990796,0.07170922971497977,0.09196966660154844,-0.14461188326738053,0.07802751837429445,0.11012623027407621,-0.2418320582725983,-0.05461265067580396,0.006870792604587555,-0.045050955015808934,-0.1184537242121784,-0.15539479695862782,0.45312037736810074
312,9.037493099996937,0.07205791153466097,0.09246262889394409,-0.145694705575158,0.07778190133557875,0.1101554255176847,-0.24202915490899418,-0.055139312738984904,0.006177297100987602,-0.04302182450896954,-0.1168858612088628,-0.1544935979184782,0.45359178170556325
313,9.041775899997448,0.07240548876767304,0.09295571490974125,-0.14677838970689344,0.07753394281244015,0.11018152590138651,-0.24221716501675614,-0.05565894599130937,0.005487854359483337,-0.040990661055171226,-0.1153129556068569,-0.15358400431763672,0.45402886927480407
314,9.045811599993613,0.07275195100460474,0.09344891083783002,-0.14786289497352484,0.07728367431432581,0.11020454964826062,-0.2423960798407005,-0.05617152830398764,0.004802501017080053,-0.03895761799063296,-0.11373520319215777,-0.1526664333252929,0.45443175218190396
315,9.050060199995642,0.07309728797729373,0.09394220294902872,-0.14894818064834026,0.07703112744776382,0.11022451514118774,-0.2425658913108116,-0.05667703841991687,0.004121271845814343,-0.03692284815969,-0.11215279783435639,-0.15174130141473782,0.45480053873824206
316,9.054453099990496,0.07344148955925231,0.09443557759678047,-0.15003420597003955,0.07677633391248273,0.1102414409145062,-0.2427265920400808,-0.05717545594571694,0.003444199754661018,-0.03488650392901985,-0.11056593170122864,-0.15080902428456122,0.45513533365550596
317,9.060098999994809,0.07378454576607596,0.09492902121781235,-0.1511209301457865,0.0765193254975605,0.11025534564567901,-0.24287817532239167,-0.05766676134446093,0.0027713157945608705,-0.0328487372056387,-0.10897479514148187,-0.14987001649147724,0.45543623673357037
318,9.06433310000284,0.07412644675583462,0.09542252033275747,-0.15220831235425167,0.07626013407760909,0.11026624814699477,-0.24302063513052022,-0.058150935926661367,0.00210264916361433,-0.03080969946287271,-0.10737957633663237,-0.14892469127695632,0.4557033413481601
319,9.067788599990308,0.07446718282944703,0.09591606154673975,-0.15329631174864655,0.07599879160900404,0.11027416735728116,-0.24315396611425255,-0.058627961839884536,0.0014382272136611153,-0.028769541771892015,-0.10578046105056894,-0.1479734593484512,0.45593673228244014
320,9.071129999996629,0.07480674443103832,0.09640963154992181,-0.15438488745974965,0.07573533012616206,0.11027912233366477,-0.24327816359866727,-0.05909782205749496,0.0007780754663836581,-0.026728414847092426,-0.10417763262798643,-0.14701672758164572,0.456136484761978
321,9.075062599993544,0.07514512214828101,0.09690321711801608,-0.15547399859892527,0.07546978173787139,0.11028113224342878,-0.2433932235826595,-0.05956050036825567,0.00012221763150348076,-0.024686469086267874,-0.1025712728652182,-0.14605490041432947,0.4563026682487538
322,9.07993589999387,0.07548230671271969,0.09739680511275974,-0.1565636042611363,0.07520217862366246,0.11028021635593566,-0.24349914273758277,-0.06001598137286789,-0.0005293243895925474,-0.02264385458203028,-0.10096156369472865,-0.14508838242007682,0.45643535278425773
323,9.087374199996702,0.07581828900007961,0.09789038248235349,-0.1576536635279509,0.07493255303016923,0.11027639403451724,-0.24359591840587536,-0.06046425048864992,-0.0011765305086939343,-0.020600721105202252,-0.09934868840336772,-0.14411757952667487,0.4565346147537715
324,9.091704499995105,0.0761530600305588,0.09838393626186398,-0.158744135470543,0.07466093726745793,0.11026968472835415,-0.24368354859955346,-0.060905293956981944,-0.0018193824580469775,-0.0185572180646384,-0.09773283155460642,-0.1431428995196014,0.4566005390966839
325,9.096184599999106,0.07648661096910371,0.09887745357358986,-0.15983497915268546,0.0743873637053218,0.1102601079643007,-0.24376203199847787,-0.06133909884728879,-0.0024578637997033368,-0.016513494470832547,-0.0961141775186298,-0.1421647507835896,0.45663321528074263
326,9.10256010000012,0.07681893312566822,0.09937092162739099,-0.16092615363373508,0.0741118647695742,0.11024768333868064,-0.24383136794852145,-0.06176565305132699,-0.0030919599215356508,-0.014469698931775243,-0.094492908440759,-0.1411835389564977,0.45663272956092577
327,9.108153799999856,0.0771500179554561,0.09986432772098108,-0.16201761797160935,0.07383447293839442,0.11023243050914766,-0.24389155645979863,-0.062184945268982016,-0.00372165801663347,-0.01242597968585513,-0.09286920251902424,-0.14019966420044738,0.4565991584395956
328,9.111880800002837,0.07747985705914731,0.10035765924018407,-0.1631093312257556,0.07355522073874797,0.11021436918666563,-0.24394259820512745,-0.06259696498713715,-0.004346947054891664,-0.010382484656257403,-0.09124323324955913,-0.1392135205242843,0.4565325673138423
329,9.11684200000309,0.0778084421831084,0.10085090365915493,-0.16420125246011402,0.07327414074292156,0.11019351912762346,-0.24398449451874604,-0.06300170245871595,-0.004967817756341409,-0.00833936149597339,-0.08961517111056368,-0.13822549742927762,0.456433015119539
330,9.120761999991371,0.07813576521958776,0.10134404854056547,-0.16529334074607527,0.07299126556513094,0.11016990012605396,-0.2440172473951775,-0.06339914869662493,-0.0055842625774699586,-0.006296757600628093,-0.08798518747029396,-0.1372359839137382,0.4563005640029042
331,9.1250727000006,0.07846181820689575,0.10183708153575553,-0.16638555516543335,0.07270662785811013,0.11014353200587125,-0.24404085948806117,-0.06378929548777816,-0.006196275720398677,-0.004254820066915466,-0.08635345824372652,-0.13624537176164722,0.45613528849395363
332,9.129215099994326,0.07878659332956936,0.10232999038484925,-0.1674778548133328,0.07242026030959374,0.11011443461300745,-0.24405533410864558,-0.06417213541977235,-0.006803853148640729,-0.0022136956233104756,-0.08472016429886373,-0.1352540543051767,0.4559372748473189
333,9.132645999998203,0.07911008291852081,0.10282276291683587,-0.16857019880120802,0.07213219563866737,0.11008262780750898,-0.24406067522399938,-0.06454766189854837,-0.007406992585201913,-0.00017353059440499267,-0.08308548861236435,-0.13426242290294052,0.45570661287852415
334,9.13744880000013,0.07943227945116962,0.1033153870496153,-0.16966254625971447,0.07184246659209186,0.11004813145569031,-0.24405688745518506,-0.06491586914960522,-0.008005693496813663,0.0018655290953031682,-0.08144961377518181,-0.13327086490789591,0.455443389538792
335,9.141505099993084,0.07975317555155828,0.10380785079000869,-0.17075485634165166,0.07155110594064285,0.11001096542237139,-0.24404397607550385,-0.06527675221333347,-0.008599957073843699,0.0039033378995597065,-0.07981272152614649,-0.13227976293334234,0.45514768798567945
336,9.145978699991248,0.08007276399045152,0.10430014223373442,-0.17184708822487862,0.07125814647547676,0.10997114956321119,-0.24402194700886498,-0.06563030694205409,-0.009189786207958676,0.005939750638245652,-0.0781749940093687,-0.13128949539433002,0.45481959165108476
337,9.150548099991283,0.08039103768541948,0.10479224956535012,-0.17293920111522232,0.0709636210044969,0.10992870371714511,-0.243990806828139,-0.06597653000660744,-0.009775185476881214,0.007974622511941294,-0.07653661544088901,-0.1303004377061692,0.4544591881440255
338,9.154289899990545,0.08070798970090448,0.10528416105816098,-0.17403115424937834,0.0706675623486604,0.10988364769885497,-0.24395056275339666,-0.06631541890831104,-0.010356161132780909,0.010007809124753436,-0.07489777208720448,-0.12931296166577824,0.4540665684778431
339,9.158645999996224,0.08102361324827108,0.10577586507409431,-0.1751229068978036,0.07037000333823733,0.10983600129131034,-0.24390122265005787,-0.0666469719853563,-0.010932721081493547,0.012039166491961694,-0.07325865094951065,-0.1283274342336016,0.4536418235903655
340,9.16288689999783,0.08133790168583936,0.10626735006354113,-0.17621441836760043,0.07007097680906041,0.10978578423842451,-0.24384279502706216,-0.06697118841298837,-0.011504874860008552,0.01406855103169625,-0.07161943918452732,-0.12734421710755003,0.45318504341246446
341,9.167794900000445,0.08165084851890148,0.10675860456516495,-0.1773056480053929,0.06977051559878243,0.10973301623779738,-0.24377528903509216,-0.06728806820471848,-0.012072633611874344,0.0160958195642464,-0.0699803243158026,-0.12636366635478827,0.4526963183010716
342,9.171265999990284,0.08196244739972137,0.10724961720567842,-0.17839655520019498,0.06946865254311517,0.10967771693359159,-0.2436987144647502,-0.06759761221439525,-0.012636010061389764,0.01812082931656585,-0.06834149450563085,-0.12538613335980425,0.4521757402380347
343,9.17906999999832,0.0822726921275177,0.10774037669958837,-0.17948709938627064,0.06916542047206825,0.10961990590950638,-0.24361308174474147,-0.06789982213985105,-0.013195018497496012,0.020143437932312745,-0.0667031394260464,-0.12441196608319198,0.4516234059261546
344,9.183149999997111,0.08258157664842986,0.1082308718489095,-0.18057724004598566,0.06886085220615543,0.10955960268179797,-0.2435184019399608,-0.06819470053276994,-0.01374967475923597,0.0221635035040689,-0.06506545118662987,-0.1234415087899076,0.4510394198848746
345,9.1874272999994,0.08288909505546693,0.108721091542847,-0.18166693671265058,0.06855498055254511,0.10949682669238357,-0.24341468674938735,-0.06848225081063929,-0.014299996217213638,0.024180884611090678,-0.06342862456693868,-0.12247510154527239,0.45042389441252295
346,9.19172350000008,0.08319524158843933,0.10921102475744847,-0.18275614897335377,0.06824783830115966,0.1094315973020277,-0.24330194850383347,-0.06876247726869826,-0.014846001754541979,0.026195440351190247,-0.06179285637776709,-0.12151307990772424,0.44977694761084874
347,9.19597800000338,0.08350001063387275,0.10970066055522558,-0.18384483647178412,0.06793945822071897,0.10936393378361674,-0.24318020016355404,-0.06903538508617178,-0.015387711745552032,0.028207030360803218,-0.06015834422348372,-0.12055577405695354,0.44909870048366024
348,9.20016169999144,0.0838033967249044,0.1101899880847458,-0.1849329589110428,0.06762987305478393,0.10929385531553586,-0.2430494553158157,-0.0693009803271402,-0.015925148028936326,0.030215514820898577,-0.05852528625055961,-0.11960350784444759,0.44838927481067953
349,9.2042034999904,0.08410539454116162,0.1106789965801947,-0.18602047605644415,0.06731911551779228,0.10922138097518397,-0.24290972817245327,-0.06955926994452222,-0.01645833387795902,0.03222075445801429,-0.05689388151456865,-0.11865659846667119,0.4476487930269979
350,9.20851080000284,0.08440599890862252,0.11116767536090971,-0.1871073477383055,0.06700721829106636,0.1091465297326173,-0.24276103356742965,-0.06981026178422972,-0.01698729397067381,0.03422261054908819,-0.05526432965163102,-0.11771535632928133,0.44687737861345955
351,9.213040100003129,0.08470520479945892,0.1116560138308855,-0.18819353385472637,0.06669421401881177,0.10906932044433097,-0.2426033869543491,-0.07005396458620967,-0.017512054358918595,0.036220944925988076,-0.05363683043296383,-0.11678008527799782,0.446075155477662
352,9.216665500003728,0.0850030073318612,0.11214400147825203,-0.1892789943743559,0.06638013530411588,0.10898977184718006,-0.24243680440397658,-0.07029038798461154,-0.018032642440600013,0.038215619974801655,-0.05201158382323916,-0.11585108263843624,0.4452422478742849
353,9.22114779999538,0.08529940176984532,0.11263162787472557,-0.1903636893391499,0.06606501470494489,0.1089079025524093,-0.2422613026017573,-0.07051954250935155,-0.018549086929044663,0.04020649863965348,-0.05038878994265955,-0.11492863822941618,0.44437877905174333
354,9.22550620000402,0.08559438352304195,0.1131188826750333,-0.19144757886711608,0.06574888473012837,0.10882373103984852,-0.24207689884530192,-0.07074143958594066,-0.01906141781645134,0.04219344440988053,-0.048768648040260064,-0.11401303389758692,0.44348486715093094
355,9.230890299993916,0.0858879481464675,0.11360575561631234,-0.1925306231550485,0.0654317778353579,0.10873727565226946,-0.241883611042021,-0.0709560915278584,-0.019569666339076502,0.04417632128713699,-0.047151355390990767,-0.1131045438089129,0.44256062408325786
356,9.235174400004324,0.08618009134027738,0.11409223651748386,-0.19361278248125183,0.06511372641923985,0.10864855458989285,-0.24168145770690452,-0.07116351152650813,-0.020073864943295702,0.04615499376252672,-0.045537108109743235,-0.11220343481584863,0.44160615912722234
357,9.239189599989912,0.08647080894950178,0.11457831527860295,-0.1946940172082557,0.06479476281938389,0.10855758590504906,-0.2414704579603611,-0.07136371365087762,-0.020574047254075804,0.04812932681590247,-0.04392610281471876,-0.11130996726893139,0.44062158210411567
358,9.242548099995474,0.0867600969637639,0.11506398188018489,-0.19577428778551967,0.06447491930845885,0.10846438749696738,-0.2412506315260038,-0.07155671285238384,-0.021070248048301328,0.05009918592142542,-0.04231853614229951,-0.11042439484393086,0.4396070017905155
359,9.245919799999683,0.08704795151698037,0.11554922638250843,-0.19685355475212793,0.0641542280902379,0.1083689771066754,-0.2410219987284395,-0.07174252496019086,-0.021562503221699406,0.052064437032653975,-0.04071460300748092,-0.10954696326488299,0.43856252158356224
360,9.249361299996965,0.08733436888704414,0.11603403892489639,-0.1979317787394743,0.06383272129569624,0.1082713723120844,-0.24078458049118828,-0.0719211666704831,-0.022050849750735457,0.054024946549301324,-0.03911449613919033,-0.10867790978104054,0.43748823687081173
361,9.253834999995888,0.08761934549548994,0.11651840972497489,-0.19900892047393828,0.06351043097915236,0.10817159052322985,-0.24053839833477034,-0.07209265553762366,-0.022535325654856105,0.05598058127878067,-0.03751840691145405,-0.10781746326351493,0.43638423704103524
362,9.258214699992095,0.08790287790714262,0.11700232907791143,-0.2000849407795531,0.06318738911444487,0.1080696489776947,-0.24028347437496952,-0.07225700997086769,-0.023015969959249937,0.0579312084209623,-0.035926526582771415,-0.10696584567622396,0.43525061225787876
363,9.26166390000435,0.0881849628297484,0.11748578735563311,-0.20115980058066613,0.06286362759110312,0.10796556473618324,-0.24001983132105675,-0.0724142492366149,-0.0234928226702575,0.05987669559035276,-0.03433904697253437,-0.10612327358493961,0.43408745810183685
364,9.266401799992307,0.08846559711358895,0.1179687750060251,-0.20223346090459093,0.06253917821050393,0.1078593546781646,-0.23974749247385505,-0.0725643934611778,-0.02396592475164019,0.06181691084240422,-0.03275616042188903,-0.10528995740267734,0.43289487518368813
365,9.271048800001154,0.08874477775107822,0.11845128255210982,-0.20330588288425053,0.06221407268201746,0.10775103549765892,-0.23946648172372736,-0.07270746363268393,-0.024435318093235417,0.06375172269223331,-0.031178059233878695,-0.10446610088691073,0.4316729693786445
366,9.275746699990124,0.089022501876342,0.11893330059120776,-0.20437702776081135,0.06188834261914681,0.10764062369916148,-0.23917682354847414,-0.07284348159883258,-0.024901045482724836,0.06568100014302648,-0.02960493517022253,-0.10365190214496892,0.43042185383507575
367,9.279438899990057,0.08929876676478023,0.11941481979408014,-0.20544685688630765,0.061562019535694026,0.1075281355936816,-0.2388785430110668,-0.07297247006429242,-0.02536315058328925,0.0676046127227398,-0.028036979333976243,-0.10284755390543389,0.42914164944109645
368,9.28409709999687,0.0895735698326122,0.11989583090405426,-0.20651533172625525,0.061235134841923035,0.10741358729486675,-0.23857166575721686,-0.07309445258740786,-0.025821677907806255,0.06952243051668093,-0.026474381164489337,-0.10205324216358094,0.4278324818840541
369,9.287746799993329,0.08984690863640454,0.1203763247361315,-0.20758241386225412,0.06090771984075506,0.10729699471527245,-0.23825621801281768,-0.0732094535686002,-0.026276672784379878,0.0714343241778871,-0.024917327025163073,-0.10126914538866359,0.42649447657869294
370,9.291884099991876,0.0901187808725824,0.12085629217607922,-0.20864806499457927,0.06057980572403543,0.10717837356279493,-0.2379322265814207,-0.07331749823443234,-0.0267281813234423,0.07334016491430696,-0.02336599975747555,-0.10049543444580573,0.42512775623271165
371,9.296473800000967,0.09038918437692396,0.12133572417950693,-0.20971224694476073,0.060251423568871615,0.10705773933723553,-0.23759971884179207,-0.0734186126220178,-0.027176250382584328,0.07523982447738684,-0.02182057931998525,-0.0997322721507139,0.42373244328293297
372,9.30026750000252,0.09065811712403882,0.12181461177092733,-0.21077492165815254,0.059922604334039606,0.10693510732704815,-0.2372587227454908,-0.0735128235688055,-0.027620927529671137,0.0771331751710597,-0.020281244510759598,-0.0989798145092358,0.4223086652338743
373,9.304349300000467,0.0909255772268304,0.12229294604280339,-0.21183605120649107,0.0595933788564134,0.10681049260623383,-0.23690926681434515,-0.07360015871240687,-0.02806226101876857,0.07902008988811934,-0.01874817474686239,-0.09823821270910459,0.4208565583363983
374,9.308835999996518,0.09119156293594234,0.12277071815458165,-0.21289559779044145,0.05926377784737291,0.1066839100313037,-0.2365513801377051,-0.07368064649630968,-0.028500299771087846,0.08090044215213846,-0.017221550064356883,-0.09750761294622314,0.4193762668135426
375,9.312878400000043,0.09145607263918877,0.12324791933171209,-0.21395352374213128,0.05893383188918232,0.10655537423834412,-0.23618509236954344,-0.07375431616970515,-0.028935093349356834,0.08277410614691288,-0.01570154960925875,-0.09678815541857527,0.4178679405376262
376,9.31987219999428,0.09171910486096825,0.12372454086465509,-0.21500979152767105,0.05860357143139951,0.10642489964020904,-0.2358104337254448,-0.07382119777969362,-0.02936669192975884,0.08464095673758654,-0.014188350670410101,-0.09607997419061176,0.4163317341008773
377,9.324901699990733,0.09198065826166191,0.12420057410787624,-0.21606436374966098,0.05827302678732424,0.10629250042383637,-0.23542743497951757,-0.07388132216245454,-0.029795146275089952,0.08650086949177638,-0.012682129104853421,-0.09538319785156686,0.41476780805586017
378,9.329264100000728,0.09224073163701561,0.1246760104788293,-0.21711720314968377,0.057942228130486564,0.10615819054768057,-0.23503612746119384,-0.07393472093925979,-0.03022050771259069,0.08835372071180096,-0.011183060401584293,-0.09469795063672265,0.41317633201047543
379,9.333398499991745,0.09249932391750666,0.12515084145692792,-0.21816827261078278,0.057611205491130704,0.10602198373922746,-0.23463654305185283,-0.07398142651716587,-0.03064282811714026,0.09019938748351009,-0.009691320243408292,-0.09402435324090674,0.41155748764501726
380,9.337495899992064,0.09275643416769448,0.12562505858250647,-0.21921753515992456,0.05727998875269731,0.10588389349257729,-0.23422871418118374,-0.07402147209005656,-0.031062159896370185,0.09203774773552029,-0.008207084545561601,-0.09336252272184896,0.4099114687914901
381,9.341559499996947,0.09301206158555582,0.12609865345577007,-0.2202649539704445,0.056948607648297955,0.10574393306609277,-0.23381267382327892,-0.07405489163968085,-0.03147855597299346,0.0938686802887545,-0.006730528913253553,-0.09271257157012368,0.4082384778328911
382,9.346384099990246,0.0932662055018039,0.12657161773573433,-0.2213104923644743,0.056617091757188126,0.10560211548014031,-0.2333884554925533,-0.07408171993183982,-0.03189206976159283,0.095692064883446,-0.00526182817786276,-0.09207460689842474,0.40653872260856
383,9.354522099994938,0.09351886537919202,0.12704394313915526,-0.22235411381535125,0.056285470501275844,0.10545845351494586,-0.23295609323959582,-0.07410199251327286,-0.03230275514369281,0.09750778220097651,-0.0038011571128345966,-0.09144873134997226,0.40481242117530436
384,9.367278599995188,0.09377004081180149,0.12751562143944975,-0.22339578195000845,0.05595377314162254,0.10531295970855926,-0.23251562164689338,-0.0741157457142529,-0.032710666452679484,0.09931571393349901,-0.0023486916718506628,-0.09083504601910246,0.4030598130647384
385,9.371464199997718,0.09401973152431388,0.12798664446560723,-0.22443546055134575,0.055622028774928424,0.1051656463548451,-0.23206707582405903,-0.07412301665655596,-0.03311585847501599,0.10111574290654511,-0.0009046098788810093,-0.09023365306512673,0.4012811666378478
386,9.375738699993237,0.0942679373712675,0.12845700410109223,-0.22547311356057745,0.05529026632996204,0.10501652550143617,-0.23161049140245843,-0.07412384326402363,-0.03351838645856009,0.1029077532144817,0.0005309082685479997,-0.08964465607916304,0.3994767790465364
387,9.379691599999203,0.0945146583362977,0.1289266922827377,-0.22650870507955498,0.05495851456395109,0.10486560894764985,-0.2311459045292255,-0.07411826426966674,-0.033918306117063306,0.10469163034277412,0.001957681883029863,-0.08906815861301419,0.39764696980808323
388,9.38329739999608,0.09475989453136102,0.1293957009996289,-0.22754219937306108,0.05462680205894836,0.10471290824240133,-0.2306733518607945,-0.07410631921652738,-0.034315673625319856,0.10646726124592504,0.003375530715815898,-0.0885042619750832,0.39579207043802944
389,9.387644399990675,0.095003646195943,0.12986402229197808,-0.2285735608710746,0.05429515721821489,0.10455843468216339,-0.23019287055621787,-0.07408804845110001,-0.03471054560393609,0.10823453437693713,0.004784276626638585,-0.08795306321664056,0.3939124164364465
390,9.392160999996122,0.09524591369624989,0.13033164824999002,-0.22960275417100487,0.05396360826264474,0.10440219930901597,-0.22970449827043474,-0.07406349311103641,-0.03510297909645364,0.10999333969351763,0.006183744513153369,-0.08741465431866834,0.3920083441531039
391,9.39666309999302,0.09548669752438453,0.13079857101271936,-0.23062974403989617,0.05363218322725824,0.10424421290881071,-0.2292082731475332,-0.07403269511024697,-0.03549303154683996,0.1117435686594798,0.007573762330086954,-0.08688912149804183,0.3900801880437045
392,9.40024099999573,0.09572599829750664,0.13126478276691966,-0.23165449541660185,0.05330090995776013,0.10408448600942205,-0.22870423381400615,-0.07399569712643429,-0.035880760770400776,0.11348511422638688,0.008954161205359582,-0.08637654365743491,0.38812827703036834
393,9.404214700000011,0.09596381675697783,0.13173027574588506,-0.23267697341392848,0.05296981610714436,0.10392302887917211,-0.22819241937217802,-0.07395254258515493,-0.03626622491739511,0.11521787080237464,0.010324776078482395,-0.0858769925784285,0.3861529350426927
394,9.41023850000056,0.09620015376749162,0.13219504222828526,-0.23369714332075103,0.05263892913239496,0.1037598515254075,-0.22767286939373962,-0.0739032756416385,-0.036649482445676326,0.11694173423863861,0.01168544510043806,-0.08539053474214019,0.38415448477089426
395,9.414112500002377,0.09643501031618883,0.13265907453699444,-0.23471497060409918,0.052308276291253536,0.10359496369316909,-0.22714562391329587,-0.0738479411702213,-0.03703059210060434,0.11865660183185268,0.013036008802602054,-0.08491723252791113,0.38213325072546683
396,9.42058979999274,0.09666838751175864,0.13312236503791433,-0.23573042091121477,0.05197788463901475,0.10342837486394867,-0.22661072342187896,-0.07378658475360476,-0.03740961289841666,0.12036237233804455,0.014376310579696388,-0.08445714440623928,0.3800895609005509
397,9.42577600000368,0.09690028658352541,0.13358490613879198,-0.23674346007158,0.05164778102538997,0.10326009425450754,-0.22606820886037188,-0.07371925266796601,-0.03778660410786764,0.12205894598990386,0.015706196438226207,-0.08401032563537127,0.37802374820244655
398,9.43016639999405,0.09713070888052157,0.13404669028803232,-0.2377540540989161,0.051317992091436004,0.10309013081579751,-0.22551812161286666,-0.07364599187446809,-0.038161625239834976,0.12374622452344493,0.01702551404884782,-0.08357683027504749,0.3759361537801576
399,9.43360049999319,0.09735965587054694,0.13450770997350617,-0.23876216919315194,0.05098854426649477,0.1029184932318726,-0.22496050349984925,-0.07356685001285318,-0.03853473604698486,0.125424111225128,0.018334113094391348,-0.08315671168806764,0.37382712841926524
400,9.437960900002508,0.09758712913921432,0.13496795772135314,-0.23976777174236177,0.05065946376517937,0.10274518991881296,-0.22439539677113593,-0.07348187538983758,-0.03890599651786823,0.1270925109709991,0.019631846121469093,-0.08275002203699036,0.3716970292124193
401,9.442178800003605,0.09781313038898172,0.13542742609478,-0.2407708283246707,0.05033077658441767,0.10257022902368941,-0.2238228440987078,-0.0733911169650818,-0.039275466872080646,0.12875133024400745,0.0209185688882517,-0.08235681236328445,0.36954621708404006
402,9.445873299991945,0.09803766143817155,0.13588610769285428,-0.2417713057101281,0.05000250850056391,0.10239361842353077,-0.2232428885694923,-0.07329462433647241,-0.03964320755506705,0.13040047715098785,0.022194140113247385,-0.08197713274008109,0.36737505709757406
403,9.450015199996416,0.09826072421997702,0.13634399514929338,-0.24276917086254854,0.04967468506657406,0.10221536572433486,-0.22265557367804548,-0.07319244772834095,-0.040009279234648996,0.1320398614427285,0.023458421185203204,-0.081611033124645,0.3651839184184057
404,9.456035299997891,0.09848232078145594,0.13680108113124936,-0.2437643909413198,0.049347331609222916,0.10203547826006687,-0.22206094331915405,-0.07308463797934259,-0.040373742803460275,0.1336693945306214,0.02471127637543236,-0.08125856320371373,0.3629731729996727
405,9.460181999995257,0.09870245328251231,0.1372573583380891,-0.24475693330317747,0.049020473226387896,0.10185396309164862,-0.22145904178036863,-0.07297124652877436,-0.04073665937408967,0.13528898949496632,0.025952573089822524,-0.08091977084477958,0.36074319287073064
406,9.464197900000729,0.0989211239948658,0.13771281950017,-0.24574676550394609,0.04869413478438866,0.10167082700600041,-0.22084991373453128,-0.07285232540219802,-0.041098090267653355,0.13689856107734905,0.027182182488097336,-0.08059470147795843,0.35849434746887876
407,9.46830300000147,0.09913833530100945,0.13816745737761155,-0.24673385530024697,0.04836834091539958,0.10148607651513253,-0.22023360423237714,-0.072727927192215,-0.041458097003404505,0.13849802566506056,0.028399980334627855,-0.08028339790201766,0.3562270024377627
408,9.471679499998572,0.09935408969315604,0.13862126475906292,-0.24771817065117305,0.04804311601496145,0.10129971785528012,-0.2196101586952014,-0.07259810503647329,-0.04181674128556936,0.14008730127271926,0.029605847308194315,-0.07998589877410747,0.3539415176948497
409,9.475121800001943,0.09956838977217354,0.13907423446046682,-0.24869967971993107,0.04771848423959085,0.10111175698611258,-0.21897962290762538,-0.07246291259566957,-0.04217408497943777,0.14166630750939124,0.03079966884750059,-0.07970223772196365,0.35163824596134047
410,9.479194999992616,0.09978123824651004,0.13952635932382,-0.24967835087545168,0.04739446950448874,0.10092219959008239,-0.21834204301055787,-0.07232240403293896,-0.04253019009025221,0.14323496554705317,0.03198133487986562,-0.07943244543264354,0.349317535235072
411,9.483299999992596,0.0999926379311087,0.13997763221593118,-0.2506541526939686,0.0470710954813343,0.10073105107182351,-0.21769746549424357,-0.07217663399428578,-0.04288511875799551,0.14479319810984856,0.03315073949257849,-0.07917655208851493,0.34697973258693715
412,9.487687300003016,0.10020259174631292,0.14042804602717632,-0.2516270539605666,0.04674838559616875,0.10053831655754687,-0.21704593719132048,-0.0720256575909151,-0.04323893325808543,0.14634092947653402,0.034307780294242175,-0.07893458787350219,0.3446251859388993
413,9.49176879999868,0.10041110271676237,0.14087759367025107,-0.25259702367069836,0.046426363027347324,0.10034400089443254,-0.21638750526984651,-0.07186953038538041,-0.04359169600069399,0.1478780854856513,0.03545235833753386,-0.07870658208130689,0.3422542415467985
414,9.495407499998691,0.10061817397027983,0.14132626807892054,-0.25356403103167,0.04610505070354706,0.10014810865003133,-0.2157222172263106,-0.07170830837460657,-0.04394346952345941,0.14940459351544105,0.036584379164263596,-0.07849256110236351,0.33986723905214505
415,9.501543599995784,0.10082380873674936,0.1417740622067665,-0.2545280454640957,0.045784471301870786,0.09995064411172216,-0.21505012087883907,-0.0715420479666827,-0.04429431647278577,0.15092038244472142,0.03770375344281669,-0.07829254683909999,0.33746451027946195
416,9.505179899992072,0.10102801034698616,0.1422209690259322,-0.255489036603322,0.04546464724606261,0.0997516112862811,-0.21437126436055695,-0.07137080595817916,-0.044644299582369276,0.15242538262203623,0.03881039650485056,-0.07810655755667166,0.335046380627393
417,9.508594300001278,0.10123078223159883,0.1426669815258658,-0.25644697430082325,0.04514560070481498,0.09955101389953093,-0.21368569611307053,-0.07119463951508759,-0.04499348166211324,0.15391952583898597,0.039904227919765764,-0.07793460892733232,0.3326131692671712
418,9.51314559999446,0.10143212791984402,0.14311209271206196,-0.2574018286255676,0.04482735359015477,0.09934885539600942,-0.2129934648800674,-0.07101360615394701,-0.045341925586002904,0.15540274530115264,0.040985171822735415,-0.07777671271432132,0.3301651884030867
419,9.517769099998986,0.10163205103847422,0.14355629560480238,-0.2583535698653549,0.0445099275559193,0.09914513893872744,-0.21229461970105923,-0.0708277637198476,-0.04568969426923936,0.1568749755948108,0.04205315701177221,-0.07763287611528062,0.32770274203482525
420,9.52300600000308,0.10183055531057887,0.1439995832378952,-0.259302168528127,0.04419334399633932,0.09893986740904188,-0.21158920990527982,-0.07063717036668779,-0.04603685065023703,0.15833615264677364,0.043108116599529005,-0.07750310327130648,0.3252261268896161
421,9.527439899989986,0.10202764455441936,0.14444194865741433,-0.26024759534325076,0.043877624044691727,0.09873304340657497,-0.21087728510578735,-0.07044188453829499,-0.04638345768126572,0.15978621369944798,0.04414998799450403,-0.07738739716135376,0.32273563868669214
422,9.530881799990311,0.1022233226822581,0.14488338492043829,-0.26118982126277573,0.04356278857205159,0.09852466924917093,-0.21015889519358566,-0.07024196494885093,-0.04672957832740575,0.16122509732675627,0.04517871185554498,-0.07728576211980473,0.32023157825418913
423,9.535443499989924,0.10241759369918242,0.145323885093789,-0.26212881746266453,0.04324885818612007,0.09831474697282461,-0.209434090331584,-0.07003747057337105,-0.047075275579725843,0.16265274346394662,0.046194230562976224,-0.07719820495755572,0.3177142509084316
424,9.539301600001636,0.10261046170192308,0.14576344225277,-0.2630645553439963,0.04293585323006166,0.09810327833152024,-0.2087029209484515,-0.06982846064181543,-0.04742061246427356,0.16406909341795842,0.0471964888191476,-0.07712473310363903,0.31518396196469917
425,9.544834300002549,0.10280193087766774,0.1462020494799039,-0.26399700653414226,0.04262379378138482,0.0978902647970796,-0.20796543773248408,-0.0696149946241924,-0.047765652038618066,0.16547408985704737,0.04818543492574697,-0.07706535271150458,0.3126410141874478
426,9.548375799990026,0.10299200550286955,0.14663969986366915,-0.26492614288791416,0.04231269965091257,0.09767570755903165,-0.20722169162555182,-0.06939713221323576,-0.04811045738388908,0.16686767679832695,0.04916102027981144,-0.07702006869538945,0.3100857076309871
427,9.553976399998646,0.10318068994205132,0.14707638649723634,-0.26585193648868566,0.042002590381818194,0.097459607524532,-0.2064717338170774,-0.06917493331401973,-0.04845509160164522,0.16824979959596728,0.05012319889006977,-0.07698888589194146,0.30751834041191456
428,9.558596899994882,0.10336798864660547,0.14751210247720425,-0.2667743596494869,0.04169348524868879,0.0972419653182606,-0.20571561573808908,-0.06894845803096564,-0.04879961781631109,0.16962040493565095,0.051071928112938536,-0.07697180979681449,0.3049392113461905
429,9.563719500001753,0.1035539061535899,0.14794684090233526,-0.26769338491407274,0.04138540325667726,0.09702278128231932,-0.2049533890552488,-0.06871776665086865,-0.04914409917863926,0.17097944084637748,0.05200716882606603,-0.07696884683346863,0.3023486219595837
430,9.56835339999816,0.10373844708452029,0.14838059487229044,-0.26860898505796366,0.04107836314071782,0.09680205547609874,-0.20418510566479944,-0.06848291962835099,-0.04948859887055348,0.17232685671291553,0.05292888519642255,-0.07698000292205967,0.29974687331162175
431,9.571671600002446,0.10392161614415893,0.1488133574863638,-0.2695211330894599,0.040772383364808214,0.09657978767613233,-0.20341081768648153,-0.06824397757096459,-0.04983318009580015,0.17366260325917718,0.05383704506721656,-0.07700528150674553,0.29713426096670786
432,9.575904899989837,0.10410341811930063,0.14924512184221606,-0.2704298022506281,0.04046748212135855,0.0963559773760469,-0.2026305774576293,-0.06800100122118087,-0.05017790606713316,0.1749866325156544,0.05473162011230115,-0.07704468374862654,0.2945110745302767
433,9.579530000002704,0.10428385787755573,0.14967588103460847,-0.2713349660182624,0.04016367733063473,0.09613062378653153,-0.20184443752737882,-0.06775405144011122,-0.05052283999869242,0.17629889779864136,0.05561258506259291,-0.0770982088736937,0.2918775978815968
434,9.58351739999489,0.104462940366131,0.1501056281541363,-0.27223659810481915,0.03986098664025304,0.09590372583535625,-0.20105245065095015,-0.06750318919642141,-0.05086804509630333,0.1775993536797547,0.05647991759055894,-0.07716585440560267,0.28923410971378655
435,9.588143599990872,0.10464067061060815,0.15053435628596282,-0.273134672459327,0.03955942742472279,0.09567528216742778,-0.20025466978412823,-0.06724847555108614,-0.05121358455193897,0.17888795596998985,0.057333598657380636,-0.07724761697744215,0.2865808877916218
436,9.591727099992568,0.1048170537137206,0.15096205850855327,-0.2740291632682722,0.03925901678507738,0.09544529114485777,-0.1994511480776878,-0.06698997164319577,-0.051559521541286096,0.18016466172735474,0.05817361179730734,-0.07734349333833784,0.2839182101112824
437,9.596612399996957,0.10499209485412872,0.15138872789240945,-0.2749200449564587,0.03895977154854398,0.09521375084704035,-0.19864193887180592,-0.06672773868111698,-0.05190591922721782,0.1814294292513074,0.0589999425187602,-0.07745348108988351,0.28124635497896444
438,9.603809599997476,0.10516579928519364,0.15181435749880448,-0.27580729218784356,0.03866170826825372,0.09498065907068931,-0.19782709569053672,-0.06646183793366045,-0.05225284076395173,0.18268221809109353,0.05981257839992636,-0.07757757872251275,0.278565603952077
439,9.608433899993544,0.10533817233374987,0.1522389403785176,-0.27669087986634733,0.03836484322299047,0.09474601332987838,-0.19700667223614926,-0.06619233072038581,-0.05260034930084817,0.18392298906651192,0.06061150932162054,-0.07771578642950923,0.2758762425341154
440,9.616665599998669,0.1055092193988769,0.1526624695705693,-0.277570783136639,0.03806919241698776,0.0945098108560444,-0.19618072238341638,-0.06591927840068491,-0.052948507993854886,0.1851517042824721,0.06139672727391377,-0.07786810645582927,0.27317856002153695
441,9.620792499990785,0.10567894595067,0.15308493810095627,-0.2784469773848954,0.0377747715797753,0.09427204859792523,-0.19534930017382232,-0.06564274236581767,-0.05329738001242779,0.18636832714838913,0.06216822604577018,-0.07803454197406104,0.27047284919272174
442,9.624815299990589,0.10584735752901038,0.15350633898138585,-0.2793194382395338,0.037481596166047224,0.09403272322150091,-0.19451245980967788,-0.06536278403077357,-0.05364702854091383,0.187572822389957,0.06292600192215582,-0.07821509592522945,0.2677594045292541
443,9.628925400000298,0.10601445974233488,0.15392666520801046,-0.2801881415719191,0.03718968135558141,0.09379183110991919,-0.19367025564822268,-0.06507946482006739,-0.053997516775095275,0.18876515605262134,0.0636700542454475,-0.07840976896747705,0.2650385188101963
444,9.632432099999278,0.10618025826640541,0.15434590976016146,-0.2810530634970436,0.03689904205323488,0.09354936836346764,-0.19282274219570927,-0.06479284615457528,-0.05434890790521039,0.18994529548286668,0.06440038526016595,-0.07861855668935093,0.26231047614655306
445,9.636030499998014,0.10634475884307855,0.1547640655990833,-0.28191418037418087,0.03660969288898101,0.09330533079965117,-0.19196997410167285,-0.06450298943872036,-0.05470126508755265,0.1911132092693377,0.06511700073197985,-0.07884144736554166,0.2595755454798624
446,9.639288199992734,0.10650796727907536,0.155181125666668,-0.2827714688075145,0.03632164821801959,0.09305971395341837,-0.19111200615354243,-0.06420995604176781,-0.05505465140740206,0.19226886716592964,0.06581991072196453,-0.07907842021592511,0.2568339766347237
447,9.642554599995492,0.10666988944475193,0.15559708288419144,-0.28362490564674386,0.03603492212098144,0.09281251307757085,-0.19024889327159902,-0.06391380727807976,-0.05540912983504032,0.19341223999757398,0.0665091296059207,-0.07932944451551631,0.25408599885080796
