,time,x,y,z,vx,vy,vz,ax,ay,az,jx,jy,jz
0,7.195361799967941,0.08054108838663933,-0.018784693007830224,0.11887307569819758,0.04634968581750262,0.044909525645880743,0.08182717742673835,-0.022774011841464686,0.01798452701531956,0.06321502035106953,0.0788076032632929,0.05941797277108584,-0.29679375017652987
1,7.20019649999449,0.08073634422085064,-0.018595147966548153,0.11921870603703237,0.046254347733776464,0.044985895432849886,0.08209111851627457,-0.0224418640776468,0.01823425833003157,0.061957280865843706,0.078712362261361,0.05901073387957351,-0.29971466655212714
2,7.204039099975489,0.08093120096433257,-0.01840527865032687,0.1195654382418103,0.04616040948192522,0.04506331472448575,0.08234972969976043,-0.0221101459771174,0.01848222789390139,0.06068720476464977,0.07860396969272938,0.0585825359482374,-0.3026445088830261
3,7.207490199944004,0.0811256645164046,-0.018215080649033405,0.11991324972642604,0.04606786913310627,0.04514177590503172,0.08260295887385563,-0.021778912404211793,0.018728347755702687,0.05940475477327822,0.07848270769485954,0.05813359078894796,-0.30558309988823656
4,7.211778399941977,0.08131974076776444,-0.018024549585432873,0.12026211768472107,0.04597672452962055,0.04522127098972084,0.08285075377959877,-0.021448217036309333,0.01897253088301218,0.05810989437897465,0.0783488573183394,0.05766412207991962,-0.30853025488331987
5,7.215339499991387,0.08151343559953339,-0.01783368111673642,0.12061201908983413,0.045886973289906464,0.04530179162875863,0.0830930620056983,-0.02111811236734396,0.01921469121112208,0.05680258786517173,0.07820269901227997,0.05717436472901614,-0.31148578092644946
6,7.218949399946723,0.08170675488232289,-0.01764247093613194,0.12096293069356599,0.045798612813527234,0.045383329111502044,0.08332983099195664,-0.020788649709366547,0.019454743688839347,0.055482800346400615,0.07804451329505145,0.05666456435479965,-0.314449475661896
7,7.223195599974133,0.08189970447532197,-0.017450914774296784,0.12131482902575882,0.04571164028615165,0.045465874370828566,0.08356100803285561,-0.020459879190398433,0.019692604323021248,0.05415049781277712,0.0778745815179802,0.05613497744231545,-0.31742112623120294
8,7.227216199971735,0.08209229022540578,-0.017259008400891628,0.12166769039369119,0.04562605268455951,0.0455494179876908,0.08378654028135579,-0.02013184974955267,0.01992819022568851,0.052805647174096325,0.07769318540229231,0.055585872857122964,-0.32040050948252324
9,7.231839799962472,0.08228451796626529,-0.017066747626034762,0.1220214908814894,0.04554184678166351,0.0456339501958829,0.08400637475285377,-0.01980460913879301,0.020161419671330352,0.051448216302553154,0.07750060588278833,0.055017534292464844,-0.32338739164656477
10,7.236181499960367,0.08247639351755817,-0.01687412830175576,0.122376206349556,0.04545901915149987,0.04571946088707849,0.08422045832934184,-0.01947820392780769,0.020392212164657215,0.050078174079570124,0.07729712329308319,0.05443026227601269,-0.32638152787382785
11,7.241315399995074,0.08266792268408056,-0.016681146323427286,0.1227318124340161,0.045377566174209114,0.04580593961616852,0.08442873776376023,-0.0191526795042061,0.020620488514830844,0.04869549044242089,0.07708301794318502,0.05382437558001254,-0.32938266144895856
12,7.245515399961732,0.08285911125495996,-0.01648779763117373,0.12308828454618259,0.04529748404102501,0.04589337560692525,0.08463115968454996,-0.018828080073521207,0.0208461709151103,0.04730013643768419,0.07685856977310562,0.05320021196829998,-0.3323905229567184
13,7.249754399992526,0.08304996500286908,-0.016294078211255253,0.12344559787204096,0.04521876875925535,0.045981757758011846,0.08482767060045597,-0.018504448662327706,0.021069183023382412,0.04589208427490164,0.07662405805260898,0.0525581279181927,-0.33540483044391534
14,7.253986999974586,0.08324048968326078,-0.016099984097425742,0.12380372737175489,0.04514141615724462,0.04607107464932555,0.08501821690553253,-0.0181818271207768,0.02128945003946221,0.04447130737866599,0.07637976151904599,0.05189849789737422,-0.33842528900423646
15,7.258231899992097,0.08343069103362373,-0.015905511372263346,0.12416264777919338,0.04506542188933334,0.04616131454865925,0.08520274488438563,-0.017860256124551818,0.02150689877952456,0.04303778044578044,0.07612595816908987,0.05122171381558005,-0.3414515903847477
16,7.262174499977846,0.08362057477275915,-0.01571065616847225,0.12452233360148052,0.044990781440804276,0.04625246541867243,0.0853812007176605,-0.017539775179159535,0.021721457748780086,0.04159147950066568,0.07586292502852508,0.05052818466191323,-0.34448341344729166
17,7.266553499968722,0.08381014660007827,-0.01551541467015442,0.12488275911856889,0.04491749013280561,0.04634451492416565,0.08555353048775134,-0.0172204226238274,0.021933057212847894,0.040132381948627824,0.07559093803597096,0.04981833613494833,-0.34752042416985085
18,7.270640199945774,0.08399941219492052,-0.015319783114050023,0.12524389838283753,0.044845543127264235,0.04643745043965348,0.08571968018473806,-0.01690223563677553,0.02214162926731176,0.038660466631253866,0.07531027162596457,0.0490926099150281,-0.35056227488275354
19,7.275222999975085,0.08418837721589247,-0.015123757790745299,0.12560572521871538,0.04477493543176448,0.04653125905722563,0.08587959571256325,-0.016585250242630266,0.022347107902955347,0.03717571388612154,0.07502119829009524,0.04835146251554348,-0.3536086036432024
20,7.279429299989715,0.08437704730022715,-0.014927335045846682,0.12596821322233134,0.04470566190439888,0.04662592759467008,0.0860332228954725,-0.01626950132139758,0.022549429065630018,0.03567810560747009,0.07472398827665483,0.04759536412651216,-0.3566590336823716
21,7.283247699961066,0.08456542806316389,-0.01473051128112016,0.12633133576119204,0.044637717258571234,0.04672144260383913,0.08618050748470306,-0.015955022618409802,0.0227485307117367,0.03416762531057328,0.07441890963609715,0.04682479749834289,-0.359713172663073
22,7.28686159994686,0.0847535250973482,-0.014533282955594836,0.12669506597388833,0.04457109606776345,0.04681779037924047,0.08632139516546715,-0.01564184675291562,0.022944352858679278,0.03264425819867112,0.07410622819782046,0.046040256819845714,-0.3627706131421334
23,7.290375599986874,0.08494134397225174,-0.014335646586629829,0.1270593767698319,0.04450579277026618,0.046914956966828764,0.08645583156420505,-0.015330005228222626,0.023136837630883526,0.03110799122344312,0.07378620766400593,0.04524224668384238,-0.36583093319742666
24,7.294415099953767,0.08512889023361216,-0.014137598750943689,0.12742424082902298,0.04444180167386012,0.04701292817298484,0.08658376225607849,-0.01501952843949588,0.023325929301526376,0.029558813146651593,0.07345911000156718,0.044431281065940124,-0.36889369559345314
25,7.298583699972369,0.08531616940289252,-0.013939136085605566,0.1277896306018502,0.044379116960480844,0.04711168957365923,0.08670513277274361,-0.014710445680594717,0.02351157432994175,0.027996714607652493,0.07312519414662164,0.04360788274305275,-0.3719584475027456
26,7.303790499980096,0.08550318697676049,-0.013740255288987506,0.12815551830892374,0.04431773269084249,0.04721122652366684,0.08681988861041377,-0.0144027851627979,0.023693721398445604,0.026421688187388354,0.07278471181863515,0.042772583351734846,-0.37502472023058964
27,7.308231999981217,0.08568994842658675,-0.013540953121677229,0.12852187594094328,0.04425764280894464,0.04731152416614108,0.08692797523817226,-0.014096574056944236,0.02387232145023374,0.024833728478220893,0.07243790263925257,0.04192592351196968,-0.37809202740981335
28,7.312306199979503,0.08587645919796222,-0.013341226407350689,0.12888867525860123,0.04419884114634056,0.04741256744214815,0.08702933810662401,-0.013791838553325877,0.024047327727250895,0.023232832163149218,0.0720849928600841,0.041068452773125874,-0.3811598643515123
29,7.316447099961806,0.08606272471023245,-0.013141072033603764,0.12925588779252364,0.044141321426138976,0.047514341100460565,0.08712392265687648,-0.013488603914558875,0.02421869580763275,0.021618998091118464,0.07172619755995883,0.04020072947163729,-0.38422770800115175
30,7.3209317999426275,0.08624875035604858,-0.012940486952742384,0.12962348484324923,0.044085077266826395,0.047616829707487256,0.0872116743298265,-0.013186894516944684,0.024386383642374672,0.01999222735660823,0.07136172270366248,0.03932332059472989,-0.3872950164291762
31,7.325032099965028,0.08643454150093402,-0.012739468182530472,0.12999143748124853,0.04403010218592002,0.04772001765735634,0.08729253857581247,-0.012886733885977176,0.024550351591624393,0.018352523379237463,0.07099176669186741,0.038436801674484,-0.39036122956983316
32,7.328458799980581,0.08662010348286617,-0.012538012806895031,0.1303597165469844,0.0439763896034906,0.0478238891821513,0.08736646086457255,-0.012588144724631913,0.02471056246045726,0.016699891977121597,0.07061652126363903,0.03754175651509309,-0.3934257695926304
33,7.332846999983303,0.08680544161187283,-0.012336117976587754,0.1307282926510151,0.04392393284557678,0.04792842836229553,0.08743338669551552,-0.012291148941261355,0.024866981532868603,0.015034341443344533,0.07023617114897375,0.036638776869492636,-0.39648804076323674
34,7.337049799971282,0.08699056116964271,-0.012133780909802527,0.1310971361741415,0.04387272514747265,0.04803361913707516,0.08749326160832405,-0.011995767680814663,0.025019576604821635,0.01335588262048896,0.0698508930740108,0.0357284624567266,-0.399547429627846
35,7.341919099970255,0.0871754674091496,-0.011930998892748287,0.13146621726759958,0.04382275965687879,0.04813944531530237,0.08754603119385405,-0.011702021361123013,0.0251683180183863,0.011664528975553392,0.069460855183551,0.034811421216249756,-0.4026033040427741
36,7.345493999950122,0.0873601655542894,-0.011727769280176591,0.13183550585329942,0.0437740294368838,0.048245890586126126,0.08759164110536985,-0.011409929708989923,0.025313178696931983,0.009960296682666939,0.06906621803506593,0.033888269565161916,-0.40565501257259345
37,7.349598999950103,0.08754466079952947,-0.011524089495863296,0.13220497162411263,0.043726527468810936,0.0483529385299923,0.08763003707014116,-0.011119511788093023,0.025454134181435873,0.00824320470308252,0.06866713598620944,0.032959632785764435,-0.40870188527577966
38,7.354004299966618,0.08772895830956969,-0.01131995703304369,0.1325745840442091,0.043680246654964346,0.04846057262976066,0.08766116490135291,-0.010830786023372,0.025591162668944366,0.006513274861265436,0.06826375763514787,0.03202614541321139,-0.41174323453874045
39,7.358203699986916,0.08791306321901492,-0.011115369454800406,0.13294431234944484,0.043635179821269986,0.04856877628198936,0.08768497051034396,-0.0105437702252166,0.02572424505215091,0.00477053191785232,0.06785622619084938,0.03108845122946256,-0.4147783553994775
40,7.361969799967483,0.08809698063205837,-0.010910324394403384,0.133314125547802,0.04359131971981786,0.04867753280838575,0.08770139991913227,-0.010258481610731516,0.02585336495780639,0.0030150036430099223,0.06744468037403083,0.030147202988883622,-0.4178065251296947
41,7.366607499949168,0.0882807156221755,-0.010704819555601208,0.1336839924198823,0.0435486590313236,0.04878682546741478,0.08771039927327234,-0.009974936820325743,0.025978508783982685,0.0012467208929185898,0.0670292546261047,0.029203062140136613,-0.4208270033750703
42,7.370250099978875,0.08846427323182814,-0.010498852712863159,0.13405388151945552,0.04350719036753077,0.04889663746606413,0.08771191485502543,-0.009693151937215197,0.026099665736137447,-0.0005342823180520156,0.06661007818433207,0.02825669844516159,-0.4238390318319857
43,7.376023299992084,0.08864765847217863,-0.010292421711571322,0.13442376117406402,0.04346690627350797,0.0490069519717568,0.08770589309682573,-0.009413142511812286,0.026216827861164114,-0.0023279687381329386,0.066187274919017,0.027308789475929785,-0.426841833459147
44,7.379757099959534,0.08883087632281338,-0.010085524468162174,0.13479359948568478,0.04342779922984545,0.04911775212440338,0.08769228059511867,-0.009134923582601652,0.02632999007921228,-0.00413429779933098,0.06576096379666077,0.026360020052374672,-0.4298346133116158
45,7.383283199975267,0.08901393173147547,-0.009878158970217038,0.13516336433145065,0.04338986165477612,0.049229021048583024,0.0876710241244919,-0.008858509696623466,0.026439150212997174,-0.0059532255452529855,0.06533125943481141,0.02541108183932795,-0.4328165592343699
46,7.38777749997098,0.08919682961380611,-0.009670323276500933,0.13553302336443157,0.04335308590619941,0.04934074186584295,0.08764207065212229,-0.00858391492566952,0.026544309016220555,-0.007784704558130445,0.06489827346723823,0.024462673334520138,-0.4357868418160664
47,7.391468499961775,0.08937957485309436,-0.009462015516949297,0.13590254401447763,0.0433174642836657,0.0494528977071191,0.08760536735252245,-0.008311152875252548,0.02664547020277899,-0.009628683886253809,0.06446211595495471,0.023515500032069737,-0.43874461448249163
48,7.39570139994612,0.08956217230003527,-0.009253233892602077,0.13627189348912472,0.04328298903032454,0.04956547172528196,0.08756086162259971,-0.008040236688901643,0.026742640476563627,-0.011485108971785259,0.06402289638032423,0.02257027431976606,-0.44168901437331776
49,7.399732299963944,0.08974462677249605,-0.009043976675484644,0.13664103877456457,0.043249652334872817,0.049678447107808575,0.08750850109701153,-0.0077711790487472185,0.02683582955980215,-0.013353921585587649,0.0635807242949678,0.021627714886080732,-0.4446191633614713
50,7.404320299974643,0.08992694305529063,-0.008834242208435004,0.13700994663667992,0.04321744633349804,0.04979180708956742,0.08744823366377406,-0.007503992174351921,0.02692505021785725,-0.015235059763634705,0.06313570941272797,0.02068854587267242,-0.44753416865558576
51,7.408214899944141,0.09010912589996226,-0.008624028904876882,0.1373785836221462,0.043186363111836414,0.04990553496569956,0.08738000748015393,-0.00723868782251153,0.02701031828042072,-0.017128457746921098,0.06268796128571419,0.01975349609937697,-0.45043312427823484
52,7.412450699950568,0.09029118002457454,-0.008413335248538295,0.13774691605960068,0.04315639470691777,0.050019614104582256,0.08730377098878359,-0.006975277288818128,0.02709165265977546,-0.01903404593034017,0.06223758934995429,0.018823298518135884,-0.4533151118533343
53,7.416509499948006,0.09047311011351043,-0.0082021597931153,0.13811491006088017,0.043127533109110446,0.05013402796086415,0.08721947293398424,-0.006713771407075969,0.027169075367383964,-0.020951750809235014,0.061784702810386345,0.01789869003087456,-0.45617919986653765
54,7.420029799977783,0.09065492081727973,-0.007990501161880626,0.13848253152232778,0.04309977026407118,0.0502487600885688,0.08712706237833207,-0.00645418055183464,0.027242611530614275,-0.022881494922038323,0.0613294101316617,0.0169804116144622,-0.4590244439881176
55,7.424463999981526,0.09083661675233447,-0.007778358047236908,0.13884974612617032,0.04307309807466859,0.05036379415427093,0.08702648871946482,-0.006196514642099533,0.02731228941038241,-0.024823196799546674,0.060871818945474956,0.016069208360704672,-0.46184988841482927
56,7.428021999949124,0.09101820250089263,-0.007565729210214188,0.13921651934196685,0.04304750840290179,0.05047911395034875,0.08691770170707594,-0.005940783144646589,0.027378140418215614,-0.02677677091887775,0.06041203558877452,0.015165829062647265,-0.4646545669343443
57,7.43284299998777,0.09119968261076974,-0.007352613479911378,0.1395828164281294,0.04302299307179591,0.05059470340830411,0.08680065146010948,-0.00568699508162754,0.027440199130405636,-0.02874212766172214,0.059950164200669884,0.014271025423074598,-0.4674375038045436
58,7.437354899942875,0.0913810615952186,-0.007139009752881417,0.1399486024335165,0.04299954386725658,0.050710546612134214,0.08667528848410631,-0.005435159041501404,0.02749850329839641,-0.030719173275716587,0.05948630688406717,0.013385551394603656,-0.4701977142153076
59,7.441674999950919,0.09156234393277644,-0.006924916992459957,0.14031384219910029,0.042977152539873234,0.050826627811739376,0.08654156368872483,-0.005185283185276477,0.027553093857371615,-0.03270780983659055,0.05902056449346112,0.012510163158027696,-0.4729342051211787
60,7.4452340999851,0.09174353406711992,-0.006710334228037439,0.14067850035970775,0.042955810806720944,0.050942931436367155,0.0863994284054064,-0.0049373752507975354,0.02760401493645973,-0.034707935216562194,0.05855303686573299,0.011645619740376733,-0.475645975520153
61,7.449507199984509,0.0919246364069275,-0.006495260554274389,0.14104254134583677,0.0429355103531276,0.05105944210810619,0.08624883440516268,-0.004691442557041261,0.027651313872534344,-0.03671944304883631,0.058083823768017635,0.010792683735304846,-0.4783320161746944
62,7.453134299954399,0.09210565532574924,-0.006279695130259685,0.14140592938554752,0.04291624283443948,0.05117614465544671,0.08608973391654041,-0.004447492000409062,0.027695041226495014,-0.03874222269364729,0.057613025776702353,0.009952121617093768,-0.48099131044517707
63,7.457576599961612,0.0922865951618842,-0.006063637178611485,0.14176862850642993,0.042897999877819726,0.05129302412691172,0.08592207964369519,-0.0042055300516089566,0.027735250799715915,-0.04077615920978641,0.05714074376910847,0.009124703686612846,-0.4836228350308593
64,7.46226519998163,0.09246746021826532,-0.005847085984520527,0.14213060253764753,0.04288077308404018,0.0514100658047562,0.0857458247845964,-0.003965562756235591,0.027771999649870902,-0.04282113332689419,0.05666707832250144,0.008311203906951607,-0.48622556089306973
65,7.467292799963616,0.09264825476235194,-0.005630040894735513,0.14249181511205847,0.04286455402927499,0.05152725521873177,0.08556092304933462,-0.0037275957367209154,0.02780534810599589,-0.0448770214247739,0.056192129319609554,0.0075123998238214645,-0.48879845446049847
66,7.470910099975299,0.09282898302602985,-0.005412501316490324,0.14285222966841377,0.042849334266876,0.05164457815991296,0.08536732867850108,-0.0034916341962412827,0.027835359783642568,-0.04694369551584947,0.05571599601837046,0.00672907280932522,-0.4913404777661604
67,7.474639599968214,0.09300964920551871,-0.005194466716372786,0.14321180945363335,0.042835105329133386,0.05176202069458964,0.08516499646164302,-0.0032576829200798817,0.02786210160199675,-0.04902102322563411,0.05523877765399326,0.005962008554280195,-0.4938505877996772
68,7.478893499996047,0.09319025746128703,-0.004975936619134717,0.14357051752515995,0.042821858729039555,0.05187956917823768,0.08495388175580786,-0.003025746274455999,0.02788564380318439,-0.05110886776972536,0.054760573322974744,0.005211997207026992,-0.49632773655624346
69,7.483083099999931,0.09337081191797444,-0.004756910606442867,0.14392831675339154,0.042809585962059665,0.05199721026957422,0.08473394050419254,-0.0027958282088656654,0.027906059970560632,-0.05320708793468667,0.054281480595000396,0.004479832820237711,-0.49877087200449816
70,7.487234999949578,0.09355131666432157,-0.004537388315570416,0.14428516982419254,0.04279827850787579,0.052114930944682565,0.08450512925484903,-0.00256793226661825,0.02792342704335019,-0.05531553806320553,0.05380159412474863,0.003766312678037113,-0.5011789390592608
71,7.491605199989863,0.09373177575310704,-0.0043173694380287874,0.14464103924148397,0.042787927832068556,0.05223271851119095,0.08426740517945878,-0.0023420615988852494,0.027937825329261277,-0.05743406804317922,0.05332100539826727,0.003072237057497304,-0.503550880184962
72,7.496113099972717,0.09391219320109156,-0.00409685371813956,0.14499588732991306,0.04277852538774282,0.05235056062250381,0.0840207260921303,-0.002118218977375963,0.02794933851711441,-0.059562523297962314,0.05283980317232682,0.0023984092956529225,-0.5058856346995462
73,7.499725799949374,0.09409257298896864,-0.0038758409515462543,0.14534967623760192,0.04277006261710241,0.05246844529208706,0.08376505046825584,-0.0018964068046807441,0.027958053690021564,-0.061700744769581456,0.05235807432932562,0.0017456358833407562,-0.5081821378953698
74,7.503498399979435,0.09427291906132189,-0.0036543309836657607,0.14570236793897617,0.042762530952988556,0.05258636090781052,0.08350033746345059,-0.0016766271197363408,0.027964061338806405,-0.06384856890156848,0.05187590489617172,0.0011147263285382957,-0.5104393213181966
75,7.5080812999513,0.09445323532658875,-0.0034323237080791614,0.14605392423767338,0.04275592182040854,0.05270429624634638,0.08322654693255413,-0.001458881599575824,0.02796745537403085,-0.06600582762452827,0.05139337988245186,0.0005064924191978493,-0.512656113599074
76,7.512564999982715,0.09463352565703073,-0.003209819064861721,0.14640430676953192,0.042750226638059385,0.05282224048761306,0.08294363944869128,-0.0012431715661588222,0.027968333133197985,-0.06817234834598794,0.050910582307494325,-7.82534791518542e-05,-0.5148314425818367
77,7.520588699961081,0.09481379388870993,-0.002986817038851887,0.1467534770056602,0.04274543681979886,0.052940183229234425,0.08265157632235927,-0.001029497996327273,0.027966795378420468,-0.07034795395390826,0.05042759331723054,-0.0006387008775000316,-0.5169642385632527
78,7.526581799960695,0.0949940438214717,-0.002763317657859331,0.14710139625558644,0.042741543776085224,0.05305811450096398,0.08235031962045891,-0.0008178615276500387,0.027962946282925432,-0.07253246283386047,0.04994449264725237,-0.00117404347415316,-0.5190534358650847
79,7.530871799972374,0.0951742792189333,-0.0025393209908122945,0.1474480256704885,0.04273853891539895,0.053176024779030266,0.08203983218523692,-0.0006082624644731988,0.027956893409233442,-0.07472568888579653,0.049461359662276744,-0.0016834806886671572,-0.5210979726940156
80,7.535355599946342,0.09535450380847858,-0.002314827145844639,0.14779332624650343,0.042736413645631424,0.05329390500037701,0.08172007765317561,-0.0004007007749977441,0.0279487476827261,-0.07692744154004459,0.04897827550823505,-0.0021662185465046086,-0.523096790727468
81,7.539047699945513,0.09553472128125834,-0.0020898362683230906,0.14813725882811646,0.04273515937553131,0.0534117465767856,0.08139102047380037,-0.00019517607917898808,0.027938623362363735,-0.079137525770586,0.048495324407897195,-0.002621470428587547,-0.5250488336786675
82,7.543280499987304,0.09571493529219716,-0.00186434853881518,0.1484797841116293,0.042734767516195316,0.05352954140886826,0.08105262592845733,8.312365123126786e-06,0.027926638007931225,-0.0813557420989484,0.048012595094622364,-0.003048458006679981,-0.5269530461852083
83,7.547484299982898,0.09589514946000639,-0.0016383641709984663,0.1488208626487075,0.04273522948263137,0.05364728189991425,0.080704860149088,0.00020976568633697805,0.027912912442866603,-0.08358188659810883,0.04753018187630803,-0.0034464123506484767,-0.5288083734865486
84,7.551757199980784,0.09607536736720418,-0.0014118834095116985,0.1491604548500071,0.042736536695453436,0.05376496096956959,0.08034769013697406,0.0004091854220023809,0.02789757071216816,-0.0858157508936668,0.04704818375687851,-0.003814575196088018,-0.5306137611001537
85,7.555924399988726,0.0962555925601427,-0.001184906527748663,0.14949852098888,0.04273868058263716,0.0538825720673282,0.07998108378150207,0.0006065735355541071,0.02788074003453181,-0.08805712216501593,0.04656670371892178,-0.004152200398363817,-0.5323681551906219
86,7.560167999996338,0.09643582854904299,-0.0009574338255955601,0.14983502120515896,0.04274165258135626,0.05400010918580795,0.07960500987889839,0.0008019324330947086,0.02786255074799468,-0.09030578314963028,0.0460858473815355,-0.004458555444692834,-0.5340705021537362
87,7.564417399989907,0.09661607880803774,-0.0007294656271128795,0.15016991550902098,0.04274544413987963,0.05411756687378337,0.07921943815095774,0.000995264968858211,0.02784313624931948,-0.09256151214072786,0.045605720734594804,-0.004732922834048918,-0.5357197481084408
88,7.568328799970914,0.09679634677522206,-0.0005010022781628589,0.15050316378493017,0.0427500467194538,0.05423494024895046,0.07882433926379781,0.001186574442873584,0.027822632927999875,-0.09482408298727223,0.045126429675012195,-0.004974601206759445,-0.5373148397281412
89,7.572351099981461,0.09697663585271214,-0.0002720441439837,0.15083472579565943,0.042755451796180365,0.054352225010402794,0.07841968484658783,0.0013758646025172183,0.02780118009611774,-0.09709326509864727,0.04464808088622451,-0.005182906220385345,-0.5388547250279059
90,7.576972999959253,0.09715694940671192,-4.2591606711802034e-05,0.15116456118639118,0.0427616508629115,0.05446941745080473,0.07800544751026375,0.0015631396475940522,0.02777891991496131,-0.0993688234512981,0.04417078264822593,-0.0053571716640027755,-0.5403383540127678
91,7.580878999957349,0.09733729076758768,0.00018735493714669123,0.15149262948889694,0.04276863543117025,0.05458651446824864,0.07758160086620078,0.0017484042387219273,0.02775599731548449,-0.10165051859887368,0.04369464541465818,-0.005496751855330614,-0.5417646796020908
92,7.59090109996032,0.09751766322995091,0.0004177950792936629,0.15181889012579552,0.0427763970331168,0.05470351357775721,0.07714811954484303,0.0019316635072799367,0.02773255990470746,-0.10393810668666387,0.043219782045168374,-0.005601025222965652,-0.5431326604512128
93,7.5952849999885075,0.09769807005274951,0.0006487284022644876,0.15214330241488974,0.04278492722355263,0.054820412922351305,0.07670497921425432,0.0021129230657525033,0.027708757855963145,-0.10623133948553998,0.042746308568716876,-0.005669396247082697,-0.5444412645610969
94,7.598997199966107,0.09787851445936754,0.0008801544820991493,0.15246582557358107,0.04279421758197401,0.05493721128362658,0.07625215659846152,0.0022921890241155234,0.027684743798929823,-0.10852996443683595,0.0422743455017347,-0.005701292969540301,-0.5456894689090067
95,7.604285699955653,0.09805899963773376,0.0011120728910569107,0.15278641872336104,0.042804259714714424,0.05505390809189384,0.07578962949562684,0.002469468011297881,0.02766067273087754,-0.11083372468317394,0.04180401861123645,-0.005696161728179625,-0.5468762571325476
96,7.608334699994884,0.09823952874043942,0.0013444832003729553,0.1531050408943792,0.04281504525717902,0.05517050343600714,0.07531737679613124,0.002644767198003742,0.027636701951112022,-0.11314235909381255,0.041335458822637804,-0.00565346334037729,-0.5480006190684641
97,7.612458099960349,0.09842010488486568,0.0015773849830559472,0.153421651030087,0.04282656587617951,0.05528699807295123,0.07483537850053282,0.0028180943173965957,0.0276129910044093,-0.1154556022915826,0.040868801595452815,-0.005572671826544401,-0.5490615515870423
98,7.616702199971769,0.09860073115332105,0.001810777816725535,0.15373620799195722,0.042838813272343124,0.05540339343719257,0.07434361573742314,0.002989457682656133,0.027589701626225715,-0.11777318468527273,0.040404185743263585,-0.005453273723490165,-0.5500580596540332
99,7.620428099995479,0.09878141059318916,0.002044661286488779,0.15404867056427846,0.04285177918259555,0.05551969164980465,0.07384207078111246,0.003158866197709825,0.02756699769192369,-0.12009483250552158,0.039941751120579884,-0.005294767623997722,-0.5509891561921204
100,7.624607099976856,0.09896214621708718,0.0022790349878546176,0.1543589974590237,0.04286545538266039,0.05563589552739082,0.07333072706918331,0.0033263293552806047,0.027545045165864993,-0.12242026783603498,0.039481636494356175,-0.0050966658349337985,-0.5518538637930768
101,7.628813299990725,0.09914294100303457,0.0025138985296855516,0.15466714732079292,0.042879833689525665,0.05575200859078024,0.07280956921991245,0.0034918572296666643,0.02752401203665187,-0.12474920866391852,0.0390239784576066,-0.004858498589831334,-0.5526512194831464
102,7.632982299954165,0.09932379789463236,0.002749251537185452,0.15497307873182853,0.042894905963882346,0.05586803507340451,0.07227858304939995,0.0036554604656264854,0.02750406823069109,-0.1270813689510864,0.03856890960156302,-0.004579818119248651,-0.5533802771285637
103,7.637465799984056,0.09950471980125249,0.002985093654921893,0.1552767502171024,0.042910664112497124,0.05598397992926461,0.07173775558838887,0.003817150255742481,0.02748538551310538,-0.12941645870488233,0.03811655719673726,-0.004260199910591806,-0.5540401072037753
104,7.640917799959425,0.09968570959823705,0.003221424549881156,0.15557812024947332,0.042927100090460045,0.05609984884047186,0.0711870750987987,0.0039769383181820096,0.027468137390672005,-0.13175418404753347,0.03766704453517247,-0.0038992421017601904,-0.5546297976713167
105,7.645479299942963,0.09986677012710664,0.0034582439145541604,0.1558771472549133,0.042944205903369684,0.05621564822439619,0.0706265310899593,0.004134836885381662,0.027452499017848266,-0.13409424729419234,0.03722049220265598,-0.0034965664969085495,-0.555148456202016
106,7.650209899991751,0.10004790419577797,0.0036955514700517584,0.15617378961780204,0.04296197360948536,0.056331385240414505,0.07005611433448611,0.004290858692538215,0.027438647091143065,-0.1364363470411161,0.03677701844881343,-0.00305182269055331,-0.5555952125794896
107,7.65429369994672,0.1002291145787904,0.003933346969247582,0.15646800568628713,0.04298039532181523,0.05644706779616813,0.06947581688377037,0.004445016969414317,0.02742675972035937,-0.13878017826398814,0.036336739487262217,-0.0025646927693532373,-0.5559692217089278
108,7.658394399972167,0.10041040401754119,0.0041716301999461134,0.1567597537777091,0.042999463210199415,0.056562704553225165,0.06888563208302509,0.004597325431360957,0.027417016283310638,-0.14112543243147374,0.035899768871503944,-0.002034893607985816,-0.5562696650520076
109,7.661888899980113,0.10059177522052953,0.004410400988073288,0.15704899218408858,0.04301916950332235,0.056678304932112636,0.06828555458581752,0.004747798265859386,0.02740959727769967,-0.14347179761564374,0.03546621735640647,-0.0014621775077885274,-0.5564957483115004
110,7.666687099961564,0.10077323086360886,0.004649659200887007,0.15733567917767388,0.043039506490682417,0.056793879116729576,0.0676755803681838,0.004896450122375311,0.027404684170448695,-0.14581895858600205,0.03503619301340767,-0.00084633424749754,-0.5566467004136777
111,7.670554599957541,0.10095477359024742,0.0048894047502049615,0.15761977301654725,0.043060466524518726,0.0569094380581084,0.06705570674236844,0.005043296099872456,0.027402459232282152,-0.14816659691132686,0.03460980081437874,-0.000187194933245032,-0.5567217761006997
112,7.674091599998064,0.10113640601179685,0.005129637595646866,0.15790123195028827,0.043082042021675426,0.05702499347743287,0.06642593237007996,0.005188351733157025,0.027403105354585598,-0.15051439107556253,0.03418714214554529,0.0005153648151526754,-0.556720258289141
113,7.679008699953556,0.10131813070776853,0.0053703577478877405,0.15818001422569192,0.043104225465413336,0.05714055786825482,0.06578625727525297,0.005331632976291639,0.027406805857115104,-0.15286201659955279,0.033768314206205616,0.0012614224717497442,-0.5566414598279816
114,7.683238699974026,0.10149995022611735,0.005611565271918836,0.15845607809253964,0.04312700940713434,0.05725614449789034,0.06513668285627713,0.00547315618386855,0.02741374428467811,-0.15520914617175965,0.03335340910729577,0.002051005091693469,-0.5564847254881783
115,7.687515199999325,0.10168186708353266,0.005853260290312694,0.15872938180942056,0.043150386468035096,0.057371767407921714,0.06447721189765668,0.005612938086820801,0.0274241041852158,-0.15755544978677682,0.0329425120429623,0.002884086153420411,-0.5562494343211636
116,7.692038599983789,0.10186388376573599,0.0060954429864883055,0.15899988364960083,0.04317434934062741,0.05748744141372189,0.06380784858107118,0.005750995758274355,0.027438068879850785,-0.15990059489594033,0.03253570094368337,0.0037605860793654814,-0.5559350003538771
117,7.695869799994398,0.10204600272778479,0.006338113607972159,0.15926754190693815,0.04319889079010394,0.057603182103017,0.06312859849576481,0.0058873465864336515,0.027455821245361202,-0.16224424655170389,0.032133048350641215,0.004680376493708281,-0.5555408690266256
118,7.700020999996923,0.10222822639438169,0.006581272469651277,0.15953231490183878,0.04322400365562989,0.057719005833576226,0.062439468648389444,0.00602200825624233,0.027477543520138537,-0.1645860675282062,0.03173462294214342,0.005643285964789516,-0.5550665127509723
119,7.703569199948106,0.10241055716018913,0.006824919957014779,0.15979416098725505,0.043249680851554034,0.05783492973013772,0.06174046747237702,0.006154998735142738,0.02750341713509367,-0.16692571842818124,0.0313404901346116,0.006649104825413331,-0.5545114284580824
120,7.707936499966308,0.10259299739014884,0.00706905652938099,0.1600530385547214,0.04327591536858032,0.05795097168067234,0.06103160483688096,0.006286336259805437,0.027533622560269512,-0.16926285778284808,0.030950710671754502,0.007697586553046155,-0.5538751377376158
121,7.71220699994592,0.10277554941980634,0.007313682723107495,0.1603089060404273,0.043302700274866934,0.058067150332015885,0.060312892055306065,0.006416039309989689,0.027568339147387724,-0.1715971421599926,0.030565338450920264,0.008788445622700718,-0.5531571891504979
122,7.716649399953894,0.10295821555563969,0.007558799154781407,0.1605617219313253,0.04333002871697748,0.058183485084804844,0.05958434189333837,0.006544126576940263,0.02760774495835243,-0.1739282262833635,0.03018442086870631,0.009921356237259133,-0.5523571597564122
123,7.720696299977135,0.10314099807539204,0.0078044065243867075,0.16081144477127166,0.04335789392071348,0.05829999608766224,0.058845968576468025,0.006670616940162817,0.027652016597088387,-0.1762557631536368,0.029808000880574972,0.011095956077194876,-0.5514746542343824
124,7.724257399968337,0.10332389922840735,0.008050505618445482,0.1610580331671977,0.043386289191869674,0.05841670423071508,0.05809778779699893,0.006795529453191654,0.02770132906967013,-0.17857940416039497,0.029436118574291664,0.012311853152200035,-0.5505093016898891
125,7.728674099955242,0.10350692123596933,0.008297097313130582,0.1613014457953097,0.04341520791694651,0.058533631138600516,0.0573398167206272,0.006918883333635602,0.027755855673947276,-0.18089879917616236,0.02906881176993802,0.013568630303189026,-0.549460753666642
126,7.732966599985957,0.10369006629164322,0.008544182577347877,0.16154164140731578,0.043444643563821446,0.058650799163052394,0.05657207399265766,0.007040697954006317,0.02781576789764388,-0.18321359665161535,0.02870611576648518,0.014865845283167596,-0.5483286859506166
127,7.737208499980625,0.10387333656162033,0.00879176247578639,0.1617785788366781,0.04347458968238412,0.05876823137504797,0.05579457974377933,0.007160992829626752,0.02788123530866582,-0.18552344372483334,0.028348062185076375,0.01620302958822412,-0.547112801206278
128,7.741766699997242,0.10405673418506518,0.00903983817193431,0.16201221700488846,0.04350503990510567,0.0588859515564693,0.05500735559536048,0.007279787599703618,0.02795242544334063,-0.1878279863387429,0.027994678529380947,0.017579689863675845,-0.5458128295328004
129,7.745614799961913,0.10424026127446488,0.009288410931058809,0.16224251492776526,0.04353598794751425,0.059003984191307375,0.05421042466423358,0.0073971020115278395,0.028029503708584435,-0.19012686935505996,0.027645990059284756,0.01899531196584132,-0.5444285263354782
130,7.749128299998119,0.10442391991598025,0.00953748212314786,0.16246943172176936,0.0435674276086311,0.059122354456498376,0.05340381156702936,0.007512955917349866,0.02811263330439907,-0.19241973665378131,0.02730202145612014,0.020449364859642043,-0.5429596700119049
131,7.753364299947862,0.10460771216979889,0.009787053225812768,0.16269292661033763,0.04359935277141972,0.05924108821247413,0.052587542424122655,0.0076273692726248005,0.028201975158911666,-0.19470623122761188,0.026962796291325346,0.021941301792489883,-0.5414060616757226
132,7.758275799977127,0.10479164007049008,0.010037125827150297,0.1629129589302321,0.04363175740320713,0.05936021199345051,0.051761644863170024,0.007740362128406338,0.028297687860772438,-0.19698599527912625,0.026628336378145705,0.023470558824244588,-0.5397675256184975
133,7.762481499987189,0.1049757056273614,0.010287701628563283,0.16312948813790334,0.043664635556068886,0.05947975299740771,0.05092614802223615,0.007851954624124101,0.02839992758179581,-0.19925867031909145,0.02629866188722685,0.02503655353812969,-0.5380439099109262
134,7.765990099986084,0.10515991082481692,0.010538782447538258,0.16334247381586597,0.04369798136718945,0.05959973907572618,0.05008108255250221,0.007962166980952496,0.028508847998485985,-0.20152389726869913,0.025973791139033416,0.026638685478230315,-0.5362350865881511
135,7.770503399951849,0.10534425762271679,0.010790370220378655,0.16355187567908486,0.043731789059191256,0.059720198722505086,0.04922648062053002,0.008071019492837294,0.028624600218367945,-0.20378131655945128,0.02565373956253147,0.028276336186071362,-0.5343409508633511
136,7.775122399965767,0.10552874795673825,0.011042467004892339,0.1637576535813698,0.043766052940419395,0.059841161063576884,0.04836237591012797,0.00817853251108194,0.028747332701821532,-0.2060305682287598,0.02533851807580569,0.029948866991467506,-0.5323614231175957
137,7.779153499985114,0.10571338373873762,0.011295074983032158,0.16395976752177735,0.043800767405140696,0.05996265584516652,0.047488803623808876,0.008284726421716133,0.028877191169780318,-0.2082712920366147,0.025028131305136803,0.031655616561544885,-0.5302964532936874
138,7.783073599974159,0.10589816685711297,0.011548196463487832,0.16415817765101792,0.043835926933637526,0.06008471342212754,0.04660580048367192,0.008389621615061713,0.029014318504893947,-0.21050312759824183,0.024722576312788666,0.033395901558893624,-0.5281460202949634
139,7.786526799958665,0.1060830991771669,0.011801833884227281,0.16435284427786498,0.04387152609215019,0.06020736474576769,0.04571340473174165,0.008493238452371297,0.029158854664777915,-0.2127257144957004,0.02442184361481802,0.035169019917990055,-0.52591012745286
140,7.790258899971377,0.10626818254146878,0.012055989814985835,0.16454372787556495,0.043907559532689364,0.06033064135135337,0.04481165612990874,0.008595597243978445,0.029310936610809496,-0.2149386923723138,0.024125919332188082,0.036974252600948186,-0.5235888003512194
141,7.795394199958537,0.10645341877021586,0.012310666959702177,0.16473078908824604,0.0439440219927942,0.06045457534533466,0.04390059595947251,0.008696718234078957,0.029470698236185665,-0.2171417010259173,0.02383478500572202,0.03881086161896991,-0.5211820878900346
142,7.79890129994601,0.1066388096615935,0.0125658681588998,0.16491398873732419,0.04398090829521641,0.06057919939224306,0.04298026702029522,0.008796621577320335,0.029638270278031783,-0.21933438051226037,0.023548415653348736,0.04067808586004813,-0.5186900660805469
143,7.804158699989784,0.1068243569921337,0.012821596392012455,0.16509328782790478,0.04401821334748094,0.0607045467011752,0.04205071362947253,0.00889532730719775,0.029813780210270063,-0.22151637127026272,0.02326677810399553,0.04257513754419465,-0.5161128424390448
144,7.808235199947376,0.1070100625170715,0.013077854779651604,0.16526864755517742,0.04405593214130347,0.06083065101178703,0.041111981619431366,0.008992855298591432,0.02999735212583139,-0.22368731426247415,0.02298982995695192,0.04450120069399504,-0.5134505582999326
145,7.812291999987792,0.10719592797069864,0.01333464658581374,0.16544002931080157,0.04409405975183514,0.06095754657978411,0.040164118335415694,0.009089225227385835,0.03018910661662432,-0.22584685111983913,0.022717519050724753,0.046455431148849216,-0.510703389325891
146,7.816424499964341,0.10738195506671364,0.013591975220025473,0.1656073946892801,0.0441325913367395,0.06108526816190343,0.03920717263236346,0.009184456528527313,0.03038916065586703,-0.22799462428645945,0.022449783183955838,0.04843695818435674,-0.507871544350175
147,7.821009999956004,0.10756814549856761,0.013849844239424177,0.1657707054943186,0.04417152213508347,0.0612138510004113,0.03824119487117143,0.009278568353289478,0.03059762749171431,-0.23013027715459464,0.02218655148059524,0.050444887620369964,-0.5049552623234067
148,7.824839499953669,0.107754500939805,0.014108257350772332,0.1659299237451675,0.04421084746605384,0.06134333080718799,0.03726623691443352,0.009371579538844857,0.030814616555803066,-0.23225345418367366,0.02192774712054668,0.05247830485149773,-0.5019548101859507
149,7.828933599987067,0.10794102304439862,0.014367218412403944,0.1660850116829453,0.044250562727591626,0.0614737437474543,0.03628235212170188,0.00946350858856071,0.03104023338243882,-0.23436380101735074,0.021673288009426004,0.054536276914716866,-0.4988704821731855
150,7.833519299980253,0.1081277134470788,0.01462673143610163,0.1662359317769408,0.04429066339494239,0.0616051264231746,0.03528959534423795,0.009554373647219474,0.03127457953457958,-0.23646096459665772,0.021423085390559846,0.05661785368559982,-0.49570259852066834
151,7.837236799998209,0.10831457376365625,0.014886800588903059,0.16638264673089212,0.044331145019081586,0.06173751585615918,0.03428802291931924,0.009644192469608086,0.03151775253311142,-0.2385445932661391,0.021177042295739513,0.05872206813056601,-0.4924515061580673
152,7.845769399951678,0.10850160559133788,0.015147430194835526,0.1665251194892408,0.04437200322499995,0.06187094947087075,0.03327769266409522,0.009732982382671966,0.03176984578495986,-0.24061433689285713,0.020935051995290985,0.06084793588216416,-0.489117582132664
153,7.849876199965365,0.10868881050903526,0.015408624736577378,0.1666633132433591,0.044413233709809666,0.06200546507692047,0.032258663868890404,0.009820760241032114,0.032030948508783345,-0.24266984700140087,0.020696997095468784,0.06299445536549705,-0.485701235737372
154,7.854466999997385,0.10887619007766443,0.015670388857044956,0.16679719143774746,0.04445483224065459,0.06214110085124782,0.03123099728992156,0.009907542381526448,0.0323011456641509,-0.24471077691083915,0.020462749585571788,0.06516060977325545,-0.4822029086490658
155,7.858129399945028,0.10906374584043672,0.015932727360903728,0.16692671777620055,0.04449679465243301,0.06227789532001922,0.03019475514144572,0.00999334457912428,0.03258051789389318,-0.24673678187089634,0.02023217243333046,0.06734537073828152,-0.4786230722925748
156,7.862371699942741,0.10925147932313943,0.01619564521600256,0.1670518562279385,0.04453911684533603,0.06241588734032171,0.02915000108732889,0.010078182014923267,0.03286914148425481,-0.24874751917667304,0.020005122476111307,0.06954770223088044,-0.4749622226584028
157,7.865764299989678,0.10943939203440578,0.01645914755473046,0.16717257103370167,0.04458179478230042,0.06255511608172554,0.02809680023222648,0.010162069256448521,0.03316708834011565,-0.2507426482611141,0.01978145169420387,0.07176656347684918,-0.47122087789708755
158,7.870024699950591,0.10962748546597417,0.016723239675295334,0.16728882671180767,0.04462482448638088,0.06269562100776879,0.027035219112372135,0.010245020236388553,0.03347442596975399,-0.2527218307894399,0.019561007048111728,0.0740009103275265,-0.4673995782733912
159,7.874398699961603,0.10981576109293599,0.016987927042924577,0.16740058806416835,0.044668202038023505,0.06283744185739151,0.025965325685961736,0.010327048231522081,0.03379121747162293,-0.2546847307512281,0.01934363022414745,0.07624969513474435,-0.46349888667467315
160,7.878540299949236,0.11000422037397183,0.017253215290987247,0.16750782018226576,0.044711923572260316,0.0629806186263088,0.024887189323165592,0.010408165839308309,0.03411752151805889,-0.2566310145591326,0.019129156385827868,0.07851186637077574,-0.4595193904156681
161,7.883414699987043,0.11019286475157564,0.017519110222037546,0.16761048845308488,0.04475598527578531,0.0631251915483075,0.023800880795679845,0.010488384946282908,0.03445339233885264,-0.25856035115618686,0.01891741352547735,0.08078636910778396,-0.45546170174683237
162,7.887476599949878,0.11038169565226631,0.017785617808779255,0.16770855856500144,0.044800383383882425,0.06327120107648075,0.02270647226583366,0.010567716699179669,0.03479887970900147,-0.26047241211881017,0.018708223829401304,0.08307214595398658,-0.45132645665174875
163,7.891542099998333,0.11057071448678592,0.018052744194950947,0.16780199651362285,0.04484511417725803,0.06341868786442141,0.02160403727527186,0.010646171484840457,0.03515402894017593,-0.2623668717539684,0.018501404464898907,0.08536813783471041,-0.44711431332080726
164,7.895793199946638,0.11075992265028455,0.0183204956961318,0.16789076860758048,0.044890173978799464,0.0635676927473846,0.020493650733242667,0.010723758907974591,0.03551888087505946,-0.2642434071893071,0.01829676750944487,0.08767328464011177,-0.4428259503463248
165,7.899839099962264,0.11094932152249122,0.018588878800467938,0.16797484147427186,0.04493555915021991,0.06371825672343334,0.019375388904520136,0.010800487770471509,0.03589347188427805,-0.2661016984550898,0.018094120668635947,0.08998652577456125,-0.4384620652885552
166,7.903804299945477,0.11113891246787046,0.018857900169319226,0.1680541820655511,0.044981266088642495,0.06387042093457532,0.018249329397000826,0.010876366055215358,0.036277833865373456,-0.2679414285622366,0.017893267554787252,0.09230680082211175,-0.43402337398197016
167,7.908559299947228,0.11132869683576435,0.01912756663782651,0.1681287576633664,0.04502729122310864,0.06402422664789978,0.017115551148968056,0.01095140090774737,0.03667199424534541,-0.26976228357841175,0.017694007245628363,0.09463305014758469,-0.4295106101650608
168,7.912416899984237,0.11151867596051969,0.019397885215399327,0.16819853588534323,0.04507363101100748,0.06417971523673573,0.01597413441604684,0.011025598616358457,0.037075975984694476,-0.27156395270293987,0.017496133151289697,0.09696421487803653,-0.4249245262204255
169,7.9168046999839135,0.11170885116159993,0.01966886308612423,0.16826348469031163,0.04512028193441636,0.06433692816182297,0.0148251607578363,0.011098964584195662,0.03748979757980794,-0.2733461283491354,0.017299431742969478,0.09929923699172125,-0.42026589442380524
170,7.9209320999798365,0.11189922374368143,0.019940507609093695,0.1683235723837767,0.045167240496294954,0.06449590695249041,0.013668713024170222,0.011171503298632247,0.037913473067752994,-0.2751085062297536,0.01710368322298527,0.10163706026527654,-0.4155355065279188
171,7.9256707999738865,0.11208979499673336,0.020212826318655692,0.16837876762333015,0.045214503216567434,0.06465669318786751,0.012504875341028778,0.011243218309025403,0.03834701203665124,-0.2768507854358096,0.01690866307489919,0.10397663151667245,-0.41073417223589287
172,7.929310699983034,0.11228056619608086,0.020485826924584137,0.16842903942400175,0.04526206662812902,0.0648193284781501,0.011333733096134311,0.01131411220916021,0.038790419640955,-0.2785726685091545,0.016714143289395366,0.10631690169364165,-0.40586271772049487
173,7.933375199965667,0.11247153860245128,0.02075951731217046,0.16847435716354955,0.045309927272780055,0.06498385444594067,0.01015537292425094,0.011384186625346482,0.039243696621001745,-0.28027386150880557,0.016519893612984046,0.10865682688934379,-0.40092198428255715
174,7.937949399987701,0.11266271346200306,0.021033905542236678,0.16851469058768734,0.04535808169713218,0.0651503127076791,0.008969882692220921,0.011453442209394397,0.03970683932685658,-0.281954074072207,0.016325682265657046,0.11099536944348215,-0.3959128281199242
175,7.941506999952253,0.1128540920063374,0.021308999851070338,0.16855000981524856,0.045406526448483156,0.06531874485518407,0.007777351483747569,0.0115218786327641,0.04017983974715355,-0.2836130194796118,0.0161312764269654,0.11333149887309937,-0.39083611995706957
176,7.945002999971621,0.11304567545249242,0.02158480865028192,0.16858028534328554,0.04545525807067369,0.06548919243732702,0.006577869583888615,0.011589494583640943,0.04066268554078855,-0.2852504147122186,0.015936443113947346,0.11566419237962493,-0.38569274245443175
177,7.950011899985839,0.1132374650029198,0.021861340526585216,0.16860548805210254,0.0455042730999376,0.06566169694184085,0.005371528463348803,0.011656287768489601,0.04115536007003711,-0.2868659804947036,0.015740949829426296,0.11799243519146617,-0.3804835893757144
178,7.95385189994704,0.11342946184544399,0.022138604241501304,0.16862558921022255,0.045553568060771744,0.06583629977727318,0.00415842076261453,0.011722254914597103,0.04165784243513672,-0.2884594413463343,0.015544564400570659,0.12031522072554647,-0.3752095677621882
179,7.958537599944975,0.11362166715320404,0.02241660873098672,0.16864056047928655,0.04560313946180765,0.06601304225508678,0.0029386402758153395,0.011787391770265351,0.042170107508767055,-0.2900305256418398,0.015347054746535903,0.12263155077849414,-0.3698715980715858
180,7.962491099955514,0.11381408208457794,0.02269536310498646,0.1686503739188841,0.04565298379168303,0.06619196557190361,0.0017122819343451802,0.011851693105394428,0.0426921259722448,-0.29157896566369607,0.015148189041368755,0.12494043605866847,-0.3644706132990139
181,7.966039099963382,0.11400670778308965,0.022974876646912407,0.16865500199131456,0.04570309751491837,0.06637311079191051,0.0004794417902829246,0.01191515271304906,0.043223864354491034,-0.29310449765558166,0.014947736129656804,0.12724089661302718,-0.3590075586068409
182,7.970153599977493,0.11419954537729865,0.023255158813047936,0.1686544175662778,0.04575347706780163,0.06655651882943188,-0.0007597830004372238,0.011977763413547548,0.043765285071826254,-0.2946068618715416,0.01474546550340901,0.12953196204251072,-0.3534833905382404
183,7.974354699952528,0.11439259598067231,0.023536219231879357,0.1686485939254935,0.04580411885429933,0.06674223043167103,-0.0020052941950198656,0.012039517055833232,0.04431634646875435,-0.2960858026228101,0.014541146632198503,0.13181267171040154,-0.34789907752614035
184,7.978789199958555,0.11458586069144089,0.02381806770335496,0.1686375047672485,0.04585501924195282,0.06693028616162686,-0.003256992481032904,0.0121004045159138,0.044877002859514944,-0.2975410683312668,0.014334548152544138,0.13408207490796162,-0.3422556002632763
185,7.982907399942633,0.11477934059243533,0.024100714198072377,0.16862112421087086,0.045906174557776194,0.06712072638118559,-0.004514777493852529,0.012160415691395945,0.04544720457026437,-0.29897241157938076,0.014125436803765866,0.13633923087335692,-0.3365539516096387
186,7.986679399968125,0.11497303675090767,0.024384168856395022,0.16859942680113005,0.045957581084106476,0.06731359123439326,-0.0057785478343089555,0.012219539490949586,0.04602689798078761,-0.300379589162886,0.013913576804170954,0.1385832086127524,-0.33079513640745256
187,7.991417199955322,0.1151669502183338,0.02466844198749837,0.16857238751256218,0.04600923505441266,0.06750892063089926,-0.00704820108657567,0.012277763823581244,0.04661602556517037,-0.30176236213916485,0.013698729735458938,0.14081308671965861,-0.3249801703246484
188,7.995977999991737,0.11536108203019856,0.02495354406834676,0.16853998175371937,0.04606113264905544,0.06770675422957183,-0.008323633836223239,0.01233507558712332,0.0472145259319874,-0.3031204958701696,0.013480654611102332,0.1430279531507644,-0.3191100786519049
189,7.999828699976206,0.11555543320576271,0.025239485742601483,0.16850218537134265,0.04611326999099916,0.06790713142228054,-0.009604741688470562,0.0123914606580842,0.0478223338630839,-0.3044537600606597,0.013259107946289674,0.14522690502908875,-0.3131858949610273
190,8.00399059994379,0.1157500047478119,0.025526277819460808,0.16845897465445742,0.04616564314148596,0.0681100913178389,-0.010891419286561175,0.012446903880727443,0.04843938035210362,-0.30576192878980823,0.013033843781529823,0.1474090482953447,-0.3072086608274795
191,8.010398899961729,0.11594479764238712,0.025813931272432644,0.16841032633839134,0.04621824809565558,0.06831567272611182,-0.012183560330281073,0.012501389057120959,0.04906559264032985,-0.3070447805470989,0.012804614190972294,0.1495734969459008,-0.30117942522886276
192,8.014201699988917,0.11613981285849671,0.02610245723804052,0.16835621760871367,0.04627108077813559,0.0685239141422604,-0.013481057594637772,0.012554898940503411,0.04970089424878641,-0.30830209825885907,0.012571169930414816,0.15171937249100248,-0.29509924195414605
193,8.0183472999488,0.11633505134780969,0.02639186701446337,0.16829662610509555,0.04632413703860529,0.06873485373112023,-0.014783802948601914,0.01260741523079874,0.05034520500950925,-0.30953366930230636,0.012333261385267332,0.15384580330393607,-0.28896916812322104
194,8.023095099953935,0.11653051404433029,0.02668217206010976,0.1682315299250913,0.04637741264734806,0.06894852931170992,-0.0160916873739048,0.012658918575977758,0.05099844109215826,-0.31073928551959523,0.012090639542319592,0.15595192350528433,-0.282790263863198
195,8.026762299996335,0.11672620186405377,0.026973383992127016,0.1681609076278402,0.04643090329082675,0.06916497834183376,-0.01740460098389846,0.01270938857576864,0.05166051502587856,-0.31191874322913343,0.011843056244631597,0.1580368721388416,-0.27656359216952325
196,8.030813999997918,0.11692211570460369,0.027265514584845583,0.16808473823768863,0.04648460456726735,0.06938423790277473,-0.01872243304244863,0.012758803785168277,0.05233133571896195,-0.3130718432384574,0.0115902644913942,0.16009979230715488,-0.2702902192760264
197,8.03814949997468,0.11711825644485041,0.02755857576815906,0.1680030012477326,0.046538511982263976,0.06960634468406296,-0.02004507198290343,0.012807141720681814,0.05301080847341729,-0.3141983908586695,0.011332019363947213,0.1621398298645796,-0.26397121340583846
198,8.043474199948832,0.11731462494451134,0.027852579625840094,0.16791567662327986,0.046592620944415165,0.06983133496829158,-0.021372405427108086,0.012854378871644114,0.05369883499360906,-0.3152981959067789,0.011068079135964764,0.16415613218194444,-0.25760764379992157
199,8.05033659999026,0.11751122204373263,0.02814753839379235,0.16782274480523204,0.046646926761024346,0.07005924461595808,-0.022704320204393346,0.012900490715822674,0.05439531339040884,-0.316371072711945,0.010798205365442133,0.16614784730081253,-0.2512005821049879
200,8.055271299963351,0.11770804856265313,0.028443464458238553,0.16772418671338668,0.04670142463386774,0.07029010905031519,-0.024040702370642892,0.012945451731514917,0.05510013818270087,-0.3174168401295242,0.010522162710136502,0.16811412379964677,-0.24475110228090655
201,8.059494899993297,0.11790510530095043,0.02874037035384469,0.16761998374965847,0.04675610965499686,0.07052396324222487,-0.025381437227400196,0.012989235411594517,0.05581320030040474,-0.31843532154653276,0.010239720153347955,0.1700541115234668,-0.2382602794904315
202,8.064112599997316,0.11810239303736937,0.02903826876178032,0.1675101178012202,0.04681097680262487,0.07076084169503477,-0.026726409340982017,0.013031814285947026,0.05653438709213494,-0.31942634488632893,0.009950652276715951,0.17196696257356084,-0.23172919042276116
203,8.068245899979956,0.11829991252923343,0.029337172507715198,0.16739457124356272,0.0468660209371183,0.07100077842949677,-0.02807550256162475,0.013073159946251052,0.05726358233657082,-0.320389742616805,0.009654739166866546,0.1738518320751859,-0.22515891389546802
204,8.072493799962103,0.1184976645119394,0.029637094559752414,0.1672733269434745,0.04692123679709245,0.07124380696873932,-0.029428600042667008,0.013113243067626543,0.05800066625659102,-0.3213253517601461,0.009351766531007034,0.17570787869222546,-0.2185505307155376
205,8.07656869996572,0.11869564969843584,0.029938048026298264,0.16714636826193977,0.04697661899558566,0.07148996032330523,-0.030785584259778287,0.013152033434390902,0.05874551553498409,-0.3222330138998503,0.009041526276648849,0.1775342647157645,-0.21190512400277695
206,8.080725499952678,0.11889386877868552,0.030240046153869184,0.16701367905695583,0.04703216201637192,0.07173927097625651,-0.03214633703020075,0.01318949996659669,0.05949800332932993,-0.3231125751932151,0.008723816024358969,0.17933015605550431,-0.2052237805321342
207,8.084993899974506,0.11909232241911274,0.03054310232483601,0.16687524368626902,0.047087860210359,0.07199177086833766,-0.033510739532083195,0.013225610741678257,0.06025799928763805,-0.32396388638967855,0.008398439015187498,0.18109472252518438,-0.19850759059455986
208,8.088976899976842,0.11929101126203542,0.030847230055105774,0.1667310470100289,0.047143707792083635,0.07224749138321238,-0.03487867232387755,0.013260333020208681,0.06102536956563624,-0.3247868028421323,0.008065203718624821,0.18282713813776588,-0.19175764785784857
209,8.093517599976622,0.11948993592508284,0.03115244299174144,0.1665810743933606,0.047199698836326846,0.0725064633327727,-0.03625001536376824,0.013293633264239877,0.06179997684489845,-0.3255811845240892,0.0077239222126325,0.1845265817626988,-0.184975050755248
210,8.09760609996738,0.11968909700059915,0.03145875491051981,0.1664253117088552,0.04725582727476384,0.07276871694252862,-0.03762464802921348,0.013325477149396601,0.06258168035567689,-0.3263468960527079,0.0073744104380474825,0.1861922381917299,-0.17816090299432868
211,8.102020299993455,0.11988849505503296,0.03176617971342803,0.16626374533897725,0.04731208689268133,0.07303428183710975,-0.03900244913656884,0.013355829585362224,0.06337033590401903,-0.3270838067102522,0.007016489008322299,0.18782329891888858,-0.17131631313972598
212,8.10667949996423,0.12008813062831308,0.03207473142609921,0.16609636217838963,0.0473684713258002,0.07330318702588363,-0.04038329696080951,0.013384654734802137,0.06416579590117813,-0.3277917904635967,0.006649982307308711,0.18941896284653265,-0.1644423937349342
213,8.111040999996476,0.1202880042332113,0.03238442419518763,0.16592314963619473,0.04742497405715246,0.07357546088870554,-0.04176706925531838,0.013411916026240174,0.0649679093966851,-0.3284707259782789,0.006274718142283333,0.19097843722688312,-0.1575402611637011
214,8.116039999993518,0.12048811635469185,0.0326952722856842,0.16574409563809236,0.047481588414012454,0.07385113116181562,-0.043153643271726855,0.01343757617005561,0.06577652211570004,-0.32912049663683624,0.005890528183787927,0.19250093832787243,-0.15061103592663336
215,8.120581699942704,0.12068846744924826,0.033007290078172706,0.16555918862845373,0.04753830756490878,0.07413022492390377,-0.04454289577985755,0.01346159717506922,0.06659147649769981,-0.32974099055519096,0.005497247849840403,0.19398569168813717,-0.1436558411154169
216,8.124816399998963,0.12088905794422762,0.033320492066027704,0.16536841757231105,0.04759512451669539,0.07441276858233309,-0.04593470308770331,0.013483940363563712,0.06741261173598029,-0.33033210058811846,0.005094716374803806,0.19543193275790827,-0.1366758005620224
217,8.129266599949915,0.12108988823714276,0.03363489285255463,0.165171771957263,0.047652032111690154,0.07469878785953787,-0.04732894106141603,0.013504566388450632,0.06823976382174926,-0.33089372433002273,0.004682777387841605,0.19683890768562812,-0.12967203819069692
218,8.133231999992859,0.12129095869497235,0.033950507148072954,0.16496924179529587,0.04770902302489078,0.07498830777961898,-0.04872548514529221,0.013523435253169527,0.069072765590263,-0.33142576411493907,0.00426127972324389,0.19820587365312578,-0.12264567806478024
219,8.13664429995697,0.1214922696534496,0.03426734976694322,0.1647608176245203,0.0477660897612812,0.07528135265513095,-0.0501242103817618,0.013540506335689206,0.06991144676774609,-0.3319281270177045,0.00383007836868487,0.19953209921254114,-0.1155978441546577
220,8.141663199989125,0.12169382141633968,0.03458543562453877,0.1645464905108239,0.047823224653249924,0.07557794607407305,-0.05152499143138362,0.013555738416404573,0.07075563402036965,-0.33240072485200345,0.0033890349499356375,0.20081686462052423,-0.10852965876549338
221,8.149636499991175,0.12189561425470659,0.03490477973416308,0.16432625204943943,0.04788041985813169,0.07587811088708953,-0.05292770259281775,0.013569089706225992,0.0716051510039898,-0.33284347415827736,0.0029380178008059843,0.20205946197617444,-0.1014422405479224
222,8.153318399970885,0.12209764840616988,0.03522539720391351,0.16410009436642886,0.047937667355862745,0.07618186919488017,-0.054332217822718944,0.013580517875066015,0.07245981841428929,-0.33325629618499253,0.002476902218327522,0.20325919516523197,-0.09433670421976702
223,8.158637699962128,0.12229992407415174,0.03554730323349246,0.1638680101200838,0.047994958946762756,0.07648924233582338,-0.05573841075555103,0.013589980082080979,0.07331945403604528,-0.3336391168742027,0.002005570994388101,0.20441537977755886,-0.08721416089028097
224,8.16417259996524,0.12250244142711503,0.03587051311096674,0.1636299925022425,0.04805228624944513,0.07680025087380234,-0.05714615472335858,0.013597433008641581,0.07418387279257498,-0.33399186684555154,0.0015239145077172165,0.20552734332759548,-0.08007571870806582
225,8.168010099965613,0.12270520059779269,0.03619504220947607,0.16338603523952341,0.04810964069887703,0.07711491458624506,-0.058555322775446395,0.013602832889350285,0.07505288679686276,-0.33431448138729974,0.00103182977533623,0.2065944251849064,-0.07292248628438876
226,8.172922299942002,0.12290820168240946,0.03652090598389155,0.1631361325944763,0.04816701354455127,0.07743325245238178,-0.05996578769807547,0.013606135537011755,0.07592630540042004,-0.33460690046920005,0.0005292198523509365,0.2076159763074885,-0.06575557495997134
227,8.177270999993198,0.12311144473989587,0.03684811996742511,0.16288027936664967,0.04822439584875694,0.07775528264169712,-0.061377422034251075,0.013607296368588071,0.07680393524216314,-0.3348690687526428,1.5993947250431313e-05,0.20859135962492897,-0.05857609861988366
228,8.182058799953666,0.12331492979109533,0.03717669976819063,0.16261847089357498,0.04828177848497025,0.07808102250259968,-0.06279009810350429,0.013606270431141605,0.07768558030050465,-0.3351009356019694,-0.000507932764504719,0.20951995032598272,-0.05138517471171818
229,8.18735399999423,0.12351865681796462,0.037506661065717796,0.16235070305166724,0.04833915213634389,0.07841048855131358,-0.0642036880217755,0.01360301242621802,0.07857104194465679,-0.3353024551032056,-0.0010426392547107778,0.2104011356742085,-0.0441839239214375
230,8.19159679999575,0.12372262576276816,0.03783801960741954,0.16207697225704146,0.04839650729430356,0.0787436964609807,-0.06561806372135397,0.013597476734825737,0.07946011898516786,-0.3354735860726409,-0.0015881982954448265,0.21123431517008642,-0.036973469062805575
231,8.196202599967364,0.1239268365272667,0.03817079120501398,0.16179727546624517,0.04845383425724802,0.0790806610509785,-0.06703309697083361,0.013589617444745359,0.08035260772659286,-0.3356142920661949,-0.0021446758353466243,0.21201890092052994,-0.029754935448560168
232,8.201062699954491,0.12413128897190066,0.03850499173090177,0.16151161017690652,0.04851112312937593,0.07942139627646647,-0.06844865939513162,0.013579388380769617,0.08124830202114648,-0.3357245413911278,-0.0027121309067543297,0.21275431740848125,-0.022529450750425183
233,8.205010999983642,0.12433598291496888,0.03884063711449988,0.16121997442829794,0.04856836381964095,0.07976591521815644,-0.06986462249554302,0.013566743132796023,0.08214699331943044,-0.3358043071142256,-0.0032906156255088966,0.2134400013069843,-0.01529814462891226
234,8.209216699993704,0.12454091813180312,0.03917774333853264,0.16092236680181513,0.0486255460408155,0.08011423007228693,-0.07128085766982831,0.013551635086068468,0.08304847072251836,-0.33585356707038844,-0.0038801743810180636,0.2140754019996977,-0.008062148780749063
235,8.213134899968281,0.124746094353939,0.039516326435280996,0.16061878642137128,0.04868265930870097,0.08046635214083268,-0.07269723623234041,0.013534017456100925,0.08395252103707317,-0.335872303871216,-0.004480843119967233,0.21465998165073896,-0.0008225967070758199
236,8.216545599978417,0.1249515112682838,0.03985640248279097,0.16030923295370633,0.048739692941485974,0.08082229182194388,-0.07411362943418476,0.01351384332496029,0.084858928828021,-0.3358605049116406,-0.005092649300276685,0.2151932149734913,0.006419375916422124
237,8.22074659995269,0.12515716851628192,0.040197987601042276,0.15999370660861115,0.048796636059262585,0.08118205860059997,-0.07552990848340223,0.013491065676578417,0.08576747647171874,-0.3358181623816343,-0.005715611982307457,0.2156745897160112,0.013662630731513392
238,8.224759899952915,0.1253630656930787,0.04054109794807795,0.15967220813906652,0.04885347758368244,0.08154566103949731,-0.0769459445652279,0.013465637432265708,0.0866779442127219,-0.3357452732771266,-0.0063497413435646575,0.21610360703092216,0.02090602803831185
239,8.229013299976941,0.12556920234668295,0.040885749716096105,0.15934473884129655,0.04891020623777248,0.08191310677018174,-0.07836160886236608,0.01343751149011619,0.08759011022007182,-0.3356418394004025,-0.0069950381014116745,0.2164797815450566,0.028148429246611564
240,8.233225699979812,0.12577557797712918,0.04123195912750481,0.15901130055473658,0.04896681054592339,0.08228440248441093,-0.07977677257525247,0.013406640765389971,0.08850375064465094,-0.3355078673503451,-0.007651492841456479,0.21680264206492625,0.03538869891270832
241,8.23736479994841,0.12598219203564007,0.04157974243094096,0.15867189566191575,0.04902327883404594,0.08265955392577079,-0.08119130694224684,0.013372978235582752,0.08941863968141998,-0.3353433685056553,-0.008319085369446786,0.21707173199383722,0.042625704969597146
242,8.241594199964311,0.12618904392379,0.04192911589725444,0.15832652708825457,0.049079599229939555,0.08303856588156265,-0.08260508325975369,0.013336476986274454,0.09033454963029124,-0.3351483590131529,-0.008997785058929748,0.21728660913386066,0.0498583169693429
243,8.245533799985424,0.1263961329926706,0.0422800958154586,0.15797519830177775,0.04913575966383533,0.08342144217493308,-0.08401797290231626,0.013297090253266539,0.0912512509566955,-0.3349228597858198,-0.009687550781993199,0.21744684627677904,0.05708540483511053
244,8.24977699998999,0.12660345854205898,0.04263269848864803,0.1576179133127424,0.049191747869119985,0.08380818565727195,-0.08542984734272067,0.01325477146901477,0.09216851235743947,-0.3346668965016272,-0.010388330260770028,0.21755203201333798,0.06430583987756835
245,8.253857299976517,0.12681101981958925,0.042986940229884904,0.15725467667318127,0.04924755138327052,0.08419879820089765,-0.08684057817208009,0.013209474310235992,0.09308610082809798,-0.33438049959300603,-0.01110006034544873,0.2176017713918842,0.07151849664515585
246,8.258130299975164,0.12701881601992865,0.04334283735805509,0.15688549347636144,0.049303157548979674,0.08459328069202356,-0.08825003711984998,0.013161152741996134,0.09400378173442636,-0.3340637042300688,-0.011822666922090554,0.21759568715761773,0.0787222550537806
247,8.262337299995124,0.12722684628395864,0.04370040619369515,0.15651036935615886,0.049358553515462415,0.08499163302404554,-0.08965809607377083,0.01310976106609446,0.09492131889020466,-0.3337165502921184,-0.012556063848291738,0.21753342079184237,0.08591600292946211
248,8.26644519995898,0.12743510969796198,0.04405966305479184,0.1561293104863489,0.04941372623998949,0.085393854091165,-0.0910646270996431,0.013055253974128284,0.09583847463741511,-0.3333390823294245,-0.013300153323082197,0.2174146332180267,0.09309863619483957
249,8.270733499957714,0.12764360529281682,0.04442062425255534,0.15574232357981396,0.04946866248964146,0.08579994178235256,-0.09246950246094751,0.01299758659275746,0.09675500993004131,-0.33293134953315984,-0.014054826950971204,0.21723900565807636,0.10026905715779917
250,8.276567499968223,0.12785233204319849,0.04478330608716782,0.15534941588766862,0.04952334884322402,0.08620989297567791,-0.09387259463836652,0.012936714527794855,0.09767068442146754,-0.33249340571161035,-0.014819965094917037,0.2170062402903796,0.10742617349095714
251,8.281064299982972,0.12806128886678977,0.04514772484350889,0.15495059519830262,0.04957777169339388,0.0866237035330106,-0.09527377634920389,0.012872593914927953,0.09858525655382797,-0.33202530926871837,-0.015595436366641931,0.21671606089928003,0.11456889763328452
252,8.285160699975677,0.1282704746235007,0.04551389678685941,0.15454586983634216,0.04963191724900188,0.08704136829510348,-0.09667292056672523,0.012805181468108039,0.09949848365088368,-0.3315271231853397,-0.016381098875823036,0.21636821334877177,0.12169614581755168
253,8.288577799976338,0.12847988811469846,0.04588183815858551,0.15413524866152983,0.049685771537627016,0.08746288107707681,-0.0980699005394195,0.012734434519736037,0.10041012201136705,-0.33099891500598944,-0.017176800971256918,0.21596246560337184,0.1288068366350412
254,8.29336869996041,0.12868952808244866,0.04625156517180433,0.15371874106752342,0.04973932040825846,0.08788823466428898,-0.0994645898102277,0.012660311062800658,0.1013199270020348,-0.33044075683220414,-0.017982379713171633,0.21549860883001093,0.13589989099046274
255,8.29775059997337,0.12889939320876784,0.046623094007033176,0.15329635698061367,0.049792549534184966,0.08831742080860547,-0.10085686223574847,0.01258276980394887,0.10222765316030578,-0.3298527253096681,-0.018797660595313046,0.214976459965288,0.1429742339988658
256,8.301677399955224,0.12910948211488904,0.04699644080782382,0.1528681068583611,0.049845444416124526,0.08875043022513515,-0.10224659200535817,0.012501770207967994,0.10313305430896652,-0.3292349016055768,-0.019622458841544687,0.214395863366559,0.1500287957722538
257,8.305208399950061,0.1293197933605408,0.04737162167638411,0.15243400168815255,0.04989799038548893,0.08918725258946675,-0.10363365366022555,0.012417272539920551,0.10403588367273435,-0.3285873713891287,-0.020456578896651,0.21375669090655303,0.15706250924313
258,8.309133999980986,0.12953032544324022,0.04774865266918897,0.15199405298567756,0.04995017260786877,0.08962787653538822,-0.10501792211226729,0.012329237913920961,0.10493589399376092,-0.32791022482724524,-0.02129981456417138,0.2130588424488199,0.16407430729853087
259,8.312683299998753,0.12974107679760133,0.048127549792582776,0.15154827279332506,0.050001976086709414,0.09007228965309735,-0.10639927266312661,0.012237628334107891,0.10583283765220539,-0.3272035565892343,-0.022151950071129547,0.21230224790461938,0.1710631231044744
260,8.316462399961893,0.12995204579465916,0.04850832899837527,0.15109667367849974,0.05005338566714156,0.09052047848793814,-0.10777758102316812,0.012142406734440945,0.10672646679908579,-0.32646746583977365,-0.02301276002208803,0.21148687049391623,0.1780278924155041
261,8.319946999952663,0.13016323074121047,0.04889100617943326,0.15063926873185848,0.050104386039992864,0.09097242853973178,-0.10915272333039722,0.012043537020060521,0.10761653350435575,-0.3257020562240958,-0.02388200912133488,0.2106127090484821,0.18496755297593176
262,8.324994499969762,0.13037462987917162,0.04927559716527092,0.15017607156546717,0.050154961745967314,0.09142812426276198,-0.11052457616933005,0.011940984109427599,0.1085027899091804,-0.3249074358660214,-0.024759452033779945,0.20967979819665078,0.19188104239251022
263,8.32896209997125,0.1305862413849545,0.04966211771764134,0.14970709631087795,0.05020509718001227,0.09188754906639027,-0.1118930165898963,0.011834713976856807,0.10938498837557127,-0.32408371737108577,-0.025644833014762922,0.2086882082242142,0.1987672982714329
264,8.333211299963295,0.13079806336886132,0.05005058352613202,0.14923235761712667,0.0502547765958566,0.09235068531630329,-0.11325792212633548,0.01172469369777844,0.11026288163748904,-0.32323101782341723,-0.026537885679353578,0.20763804499345492,0.20562525835720916
265,8.337032799958251,0.13101009387449877,0.05044101020376696,0.14875187064865072,0.05030398411075941,0.09281751433640259,-0.11461917081607345,0.01161089149321726,0.11113622294979554,-0.3223494587876923,-0.02743833369620691,0.20652944880964844,0.21245385840515243
266,8.341329299961217,0.13122233087821283,0.05083341328261807,0.1482656510831273,0.050352703710423344,0.09328801641130813,-0.11597664121863517,0.01149327676920249,0.11200476622979648,-0.3214391663239573,-0.028345890786782593,0.20536259318455355,0.2192520309327919
267,8.34579669998493,0.13143477228854444,0.05122780820942837,0.14777371510923173,0.05040091925407571,0.09376217078944186,-0.11733021243464621,0.0113718201612532,0.11286826619576465,-0.32050027100011463,-0.029260260078409837,0.20413768473066982,0.22601870637461804
268,8.349386699963361,0.1316474159457071,0.051624210341249435,0.14727607942431542,0.050448614479756945,0.0942399556866996,-0.11867976412485085,0.011246493579244597,0.11372647850759081,-0.319532907897005,-0.030181134567150717,0.20285496346187973,0.23275281289893157
269,8.35376719996566,0.13186025962108722,0.052022634941095554,0.14677276123200383,0.050495773009780184,0.0947213482907208,-0.12002517652915641,0.01111727024798959,0.11457915990784252,-0.3185372166224383,-0.031108197764636383,0.20151470278408437,0.239453275251459
270,8.357423399982508,0.13207330101676765,0.052423097173617164,0.14626377823971384,0.05054237835636197,0.09520632476575017,-0.12136633048576974,0.010984124746649613,0.11542606836233607,-0.317513341326029,-0.03204112351331218,0.20011720943628195,0.2461190151229448
271,8.362393799994607,0.1322865377650756,0.05282561210079604,0.14574914865609026,0.05058841392741419,0.09569486025809301,-0.12270310745036664,0.01084703305087443,0.11626696320069833,-0.3164614307101267,-0.03297957515396856,0.19866282372019903,0.252748951845055
272,8.366480099968612,0.13249996742815506,0.053230194677664724,0.14522889118836152,0.050633863032530264,0.09618692890216236,-0.12403538951532052,0.010705972579234061,0.11710160525887543,-0.3153816380387824,-0.03392320566464891,0.19715191940976332,0.25934200303827404
273,8.370181599981152,0.13271358749756512,0.053636859748052726,0.14470302503961405,0.05067870888916864,0.09668250382713629,-0.1253630594289475,0.010560922234187024,0.1179297570189311,-0.3142741211432142,-0.03487165881687774,0.1955849018774081,0.26589708387094824
274,8.373691499989945,0.13292739539390458,0.0540456220403621,0.14417156990598562,0.050722934628984494,0.09718155716418404,-0.12668600061478108,0.010411862438760557,0.11875118273575244,-0.3131390424370231,-0.035824569591602975,0.19396220486566187,0.27241310423761456
275,8.377212499966845,0.13314138846646364,0.05445649616337457,0.14363454597377717,0.05076652330432266,0.09768406005419203,-0.1280040971909457,0.010258775174010764,0.11956564854961964,-0.3119765689454572,-0.036781564041361056,0.19228428800221353,0.2788889665374747
276,8.381021299981512,0.13335556399290335,0.05486949660209231,0.14309197391648276,0.05080945789486521,0.09818998265593938,-0.1293172339896781,0.01010164401686535,0.12037292259195359,-0.31078687233936353,-0.03774225979918186,0.1905516369259434,0.28532356660030567
277,8.385401999985334,0.1335699191789633,0.05528463771361399,0.14254387489173673,0.05085172131444358,0.09869929415471583,-0.13062529657698727,0.009940454173291625,0.1211727750989486,-0.3095701289566431,-0.038706266308508507,0.18876476598274963,0.29171579775789114
278,8.389338499982841,0.1337844511581985,0.05570193372304824,0.14199027053817784,0.050893296417965875,0.09921196277145564,-0.13192817127235684,0.00977519251420008,0.12196497854005676,-0.30832651980186426,-0.039673183020228035,0.18692422125497343,0.2980645551928686
279,8.39329319994431,0.1339991569917456,0.05612139871946675,0.14143118297223028,0.05093416600853182,0.09972795577243912,-0.13322574516840166,0.009605847623818765,0.1227493077571711,-0.30705623053103914,-0.040642598791488016,0.18503058180981308,0.3043687372343706
280,8.397537199954968,0.1342140336681197,0.05654304665189955,0.14086663478480205,0.05097431284476806,0.10024723947960047,-0.13451790615044185,0.009432409840667285,0.12352554010363916,-0.30575945144030936,-0.04161409345738014,0.18308445867253453,0.3106272444773704
281,8.401608299987856,0.13442907810304242,0.05696689132537503,0.1402966490379008,0.051013719648288686,0.10076977928140174,-0.13580454291606392,0.009254871292675495,0.12429345557478605,-0.30443637745815005,-0.042587237878054386,0.1810864932975193,0.31683897959849144
282,8.405325699946843,0.13464428713930165,0.05739294639700696,0.13972124926116725,0.051052369111326726,0.10129553964424147,-0.13708554499462913,0.009073225937760122,0.12505283693403285,-0.3030872081356091,-0.04356159384604912,0.17903735652782934,0.3230028462923532
283,8.409803399990778,0.13485965754664406,0.05782122537213073,0.1391404594483266,0.05109024390453688,0.10182448412439239,-0.13836080276675225,0.008887469599725048,0.12580346983464452,-0.30171214764748194,-0.044536715427958194,0.17693774792504274,0.3291177477916072
284,8.41400779999094,0.13507518602170057,0.05825174160049102,0.13855430405355754,0.05112732668492985,0.1023565753804369,-0.1396302074838198,0.008697599997522213,0.12654514294019603,-0.30031140479503315,-0.0455121494733354,0.17478839569863805,0.3351825875142344
285,8.418332999979611,0.13529086918794578,0.05868450827248295,0.13796280798777907,0.0511636001039218,0.10289177518622072,-0.1408936512874918,0.008503616776859757,0.12727764804572475,-0.2988851930017118,-0.0464874348740164,0.17259005661469998,0.3411962700331721
286,8.42259859998012,0.1355067035956914,0.059119538415448994,0.1373659966148551,0.0511990468155353,0.10343004444431027,-0.14215102722918385,0.008305521545709864,0.12800078019742658,-0.29743373030769493,-0.04746210307409666,0.17034351597249336,0.3471577013564866
287,8.426592199946754,0.13572268572211474,0.05955684489003364,0.13676389574771686,0.051233649484748275,0.10397134319995578,-0.14340222928952293,0.008103317901615704,0.12871433781361077,-0.29595723936324025,-0.048435679086668355,0.16804958752290178,0.35306578962150015
288,8.430363499966916,0.13593881197132268,0.059996440386598064,0.13615653164440344,0.051267390795925245,0.10451563065556882,-0.14464715239777332,0.007897011458624047,0.12941812280370815,-0.29445594741737513,-0.049407681077389735,0.16570911307593345,0.35891944680343874
289,8.433943399984855,0.1361550786744512,0.06043833742169688,0.13554393100402043,0.05130025346139342,0.10506286518568918,-0.145885692451197,0.0076866098781044135,0.1301119406859156,-0.29293008629683837,-0.05037762087485297,0.16332296240744107,0.3647175904759705
290,8.437431899947114,0.13637148208980165,0.06088254833461906,0.13492612096261708,0.05133222023013387,0.10561300435245455,-0.1471177463343021,0.007472122891377203,0.13079560070541763,-0.2913798923799208,-0.051345004894065634,0.1608920328665882,0.3704591445517804
291,8.441395799978636,0.13658801840301366,0.06132908528399517,0.13430312908898262,0.051363273896548475,0.10616600492156456,-0.14834321193798253,0.00725356232274414,0.13146891594872007,-0.28980560656916093,-0.05230933348932067,0.15841724811516356,0.37614303918852293
292,8.445794899947941,0.13680468372727528,0.06177796024447291,0.13367498338036204,0.05139339730934534,0.1067218228787147,-0.14956198817853614,0.007030942117574342,0.132131703451239,-0.2882074742659788,-0.05327009993755829,0.15589955696948182,0.3817682100946953
293,8.449211499944795,0.13702147410357088,0.06222918500346294,0.13304171225809197,0.051422573380542624,0.10728041344646784,-0.1507739750165905,0.006804278373909163,0.13278378430186705,-0.28658574534922593,-0.05422679080680258,0.15333993259368237,0.3873335988550407
294,8.453979399986565,0.13723838550096723,0.06268277115795676,0.13240334456315683,0.05145078509462049,0.10784173110157,-0.15197907347594017,0.006573589367440845,0.13342498374375833,-0.2849406741470746,-0.05517888720574272,0.15073937123687792,0.3928381550590533
295,8.458400699950289,0.13745541381693854,0.06313873011141856,0.13175990955166586,0.051478015517735634,0.1084057295926719,-0.15317718566223523,0.0063388955725783,0.1340551312682439,-0.2832725193976159,-0.05612586413728661,0.14809889120264982,0.39828083953562343
296,8.462258299987298,0.1376725548777303,0.06359707307075255,0.13111143689025165,0.051504247807050894,0.10897236195843692,-0.15436821478148635,0.006100219692877936,0.13467406070692534,-0.28158154419346787,-0.05706718961780628,0.14541953220544615,0.4036606277804626
297,8.46699929999886,0.137889804438763,0.06405781104334754,0.13045795665139107,0.05152946522020643,0.10954158054603924,-0.15555206515828618,0.005857586689537791,0.13528161032016198,-0.27986801591346633,-0.05800232629681376,0.1427023541065656,0.40897651106620453
298,8.470719799981453,0.13810715818507582,0.0645209548342003,0.12979949930865015,0.051553651124889674,0.11011333703001819,-0.15672864225373817,0.005611023798167891,0.13587762287850372,-0.27813220615791023,-0.05893073363255939,0.1399484356875783,0.414227495885219
299,8.47481099999277,0.1383246117318111,0.06498651504311914,0.12913609573185378,0.05157678900844792,0.11068758243146319,-0.15789785268313192,0.005360560538935227,0.13646194574083315,-0.27637439068495195,-0.059851868214523755,0.13715887389026293,0.41941260381108525
300,8.479728999955114,0.1385421606247391,0.06545450206200909,0.12846777718218153,0.05159886248754386,0.11126426713752713,-0.15905960423333546,0.005106228730614194,0.13703443092938797,-0.274594849347011,-0.06076518390242262,0.1343347826928348,0.42453087122192706
301,8.483285199967213,0.13875980034082386,0.06592492607224006,0.12779457530719063,0.05161985531788669,0.11184334092124408,-0.1602138058799343,0.004848062499559192,0.13759493519842514,-0.2727938660294977,-0.06167013339954752,0.13147729140873557,0.42958134967113104
302,8.487353199976496,0.13897752628883012,0.06639779704209912,0.12711652213576727,0.05163975140396328,0.11242475296162177,-0.16136036780410698,0.00458609828048539,0.13814332009489516,-0.2709717285841001,-0.06256616908552826,0.12858754309271225,0.43456310722764574
303,8.491501799959224,0.13919533380997118,0.06687312472432821,0.12643365007300725,0.05165853480877589,0.11300845186397106,-0.16249920140920135,0.0043203748184177495,0.13867945201366297,-0.2691287287562038,-0.06345274250713542,0.12566669349861337,0.43947522965664615
304,8.49590789998183,0.13941321817859795,0.06735091865374782,0.12574599189502744,0.05167618976358981,0.11359438568046411,-0.163630219336998,0.004050933173766397,0.1392032022493922,-0.26726516210822077,-0.06432930437818236,0.12271590989887578,0.4443168209962878
305,8.49983779998729,0.13963117460292906,0.06783118814496804,0.1250535807437093,0.05169270067771381,0.11418250193090149,-0.16475333548364,0.0037778167242764724,0.13971444704180955,-0.2653813279421447,-0.0651953053664406,0.11973637048517852,0.44908700237931276
306,8.503765799978282,0.1398491982258224,0.0683139422901875,0.12435645012137601,0.05170805214826427,0.1147727476236521,-0.16586846501524297,0.0035010711634666045,0.1402130676225341,-0.26347752923281886,-0.06605019567720939,0.11672926508446402,0.4537849088884899
307,8.507660899951588,0.14006728412558753,0.068799189957081,0.12365463388540424,0.05172222896993249,0.11536506927681522,-0.16697552438326213,0.0032207445060909584,0.14069895026638068,-0.26155407257701263,-0.06689342519154069,0.11369579527403348,0.4584096878652107
308,8.512503799982369,0.14028542731683963,0.06928693978677684,0.12294816624277172,0.05173521614479481,0.11595941293959318,-0.1680744313396729,0.0029368870854119137,0.1411719863391599,-0.2596112681409548,-0.06772444647401392,0.11063717317995889,0.4629605034660443
309,8.516623699979391,0.1405036227513947,0.06977720019192483,0.12223708174454105,0.051746998892056965,0.11655572421385649,-0.1691651049518953,0.002649551533294318,0.14163207233884717,-0.25764942957097986,-0.06854271777982815,0.10755462011102294,0.46743654541043855
310,8.521189199993387,0.14072186531920558,0.07026997935485546,0.12152141528028132,0.051757562657696335,0.11715394827586376,-0.17024746561722104,0.0023587927521161282,0.1420791099318614,-0.2556688738672825,-0.0693477037940159,0.10444936581873383,0.47183703221733314
311,8.525034099991899,0.1409401498493386,0.07076528522583103,0.12080120207243022,0.05176689312396936,0.11775402989813284,-0.17132143507667316,0.00206466788862808,0.14251300598799288,-0.253669921267266,-0.07013887489291201,0.1013226481750322,0.47616120747845475
312,8.529646699957084,0.14115847111098967,0.07126312552138939,0.12007647767059883,0.05177497621883331,0.1183559134714553,-0.17238693642844924,0.0017672363120931553,0.14293367261396367,-0.25165289515072825,-0.0709157075131754,0.09817571275379576,0.4804083379869647
313,8.533221999998204,0.14137682381454048,0.07176350772278067,0.1193472779458203,0.05178179812526938,0.1189595430270506,-0.17344389414098135,0.0014665595850338943,0.14334102718482594,-0.24961812193899305,-0.07167768563158237,0.09500981144393493,0.4845777160505173
314,8.537347299978137,0.1415952026126532,0.07226643907449791,0.11861363908474451,0.0517873452904577,0.1195648622588454,-0.17449223406552858,0.001162701428891178,0.1437349923658251,-0.24756593098058763,-0.07242430238626335,0.09182620006765346,0.4886686618511182
315,8.542618999956176,0.14181360210140403,0.07277192658290167,0.11787559758378058,0.05179160443481077,0.12017181454581215,-0.17553188344827275,0.0008557276810979099,0.14411549612371033,-0.2454966544304709,-0.07315506137047353,0.08862613675864055,0.49268052437064314
316,8.54635129997041,0.14203201682145414,0.07327997701493906,0.11713319024318944,0.05179456256078649,0.12078034297434376,-0.17656277094189235,0.0005457062498260418,0.1444824717349193,-0.2434106271279049,-0.07386947570716103,0.08541088090076011,0.49661268074041093
317,8.550424899964128,0.14225044125925745,0.07379059689695709,0.11638645416112878,0.051796206961539894,0.12139039036066124,-0.17758482661662822,0.00023270707886541487,0.1448358577879375,-0.24130818648116892,-0.07456706758747053,0.08218169164725736,0.5004645352937801
318,8.554138799954671,0.1424688698483047,0.07430379251361066,0.11563542672765227,0.051796525229439956,0.12200189927320826,-0.17859798197088514,-8.319789373691906e-05,0.1451755981789939,-0.23918967235342137,-0.07524736956539158,0.07893982662341582,0.504235519338696
319,8.558277099975385,0.14268729697040294,0.07481956990686481,0.11488014561866511,0.0517955052643725,0.12261481205502249,-0.17960216994133488,-0.00040193478171701626,0.1455016421034783,-0.2370554269493322,-0.07590992437319904,0.07568654023973466,0.5079250909223825
320,8.562926599988714,0.14290571695698964,0.07533793487509136,0.11412064878983802,0.0517931352818687,0.12322907084605778,-0.1805973249125616,-0.000723427790398131,0.14581394403741024,-0.23490579470292952,-0.07655428519858509,0.07242308167895298,0.5115327357557191
321,8.567222099984065,0.14312412409048078,0.07585889297225945,0.11335697447048144,0.051789403821072263,0.12384461760539918,-0.1815833827262191,-0.0010475992650683856,0.14611246371187886,-0.2327411221564356,-0.07718001818226157,0.0691506930916372,0.5150579681426595
322,8.571758499951102,0.14334251260565212,0.07638244950721956,0.11258916115738234,0.05178429975245993,0.12446139413336958,-0.18256028068965416,-0.001374369751849823,0.1463971660792931,-0.2305617578402748,-0.07778670315980742,0.06587060765320574,0.5185003308616182
323,8.575621299969498,0.1435608766910524,0.07690860954308047,0.11181724760860559,0.051777812285295266,0.12507934209346008,-0.18352795758405183,-0.0017036580523328724,0.14666802127143444,-0.22836805215290995,-0.07837393250417202,0.06258404808317507,0.5218593961600617
324,8.57913779997034,0.14377921049044756,0.07743737789667823,0.11104127283726216,0.051769930974888384,0.1256984030340828,-0.18448635367204538,-0.00203538127468299,0.14692500455321836,-0.22616035723246178,-0.07894131214299639,0.059292225004801136,0.5251347666812092
325,8.583157799963374,0.14399750810429504,0.07796875913813663,0.11026127610524629,0.0517606457296187,0.12631851841011132,-0.18543541070477873,-0.002369454896855287,0.1471680962669121,-0.22393902682872951,-0.07948846234601534,0.05599633562369311,0.5283260754410191
326,8.58730909996666,0.14421576359124727,0.0785027575905178,0.10947729691694408,0.05174994681766147,0.126939629604163,-0.18637507192843702,-0.002705792824342177,0.14739728177475148,-0.22170441617500433,-0.08001501684527801,0.05269756349626014,0.5314329863354265
327,8.59163029998308,0.1444339709696828,0.07903937732956219,0.10868937501291563,0.05173782487352354,0.1275616779476554,-0.18730528209022793,-0.0030443074459678794,0.14761255140120572,-0.2194568818558119,-0.08052062334444254,0.04939707760942814,0.534455194996023
328,8.595758499985095,0.1446521242192648,0.07957862218351681,0.10789755036355317,0.05172427090429928,0.1281846047416018,-0.18822598744379676,-0.003384909695931497,0.1478139003678325,-0.21719678167150902,-0.08100494338025885,0.046096031379417396,0.5373924290706147
329,8.59977189998608,0.14487021728252497,0.08012049573305054,0.10710186316271751,0.05170927629568305,0.12880835127711798,-0.18913713575406577,-0.003727509108433254,0.1480013287270985,-0.2149244745036598,-0.0814676516282267,0.04279556290946827,0.5402444478970228
330,8.6045367999468,0.1450882440664728,0.0806650013112553,0.10630235382135537,0.05169283281776446,0.12943285885565972,-0.19003867630151383,-0.004072013873861442,0.148174841299408,-0.2126403201823836,-0.08190843543992847,0.0394967959415095,0.5430110410679578
331,8.60798489995068,0.14530619844422835,0.08121214200373213,0.10549906296109976,0.051674932630566904,0.1300580688089985,-0.19093055988589694,-0.004418330889516488,0.14833444761494988,-0.21034467936383514,-0.0823269930849332,0.03620084095845039,0.5456920252189901
332,8.613357399997767,0.14552407425667813,0.0817619206487608,0.10469203140785587,0.051655568289415005,0.13068392251896838,-0.19181273882949457,-0.004766365800969992,0.14848016186002314,-0.20803791342464284,-0.08272303287209073,0.032908794982044715,0.5482872423612611
333,8.617454299994279,0.14574186531415326,0.0823143398375524,0.1038813001853741,0.05163473275012437,0.13131036143698913,-0.19268516697993981,-0.005116023045377725,0.14861200281717898,-0.20572038435345114,-0.08309627388981759,0.029621740694589362,0.550796560549893
334,8.621251399978064,0.1459595653981291,0.08286940191458368,0.10306691050881213,0.05161241937400369,0.13193732710330822,-0.19354779971255107,-0.005467205899082287,0.1487299938041387,-0.20339245463972128,-0.08344644628342487,0.026340748122600975,0.5532198714823584
335,8.624799399985932,0.14617716826294555,0.08342710897801187,0.10224890377828821,0.051588621932643026,0.13256476116600882,-0.19440059393222425,-0.005819816523265115,0.148834162628136,-0.20105448718552918,-0.08377328954345464,0.023066877416110684,0.5555570853159835
336,8.628829499997664,0.1463946676375471,0.08398746288016933,0.1014273215724273,0.05156333461253088,0.13319260539986666,-0.1952435080750206,-0.0061737559971128415,0.14892454154827567,-0.19870684523807583,-0.08407655222786466,0.019801178177155526,0.5578081307120591
337,8.63233869994292,0.14661205722724208,0.08455046522813746,0.10060220564190098,0.05153655201956275,0.13382080172504057,-0.19607650210948974,-0.006528924361126188,0.14900116722421233,-0.19634989230111308,-0.08435599594098579,0.01654468469441088,0.5599729634192019
338,8.636845099972561,0.14682933071548068,0.08511611738439898,0.09977359790296239,0.051508269183292904,0.1344492922254965,-0.1968995375375103,-0.0068852206838451455,0.1490640806383177,-0.19398399199506133,-0.08461139824843089,0.013298411226175895,0.5620515741614408
339,8.6406857999973,0.14704648176565013,0.08568442046756718,0.09894154043097912,0.05147848156088022,0.13507801916704165,-0.19771257739443332,-0.00724254312974242,0.14911332700457564,-0.19160950790190667,-0.08484255383283561,0.010063351256284388,0.5640439885000882
340,8.644970199966338,0.147263504022886,0.08625537535319033,0.09810607545396689,0.05144718504076731,0.13570692501498002,-0.19851558624861473,-0.007600789035696219,0.14914895568447373,-0.18922680342648351,-0.08504927602106035,0.006840479045892563,0.5659502641254167
341,8.649457999970764,0.14748039111589828,0.08682898267462988,0.09726724534612638,0.05141437594598139,0.13633595245143723,-0.19930853020038872,-0.007959854991764232,0.14917102010898625,-0.18683624166421392,-0.08523139669191075,0.003630750422051004,0.567770490603452
342,8.654166299966164,0.1476971366588107,0.08740524282401091,0.09642509262138559,0.05138005103713215,0.13696504439235807,-0.20009137688048476,-0.008319636916878124,0.14917957770111656,-0.18443818526452585,-0.08538876696940567,0.00043510261302872645,0.569504789838335
343,8.658138599945232,0.14791373425301205,0.08798415595324373,0.09557965992695,0.05134420751507419,0.137594144004178,-0.20086409544784903,-0.008680030145464587,0.14917468979649123,-0.18203299629469286,-0.08552125824126931,-0.0027455452420667792,0.5711533137358693
344,8.662423099973239,0.1481301774890178,0.08856572197511496,0.09473099003686335,0.05130684302317437,0.138223194720151,-0.2016266565869131,-0.009040929511729872,0.1491564215702006,-0.17962103612295816,-0.08562876127944474,-0.005910290035064098,0.5727162394861309
345,8.666687899967656,0.14834645994834073,0.0891499405644468,0.09387912584558078,0.05126795564926335,0.13885214025640402,-0.2023790325044295,-0.00940222942886319,0.1491248419747521,-0.17720266532216114,-0.08571118610147901,-0.009058243784665543,0.5741937663213762
346,8.670527799986303,0.14856257520536895,0.08973681115932355,0.09302411036155632,0.05122754392723493,0.13948092462774161,-0.20312119692592775,-0.009763823972152152,0.14908002367453577,-0.1747782435802055,-0.08576846257200006,-0.012188534771088722,0.5755861145479984
347,8.674858499958646,0.14877851682924997,0.09032633296238414,0.09216598670084594,0.05118560683829659,0.14010949216314755,-0.20385312509179468,-0.010125606963259072,0.14902204297420796,-0.17234812961185025,-0.08580054058747137,-0.015300308277848718,0.5768935245987488
348,8.679055099957623,0.14899427838577936,0.0909185049421794,0.09130479808072807,0.051142143811858075,0.14073778752098545,-0.20457479375298646,-0.010487472054894642,0.14895097974690052,-0.16991268107717156,-0.08580738956816512,-0.018392727167656563,0.5781162559874232
349,8.683208799979184,0.14920985343929222,0.09151332583459283,0.09044058781334283,0.05109715472606773,0.14136575570389498,-0.2052861811664214,-0.010849312810809498,0.1488669173577474,-0.16747225450216996,-0.08578899780937492,-0.021464973502492834,0.5792545869885107
350,8.68723289994523,0.1494252355545564,0.09211079414432348,0.08957339929935139,0.05105063990802647,0.14199334207334743,-0.2059872670900222,-0.011211022784995974,0.14876994257843,-0.16502720519993405,-0.08574537215775403,-0.024516250139871677,0.5803088138045236
351,8.692006299970672,0.14964041829866578,0.09271090814642946,0.08870327602161705,0.051002600133656116,0.14262049236382124,-0.206678032777444,-0.011572495598949885,0.1486601454972407,-0.16257788719827057,-0.08567653676300195,-0.02754578186594884,0.5812792500782815
352,8.696127399976831,0.14985539524293243,0.09331366588793041,0.08783026153890905,0.05095303662726172,0.143247152696599,-0.20735846097250613,-0.011933625010343911,0.1485376194240716,-0.16012465316498145,-0.08558253182798971,-0.030552817454563248,0.582166227796579
353,8.700814799987711,0.1500701599647761,0.09391906518946738,0.08695439947963057,0.05090195106082074,0.14387326959314162,-0.20802853590328987,-0.012294304979747844,0.14840246078311192,-0.15766785432787234,-0.08546341254510356,-0.0335366317964765,0.5829700976124652
354,8.704786899965256,0.15028470604961042,0.09452710364701807,0.08607573353557238,0.05084934555298258,0.14449878998798044,-0.2086882432758958,-0.012654429730331018,0.14825476899987852,-0.1552078403973115,-0.0853192473381502,-0.0364965263598172,0.5836912282459437
355,8.708820099942386,0.150499027092724,0.09513777863366543,0.08519430745569347,0.05079522266785429,0.1451236612411385,-0.20933757026788824,-0.013013893799754652,0.1480946463900299,-0.1527449594912929,-0.08515011675168191,-0.039431829328206,0.5843300066911442
356,8.712679099990055,0.15071311670115634,0.09575108730141774,0.08431016503992995,0.05073958541356241,0.14574783115008497,-0.20997650552142055,-0.01337259209050677,0.14792219804523174,-0.15027955805624782,-0.08495611247971697,-0.04234189632220011,0.5848868386088522
357,8.716921299987007,0.1509269684955668,0.09636702658307796,0.08342335013303376,0.05068243724061415,0.14637124796119372,-0.2106050391360118,-0.0137304199136027,0.14773753171588627,-0.14781198078879723,-0.08473733681079415,-0.045226110395795126,0.5853621478430749
358,8.720681199978571,0.15114057611209672,0.09698559319416045,0.08253390661844238,0.05062378204009067,0.14699386038070872,-0.21122316266101207,-0.01408727303423954,0.14754075769702726,-0.14534257056064082,-0.0844939023964921,-0.04808388182768075,0.5857563761849665
359,8.72472919995198,0.15135393320422313,0.09760678363485287,0.08164187841218115,0.05056362414162319,0.14761561758524033,-0.2118308690877456,-0.014443047713544334,0.14733198871280992,-0.14287166834230042,-0.08422593086352595,-0.050914647315085694,0.5860699824515962
360,8.729204899980687,0.1515670334446038,0.09823059419202136,0.08074730945679925,0.05050196831123416,0.14823646923175635,-0.21242815284133296,-0.01479764074252286,0.1471113398092051,-0.14039961313577873,-0.0839335524897919,-0.053717867009923335,0.5863034396430321
361,8.732993399957195,0.15177987052691272,0.09885702094125674,0.07985024371534095,0.05043881974902706,0.14885636546717332,-0.21301500977226628,-0.015150949481075541,0.14687892826348656,-0.13792674192228016,-0.08361690722198177,-0.05649302227441074,0.5864572323448373
362,8.737498599977698,0.15199243816766572,0.09948605974896058,0.0789507251653527,0.05037418408669852,0.1494752569375842,-0.21359143714779047,-0.015502871900528866,0.14663487349585444,-0.13545338961677705,-0.08327614624921723,-0.05923961556829661,0.5865318568244536
363,8.741570599959232,0.15220473010803498,0.10011770627446918,0.07804879779292702,0.050308067384869364,0.15009309479710434,-0.2141574336430952,-0.015853306635923454,0.14637929697987365,-0.13297988901491764,-0.08291143408441702,-0.06195717294726572,0.5865278240622132
364,8.745818899944425,0.152416740115652,0.10075195597221434,0.0771445055867839,0.05024047613015576,0.15070983071634367,-0.21471299933224838,-0.016202153046099874,0.1461123221330256,-0.13050657072202848,-0.08252294958210506,-0.0646452487319165,0.586445663381228
365,8.749704699963331,0.1526284619863976,0.10138880409391873,0.07623789253239117,0.05017141723199349,0.15132541689032966,-0.2152581356787894,-0.01654931127457098,0.14583407418776814,-0.12803376306940767,-0.08211088700245875,-0.06730342576297578,0.5862859234435751
366,8.753934499982279,0.15283988954617794,0.10202824569082347,0.07532900260612524,0.05010089801919569,0.15193980604589205,-0.21579284552595654,-0.016894682318582,0.14554468007993474,-0.12556179203492537,-0.08167545730673655,-0.06993131133394136,0.5860491700504087
367,8.758188999956474,0.15305101665268558,0.10267027561594584,0.07441787976947384,0.050028926236194676,0.15255295144864447,-0.21631713308661055,-0.01723816810090858,0.1452442683540988,-0.12309098117787105,-0.08121688838885487,-0.07252853531545132,0.5857359837851979
368,8.76248969999142,0.15326183719714384,0.1033148885263657,0.0735045679632818,0.04995551003899412,0.15316480690957107,-0.2168310039329126,-0.01757967154087004,0.1449329690677921,-0.12062165157943111,-0.08073542535262081,-0.07509475038314832,0.5853469595501936
369,8.766504699946381,0.15347234510603358,0.10396207888553875,0.07258911110204083,0.049880657990811955,0.1537753267912003,-0.21733446498574585,-0.017919096628465605,0.1446109136949473,-0.11815412178144558,-0.08023133120567875,-0.07762963081863865,0.5848827061723384
370,8.770716699946206,0.15368253434280094,0.10461184096563507,0.07167155306822454,0.049804379057407276,0.1543844660133771,-0.21782752450387682,-0.01825634850124044,0.14427823504022913,-0.11568870773020955,-0.0797048863508045,-0.08013286987375573,0.5843438443454049
371,8.774369399994612,0.15389239890954465,0.10526416884990102,0.07075193770666958,0.04972668260207495,0.1549921800587143,-0.218310192072903,-0.01859133351413145,0.14393506716470686,-0.11322572273258603,-0.07915638747572021,-0.08260417842478854,0.5837310047090885
372,8.77951059996849,0.15410193284868157,0.10591905643504372,0.06983030881900393,0.04964757838038343,0.15559842497773776,-0.2187824785940441,-0.01892395930696992,0.1435815453115359,-0.11076547741600846,-0.07858614903298083,-0.08504328545907193,0.5830448286828511
373,8.783979399944656,0.15431113024458962,0.10657649743363645,0.06890671015812255,0.04956707653460006,0.15620315739371105,-0.21924439627275225,-0.01925413488680877,0.14321780582752636,-0.10830827967756083,-0.07799450647884194,-0.08744994043716497,0.582285971750923
374,8.787376699969172,0.15451998522522628,0.10723648537654375,0.06798118542271173,0.04948518758773452,0.1568063345071191,-0.21969595860707386,-0.019581770722742073,0.14284398606890172,-0.10585443461627426,-0.07738181780007003,-0.08982391717837378,0.5814551067929505
375,8.7919591999962,0.15472849196372132,0.10789901361536461,0.06705377825182292,0.0494019224371644,0.15740791409969793,-0.2201371803756888,-0.019906778841109522,0.14246022429009672,-0.10340424445411622,-0.07674846286593458,-0.09216501531537581,0.5805529249381347
376,8.79555459995754,0.1549366446799415,0.10856407532489162,0.06612453221949792,0.04931729234787573,0.1580078545379806,-0.22056807762560582,-0.0202290729148506,0.14206665953724765,-0.10095800846108322,-0.07609484217892182,-0.09447305816651064,0.5795801339467188
377,8.799864099943079,0.15514443764202632,0.10923166350558407,0.06519349082944655,0.049231308945334874,0.15860611477642853,-0.22098866765956998,-0.020548568348172487,0.14166343155493535,-0.09851602288984065,-0.07542137525603021,-0.09674789098111239,0.5785374563971625
378,8.804011199972592,0.15535186516789257,0.10990177098605343,0.06426069750977796,0.04914398420801502,0.15920265436019082,-0.22139896902320685,-0.02086518235225195,0.14125068069447466,-0.09607858091610506,-0.07472849863968524,-0.09898938072995933,0.5774256281796322
379,8.80816049996065,0.15555892162670706,0.11057439042555979,0.06332619560778681,0.04905533045962957,0.15979743342746222,-0.2217990014919271,-0.02117883401312716,0.14082854782242468,-0.09364597258598996,-0.074016664369758,-0.1011974161251804,0.5762453971186267
380,8.81232149997959,0.15576560144032572,0.11124951431651724,0.06239002838479498,0.04896536036108603,0.1603904127114708,-0.2221887860576266,-0.021489444354512468,0.14039717422871034,-0.09121848476800493,-0.07328633887425356,-0.10337190785477367,0.5749975221785493
381,8.816578699974343,0.15597189908469838,0.111927134987007,0.061452239011049924,0.04887408690218962,0.16098155354206095,-0.22256834491518615,-0.02179693639633422,0.13995670153315476,-0.08879640110710177,-0.07253800144279643,-0.10551278842181686,0.5736827726509459
382,8.821835199953057,0.15617780909123793,0.11260724460329623,0.06051287056068027,0.048781523393103446,0.16157081784689276,-0.22293770144878405,-0.022101235204670777,0.13950727159495688,-0.08638000198352848,-0.07177214200528044,-0.10762001209377786,0.572301926813428
383,8.825585199985653,0.1563833260481531,0.11328983517236123,0.05957196600670958,0.04868768345563096,0.16215816815226153,-0.2232968802180488,-0.02240226793155332,0.13904902641965136,-0.08396956447818613,-0.07098925942079101,-0.10969355483655557,0.5708557705097637
384,8.829200999985915,0.1565884446017441,0.11397489854441316,0.058629568216128775,0.0485925810143404,0.16274356758351252,-0.22364590694407943,-0.022699963850474507,0.13858210806914253,-0.08156536234345844,-0.07018986069029975,-0.11173341308888474,0.5693450953312161
385,8.83358129998669,0.15679315945766045,0.11466242641542478,0.05768571994502777,0.04849623028754779,0.1633269798651016,-0.2239848084953522,-0.022994254389549072,0.13810665857900103,-0.07916766598390745,-0.06937446007815382,-0.11373960172322393,0.567770695354164
386,8.837042699975427,0.1569974653821207,0.11535241032965662,0.05674046383378677,0.04839864577816171,0.16390836932031252,-0.22431361287357818,-0.02328507315961308,0.13762281988569577,-0.07677674245461819,-0.0685435779560435,-0.11571215125121752,0.5661333640197513
387,8.84144109999761,0.157201357203093,0.1160448416821814,0.055793842402327196,0.04829984226442929,0.16448770087070377,-0.22463234919959588,-0.023572355977634452,0.13713073376745993,-0.07439285546821157,-0.06769774057083731,-0.11765110687279727,0.5644338934522413
388,8.845626099966466,0.1574048298114367,0.1167397117214055,0.05484589804542196,0.04819983479058351,0.16506494003532715,-0.22494104769928802,-0.023856040892854126,0.13663054177954287,-0.07201626539893824,-0.06683748092358129,-0.11955653097299415,0.5626730753002518
389,8.84978059999412,0.1576078781620041,0.11743701155158676,0.05389667302806517,0.048098638657368784,0.16564005292962858,-0.22523973968950878,-0.024136068217610128,0.1361223851740178,-0.06964722928259633,-0.06596333964889037,-0.12142850444353184,0.560851701847236
390,8.85444979998283,0.1578104972747022,0.11813673213534673,0.05294620948090106,0.04799626941242824,0.16621300626399024,-0.22552845756399972,-0.02441238056089558,0.13560640482388736,-0.06728600081125942,-0.065075865755527,-0.1232671240221223,0.5589705651238149
391,8.858294199977536,0.15801268223551326,0.11883886429617617,0.05199454939571255,0.04789274284054625,0.16678376734199135,-0.22580723477927267,-0.024684922865428876,0.13508274116533175,-0.06493283034068104,-0.06417561708809101,-0.1250724984276261,0.5570304530550265
392,8.862490999978036,0.15821442819747428,0.11954339872093261,0.051041734620969184,0.047788074953723135,0.16735230405846319,-0.22607610584058807,-0.024953642445105603,0.1345515341544107,-0.06258796491751692,-0.06326316069750593,-0.12684474669550258,0.5550321472038718
393,8.867261199979112,0.15841573038161394,0.12025032596232946,0.05008780685743396,0.04768228198110175,0.16791858489738468,-0.22633510628806744,-0.025218489025193434,0.13401292322335062,-0.06025164830576064,-0.06233907464603585,-0.12858400016857205,0.5529764237904946
394,8.870935199956875,0.158616584077847,0.12095963644141579,0.04913280765382844,0.0475753803587032,0.16848257892956878,-0.22658427268289472,-0.025479414795007697,0.1334670472204562,-0.05792412100537003,-0.061403949856586926,-0.13029040524629124,0.5508640553684245
395,8.874869999999646,0.1588169846458248,0.12167132045004596,0.048176778402555895,0.04746738671890919,0.16904425581005125,-0.22682364259358578,-0.025736374463703405,0.13291404434321,-0.05560562026456527,-0.06045839006715246,-0.13196412297151988,0.5486958116802665
396,8.879020299995318,0.1590169275157408,0.12238536815333739,0.047219760335482246,0.04735831787972715,0.1696035857752128,-0.22705325458229356,-0.025989325312566616,0.1323540520816694,-0.05329638009123833,-0.05950301136853677,-0.13360532653372553,0.5464724589639447
397,8.883199699979741,0.15921640818909066,0.12310176959211588,0.046261794519774725,0.04724819083383156,0.1701605396396905,-0.22727314819117372,-0.02623822724690759,0.13178720717262424,-0.050996631271102245,-0.05853844164804248,-0.13521419957476635,0.5441947590283467
398,8.887250299972948,0.15941542223938532,0.12382051468534735,0.045302921853797806,0.047137022737391426,0.17071508879311317,-0.2274833639288429,-0.026483042843660175,0.1312136455572829,-0.04870660138689671,-0.057565319294919357,-0.13679093528910355,0.5418634693574974
399,8.891503899998497,0.1596139653128168,0.12454159323255562,0.04434318306306606,0.047024830898710124,0.17126720519665606,-0.2276839432569064,-0.02672373739235661,0.13063350234301893,-0.04642651483565866,-0.05658429246056621,-0.13833573490131246,0.5394793430508638
400,8.895837699994445,0.15981203312887557,0.1252649949162251,0.043382618696253726,0.0469116327667073,0.17181686137945357,-0.227874928576562,-0.026960278936487406,0.1300469117738978,-0.04415659284843138,-0.05559601928874107,-0.13984880618061604,0.5370431285814383
401,8.900015699968208,0.16000962148091913,0.12599070930418826,0.04242126912126055,0.04679744591920988,0.17236403043490525,-0.22805636321529388,-0.027192638316417765,0.1294540072049521,-0.04189705350957543,-0.05460116685200402,-0.1413303616370252,0.5345555696568314
402,8.904085099988151,0.16020672623669063,0.1267187258519973,0.04145917452133357,0.04668228805107203,0.1729086860168717,-0.2282282914136394,-0.027420789201777332,0.1288549210879222,-0.039648111777649285,-0.0536004089316361,-0.142780616119354,0.5320174041446878
403,8.908184499945492,0.16040334333878728,0.12744903390527945,0.04049637489124458,0.046566176962192965,0.17345080233586022,-0.2283907583120591,-0.02764470811565229,0.12824978496579,-0.037409979513783415,-0.05259442513776204,-0.14419978725066304,0.529429363702786
404,8.912250099994708,0.1605994688050779,0.12818162270207636,0.039532910033522654,0.04644913054543286,0.17399035415517458,-0.2285438099379427,-0.027864374459554163,0.12763872945484694,-0.03518286550568068,-0.05158390067826226,-0.14558809834335926,0.5267921757077486
405,8.91652599995723,0.16079509872906936,0.12891648137516712,0.03856881955474119,0.0463311667744201,0.17452731678694952,-0.22868749319268164,-0.028079770535662896,0.12702188421464158,-0.03296697547972349,-0.05056952538749123,-0.14694577992914204,0.5241065645742731
406,8.920024599996395,0.16099022928022141,0.12965359895437412,0.03760414286185946,0.04621230369127958,0.17506166608804702,-0.2288218558387771,-0.0282908815636038,0.12639937791714403,-0.030762512113847774,-0.049551992106897064,-0.14827306873903595,0.521373250729708
407,8.925609299971256,0.16118485670420957,0.13039296436885142,0.03663891915861841,0.04609255939429846,0.17559337845583067,-0.22894694648702113,-0.028497695689032654,0.12577133822529596,-0.028569675058298584,-0.04853199409445407,-0.14957020691481857,0.5185929492113247
408,8.929649599944241,0.16137897732313583,0.13113456644935506,0.035673187441990314,0.04597195202558205,0.17612243082388113,-0.22906281458377983,-0.028700203978563616,0.12513789176882587,-0.026388660960334796,-0.047510223127855716,-0.1508374448343862,0.515766369618328
409,8.93377679999685,0.16157258753568757,0.13187839393049522,0.03470698649868182,0.045850499758762334,0.17664880065756644,-0.22916951039838274,-0.028898400412356518,0.12449916409896979,-0.02421966348538948,-0.04648736936511964,-0.15207504485796677,0.5128942167166465
410,8.937449699966237,0.16176568381724454,0.13262443545296917,0.03374035490168997,0.0457282207867164,0.17717246594937563,-0.22926708501058446,-0.0290922818778691,0.12385527963269073,-0.02206287333667373,-0.0454641204659783,-0.15328328146662687,0.5099771897322984
411,8.942069999990053,0.1619582627199342,0.13337267956577414,0.032773331006911,0.04560513330932765,0.1776934052140186,-0.22935559029811947,-0.02928184815503406,0.12320636160623119,-0.019918478282296845,-0.044441160019610376,-0.15446243904170667,0.5070159806806028
412,8.94566389999818,0.16215032087263542,0.13412311472839888,0.03180595294980132,0.045481255521329235,0.17821159748336793,-0.22943507892439247,-0.029467101896750652,0.12255253203806099,-0.017786663188961715,-0.04341916717347413,-0.15561281080077782,0.5040112729072604
413,8.949990099994466,0.1623418549809314,0.13487572931299388,0.030838258642090118,0.045356605600229805,0.17872702230124626,-0.2295056043263173,-0.029648048610931284,0.12189391169140401,-0.01566761006138964,-0.042398817327551894,-0.15673469903058393,0.5009637396887444
414,8.953836799948476,0.1625328618270115,0.13563051160651898,0.029870285768542938,0.045231201694308366,0.1792396597180521,-0.22956722070233992,-0.02982469664684844,0.1212306200352214,-0.01356149808782011,-0.041380782319785286,-0.1578284143429514,0.4978740430613429
415,8.958077099989168,0.16272333826952276,0.13638744981286827,0.028902071783775286,0.0451050619106552,0.17974949028521817,-0.229619983000661,-0.029997057178745245,0.12056277521301402,-0.011468503689311583,-0.04036573019459888,-0.1588942735025973,0.4947428322881042
416,8.961586299992632,0.16291328124337112,0.13714653205497093,0.02793365390911553,0.04497820430330492,0.18025649504957392,-0.22966394690767467,-0.03016514419023009,0.11989049402212604,-0.009388800578171154,-0.03935432622060953,-0.1599325982733497,0.4915707418770637
417,8.966383099963423,0.1631026877594727,0.13790774637686862,0.02696506912951602,0.044850646861409015,0.18076065554762946,-0.229699168836684,-0.030328974466470645,0.11921389189227846,-0.007322559823969741,-0.038347234000617215,-0.16094371564601526,0.48835839131786846
418,8.970578899956308,0.16329155490445524,0.1386710807457681,0.025996354190511172,0.044722407497434766,0.18126195379975707,-0.22972570591689653,-0.030488567587950224,0.11853308286295092,-0.005269949914193102,-0.03734511630475943,-0.1619279590401563,0.4851063869636588
419,8.974970899987966,0.16347987984030993,0.13943652305406948,0.02502754559522139,0.044593504035390426,0.1817603723042842,-0.2297436159826512,-0.030643945929688683,0.11784817955177924,-0.003231136804385081,-0.03634863599584174,-0.16288567034205617,0.4818153237857505
420,8.978932399943005,0.1636676598039935,0.14020406112136916,0.02405867960140201,0.0444639541990307,0.1822558940314086,-0.22975295756283678,-0.03079513466280309,0.11715929311474896,-0.0012062839639995124,-0.0353584564456727,-0.16381719879462917,0.4784857853049618
421,8.982918299967423,0.16385489210698062,0.14097368269643665,0.02308979221853648,0.04433377560006879,0.18274850241695548,-0.22975378987050568,-0.03094216175724002,0.11646653322395542,0.0008044475728773476,-0.03437524227525282,-0.16472289683449248,0.475118342417533
422,8.987966699991375,0.1640415741347665,0.14174537545916485,0.022120919204972878,0.044202985726358814,0.1832381813561051,-0.22974617279272003,-0.031085057989579046,0.11577000806290774,0.00280089915177263,-0.033399660418330986,-0.16560311916370113,0.47171355337327603
423,8.991555399959907,0.16422770334631964,0.14251912702249406,0.021152096065102762,0.044071601930042024,0.18372491519711037,-0.22973016688063572,-0.031223856954735136,0.11506982431211801,0.0047829144469201355,-0.032432381694846954,-0.16645822515448377,0.4682719660183837
424,8.995572999992874,0.1644132772734845,0.14329492493430918,0.020183358046581303,0.04393964141563055,0.18420868873490287,-0.22970583333977793,-0.03135859508703267,0.11436608712412348,0.006750339424422159,-0.031474082245360746,-0.1672885807978539,0.464794120773354
425,9.000284199952148,0.16459829352033373,0.14407275667930983,0.019214740137588143,0.04380712122797588,0.18468948720459977,-0.2296732340204358,-0.03148931168400593,0.11365890009264105,0.008703022316458812,-0.030525443391661012,-0.168094558932262,0.461280552172678
426,9.00387839996256,0.1647827497624693,0.1448526096808528,0.01824627706412856,0.04367405824015183,0.18516729627484965,-0.22963243140815548,-0.03161604892629747,0.11294836522566101,0.01064081359743568,-0.029587150850923616,-0.1688765369738586,0.45773178931706965
427,9.008274199964944,0.16496664374627257,0.14563447130276608,0.01727800328737449,0.04354046914125524,0.18564210204111262,-0.229583488614336,-0.03173885189483078,0.11223458293374464,0.01256356596200729,-0.02865989408740753,-0.16963489585595487,0.4541483568325507
428,9.012252999993509,0.16514997328810263,0.1464183288511345,0.01630995300104502,0.04340637042414411,0.18611389101890732,-0.22952646936690765,-0.03185776858524078,0.11151765201206258,0.014471134309313762,-0.027744364970697204,-0.17037002081487992,0.45053077607691666
429,9.016434899996966,0.16533273627344283,0.14720416957605695,0.015342160128826032,0.04327177837311654,0.18658265013693962,-0.2294614380010608,-0.03197284991373003,0.11079766962206454,0.016363375731179693,-0.02684125537115539,-0.17108230097207427,0.44687956557869996
430,9.020527199958453,0.1655149306559952,0.14799198067337402,0.014374658321828873,0.04313670905159953,0.18704836673019498,-0.22938845945002384,-0.032084149711219076,0.11007473127704226,0.01824014950005306,-0.02595125581699151,-0.17177213039970027,0.44319524113042474
431,9.024844099942127,0.16569655445672324,0.1487817492863669,0.013407480956087788,0.04300117828987724,0.1875110285329454,-0.22930759923589367,-0.032191724717876284,0.10934893081481177,0.02010131705799062,-0.025075054661988342,-0.17243990913826135,0.4394783162556641
432,9.02937349997228,0.16587760576284274,0.14957346250742615,0.012440661130095933,0.0428652016728259,0.18797062367161144,-0.22921892346050657,-0.03229563457024875,0.10862036037469373,0.021946742008536014,-0.02421333563403626,-0.1730860423163262,0.43572930290747836
433,9.033838999981526,0.1660580827267612,0.1503671073796903,0.011474231662379793,0.04272879452775063,0.18842714065757488,-0.22912249879633723,-0.03239594177511624,0.10788911037761997,0.023776290111595842,-0.02336677570606815,-0.1737109409387158,0.4319487116116158
434,9.03749349998543,0.16623798356496605,0.1511626708986541,0.010508225089111959,0.042591971912340876,0.18888056837987308,-0.22901839247741276,-0.032492711678665465,0.1071552694964662,0.02558982927652553,-0.022536044402886934,-0.17431502220919445,0.42813704994789487
435,9.041162199981043,0.16641730655686243,0.15196014001374536,0.009542673661762176,0.04245474860276721,0.1893308960977614,-0.2289066722902701,-0.03258601243449773,0.10641892463343694,0.027387229544197273,-0.021721802968013564,-0.17489870707851282,0.424294819765421
436,9.0453039999702,0.1665960500435611,0.1527595016298706,0.008577609344786387,0.04231713908190658,0.18977811343321682,-0.2287874065650212,-0.03267591496577632,0.10568016091107825,0.02916836305659884,-0.020924702744594143,-0.1754624191358797,0.42042251600382735
437,9.049856499943417,0.16677421242661683,0.15356074260892863,0.007613063813353137,0.042179157527758374,0.19022221036342452,-0.22866066416656688,-0.03276249291957865,0.10493906165901205,0.030933104028959768,-0.020145383926504525,-0.17600658900054894,0.41652062968602577
438,9.054058799985796,0.16695179216671868,0.1543638497712928,0.00664906845110672,0.04204081780205465,0.1906631772131696,-0.22852651448589717,-0.03284582261851033,0.10419570836790988,0.03268132874459125,-0.019384473429769854,-0.17653166135731926,0.4125896531498662
439,9.058260099962354,0.1671287877823323,0.15516880989726048,0.005685654347966957,0.041902133439084326,0.19110100464693563,-0.22838502743134853,-0.03292598299710473,0.10345018061688929,0.03441291557113654,-0.01864258318089818,-0.17703809699098635,0.40863008232606257
440,9.061927399947308,0.16730519784829595,0.15597560972846855,0.00472285229796608,0.04176311763483979,0.19153568366068385,-0.22823627341976724,-0.03300305553900074,0.10270255601032889,0.036127744974623024,-0.01792031155141227,-0.1775263696375129,0.40464241458473643
441,9.066197699983604,0.16748102099437123,0.15678423596927366,0.0037606927971230403,0.04162378323637093,0.19196720557341884,-0.2280803233676481,-0.03307712422544125,0.10195291013182221,0.03782569951755021,-0.01721824395942605,-0.1779969639074365,0.4006271462627888
442,9.070379599987064,0.16765625590374936,0.15759467528809654,0.0027992060413551236,0.04148414273136615,0.19239556201857946,-0.22791724868231394,-0.03314827547752466,0.10120131649850687,0.03950666385208748,-0.016536951989669882,-0.17845037713381268,0.39658477310247314
443,9.07459109998308,0.16783090131151404,0.15840691431872964,0.0018384219244266592,0.04134420823799343,0.19282074493521925,-0.22774712125311167,-0.03321659809728159,0.10044784649943277,0.04117052472186106,-0.015876992885462512,-0.17888712237705695,0.39251579192686614
444,9.07886559999315,0.168004956003062,0.15922093966160708,0.0008783700359348832,0.041203991494978304,0.19324274655887758,-0.22757001344257669,-0.033282183205641684,0.09969256932454815,0.04281717096928277,-0.015238908669711277,-0.17930772842846457,0.3884207007385871
445,9.08319669996854,0.16817841881248224,0.16003673788503528,-8.092034066683237e-05,0.04106350385196811,0.1936615594121611,-0.2273859980775672,-0.033345124176096703,0.09893555190303815,0.04444649353816962,-0.014623225773747058,-0.1797127381440973,0.38429999729170344
446,9.08726849994855,0.16835128862089524,0.16085429552638347,-0.0010394202300083406,0.04092275626016947,0.19407717629509486,-0.22719514844040653,-0.03340551656953692,0.09817685884636301,0.04605838546902793,-0.014030455362741903,-0.18010270802766698,0.3801541778337638
447,9.091375799966045,0.16852356435475327,0.16167359909323295,-0.001997100966704785,0.04078175926326213,0.19448959027522333,-0.2269975382600571,-0.03346345807065884,0.09741655239011454,0.047652741891063104,-0.013461093011263038,-0.1804782083682838,0.37598373666410134
448,9.09565139998449,0.168695244984103,0.1624946350644841,-0.002953934197221522,0.040640522988572785,0.19489879467747115,-0.22679324170333026,-0.03351904842006516,0.09665469233589258,0.04922946001373847,-0.012915616758962247,-0.18083982305548868,0.37178916613890367
449,9.09975829999894,0.1688663295208113,0.16331738989142017,-0.003909891881702048,0.04049905713856159,0.19530478307375387,-0.2265823333661314,-0.03357238933427403,0.09589133599472152,0.050788439118827806,-0.01239448586323875,-0.1811881499070322,0.367570956884259
450,9.10388749995036,0.1690368170167561,0.16414184999872658,-0.004864946295759082,0.04035737098267063,0.19570754927236153,-0.22636488826473677,-0.03362358442729891,0.09512653812616224,0.05232958055377102,-0.011898141261514063,-0.1815238014051527,0.36332959802285775
