,time,x,y,z,vx,vy,vz,ax,ay,az,jx,jy,jz
0,5.795615700000781,0.012204905734564767,0.10753037235710447,0.029102146733017333,-0.013677804888085798,-0.05762895068847205,-0.0006424265061121994,0.028254595088150168,0.08295745561636184,-0.03663472577827612,0.018367826527580722,0.27936307963206,-0.16255755705558916
1,5.7996396999951685,0.012140175431003555,0.1072572348058945,0.029098677147847793,-0.013543222015210184,-0.05723125651042017,-0.0008184948548739059,0.028340584230111595,0.08428536758118907,-0.03741109279134985,0.01779365547152271,0.27906087766018056,-0.16392865547941912
2,5.805182900003274,0.012076086158396959,0.10698600365378236,0.029094361424603872,-0.013408236683062586,-0.05682725037544737,-0.0009982710098753202,0.028423843672699935,0.08561180950237418,-0.03819397215974288,0.01721997264578422,0.27874498532173014,-0.16529611472841432
3,5.809654099997715,0.01201263979991592,0.1067167089029797,0.029089181855793338,-0.013272861868203437,-0.05641693942969381,-0.0011817859018830614,0.02850437609406833,0.08693671678211923,-0.03898334608658384,0.016646925837880522,0.2784156144223767,-0.16665972618991748
4,5.816362099998514,0.01194983817704691,0.10644938052098162,0.029083120587022483,-0.013137110532782999,-0.056000331124126244,-0.0013690703746673022,0.028582184865698492,0.08826002581368553,-0.03977919576959854,0.016074658464998438,0.27807296972060735,-0.16801927529253113
5,5.824362599989399,0.011887683049668295,0.10618404843912811,0.029076159617421223,-0.013000995621293056,-0.055577433209895465,-0.0015601551801523606,0.028657274029890233,0.08958167394688417,-0.04058150137096875,0.01550330874547526,0.2777172482824984,-0.16937454097393295
6,5.828744200000074,0.011826176116141935,0.10592074255118737,0.02906828080009161,-0.012864530057434577,-0.055148253733880395,-0.0017550709734162845,0.028729648272821838,0.09090159944941731,-0.041390241985733434,0.014933008959089137,0.27734863886860733,-0.17072529572117903
7,5.832630299992161,0.011765319013419345,0.1056594927119596,0.029059465842580495,-0.012727726741125645,-0.05471280103441325,-0.001953848307540885,0.028799312895003683,0.09221974146653696,-0.042205395612030905,0.014363885265651818,0.276967321499632,-0.1720713063972159
8,5.836941799992928,0.011705113317161744,0.10540032873590094,0.02904969630737703,-0.012590598545650164,-0.054271083737207355,-0.002156517628328271,0.028866273782613097,0.09353603997825494,-0.04302693912736162,0.013796058057695754,0.27657346752001233,-0.17341233569629083
9,5.841080999991391,0.011645560541873348,0.10514328039576608,0.02903895361243558,-0.012453158314938442,-0.053823110751489316,-0.002363109268925102,0.028930537381302652,0.09485043575960664,-0.0438548482726738,0.013229642585390078,0.27616724004896626,-0.1747481434663123
10,5.845422300000791,0.011586662141047277,0.10488837742126894,0.029027219031724363,-0.012315418860965027,-0.05336889126630479,-0.002573653444387749,0.028992110673479062,0.09616287034215111,-0.04468909764120419,0.01266474968225169,0.27574879354646725,-0.1760784873539019
11,5.8496587999979965,0.011528419507323607,0.10463564949776041,0.02901447369580005,-0.012177392961245405,-0.05290843474701686,-0.0027881802462004007,0.029051001159014246,0.0974732859701065,-0.04552966066869923,0.012101486509037154,0.275318272974047,-0.17740312309066958
12,5.853571500003454,0.011470833972659081,0.10438512626492237,0.029000698592408548,-0.012039093356417308,-0.05244175093202904,-0.003006719636747215,0.029107216839599933,0.09878162555386794,-0.04637650962497879,0.01153995743453415,0.27487581387486004,-0.17872180483188344
13,5.85817579999275,0.01141390680850817,0.10413683731547656,0.028985874567112192,-0.01190053274788623,-0.05196884982972575,-0.0032293014437501802,0.02916076620783658,0.1000878326269045,-0.04722961560737869,0.010980264904482753,0.2744215428584063,-0.18003428533381188
14,5.862075800003368,0.01135763922601518,0.10389081219390772,0.028969982323943422,-0.011761723795510515,-0.051489741715605344,-0.0034559553546788914,0.029211658239852927,0.10139185130388768,-0.04808894853400128,0.010422510068468014,0.2739555774384673,-0.18134031589729338
15,5.8664294999907725,0.011302032376217326,0.10364708039519976,0.028953002426085145,-0.011622679115317074,-0.051004437129618836,-0.0036867109111242153,0.02925990239035776,0.10269362623604684,-0.04895447713662117,0.009866793356362284,0.2734780252271149,-0.18263964647660222
16,5.870784899991122,0.011247087350258578,0.10340567136358418,0.028934915296577934,-0.011483411277233539,-0.050512946873727566,-0.003921597503140587,0.02930550859074243,0.10399310256163127,-0.04982616895497133,0.009313214938059677,0.27298898380639763,-0.18393202588913343
17,5.874567299993942,0.011192805179614296,0.10316661449129945,0.028915701219054207,-0.011343932802822032,-0.050015282009713134,-0.004160644363565326,0.029348487248505487,0.10529022586004519,-0.05070399033164331,0.008761874894737313,0.27248854143655243,-0.18521720189194296
18,5.88006709999172,0.011139186836326632,0.1029299391173603,0.028895340338499456,-0.011204256163016789,-0.04951145385717132,-0.004403880562312425,0.029388849246984188,0.10658494210904611,-0.05158790640710134,0.008212873327741763,0.2719767769115819,-0.18649492132283513
19,5.883984699990833,0.01108623323325069,0.10269567452633618,0.0288738126620407,-0.01106439377586048,-0.04900147399172912,-0.00465133500064444,0.02942660594581484,0.10787719763750614,-0.052477881115924566,0.007666310310158806,0.2714537592852966,-0.18776493032220556
20,5.887610099991434,0.01103394522431146,0.1024638499471375,0.028851098059762197,-0.010924358004237461,-0.04848535424348801,-0.0049030364054305385,0.029461769180203656,0.10916693908000454,-0.05337387718393123,0.0071222855784753274,0.27091954809681146,-0.18902697447404213
21,5.891301199997542,0.01098232360477153,0.10223449455180889,0.028827176265548524,-0.010784161153617026,-0.04796310669567288,-0.005159013323391036,0.029494351258454246,0.11045411333173386,-0.054275856125762086,0.006580898270511048,0.2703741933547306,-0.19028079890273278
22,5.895163199995295,0.010931369111509492,0.10200763745432827,0.028802026877955023,-0.01064381546981017,-0.0474347436835042,-0.005419294115332454,0.029524364958745764,0.11173866750294208,-0.0551837782429254,0.006042246717671266,0.26981773555257016,-0.1915261484827329
23,5.899752299999818,0.010881082423308994,0.1017833077094109,0.028775629361105712,-0.010503333136743502,-0.046900277793280314,-0.005683906950373466,0.029551823524684363,0.11302054887398547,-0.05609760262337464,0.005506428412828418,0.2692502056370102,-0.19276276822149024
24,5.909284800000023,0.010831464161158311,0.10156153431131713,0.028747963045618666,-0.010362726274258308,-0.04635972186167712,-0.005952879800175937,0.029576740661775833,0.1142997048494687,-0.057017287143195795,0.004973540415465957,0.26867162465317573,-0.1939904034167838
25,5.913900899991859,0.01078251488856034,0.10134234619266314,0.028719007129558792,-0.010222006935918017,-0.045813088975266564,-0.006226240433186915,0.02959913053683068,0.11557608290992377,-0.057942788467681604,0.004443679889834609,0.2680820031639666,-0.19520879945506875
26,5.917867500000284,0.010734235111853022,0.10112577222323323,0.028688740679417978,-0.010081187106812932,-0.045260392470275954,-0.006504016408879895,0.029619007779555562,0.11684963056042688,-0.05887406205110078,0.003916944538531033,0.2674813408469546,-0.19641770158570002
27,5.922165500000119,0.010686625280540216,0.10091184120879286,0.028657142631122644,-0.009940278701352548,-0.04470164593259519,-0.006786235071994611,0.029636387486082466,0.11812029527844316,-0.05981106213562474,0.003393432846197442,0.26686962649415447,-0.19761685456621397
28,5.928105999992113,0.010639685787633127,0.10070058188990094,0.028624191791068686,-0.009799293561036718,-0.044136863198032145,-0.007072923546768091,0.029651285222878142,0.1193880244624414,-0.060753741747722814,0.002873244031165401,0.2662468377542343,-0.19880600206557283
29,5.933190199997625,0.010593416970002371,0.10049202294072035,0.028589866837183897,-0.009658243452210788,-0.0435660583528087,-0.007364108731140165,0.029663717029813325,0.12065276537728672,-0.06170205269141281,0.0023564778783549648,0.2656129407129345,-0.1999848860231785
30,5.937068999992334,0.010547819108740763,0.10028619296782554,0.02855414632001802,-0.009517140063807569,-0.0429892457343355,-0.007659817290920318,0.029673699422482755,0.12191446509886439,-0.06265594553855933,0.0018432344911082765,0.26496788989367337,-0.20115324617316632
31,5.942425100001856,0.010502892429536856,0.1000831205090057,0.028517008663860664,-0.0093759950050804,-0.04240643993223472,-0.007960075653900918,0.029681249392913906,0.12317307045947819,-0.06361536961759952,0.001333613865929494,0.26431162804746583,-0.20231081987901856
32,5.945961699995678,0.010458637103059288,0.09988283403206262,0.02847843216788734,-0.00923481980333838,-0.041817655789634194,-0.008264910003916832,0.029686384407842045,0.12442852799047605,-0.0645802730022683,0.0008277153643600031,0.2636440867652032,-0.20345734226265724
33,5.949777100002393,0.010415053245351875,0.09968536193360156,0.028438395007333885,-0.009093625901695846,-0.04122290840473589,-0.008574346274851413,0.029689122404395567,0.12568078387347226,-0.06555060250155202,0.0003256371928483133,0.262965187655923,-0.2045925465753636
34,5.953806999998051,0.010372140918239351,0.09949073253781417,0.028396875234699515,-0.008952424656848635,-0.040622213132574025,-0.008888410144600553,0.029689481783423725,0.12692978389418047,-0.06652630365194173,-0.00017252400841663923,0.2622748420241346,-0.20571616445568558
35,5.957756999996491,0.010329900129743618,0.09929897409525264,0.028353850780978653,-0.00881122733688703,-0.04001558558702263,-0.009207127029004992,0.02968748140127105,0.12817547339056673,-0.06750732070984002,-0.0006666732985514346,0.26157295057878416,-0.20682792595777924
36,5.962094399990747,0.010288330834510293,0.09911011478159355,0.028309299456921705,-0.008670045119150266,-0.03940304164304685,-0.009530522075742143,0.029683140561839575,0.12941779720391422,-0.06849359664408386,-0.0011567172768165495,0.26085940380437217,-0.20792755971266666
37,5.965983999994933,0.010247432934245355,0.0989241826963906,0.02826319895432498,-0.00852888908811497,-0.03878459743917598,-0.009858620158187278,0.029676479009877174,0.13065669963050627,-0.06948507312988529,-0.001642563850708147,0.26013408180026715,-0.20901479299675865
38,5.970333799996297,0.010207206278161789,0.0987412058618149,0.02821552684734986,-0.008387770233313514,-0.038160269380214294,-0.010191445869247723,0.029667516925245628,0.1318921243711627,-0.07048169054200604,-0.002124121945683345,0.259396853812875,-0.21008935148178068
39,5.974518599992734,0.010167650663436023,0.09856121222138194,0.028166260593871374,-0.008246699447276972,-0.03753007414019413,-0.010529023515159119,0.029656274918969976,0.13312401447847297,-0.07148338794631952,-0.002601301083949284,0.25864757796114524,-0.21115095896881295
40,5.978520599994226,0.010128765835674142,0.09838422963866382,0.028115377536856362,-0.008105687523491051,-0.03689402866558861,-0.01087137710923936,0.02964277403151304,0.13435231230372152,-0.07249010309045577,-0.003074010844084416,0.25788610152671404,-0.2121993371343764
41,5.98280139999406,0.010090551489387771,0.09821028589598563,0.028062854905771466,-0.007964745154355461,-0.03625215017876952,-0.01121853036559587,0.029627035733964704,0.13557695944688078,-0.07350177239294826,-0.003542160163673939,0.2571122609705284,-0.21323420516734443
42,5.98769199999515,0.01005300726847969,0.09803940869310478,0.02800866981802116,-0.007823882929128532,-0.03560445618169573,-0.011570506692776308,0.029609081932949602,0.13679789670369463,-0.07451833093042524,-0.004005656573264188,0.2563258808684786,-0.21425527923693138
43,6.000856300001033,0.010016132766739278,0.0978716256458723,0.02795279928041612,-0.007683111331839905,-0.03495096445987439,-0.01192732918735401,0.029588934979102813,0.13801506400554736,-0.07553971242169619,-0.0044644054968321556,0.255526772427341,-0.21526227187988056
44,6.008231699990574,0.009979927528347974,0.09770696428487455,0.02789522019067227,-0.00754244073915453,-0.03429169308662129,-0.012289020627427332,0.029566617678631297,0.13922840035243123,-0.07656584920911422,-0.004918309858816021,0.2547147322271937,-0.21625489163354336
45,6.0124224000028335,0.00994439104839504,0.0975454520540539,0.02783590933894099,-0.00740188141817539,-0.03362666042765966,-0.012655603466027817,0.02954215330552742,0.14043784374085355,-0.07759667223917253,-0.005367270309782781,0.2538895421083712,-0.2172328431649584
46,6.016919699992286,0.009909522773403925,0.09738711630930677,0.02777484340937085,-0.0072614435241913225,-0.03295588514606625,-0.013027099824434974,0.029515565610983896,0.14164333109572907,-0.07863211104509459,-0.00581118598034578,0.2530509704780437,-0.21819582809717755
47,6.020331599997007,0.009875322101869446,0.09723198431705725,0.027711998981701423,-0.007121137098390193,-0.03227938620751795,-0.013403531485418846,0.029486878828436244,0.14284479821071486,-0.07967209373529029,-0.0062499553480262066,0.2521987742451741,-0.21914354617052698
48,6.024554799994803,0.009841788384805907,0.09708008325280519,0.02764735253288929,-0.0069809720655587566,-0.03159718288580541,-0.01378491988644499,0.02945611767473237,0.14404217969850744,-0.08071654698699181,-0.0066834768500129114,0.2513327006747948,-0.2200756959521969
49,6.029166399996029,0.009808920926306156,0.09693144019964746,0.027580880438766463,-0.006840958231784703,-0.030909294768552413,-0.01417128611285651,0.029423307349346624,0.14523540894881515,-0.08176539604145923,-0.007111649058574923,0.2504524881625907,-0.22099197500541187
50,6.032971399996313,0.009776718984111562,0.09678608214677156,0.027512558975731273,-0.006701105282163995,-0.03021574176312923,-0.014562650891033436,0.029388473533880886,0.14642441808602288,-0.08281856469922542,-0.007534370473418515,0.24955786612161263,-0.22189207971623523
51,6.038096399992355,0.00974518177019288,0.09664403598792068,0.027442364322471845,-0.006561422778507661,-0.029516544102774694,-0.014959034581529522,0.02935164239325368,0.14760913792608688,-0.08387597531365433,-0.007951539041867189,0.24864855501476088,-0.22277570474509975
52,6.044956999990973,0.009714308451342041,0.09650532851982906,0.027370272561722257,-0.0064219201570378205,-0.028811722352919556,-0.015360457172170357,0.029312840579765187,0.14878949793450844,-0.08493754878096893,-0.00836305149776791,0.2477242660485112,-0.2236425423254202
53,6.05002309998963,0.00968409814977493,0.09636998644062689,0.02729625968205168,-0.0062826067260558114,-0.028101297417708303,-0.015766938271095314,0.029272095240574496,0.14996542618031553,-0.08600320452713811,-0.008768802817171226,0.24678470093047283,-0.2244922817355531
54,6.053966399995261,0.009654549943745356,0.09623803634821368,0.02722030157968671,-0.006143491663567095,-0.02738529054676023,-0.01617849709973093,0.02922943402694205,0.15113684929173046,-0.08707286049288207,-0.009168686111465194,0.24582955270843718,-0.22532460919772357
55,6.057800399998087,0.009625662868170423,0.09610950473859882,0.027142374060367354,-0.006004584014861473,-0.026663723342112932,-0.016595152485690223,0.02918488510272339,0.1523036924181323,-0.08814643311959779,-0.00956259294192415,0.24485850623814448,-0.22613920817254068
56,6.062031099994783,0.009597435915267514,0.0959844180042089,0.02706245284123689,-0.0058658926900571964,-0.02593661776534518,-0.017016922855612213,0.029138477150619676,0.1534658791901738,-0.08922383733716578,-0.009950413819581084,0.24387123856979212,-0.2269357597581411
57,6.066242799992324,0.009569868035203027,0.09586280243216053,0.026980513552765963,-0.0057274264616217355,-0.025203996144899776,-0.017443826227945256,0.029090239375916788,0.15462333168542017,-0.09030498655367214,-0.010332038737351962,0.24286742036759384,-0.22771394321411023
58,6.070258699997794,0.009542958136752934,0.095744684202498,0.026896531740711098,-0.005589193961880323,-0.024465881183533253,-0.01787588020568879,0.029040201507674425,0.15577597040196856,-0.09138979264819867,-0.010707357694230285,0.24184671640972097,-0.22847343641731283
59,6.074721899989527,0.00951670508797522,0.09563008938639526,0.026810482868107825,-0.005451203680525408,-0.02372229596588966,-0.018313101969108105,0.02898839379747919,0.15692371422884205,-0.09247816596488068,-0.011076261233510465,0.2408087853622041,-0.2292139160995828
60,6.078975800002809,0.009491107716894128,0.09551904394432154,0.026722342317298493,-0.0053134639621370645,-0.02297326396623188,-0.01875550826841957,0.028934847015514267,0.15806648041745858,-0.09357001530795794,-0.011438641005125833,0.23975328066603324,-0.22993505815404844
61,6.082807099999627,0.009466164812196184,0.09541157372416972,0.026632085391994964,-0.005175983003729829,-0.02221880905628677,-0.019203115416458316,0.028879592443963674,0.1592041845604628,-0.0946652479387462,-0.011794390144681213,0.23867985135986816,-0.2306365380145087
62,6.086946099996567,0.009441875123937783,0.09530770445934744,0.026539687319376178,-0.005038768852335846,-0.02145895551317784,-0.019655939281334668,0.028822661869476695,0.16033674057102046,-0.09576376957429665,-0.012143403309720807,0.23758814217652624,-0.23131803086059743
63,6.09096000000136,0.009418237364264188,0.09520746176682997,0.026445123252220693,-0.004901829402623378,-0.02069372802746734,-0.020113995279089077,0.028764087576227167,0.1614640606625679,-0.09686548438631888,-0.012485576496296917,0.2364777938009395,-0.23197921159369497
64,6.095344100001967,0.009395250208139779,0.09511087114517476,0.026348368271074115,-0.004765172394545975,-0.01992315171128155,-0.020577298366338297,0.02870390234012265,0.16258605533056017,-0.09797029499961128,-0.012820806853496779,0.23534844332205607,-0.23261975498628767
65,6.101192299989634,0.009372912294089413,0.09501795797249714,0.026249397386451587,-0.004628805411016062,-0.019147252106526486,-0.021045863032915398,0.028642139423627887,0.16370263333651888,-0.09907810249240462,-0.013148992536289018,0.23419972481292192,-0.23323933588334736
66,6.105361499998253,0.009351222224950795,0.09492874750440665,0.02614818554107522,-0.004492735875603347,-0.018366055193164903,-0.021519703294519205,0.02857883257137367,0.16481370169529783,-0.10018880639670792,-0.013470032449560987,0.23303126970185203,-0.23383762900506191
67,6.112625499998103,0.009330178568637734,0.09484326487190402,0.026044707612146507,-0.0043569710502501776,-0.01757958739755314,-0.021998832685357607,0.028514016007414943,0.16591916566266143,-0.10130230469677569,-0.013783825947724293,0.2318427071919881,-0.23441430876099745
68,6.117021899990505,0.009309779858914242,0.09476153507923822,0.025938938413653724,-0.004221518032996025,-0.01678787560083628,-0.02248326425078241,0.02844772443369694,0.167018928726541,-0.10241849382768613,-0.01409027267742911,0.23063366514774492,-0.23496904926632545
69,6.121111499989638,0.00929002459617944,0.09468358300172358,0.025830852698714397,-0.004086383755707434,-0.015990947147368147,-0.02297301053991913,0.028379993028809353,0.16811289260304488,-0.1035372686739627,-0.014389272734876496,0.22940377073997598,-0.23550152432598653
70,6.129180699994322,0.009270911248263243,0.09460943338351675,0.02572042516195281,-0.003951574981814357,-0.015188829853144428,-0.02346808359828872,0.02831085744495615,0.16920095723385128,-0.10465852256800177,-0.014680727308902417,0.22815265107523006,-0.2360114075876554
71,6.139318300003652,0.009252438251232798,0.0945391108353536,0.025607630441912655,-0.0038170983040689234,-0.014381552014247461,-0.023968494960422426,0.028240353800592904,0.17028302078820384,-0.10578214729014906,-0.014964539670614075,0.226879934630855,-0.23649837284008346
72,6.144843299989589,0.009234604010209493,0.09447263983224587,0.02549244312350478,-0.003682960142351808,-0.013569142415260386,-0.024474255642484233,0.028168518667983443,0.17135897967395475,-0.10690803306996507,-0.015240616076518927,0.22558525278679645,-0.2369620941622454
73,6.151598600001307,0.009217406900196254,0.09441004471113801,0.02537483774049001,-0.003549166741549359,-0.012751630337606885,-0.024985376134897746,0.02809538905724686,0.17242872855413033,-0.10803606858772022,-0.015508866288690165,0.2242682406966805,-0.23740224608861085
74,6.160065000003669,0.009200845266914745,0.09435134966852454,0.02525478877799704,-0.003415724169511703,-0.011929045567807765,-0.02550186639498288,0.028021002398966474,0.17349216036625975,-0.10916614097723222,-0.015769203699668072,0.2229285377231904,-0.23781850383523803
75,6.1644076999946265,0.009184917427652093,0.09429657875802835,0.025132270675075275,-0.0032826383150952954,-0.011101418405636856,-0.026023735839609714,0.027945396527048826,0.17454916634308176,-0.11029813582951181,-0.016021545153027165,0.2215657876637064,-0.2382105433519336
76,6.168047999992268,0.009169621672116707,0.09424575588794046,0.025007257827282612,-0.003149914886284066,-0.01026877967218063,-0.02655099333786986,0.027868609663039348,0.17559963603401962,-0.11143193719609626,-0.016265810586665513,0.22017963875054497,-0.23857804135415986
77,6.172573599993484,0.009154956263302866,0.09419890481872165,0.024879724589307987,-0.003017559408381153,-0.009431160717789835,-0.02708364720376202,0.027790680402374295,0.17664345732589012,-0.11256742759299855,-0.016501922623536558,0.21876974316695627,-0.23892067548903745
78,6.17720140000165,0.009140919438363744,0.09415604916046662,0.024749645277628716,-0.0028855772222608185,-0.008588593429942145,-0.027621705188900936,0.027711647702589277,0.1776805164597748,-0.1137044880056199,-0.016729806464792923,0.21733575704706565,-0.2392381245082942
79,6.18236109999998,0.009127509409492625,0.09411721237033084,0.02461699417320241,-0.0027539734826723386,-0.007741110241033306,-0.02816517447524966,0.02763155087058757,0.17871069805172846,-0.11484299789434398,-0.016949390337344612,0.21587734157272484,-0.2395300683407054
80,6.1884636000031605,0.009114724364812058,0.09408241774992057,0.024481745524193438,-0.002622753156613019,-0.006888744136042818,-0.02871406166788171,0.02755042954659159,0.17973388512008323,-0.11598283520013844,-0.017160606114724048,0.2143941634572199,-0.23979618806437097
81,6.192204699997092,0.009102562469270555,0.0940516884426468,0.024343873548733682,-0.0024919210217847353,-0.006031528660065377,-0.029268372787766634,0.027468323685505707,0.18074995911075808,-0.11712387634988548,-0.017363389816982898,0.21288589481615688,-0.24003616593834698
82,6.196356999993441,0.009091021865546415,0.09402504743104365,0.024203352437717627,-0.0023614816651442213,-0.0051694979257358095,-0.02982811326458286,0.027385273536112833,0.18175879992333482,-0.11826599626228423,-0.017557682072308275,0.21135221368355125,-0.24024968537484995
83,6.203965799999423,0.00908010067495822,0.09400251753405166,0.02406015635763148,-0.002231439481557485,-0.004302686620512494,-0.0303932879295594,0.02730131961804645,0.18276028594127638,-0.11940906835291691,-0.01774342866134191,0.20979280464081013,-0.24043643089898348
84,6.207684599998174,0.009069796998381459,0.09398412140426694,0.02391425945341634,-0.0021017986725691317,-0.0034311300138148647,-0.0309639010083369,0.02721650269580978,0.18375429406398563,-0.12055296453976816,-0.01792058102511869,0.20820735902635215,-0.24059608825711565
85,6.212224899994908,0.00906010891717072,0.09396988152515659,0.02376563585136523,-0.0019725632453039053,-0.002554863964001897,-0.03153995611386183,0.027130863750916456,0.1847406997390175,-0.12169755524932206,-0.018089096257005242,0.20659557512915203,-0.2407283444094788
86,6.216417999996338,0.009051034494086774,0.0939598202082414,0.023614259662053848,-0.0018437370115010011,-0.00167392492520322,-0.03212145623930553,0.027044443955986344,0.18571937699597868,-0.12284270942201109,-0.018248936405264222,0.204957158349956,-0.2408328874853339
87,6.220250400001532,0.009042571774227947,0.09395395959024633,0.023460104983304957,-0.0017153235866619997,-0.0007883499539751548,-0.032708403751010244,0.02695728465352004,0.18669019848027327,-0.12398829451788664,-0.018400067493337117,0.20329182010468166,-0.24090940672645125
88,6.225967199992738,0.009034718785965304,0.09395232163021994,0.02330314590318623,-0.0015873263892870726,0.00010182328418915156,-0.03330080038146207,0.026869427339313537,0.18765303547657186,-0.1251341765215304,-0.018542458695376327,0.20159927706652583,-0.24095759248776255
89,6.231561599997804,0.009027473541881294,0.0939549281066229,0.023143356503041477,-0.0014597486401806711,0.0009965565084269197,-0.03389864722228373,0.026780913649074804,0.18860775793534829,-0.12628021994773106,-0.018676081826260318,0.19987925210125565,-0.24097713645433
90,6.235308100003749,0.009020834039711538,0.09396180061438623,0.02298071086055514,-0.0013325933618150312,0.001895810816248014,-0.034501944717261535,0.026691785346689315,0.189554234505245,-0.1274262878484595,-0.018800911148068866,0.1981314743478485,-0.24096773169001606
91,6.241072799995891,0.00901479826328952,0.09397296056194034,0.022815183052849845,-0.001205863377747478,0.0027995466774099883,-0.035110692655404466,0.026602084312677392,0.19049233256037681,-0.12857224181900836,-0.018916923456749415,0.19635567955715913,-0.24092907270622657
92,6.245202899997821,0.009009364183493922,0.09398842916821493,0.022646747159616933,-0.001079561312093721,0.003707723927920068,-0.03572489016402955,0.02651185253163537,0.19142191823591762,-0.12971794200562112,-0.019024098320001778,0.1945516113336685,-0.2408608557680957
93,6.249509200002649,0.00900452975919833,0.09400822745961103,0.02247537726627976,-0.0009536895890646153,0.004620301764248686,-0.03634453570189351,0.026421132078430252,0.19234285646721527,-0.13086324711454403,-0.019122418307081356,0.19271902113546638,-0.24076277903552762
94,6.254184399993392,0.009000292938222968,0.0940323762669459,0.022301047467189566,-0.0008282504325707695,0.005537238737703517,-0.03696962705236425,0.026329965103455043,0.1932550110253782,-0.13200801442099672,-0.019211869285106896,0.19085766814521588,-0.24063454287356156
95,6.25972269999329,0.008996651658288167,0.09406089622237146,0.022123731868853733,-0.0007032458658995539,0.006458492748981502,-0.037600161316637806,0.02623839381600501,0.19415824455516292,-0.1331520997811763,-0.01929244098753185,0.18896731935084873,-0.24047585036895439
96,6.264323900002637,0.008993603847969172,0.09409380775626744,0.021943404593196162,-0.0005786777114778299,0.007384021042903261,-0.03823613490702402,0.026146460464125852,0.19505241861132816,-0.13429535764614145,-0.019364127802326547,0.18704774911013045,-0.2402864075031732
97,6.2683754000026966,0.008991147427651867,0.09413113109410971,0.021760039780849404,-0.0004545475907406364,0.008313780203310906,-0.03887754354029559,0.026054207310492992,0.19593739369238067,-0.13543764107546213,-0.019426929477516917,0.1850987389086997,-0.24006592323669745
98,6.27215520000027,0.008989280310488833,0.0941728862533149,0.021573611594478296,-0.00033085692412334933,0.009247726148123437,-0.0395243822311035,0.025961676605548843,0.19681302927462788,-0.13657880175190545,-0.019480851433628977,0.18312007798908878,-0.239814109573986
99,6.276455899991561,0.008988000403355146,0.09421909304006167,0.02138409422213472,-0.00020760693118587932,0.010185814124558453,-0.04017664528546583,0.025868910560410203,0.19767918385190678,-0.13771868999570328,-0.019525904513728563,0.18111156383447502,-0.239530681321788
100,6.280898199998774,0.008987305607803251,0.09426977104608991,0.021191461880643175,-8.479863086252899e-05,0.011127998704565443,-0.04083432629431887,0.025775951322383087,0.1985357149742379,-0.1388571547769393,-0.019562104304098615,0.1790730013300759,-0.2392153557661225
101,6.284751799990772,0.00898719382101639,0.09432493964547861,0.020995688819016877,3.756715818091295e-05,0.012074233780415156,-0.041497418127123736,0.025682840954331657,0.19938247927957756,-0.13999404372674415,-0.01958947033395334,0.17700420266648326,-0.23886785239402902
102,6.289144700000179,0.008987662936760073,0.09438461799140302,0.020796749321904142,0.000159489817101077,0.013024472560434918,-0.042165912925524,0.025589621417805165,0.20021933253155247,-0.1411292031470358,-0.01960802532959052,0.17490498822651515,-0.23848789264811743
103,6.293017799995141,0.008988710846331264,0.094448825012872,0.02059461771306481,0.00028096892635942676,0.013978667564956922,-0.04283980209704491,0.025496334559501187,0.20104612965964744,-0.14226247801938005,-0.019617794623755496,0.17277518590792262,-0.23807519994675466
104,6.297353499991004,0.008990335439504936,0.09451757941144664,0.020389268358876566,0.000402004265147406,0.014936770622435794,-0.04351907630883536,0.025403022100010546,0.2018627247904977,-0.1433937120149229,-0.019618805863348614,0.17061463062358592,-0.23762949992926724
105,6.301381400000537,0.008992534605477779,0.09459089965794072,0.02018067567187088,0.0005225958107617972,0.01589873286569454,-0.04420372548146153,0.02530972562306075,0.20266897128332265,-0.14452274750558336,-0.019611089098125086,0.168423165236689,-0.23715052068233403
106,6.3057734000030905,0.008995306233808818,0.09466880398910356,0.019968814114298367,0.000642743737927555,0.016864504728379134,-0.04489373878275534,0.025216486563417233,0.20346472177011335,-0.14564942557613925,-0.019594677169740782,0.1662006406897315,-0.23663799299814756
107,6.310442599991802,0.00899864821535668,0.09475131040428675,0.019753658201723243,0.0007624484180580847,0.017834035941586727,-0.04558910462172307,0.025123346192426285,0.20424982819229337,-0.1467735860378755,-0.019569606278196292,0.16394691594029145,-0.23609165076878352
108,6.314952999993693,0.009002558443213179,0.094838436662095,0.01953518250664661,0.0008817104184405636,0.018807275530668945,-0.04628981064252357,0.025030345600528425,0.20502414184029522,-0.14789506744442113,-0.01953591667730367,0.16166185867027946,-0.23551123134559754
109,6.320736199995736,0.009007034813632828,0.09493020027702243,0.01931336166215821,0.0010005305013298916,0.019784171812236528,-0.04699584371852758,0.02493752567618624,0.2057875133969675,-0.14901370710881606,-0.019493653376178928,0.1593453459632262,-0.23489647569245975
110,6.324448200000916,0.00901207522695781,0.09502661851607488,0.019088170365616202,0.0011189096229335792,0.020764672391375517,-0.04770718994645826,0.024844927081725345,0.20653979298359348,-0.1501293411208056,-0.019442866627067686,0.15699726480458814,-0.23424712837747944
111,6.328666799992789,0.009017677588537833,0.0951277083953798,0.018859583382354644,0.001236848932275904,0.021748724159089603,-0.04842383464061499,0.02475259022762214,0.2072808302080571,-0.15124180436382845,-0.019383612147094227,0.15461751243623906,-0.23356293746807527
112,6.336779699995532,0.009023839809644297,0.0952334866767842,0.01862757554941823,0.001354349769938231,0.02273627328997446,-0.0491457623271755,0.024660555246235567,0.20801047421423327,-0.1523509305313133,-0.019315951225094396,0.15220599650151098,-0.23284365441018345
113,6.341010699994513,0.009030559808378169,0.09534396986444238,0.01839212177932396,0.001471413666673311,0.023727265240129875,-0.04987295673857466,0.024568861965078695,0.2087285737315335,-0.1534565521425178,-0.019239950624861238,0.14976263485193272,-0.23208903388714147
114,6.345254200001364,0.009037835510570967,0.09545917420139408,0.018153197063849342,0.0015880423418913687,0.024721644745305357,-0.05060540080795732,0.02447754988147077,0.209434977122458,-0.15455850055748285,-0.019155682050949602,0.14728735504716053,-0.23129883358591855
115,6.350011499991524,0.009045664850678238,0.09557911566613453,0.017910776477846824,0.0017042377020332982,0.025719355819264562,-0.051343076663699284,0.02438665814088994,0.21012953242738475,-0.15565660599064812,-0.019063221285900264,0.1447800938390405,-0.23047281391103167
116,6.353567799989833,0.009054045772665066,0.09570380996917709,0.017664835183084118,0.0018200018388508463,0.02672034175235692,-0.05208596562398966,0.0242962255198318,0.21081208740721408,-0.1567506975230851,-0.018962647256926753,0.14224079642967222,-0.22961073785087616
117,6.357831699991948,0.009062976230883191,0.09583327254960966,0.017415348432110157,0.0019353370276167642,0.027724545110287702,-0.052834048191468246,0.024206290413039542,0.2114824895811007,-0.15784060311484122,-0.01885404133441411,0.13966941600363597,-0.22871237096591937
118,6.364883699992788,0.009072454190939496,0.09596751857164565,0.01716229157214643,0.0020502457252835273,0.028731907733048522,-0.05358730404792523,0.024116890823034993,0.21214058626464896,-0.1589261496170606,-0.01873748714041925,0.13706591392191095,-0.22777748130869405
119,6.370650199998636,0.009082477630555608,0.09610656292117022,0.016905640049003356,0.002164730568593908,0.029742370734050717,-0.05434571204905389,0.02402806434917027,0.21278622460948934,-0.16000716278356725,-0.018613070909488074,0.13443025981828696,-0.22680583958854172
120,6.376096899999538,0.009093044540418415,0.09625042020228297,0.016645369411021523,0.0022787943721355596,0.030755874499432297,-0.0551092502192605,0.023939848173726817,0.21341925164239078,-0.16108346728455264,-0.0184808823111012,0.13176243240574867,-0.22579721964682045
121,6.382729999997537,0.009104152925021165,0.09639910473383766,0.016381455313037432,0.0023924401263193643,0.03177235868756334,-0.05587789574654717,0.023852279043144166,0.21403951431250723,-0.16215488672267905,-0.018341015487858735,0.12906242065373597,-0.2247513989777593
122,6.387085299997125,0.009115800803494748,0.09655263054598012,0.016113873520373415,0.002505670995255471,0.03279176222880235,-0.05665162497747495,0.023765393244244034,0.21464685954168783,-0.16322124365172147,-0.018193569839595056,0.12633022372346864,-0.22366815938993587
123,6.391580299998168,0.009127986210428601,0.0967110113766857,0.015842599912851283,0.0026184903145054952,0.03381402332548017,-0.05743041341222401,0.023679226578000798,0.21524113427110828,-0.16428235959896256,-0.0180386501120743,0.12356585046861544,-0.22254728767039456
124,6.395990799996071,0.0091407071966806,0.096874260668297,0.015567610488829226,0.002730901588709065,0.03483907945209991,-0.05821423569976971,0.023593814334921935,0.2158221855068315,-0.1653380550901516,-0.01787636575599274,0.12076931875752794,-0.22138857585354055
125,6.400718599994434,0.009153961830175394,0.09704239156406325,0.015288881369261355,0.002842908489101848,0.03586686735575421,-0.0590030656331802,0.023509191274915502,0.21638986035999225,-0.16638814967445703,-0.0177068298928227,0.11794065445686895,-0.22019182110218605
126,6.404126599998563,0.009167748196690691,0.09721541690468198,0.015006388801779322,0.002954514850950602,0.03689732305670738,-0.05979687614502987,0.023425391612507198,0.21694400608269038,-0.167432461948294,-0.0175301583936268,0.11507989125487879,-0.21895682546710732
127,6.407806000002893,0.009182064400631192,0.09739334922484394,0.014720109164795494,0.003065724670930591,0.03793038184915409,-0.06059563930292353,0.023342449005469917,0.21748447010649435,-0.16847080957798988,-0.01734646941339619,0.11218707072595431,-0.21768339559766897
128,6.412071200000355,0.00919690856578993,0.09757620074978203,0.01443001897162714,0.0031765421044524823,0.038965978302167754,-0.0613993263051255,0.02326039654447007,0.21801110007894878,-0.16950300932085924,-0.01715588337084976,0.10926224205598603,-0.21637134226509602
129,6.4236813000025,0.009212278836096785,0.09776398339182517,0.01413609487464118,0.00328697146294128,0.04000404626080643,-0.06220790747628422,0.023179266741889273,0.2185237438994654,-0.17052887704333497,-0.016958523327441542,0.10630546254233994,-0.2150204796051623
130,6.428390599990962,0.009228173376353933,0.0979567087469578,0.013838313669419051,0.0033970172110568994,0.04104451884740262,-0.0630213522632338,0.02309909151786566,0.21902224976058637,-0.17154822773483988,-0.016754515535694334,0.10331679836827459,-0.21363062452980386
131,6.433046199992532,0.009244590372957927,0.09815438809138602,0.013536652298941373,0.003506683963840328,0.042087328463061666,-0.0638396292308506,0.02301990218389996,0.21950646619124123,-0.1725608755203212,-0.016543989731444105,0.100296324360788,-0.21220159701808497
132,6.437050900000031,0.009261528034608005,0.0983570323781113,0.013231087857792232,0.0036159764837782643,0.043132406789362955,-0.06466270605797396,0.022941729426117056,0.21997624209570688,-0.17356663367688982,-0.01632707904917398,0.09724412312005136,-0.21073322114821633
133,6.442064899994875,0.009278984593000243,0.09856465223351284,0.012921597596382655,0.0037248996777900687,0.04417968479022894,-0.0654905495334211,0.02286460328967739,0.22043142678858405,-0.17456531465617103,-0.016103919828523744,0.0941602848095032,-0.20922532617698256
134,6.445764899995993,0.00929695830350721,0.09877725795393905,0.012608158925192788,0.003833458594144127,0.045229092713959015,-0.06632312555212039,0.022788553163878945,0.22087187003176062,-0.17555673011121103,-0.01587465151753041,0.09104490723622075,-0.20767774722009347
135,6.449559899992892,0.009315447445842786,0.09899485950230923,0.012290749419032156,0.003941658419303094,0.046280560095450105,-0.06716039911138222,0.022713607767489003,0.2212974220701526,-0.176540690925299,-0.01563941656778835,0.08789809541628461,-0.20609032544983727
136,6.454171299992595,0.009334450324711812,0.09921746650472622,0.01196934682131731,0.0040495044747007386,0.04733401575857051,-0.06800233430730641,0.02263979513484334,0.22170793366453329,-0.1775170072407536,-0.015398360271155358,0.08471996163866038,-0.20446290814009116
137,6.457790599990403,0.009353965270444253,0.09944508824710063,0.011643929048366256,0.004157002213454966,0.04838938781869278,-0.06884889433132688,0.022567142602731186,0.22210325612788187,-0.17848548848817314,-0.015151630582401123,0.08151062562642584,-0.20279534860374984
138,6.464827299991157,0.009373990639613576,0.09967773367178757,0.011314474193708974,0.004264157217019916,0.04944660368541326,-0.06970004146689726,0.02249567679818135,0.22248324135974618,-0.17944594341462702,-0.014899377869238199,0.07827021406976296,-0.20108750589131608
139,6.470101099999738,0.009394524815639073,0.09991541137423676,0.010980960532413368,0.004370975191782808,0.05050559006541183,-0.07055573708630375,0.022425423627724816,0.22284774187814918,-0.18039818011003894,-0.014641754599847236,0.07499886067350724,-0.19933924455204202
140,6.47426170000108,0.009415566209371872,0.10015812959965648,0.010643366525426102,0.004477461965613911,0.05156627296547496,-0.07141594164760168,0.02235640826815304,0.22319661085440404,-0.18134200603310627,-0.014378914986055024,0.07169670639951672,-0.19755043454760496
141,6.479151999999885,0.009437113259664438,0.10040589623969239,0.010301670823927687,0.004583623484375483,0.05262857769568656,-0.07228061469167485,0.02228865515917455,0.22352970214732595,-0.18227722803686228,-0.014111014481465812,0.06836389953131813,-0.1957209513189625
142,6.483036199992057,0.00945916443392338,0.10065871882912188,0.00995585227370129,0.004689465808401889,0.05369242887277647,-0.0731497148394153,0.022222187998946884,0.2238468703386621,-0.1832036523952314,-0.013838209210973593,0.06500059588317528,-0.19385067612427836
143,6.492292599999928,0.009481718228645476,0.10091660454256472,0.009605889919514648,0.004794995108966049,0.05475775042364832,-0.07402319978903522,0.022157029742159527,0.2241479707692921,-0.1841210848318057,-0.013560655575594988,0.061606958558808406,-0.1919394964106041
144,6.495942399997148,0.009504773169936864,0.10117956019121097,0.009251763009514438,0.004900217664741314,0.05582446558907233,-0.0749010263135204,0.022093202599324558,0.22443285957236295,-0.18502933054993548,-0.013278510137598282,0.0581831574672224,-0.18998730610406583
145,6.499646900003427,0.009528327814015415,0.10144759221956672,0.00889345099963242,0.00500513985826117,0.05689249692752835,-0.07578315025822836,0.022030728035952223,0.22470139370488415,-0.18592819426426593,-0.012991929820133795,0.05472936948384058,-0.1879940060574938
146,6.503734700003406,0.009552380747696255,0.10172070670221858,0.00853093355800265,0.005109768172373273,0.0579617663191992,-0.07666952653864183,0.02196962676994275,0.22495343098239534,-0.1868174802350855,-0.012701072376861208,0.05124577896726228,-0.1859595046458616
147,6.510173199989367,0.009576930588860399,0.10199890934061746,0.008164190569388996,0.005214109186674342,0.05903219497014342,-0.07756010913829352,0.021909918766294945,0.2251888301154767,-0.1876969923055261,-0.012406096926103009,0.047732577661963926,-0.1838837182787719
148,6.514841099997284,0.009601975986906371,0.10228220545988266,0.007793202139622083,0.005318169573913867,0.060103703416635915,-0.07845485110687346,0.021851623229417277,0.225407450743491,-0.1885665339407863,-0.012107164428668573,0.04418996447218643,-0.18176657174514038
149,6.520042000003741,0.009627515623184632,0.10257060000562696,0.007417948600044812,0.005421956096355863,0.06117621152966166,-0.07935370455852689,0.021794758593291545,0.22560915346894342,-0.1894259082686099,-0.011804438020427618,0.04061814573657759,-0.17960799834248234
150,6.524150800003554,0.009653548211414587,0.10286409754080347,0.007038410511965503,0.00552547560208902,0.06224963851958315,-0.08025662067034656,0.02173934251062061,0.22579379989383586,-0.19027491811973885,-0.011498083032478934,0.03701733518026637,-0.17740793981695266
151,6.528890799992951,0.00968007249808392,0.10316270224257515,0.006654568671117747,0.005628735021285235,0.06332390294097989,-0.08116354968105542,0.021685391842800213,0.22596125265357084,-0.19111336606782173,-0.011188266666593848,0.0333877536720357,-0.1751663462598054
152,6.533004600001732,0.009707087262830013,0.10346641789920763,0.006266404112126081,0.005731741362414372,0.06439892269763835,-0.08207444088987856,0.021632922652153816,0.22611137545099622,-0.19194105446888157,-0.010875157372314433,0.029729629385552674,-0.17288317598391134
153,6.53754520000075,0.009734591318803278,0.1037752479069862,0.005873898112976571,0.005834501708428936,0.06547461504771526,-0.08298924265560124,0.02158195019782929,0.2262440330918426,-0.1927577855000499,-0.01055892411121312,0.0260431975748608,-0.1705583954784991
154,6.5411206999997376,0.009762583513012285,0.10408919526715778,0.005477032199491446,0.005937023212939804,0.06655089660906466,-0.08390790239580931,0.02153248893503193,0.2263590915166326,-0.1935633611986041,-0.010239735748109456,0.02232870029905474,-0.16819197962054064
155,6.547434899999644,0.009791062726650717,0.10440826258289855,0.005075788149806906,0.006039313096393603,0.06762768336470469,-0.08483036658631853,0.021484552516711726,0.22645641783349948,-0.194357583502712,-0.009917760585405092,0.01858638698714168,-0.16578391207141713
156,6.552014999993844,0.009820027875406137,0.10473245205630795,0.0046701479988531846,0.006141378642264491,0.0687048906684568,-0.08575658076080252,0.021438153797225665,0.22653588035546915,-0.19514025429424237,-0.00959316619376851,0.014816514759923865,-0.16333418571914682
157,6.557669599991641,0.009849477909750723,0.10506176548542989,0.004260094042835894,0.006243227193266366,0.06978243325076716,-0.08668648951062935,0.021393304835635486,0.22659734863634048,-0.19591117544371572,-0.009266119710470084,0.011019348043779232,-0.16084280315404828
158,6.562329599997611,0.00987941181521401,0.10539620426130218,0.003845608843717645,0.006344866147576019,0.07086022522468717,-0.087620036484917,0.02135001689653229,0.22664069350429378,-0.19667014885763923,-0.008936788401754011,0.00719515873262693,-0.15830977716495764
159,6.5672472000005655,0.009909828612637693,0.10573576936503461,0.0034266752336988616,0.006446302955053186,0.07193818009201454,-0.08855716439082016,0.02130830044798516,0.22666578709931157,-0.1974169765281775,-0.008605340156786004,0.0033442269596335315,-0.15573513121398422
160,6.57079209999938,0.009940727358412418,0.10608046136491675,0.0030032763196966733,0.006547545113444185,0.07301621074962969,-0.08949781499405822,0.02126816515766749,0.22667250291412736,-0.1981514605850031,-0.008271943729541886,-0.0005331586426179526,-0.15311889989146105
161,6.574629099995946,0.009972107144696476,0.10643028041355637,0.0025753954878207103,0.006648600164565125,0.0740942294960264,-0.09044192911969522,0.021229619888504796,0.22666071583412112,-0.19887340334929485,-0.007936768720573178,-0.0044367006687929,-0.15046112931093011
162,6.579068799997913,0.010003967099616292,0.10678522624504933,0.002143016407844575,0.006749475690464148,0.07517214803802763,-0.09138944665318141,0.021192672694974497,0.2266303021808679,-0.19958260738934522,-0.00759998532312535,-0.008366092570372314,-0.14776187738969668
163,6.583155999993323,0.01003630638744861,0.10714529817218182,0.00170612303767173,0.006850179309569441,0.07624987749773042,-0.09234030654166223,0.0211573308211686,0.22658113975555683,-0.20027887557722723,-0.007261763919940651,-0.012321018863641538,-0.14502121406680057
164,6.587286699999822,0.010069124208784344,0.10751049508366642,0.0012646996277945195,0.006950718672833049,0.07732732841963469,-0.09329444679555877,0.021123600700928558,0.22651310788056128,-0.2009620111464752,-0.006922274649800537,-0.016301154583008237,-0.14223922148246668
165,6.591334099997766,0.010102419800674091,0.10788081544141206,0.0008187307257450236,0.00705110145988017,0.07840441077798353,-0.09425180449042546,0.021091487960030905,0.22642608744805787,-0.20163181775045838,-0.006581687032677934,-0.0203061649745271,-0.1394159940411693
166,6.595337599996128,0.010136192436755344,0.10825625727782992,0.0003682011805364118,0.007151335375173762,0.0794810339843545,-0.09521231576908573,0.021060997419887567,0.22631996096451173,-0.2022880995206617,-0.006240169743898531,-0.024335706140441064,-0.13655163834904338
167,6.599826199992094,0.01017044142736153,0.10863681819317562,-8.690385290651854e-05,0.0072514281441990285,0.08055710689542298,-0.09617591584404404,0.021032133101879617,0.22619461259316476,-0.20293066112446406,-0.005897890499247197,-0.028389424313046023,-0.13364627308088917
168,6.603583899996011,0.010205166119612934,0.10902249535292893,-0.000546598909328931,0.007351387509669249,0.08163253782095765,-0.09714253900017118,0.021004898232150418,0.2260499282054277,-0.20355930782215392,-0.0055550160026067805,-0.03246695537119299,-0.13070002886130036
169,6.608531799996854,0.01024036589748964,0.10941328548521205,-0.001010898208740952,0.007451221227755857,0.08270723453207272,-0.09811211859765853,0.020979295246437425,0.22588579542796736,-0.20417384552357706,-0.0052117120769256805,-0.03656792553497575,-0.1277130482879645
170,6.616497099996195,0.0102760401818866,0.10980918487824776,-0.0014798156520273618,0.007550937064340227,0.08378110426967118,-0.09908458707524223,0.0209553257936196,0.2257021036874909,-0.20477408084537377,-0.004868144045210978,-0.040691950767843134,-0.1246854861458147
171,6.62077209999552,0.010312188430650926,0.11021018937785805,-0.0019533648165732625,0.007650542791277499,0.08485405375312306,-0.10005987595370186,0.020932990736925314,0.2254987442635201,-0.2053598211696635,-0.0045244772748472125,-0.044838636066084014,-0.1216175097664292
172,6.624481799997739,0.01034881013860142,0.11061629438500482,-0.0024315589519070483,0.007750046182659848,0.08592598918921068,-0.10103791583964279,0.020912290152302334,0.22527561033993385,-0.20593087470470064,-0.004180877695629159,-0.04900757549271148,-0.11850929943281237
173,6.62850079999771,0.010385904837530319,0.11102749485337358,-0.0029144109753620495,0.007849455011064809,0.08699681628129714,-0.10201863642957182,0.020893223324698333,0.22503259705742004,-0.20648705054740932,-0.0038375120900339963,-0.05319835174245983,-0.11536104874323566
174,6.6330029999953695,0.010423472096187143,0.11144378528700134,-0.0034019334677582694,0.007948777043783167,0.08806644023877049,-0.10300196651427432,0.020875788743669896,0.22476960156915587,-0.20702815874749989,-0.0034945481456613043,-0.057410536220927476,-0.11217296492219202
175,6.63721319999604,0.010461511520244562,0.11186515973795016,-0.0038941386691056634,0.008048020039025515,0.0891347657867418,-0.10398783398349974,0.020859984099164224,0.22448652309250677,-0.2075540103729615,-0.003152154336222131,-0.06164368906083627,-0.10894526909018275
176,6.64211559999967,0.010500022752246162,0.1122916118040273,-0.004391038474330442,0.008147191742110023,0.09020169717598114,-0.10497616583096173,0.020845806278260142,0.22418326296455213,-0.20806441757674476,-0.002810499671634904,-0.06589735825200208,-0.105678196470186
177,6.645678999993834,0.010539005471536049,0.11272313462655326,-0.00489264442902591,0.008246299881637992,0.09126713819314378,-0.10596688815965785,0.02083325136332683,0.2238597247020597,-0.2085591936642181,-0.00246975332317695,-0.07017107960866154,-0.10237199647695436
178,6.649785399989924,0.010578459394170235,0.11315972088817917,-0.005398967725229371,0.008345352165664116,0.09233099217127655,-0.10695992618751138,0.02082231463233029,0.22351581405732213,-0.20903815316069982,-0.0021300841536835485,-0.07446437723715713,-0.09902693265025027
179,6.653733099999954,0.010618384272809821,0.11360136281075485,-0.0059100191972266255,0.008444356277874949,0.09339316200057525,-0.10795520425333335,0.020812990561460694,0.22315143907368284,-0.20950111187827947,-0.0017916603284244324,-0.07877676321380947,-0.09564328249135733
180,6.657996499998262,0.010658779896596034,0.11404805215324844,-0.00642580931738559,0.008543319873784152,0.09445355013941913,-0.10895264582309994,0.020805272829140097,0.22276651014443657,-0.20994788698179478,-0.001454649022951302,-0.08310773721342829,-0.09222133726582413
181,6.662393899998278,0.01069964609100721,0.11449978020971942,-0.0069463481920205026,0.008642250576949086,0.09551205862568848,-0.10995217349654206,0.020799154321428665,0.22236094007188875,-0.21037829705377684,-0.001119216213430505,-0.08745678655729945,-0.0887614017817928
182,6.666001799996593,0.010740982717697856,0.11495653780734595,-0.007471645557288216,0.008741155975217485,0.09656858908836097,-0.11095370901404049,0.020794627138026687,0.22193464412579958,-0.21079216215831847,-0.000785526700763872,-0.09182338629525469,-0.08526379425518299
183,6.670412099992973,0.010782789674319926,0.11541831530450815,-0.008001710775117995,0.008840043617001131,0.09762304275938506,-0.111957173263823,0.02079168259745137,0.22148754010166283,-0.21118930390473714,-0.0004537443042455122,-0.09620699897912129,-0.0817288463314662
184,6.679290000000037,0.010825066894326437,0.11588510258892837,-0.00853655282917626,0.008938921007571769,0.0986753204858307,-0.11296248628946497,0.020790311241196832,0.22101954838130478,-0.21156954551165044,-0.0001240322605318564,-0.10060707419410032,-0.07815690327449466
185,6.683204000000842,0.010867814346757524,0.11635688907587005,-0.009076180320867733,0.009037795605374353,0.0997253227423392,-0.11396956729769601,0.020790502835116017,0.22053059199562042,-0.21193271187243504,0.00020344617964735063,-0.10502304794782084,-0.07454832431884238
186,6.688612799989642,0.010911032036008975,0.11683366370639645,-0.009620601465374436,0.009136674818336105,0.10077294964387053,-0.11497833466652324,0.020792246367904915,0.22002059669098356,-0.2122786296226536,0.000528527322049259,-0.10945434173373259,-0.07090348303717095
187,6.692968599993037,0.010954720001583184,0.11731541494569069,-0.010169824087734099,0.009235566000165344,0.10181810095878498,-0.1159887059536792,0.020795530048399756,0.2194894910008918,-0.21260712720900796,0.0008510467729497819,-0.1139003623212497,-0.06722276760008347
188,6.698112799989758,0.010998878317822487,0.11780213078143895,-0.010723855618959515,0.009334476446634835,0.10286067612227191,-0.11700059790540102,0.02080034130162654,0.2189372063143727,-0.21291803495923778,0.0011708392616476021,-0.11836050222468467,-0.06350658089805747
189,6.7015675000002375,0.011043507093624755,0.11829379872227826,-0.011282703092200454,0.00943341339184304,0.10390057425008203,-0.11801392646554319,0.020806666764409926,0.21836367694316838,-0.21321118515223347,0.0014877385419123116,-0.1228341389925874,-0.05975534053132814
190,6.707823599994299,0.011088606472141169,0.11879040579631027,-0.011846373138949698,0.009532384004455706,0.10493769415259523,-0.11902860678502364,0.020814492280485368,0.2177688401969014,-0.2134864120878386,0.0018015772185171275,-0.12732063457928525,-0.05596947876357327
191,6.712170500002685,0.01113417663045607,0.11929193854968288,-0.012414871985294798,0.00963139538392062,0.10597193434926776,-0.12004455323160043,0.020823802894458027,0.217152636456237,-0.21374355215652235,0.002112186674550299,-0.13181933563527698,-0.05214944248845798
192,6.71701929999108,0.011180217779248726,0.11979838304524143,-0.012988205448217108,0.009730454556651733,0.10700319308339604,-0.12106167939998053,0.020834582846223512,0.21651500924528683,-0.21398244390886362,0.00241939734972626,-0.13632957308691634,-0.048295693091897685
193,6.72061190000386,0.011226730162436882,0.12030972486125073,-0.013566378931939693,0.009829568472190853,0.10803136833725249,-0.12207989812225745,0.020846815567574013,0.2158559053087692,-0.2142029281239134,0.002723039214073762,-0.14085066226650084,-0.044408706211851334
194,6.724610399993253,0.011273714056802027,0.12082594909019025,-0.014149397424325636,0.009928743999359483,0.10905635784758326,-0.12309912147867023,0.020860483681124642,0.21517527468317538,-0.21440484787639413,0.0030229422134828493,-0.14538190326753073,-0.04048897147524024
195,6.728530199994566,0.011321169771596336,0.12134704033762354,-0.014737265493328294,0.010027987922410303,0.11007805912142098,-0.12411926080868033,0.02087556900115749,0.21447307077055078,-0.2145880486025597,0.003318936606282952,-0.14992258028204103,-0.036536992256682096
196,6.736849599998095,0.011369097648131328,0.12187298272114386,-0.01532998728349496,0.010127306937187037,0.11109636945228425,-0.12514022672235695,0.020892052535749415,0.21374925041596432,-0.2147523781650999,0.0036108530256891854,-0.15447196144017375,-0.03255328567189326
197,6.741374599994742,0.011417498059348288,0.12240375986939764,-0.015927566512525408,0.010226707647296173,0.11211118593672734,-0.12616192911207133,0.020909914488210064,0.21300377398281556,-0.21489768691893768,0.0038985222682036557,-0.15902929866521004,-0.028538382804069874
198,6.745941300003324,0.01146637140937051,0.12293935492118753,-0.0165300064678868,0.010326196560280507,0.11312240549125589,-0.12718427716450798,0.020929134257196995,0.212236605431683,-0.21502382777828694,0.004181775110215552,-0.16359382705970044,-0.024492828994745853
199,6.749535700000706,0.011515718133037317,0.12347975052465682,-0.017137310003486464,0.01042578008379196,0.11412992486962664,-0.1282071793729967,0.02094969043640925,0.21144771240147012,-0.21513065628521627,0.0044604421708856435,-0.16816476447153259,-0.02041718422695991
200,6.753782200001297,0.011565538695419908,0.12402492883655696,-0.017749479536404114,0.010525464521762208,0.11513364068053498,-0.12923054355017602,0.02097156081339826,0.21063706629238121,-0.2152180306803514,0.004734353764952244,-0.17274131147704486,-0.016312023494144713
201,6.759601700003259,0.011615833591318953,0.12457487152160025,-0.018366517043685075,0.010625256070564186,0.11613344940570389,-0.13025427684099777,0.020994722367861356,0.209804642347228,-0.21528581197494764,0.005003339763700018,-0.17732265157415036,-0.012177936942340173
202,6.763099099989631,0.011666603344743924,0.12512955975189946,-0.01898842405919619,0.010725160815166487,0.11712924741834486,-0.131278285736076,0.02101915126913025,0.2089504197325685,-0.2153338640229451,0.0052672293288057205,-0.18190795073182175,-0.0080155297471633
203,6.76681249999092,0.011717848508374117,0.12568897420649605,-0.019615201670546027,0.01082518472527098,0.11812093100201865,-0.1323024760853769,0.02104482287193294,0.20807438162429884,-0.21536205359187088,0.005525850620091238,-0.18649635687332491,-0.003825421957646692
204,6.772097199995187,0.011769569663001241,0.1262530950709792,-0.020246850516071,0.010925333651426894,0.11910839636991029,-0.13332675311224218,0.021071711711102427,0.20717651529370745,-0.21537025043340885,0.0057790306020572,-0.19108700008560245,0.0003917515126381387
205,6.776746299990919,0.011821767416953484,0.12682190203719743,-0.020883370781888955,0.011025613321118106,0.12009153968450835,-0.1343510214277502,0.02109979149549842,0.20625681219107536,-0.2153583273542175,0.006026594985327876,-0.1956789926517718,0.004635340911659225
206,6.780630599998403,0.01187444240550088,0.12739537430306472,-0.0215247621990219,0.011126029334819414,0.1210702570776752,-0.135375185045413,0.02112903510215908,0.2053152680314212,-0.21532616028625165,0.00626836835168311,-0.20027142826179714,0.008904681693730564
207,6.788644000000204,0.011927595290241863,0.1279734905724631,-0.02217102404058938,0.011226587162028196,0.12204444467114178,-0.13639914739620618,0.021159414571412013,0.20435188288560935,-0.21527362835715408,0.0065041743535613865,-0.20486338117311964,0.01319909456767427
208,6.797689500002889,0.011981226758470891,0.12855622905524372,-0.022822155119074167,0.011327292137274177,0.12301399859744451,-0.1374228113439356,0.02119090110292362,0.2033666612740789,-0.21520061396011914,0.006733835877463555,-0.20945390566166436,0.01751788567075292
209,6.801513400001568,0.012035337522527048,0.12914356746732852,-0.023478153783661804,0.011428149456113515,0.12397881502131156,-0.13844607920093185,0.021223465052364346,0.20235961226317364,-0.21510700282263,0.0069571750458860175,-0.21404203523327373,0.021860346614377635
210,6.805329199996777,0.012089928319123559,0.12973548303091478,-0.024139017917655565,0.011529164171106847,0.12493879016151602,-0.13946885274407053,0.02125707592747643,0.20133074956637162,-0.21499268407588754,0.007174013021728555,-0.21862678210631079,0.026225754235940958
211,6.809624899993651,0.012144999908658138,0.13033195247478463,-0.024804744935968393,0.01163034118777597,0.12589382031322507,-0.14049103323112727,0.021291702382878717,0.2002800916455365,-0.21485755032590798,0.007384169597244343,-0.22320713795345273,0.03061337030368979
212,6.816093999994337,0.01220055307450405,0.13093295203472216,-0.02547533178269342,0.011731685260532478,0.12684380187081623,-0.14151252141747428,0.021327312212224617,0.19920766180509142,-0.214701497725759,0.007587462454043643,-0.22778207387132582,0.03502244128201331
213,6.820710899992264,0.012256588622281723,0.13153845745404,-0.026150774928754717,0.011833200988559844,0.12778863135112223,-0.1425332175731224,0.021363872335968266,0.1981134882935591,-0.21452442604889,0.007783706356848986,-0.23235053934588715,0.03945219805321425
214,6.824584499991033,0.01231310737911065,0.1321484439842175,-0.02683107036963991,0.011934892811625695,0.1287282054172131,-0.14355302150011517,0.02140134878585369,0.19699760440757674,-0.21432623876401447,0.007972712889469618,-0.2369114624795791,0.04390185576380441
215,6.829129299992928,0.012370110192841163,0.13276288638565348,-0.027516213623216386,0.012036765005816363,0.1296624209026305,-0.14457183255028316,0.021439706690169626,0.19586004859127557,-0.21410684310990236,0.008154290861980707,-0.24146374995928924,0.048370613880635877
216,6.832744500003173,0.012427597931265768,0.13338175892853502,-0.028206199727632778,0.012138821679208902,0.13059117483611493,-0.14558954964334941,0.021478910262111676,0.19470086454060037,-0.21386615016972854,0.008328246826691598,-0.2460062870545062,0.0528576561485867
217,6.837476000000606,0.01248557148130975,0.13400503539382533,-0.028901023239307384,0.012241066767494946,0.1315143644668324,-0.14660607128539097,0.02151892278994488,0.19352010130270667,-0.21360407494626762,0.008494385388611149,-0.2505379383946927,0.05736215054759569
218,6.841350199989392,0.012544031748200879,0.13463268907437248,-0.029600678231005262,0.012343504029559154,0.13243188729004712,-0.14762129558765955,0.02155970662831892,0.19231781337288606,-0.2133205364366511,0.008652509501873316,-0.25505754774136363,0.061883249419054195
219,6.8455930999916745,0.012602979654617966,0.13526469277614153,-0.030305158290005654,0.012446137043020458,0.13334364107327001,-0.14863512028575415,0.02160122319125023,0.1910940607961313,-0.21301545770636,0.008802420677221054,-0.25956393721191545,0.0664200896808681
220,6.850213600002462,0.012662416139818155,0.13590101881957192,-0.031014456516361453,0.012548969199743762,0.13424952388289751,-0.14964744275914554,0.021643432945410736,0.18984890927144446,-0.2126887659619363,0.008943918899461686,-0.2640559075416217,0.07097179329560685
221,6.85386039999139,0.012722342158742786,0.136541639041063,-0.03172856552125234,0.012652003701317348,0.13514943411135222,-0.15065816005104044,0.021686295402324814,0.18858243025090984,-0.21234039262052284,0.00907680220007924,-0.26853223824469696,0.07553746790646557
222,6.86219099999289,0.01278275868110167,0.1371865247945896,-0.03244747742543319,0.012755243554490358,0.13604327050466405,-0.15166716888856743,0.021729769107592826,0.18729470104247023,-0.21197027337652555,0.009200865820640966,-0.27299168686942465,0.08011620748978426
223,6.8676559000014095,0.012843666690435558,0.13783564695344983,-0.033171183857779216,0.012858691566547696,0.1369309321905885,-0.1526743657032753,0.021773811625130635,0.18598580491608485,-0.21157834826494665,0.009315901213010638,-0.27743298890182416,0.08470709312354127
224,6.871497200001613,0.012905067183156418,0.13848897591214818,-0.03389967595392934,0.0129623503405976,0.13781231870719748,-0.15367964665192133,0.021818379516883424,0.18465583120742185,-0.2111645617207374,0.009421695291414092,-0.2818548573815704,0.08930919347391501
225,6.876552799993078,0.012966961167565084,0.13914648158841528,-0.03463294435502909,0.013066222270753589,0.13868733003198394,-0.1546829076375341,0.02186342831995105,0.18330487542766957,-0.21072886263750307,0.009518029989061797,-0.28625598222369375,0.09392156489712922
226,6.882118800000171,0.013029349662845705,0.13980813342536774,-0.03537097920657429,0.013170309537204453,0.1395558666114972,-0.15568404433076025,0.02190891252208458,0.18193303937368083,-0.21027120442588706,0.009604681881131926,-0.2906350303771725,0.09854325184379328
227,6.886683999997331,0.013092233698036497,0.1404739003938099,-0.03611377015735701,0.013274614101163136,0.1404178293914951,-0.15668295219148265,0.02195478553522556,0.1805404312362757,-0.2097915450684299,0.009681421898407974,-0.2949906462783775,0.10317328766697009
228,6.89117279999482,0.013155614310976152,0.14114375099468035,-0.036861306358514916,0.013379137699685033,0.14127311984760973,-0.1576795264906889,0.02200099966827874,0.17912716570607273,-0.2092898471702671,0.009748015333491249,-0.2993214517231315,0.10781069528543935
229,6.89528060000157,0.013219492547225304,0.1418176532616455,-0.037613576462685164,0.013483881840357897,0.14212164001650604,-0.15867366233257169,0.022047506100710445,0.17769336408300873,-0.20876607800767955,0.00980422211500855,-0.3036260459946438,0.11245448739292063
230,6.899599099997431,0.013283869458962424,0.14249557476384242,-0.038370568623264004,0.01358884779586901,0.14296329252758924,-0.1596652546768592,0.022094254857929478,0.17623915438095303,-0.20822020957680118,0.009849797111784027,-0.30790300763671286,0.11710366662005055
231,6.903664999990724,0.013348746103853611,0.14317748260877391,-0.03913227049377308,0.01369403659846092,0.14379798063515867,-0.16065419836137868,0.0221411947877787,0.17476467142036103,-0.2076522186406287,0.009884489901085628,-0.31215089558359416,0.1217572266725561
232,6.912138899991987,0.013414123543895758,0.14386334344535734,-0.039898669227333636,0.013799449034275001,0.14462560825099635,-0.16164038812483403,0.022188273533711562,0.17327005692214154,-0.20706208676690327,0.00990804367017346,-0.31636824925665497,0.12641415502357897
233,6.920461300003808,0.013480002844232536,0.14455312346712956,-0.04066975147624947,0.013905085637552063,0.14544607997741374,-0.1626237186297297,0.02223543750083549,0.17175545959939087,-0.20644980034951155,0.009920193917915009,-0.3205535901114688,0.13107343634624655
234,6.9243870999926,0.013546385071942394,0.14524678841561015,-0.04144550339169918,0.014010946684652918,0.14625930114071284,-0.16360408448535183,0.02228263181673853,0.17022103523654467,-0.20581535061371767,0.009920667930747072,-0.3247054236070424,0.1357340549433993
235,6.928718900002423,0.013613271294797676,0.14594430358382457,-0.04222591062353775,0.01411703218788638,0.1470651778249858,-0.16458138027074184,0.02232980029254821,0.16866694676238125,-0.20515873361445328,0.009909185381400185,-0.3288222398500737,0.1403949950399663
236,6.932830399993691,0.013680662579993908,0.1466456338199889,-0.04301095832020726,0.014223341889159444,0.14786361690627042,-0.1655555005576614,0.022376885389453104,0.1670933643230454,-0.2044799502387686,0.009885459584651642,-0.3329025149809976,0.14505523948709814
237,6.937905200000387,0.013748559992848523,0.14735074353135794,-0.04380063112875693,0.01432987525348684,0.14865452608704438,-0.1665263399335894,0.02242382819170608,0.16550046534186796,-0.20377900621644843,0.009849198489310478,-0.33694471369050755,0.1497137683215132
238,6.942413800003124,0.013816964595468407,0.1480595966882379,-0.044594913194972594,0.014436631462384424,0.14943781393094968,-0.16749379302478765,0.022470568382581376,0.16388843456845323,-0.20305591213616622,0.009800105010651955,-0.3409472909289545,0.15436955805930996
239,6.947460099996533,0.013885877445385783,0.14877215682816491,-0.045393788163616104,0.014543609407150049,0.15021338989775376,-0.16845775451945172,0.022517044220539868,0.16225746412223915,-0.20231068346281722,0.009737877219817673,-0.34490869416457237,0.159021582182202
240,6.953795199995511,0.013955299594161858,0.14948838706025028,-0.04619723917877503,0.014650807682030243,0.15098116437848835,-0.1694181191909415,0.022563192516987667,0.160607753520105,-0.20154334054904766,0.009662208999200209,-0.34882736747840837,0.1636688131079672
241,6.957758099990315,0.014025232085957694,0.1502082500696931,-0.04700524888432302,0.014758224577289524,0.15174104873067312,-0.17037478192104155,0.02260894861867525,0.1589395096809818,-0.20075390863384537,0.009572791451454933,-0.3527017569182997,0.16831022486868366
242,6.966629100003047,0.014095675956071942,0.15093170812246065,-0.047817799424490735,0.014865858072209666,0.1524929553134984,-0.1713276377231784,0.022654246398858192,0.15725294690253427,-0.19994241782859443,0.009469315148964754,-0.35653031575803196,0.17294479535667068
243,6.970587099989643,0.014166632229445125,0.15165872307013564,-0.048634872444547075,0.014973705828074935,0.15323679752282707,-0.17227658176554825,0.02269901826109262,0.15554828681574756,-0.19910890309430287,0.00935147255492649,-0.36031150794741545,0.17757150744792596
244,6.974560100003146,0.01423810191913064,0.1523892563549295,-0.04945644909159008,0.01508176518120746,0.15397248982594525,-0.1732215093941175,0.02274319515342469,0.15382575832879297,-0.19825340421697155,0.009218959759089861,-0.3640438093357442,0.18218934809896487
245,6.978463199993712,0.014310086024732804,0.1531232690148602,-0.050282510015446924,0.015190033136087426,0.1546999477960303,-0.1741623161555164,0.022786706588695926,0.15208559756997747,-0.19737596579341246,0.009071477519762328,-0.3677257077073753,0.18679730606435163
246,6.982845599995926,0.014382585530812418,0.15386072168909337,-0.051113035369682584,0.015298506358581598,0.1554190881463589,-0.1750988978199045,0.022829480668643976,0.150328047831271,-0.19647663722832784,0.008908732009730467,-0.37135570274859764,0.19139437033272644
247,6.987471200001892,0.014455601405260398,0.1546015746234455,-0.05194800481271732,0.015407181169292747,0.15612982876423784,-0.17603115040383663,0.022871444111302968,0.14855335951157106,-0.19555547273500462,0.008730435584310636,-0.37493230649645176,0.1959795296089536
248,6.991605299990624,0.014529134597640082,0.15534578767604784,-0.05278739750905286,0.015516053537048793,0.15683208874467242,-0.17695897019313495,0.022912522282409753,0.14676179005596107,-0.19461253133731915,0.008536307585616453,-0.3784540450840209,0.20055177241383074
249,6.995487199994386,0.014603186037498935,0.15609332032316978,-0.0536311921306074,0.01562511907255097,0.15752578842371953,-0.17788225376577385,0.022952639230454243,0.14495360388237416,-0.1936478768694833,0.008326075163069149,-0.38191946154564493,0.20511008794614607
250,6.999847999992198,0.014677756632650436,0.1568441316652,-0.054479366858159475,0.01573437302219635,0.15821084941145855,-0.17880089801474983,0.022991717725890138,0.143129072294169,-0.19266157796984942,0.008099474170311538,-0.3853271194271385,0.20965346784574893
251,7.008278299996164,0.014752847267427024,0.15759818043278356,-0.05533189938290051,0.015843810262098974,0.15888719462451276,-0.17971480017090727,0.02302967930471647,0.1412884733724542,-0.19165370806388674,0.007856250015936426,-0.3886756083032773,0.21418090891472152
252,7.01194559999567,0.014828458800905121,0.15835542499311228,-0.05618876690809577,0.01595342529232692,0.1595547483179961,-0.18062385782564647,0.023066444315780244,0.13943209183618333,-0.19062434533210312,0.0075961584799711865,-0.39196354964714347,0.2186914155747023
253,7.01643960000365,0.014904592065103256,0.1591158233563657,-0.05704994615085295,0.016063212231373348,0.16021343611670388,-0.1815279689534443,0.023101931972124155,0.13756021887865152,-0.18957357266964805,0.007318966522111558,-0.39518959882883603,0.22318400032521862
254,7.02030360000208,0.014981247863154497,0.15987933318229822,-0.0579154133439973,0.01617316481088198,0.16086318504550431,-0.182427031934178,0.023136060405976943,0.13567315200857932,-0.18850147764987496,0.007024453073930725,-0.3983524434082109,0.2276576824407815
255,7.024602999998024,0.015058426967454415,0.16064591178696905,-0.05878514423805254,0.016283276370641208,0.16150392355901763,-0.1833209455752992,0.023168746727636406,0.13377119490284836,-0.18740815249633697,0.0067124100005291395,-0.40145080148868934,0.2321114866382195
256,7.029089999996359,0.015136130117785892,0.1614155161496117,-0.05965911410332694,0.016393539853869644,0.1621355815706069,-0.1842096091338914,0.023199907089606703,0.13185465726324325,-0.18629369405902527,0.006382643213309703,-0.4044834214583437,0.2365444424391846
257,7.032922899990808,0.015214358019422242,0.16218810291963967,-0.06053729773210403,0.016503947802820287,0.1627580904806945,-0.18509292233861793,0.023229456756065792,0.12992385467165005,-0.18515820379242853,0.006034973717984988,-0.4074490824101674,0.24095558411555565
258,7.03707389999181,0.015293111341210216,0.16296362842378528,-0.06141966944093741,0.016614492354726833,0.16337138320437566,-0.18597078541157078,0.02325731017697111,0.12797910844280064,-0.1840017877322906,0.005669238560003894,-0.41034659514343313,0.24534395099376027
259,7.041040500000236,0.015372390713634557,0.16374204867336803,-0.06230620307304931,0.01672516523811271,0.16397539419833423,-0.1868430990899975,0.023283381066519664,0.12602074546994654,-0.1828245564707752,0.005285291713683944,-0.4131748041283283,0.24970858742439517
260,7.045198699997854,0.015452196726865899,0.16452331937168937,-0.06319687200083207,0.016835957769483684,0.1645700594869883,-0.1877097646479137,0.02330758248571089,0.12404909805891619,-0.1816266251335127,0.00488300491485774,-0.4159325889901484,0.2540485428711999
261,7.0494331999943824,0.015532529928793865,0.16530739592154986,-0.06409164912845225,0.01694686085042221,0.16515531668782762,-0.18857068391761175,0.023329826928726666,0.12206450375967147,-0.18040811335391846,0.004462268408501404,-0.41861886535050846,0.25836287250499346
262,7.053802399997949,0.015613390823047326,0.16609423343288487,-0.0649905068945567,0.017057864965101657,0.165731105035957,-0.18942575931102895,0.023350026412605432,0.12006730519236364,-0.17916914524459024,0.004022991488863788,-0.4212325861139958,0.2626506375441974
263,7.060069600003772,0.01569477986700386,0.1668837867305152,-0.0658934172750799,0.017168960178233626,0.16629736540777923,-0.19027489384098414,0.023368092568759748,0.11805784986665156,-0.1779098493683876,0.003565102753826408,-0.4237727424378926,0.2669109055613021
264,7.064202199995634,0.01577669746979048,0.1676760103620081,-0.06680035178615208,0.017280136133452657,0.16685404034381984,-0.19111799114227082,0.023383936735069822,0.11603648999853386,-0.17663035870691424,0.003088550221558422,-0.42623836444146873,0.2711427507982599
265,7.068310799993924,0.01585914399027773,0.1684708586056449,-0.06771128148710716,0.017391382052139515,0.16740107407066784,-0.19195495549259398,0.023397470048510675,0.11400358232292056,-0.17533081062859748,0.0025933013728908654,-0.4286285225266762,0.2753452545600692
266,7.072371100002783,0.015942119735069225,0.16926828547849077,-0.06862617698358998,0.017502686732686953,0.1679384125220177,-0.19278569183335956,0.023408603537648707,0.11195948789790312,-0.17401134685342695,0.0020793432099115053,-0.43094232857459747,0.279517506116103
267,7.076012699995772,0.01602562495648876,0.17006824474456253,-0.06954500843076206,0.01761403855020279,0.16846600335874826,-0.19361010579027593,0.023417248215826206,0.10990457190594582,-0.1726721134124609,0.001546682558184543,-0.43317893597582485,0.283658603284547
268,7.080130299989833,0.016109659850567018,0.17087068992308937,-0.07046774553660472,0.01772542545666203,0.16898379598807384,-0.19442810369375818,0.02342331517653255,0.1078392034578668,-0.17131326060700572,0.0009953464013739935,-0.43533754008050335,0.2877676526412963
269,7.084359999993467,0.016194224555030143,0.1716755742968628,-0.07139435756531894,0.01783683498151708,0.16949174158175861,-0.19523959259914128,0.02342671568977156,0.1057637553897487,-0.16993494296613548,0.0004253822441271273,-0.43741737887816395,0.29184376987183774
270,7.088382999994792,0.016279319147292245,0.17248285092067064,-0.07232481334082078,0.01794825423276648,0.16998979309333592,-0.19604448030668034,0.023427361300884363,0.10367860406045344,-0.16853731920252435,-0.00016314130319671302,-0.4394177328363547,0.295886080031113
271,7.092571999994107,0.016364943642454124,0.17329247262981073,-0.07325908125033141,0.018059669898505125,0.17047790527439674,-0.19684267538134367,0.023425163932478527,0.10158412915006766,-0.1671205521674943,-0.0007701339885383176,-0.4413379252546671,0.29989371783586416
272,7.096258899997338,0.016451097991310542,0.1741043920486799,-0.07419712924806086,0.0181710682489625,0.17095603468989182,-0.19763408717238545,0.023420035988349096,0.09948071345405007,-0.16568480880406694,-0.0013954834504882555,-0.44317732226351025,0.30386582796805156
273,7.10043809999479,0.016537782078368323,0.17491856159943317,-0.07513892485898419,0.01828243513904136,0.17142413973246215,-0.19841862583269224,0.023411890459855898,0.09736874268168866,-0.16423026009912514,-0.0020390548268712566,-0.44493533276061037,0.30780156562245164
274,7.1038543000031495,0.016624995719877772,0.1757349335107091,-0.07608443518270921,0.01839375601136783,0.17188218063582408,-0.19919620233790059,0.02340064103356762,0.09524860525085194,-0.16275708103125625,-0.0027006905979022407,-0.44661140909052577,0.3117000972837383
275,7.108166999998502,0.016712738661879792,0.17655345982641626,-0.0770336268974346,0.018505015899853944,0.17233011948714752,-0.1999667285052475,0.02338620219913098,0.09312069207998283,-0.16126545051552232,-0.003380210465122918,-0.4482050465899985,0.3155606011618186
276,7.112097799996263,0.016801010578271183,0.1773740924145763,-0.07798646626399688,0.018616199433773763,0.17276792023846252,-0.20073011701216267,0.02336848935806632,0.09098539638717443,-0.15975555134716257,-0.004077411193984786,-0.44971578268510115,0.3193822677701084
277,7.116020999994362,0.016889811068890533,0.17819678297621896,-0.07894291913000531,0.018727290842360772,0.17319554871712636,-0.2014862814145835,0.02334741893313408,0.08884311349075154,-0.15822757014086317,-0.0047920669166035676,-0.4511431974096871,0.3231643003280255
278,7.120349299992085,0.01697913965762725,0.17902148305432466,-0.07990295093406316,0.018838273959924247,0.17361297263533335,-0.20223513616496963,0.023322908474250684,0.0866942406034151,-0.15668169727063125,-0.0055239301875524725,-0.45248691417726156,0.32690591420020465
279,7.124934599996777,0.017068995790556107,0.17984814404281002,-0.08086652671007392,0.0189491322314541,0.1740201615986238,-0.20297659663004608,0.023294876757812586,0.08453917662548191,-0.15511812681439882,-0.0062727336048611785,-0.45374659939382256,0.330606335831036
280,7.130349099999876,0.017159378834099598,0.1806767171955513,-0.08183361109163136,0.01905984871868199,0.1744170871134272,-0.2037105791082909,0.023263243877193626,0.08237832194271157,-0.15353705650403113,-0.007038191487426243,-0.454921963041055,0.3342648019356661
281,7.134550000002491,0.017250288073220134,0.1815071536354418,-0.08280416831649202,0.019170406106546956,0.17480372259364826,-0.20443700084720276,0.023227931326113994,0.08021207821399902,-0.15193868767762553,-0.007820000443018118,-0.4560127622218106,0.33788056054953036
282,7.141015599991079,0.017341722709643886,0.18233940436347776,-0.08377816223112959,0.019280786710049513,0.17518004336619053,-0.20515578006033489,0.023188862083734853,0.07804084813547785,-0.150323225219537,-0.008617838364451508,-0.45701880589959226,0.34145287475573904
283,7.145752700002049,0.017433681860118188,0.18317342026786845,-0.08475555629536939,0.01939097248152668,0.1755460266752987,-0.2058668359439922,0.02314596070757547,0.07586503518313206,-0.14869087747722312,-0.009431362982453817,-0.4579399589348954,0.34498102677969467
284,7.149990499994601,0.017526164554704574,0.1840091521331634,-0.08573631358710153,0.019500945018389875,0.1759016516856341,-0.2065700886934743,0.023099153432372573,0.07368504333850677,-0.1470418561623226,-0.010260211571422243,-0.4587761425665424,0.34846431903616737
285,7.153872800001409,0.017619169735109783,0.18484655064939157,-0.08672039680706996,0.01961068557134028,0.17624689948400793,-0.20726545951883169,0.023048368265796235,0.07150127682674165,-0.14537637625754077,-0.011104002275491217,-0.4595273282493456,0.3519020715670275
286,7.158174600001075,0.017712696253056933,0.18568556642120518,-0.08770776828373544,0.019720175053017153,0.17658175307996504,-0.2079528706602231,0.02299353507469604,0.06931413990089615,-0.14369465594209976,-0.011962335922957649,-0.46019353033704197,0.3552936191851002
287,7.162558299998636,0.017806742868698794,0.18652614997702444,-0.08869838997821072,0.019829394047033537,0.17690619740546573,-0.2086322454029626,0.02293458566355862,0.06712403664958096,-0.14199691652579088,-0.012834797171348892,-0.4607748042406781,0.3586383109428378
288,7.166057399997953,0.017901308249074904,0.18736825177817834,-0.08969222348926659,0.019938322817370853,0.17722021931363974,-0.2093035080922496,0.02287145384986224,0.06493137079880018,-0.14028338237947863,-0.01372095455155911,-0.4612712482656192,0.36193551139163843
289,7.174316099990392,0.0179963909666142,0.1882118222280375,-0.09068923005840715,0.020046941318131353,0.17752380757658323,-0.20996658414755495,0.022804075542114513,0.06273654550210966,-0.13855428085717475,-0.014620359786677235,-0.4616830074871374,0.3651846033864592
290,7.17908339999849,0.018091989497684896,0.18905681168113406,-0.09168937057501277,0.02015522920367499,0.17781695288211685,-0.21062140007660984,0.02273238882168612,0.06053996310559556,-0.13680984219986556,-0.015532547392748848,-0.46201027787540194,0.3683849914220862
291,7.18378429999575,0.018188102221193537,0.1899031704522636,-0.09269260558154836,0.020263165839150252,0.17809964782934723,-0.211267883488877,0.022656334024645987,0.05834202489879686,-0.13505029942585223,-0.016457035263540715,-0.46225330513277674,0.3715361017975541
292,7.188836799992714,0.018284727417235042,0.1907508488255629,-0.09369889527883449,0.020370730311409426,0.17837188692305586,-0.2119059631084966,0.02257585381803285,0.05614313089074327,-0.1332758882330142,-0.01739332621043741,-0.46241237889256925,0.37463737885838055
293,7.192864999989979,0.01838186326579558,0.19159979706355848,-0.09470819953137878,0.020477901440264908,0.17863366656713037,-0.21253556878682778,0.022490893267043358,0.053943679616057706,-0.13148684692489238,-0.018340909631373713,-0.46248782736137545,0.3776882808016092
294,7.197113699992769,0.018479507845509675,0.19244996541618184,-0.09572047787276632,0.02058465779004354,0.17888498505710906,-0.21315663151469147,0.02240139989542919,0.051744067961954805,-0.12968341635285383,-0.01929926243459524,-0.4624800132563606,0.38068827758111323
295,7.201175299996976,0.018577659132472998,0.1933013041297471,-0.09673568951110752,0.020690977681417408,0.17912584257196668,-0.21376908343436188,0.02230732374389859,0.04954469101298693,-0.1278658398620992,-0.020267849243898014,-0.46238933200015403,0.3836368508897984
296,7.205814699991606,0.018676314999111994,0.19415376345588814,-0.09775379333454257,0.020796839203513672,0.17935624116518217,-0.21437285785129567,0.022208617428561284,0.04734594189521237,-0.12603436323399675,-0.021246122700922195,-0.4622162119776242,0.38653349395159226
297,7.210211600002367,0.018775473213111852,0.19500729366045122,-0.09877474791680088,0.02090222022630128,0.17957618475504225,-0.21496788924557497,0.02210523619645469,0.04514821161849896,-0.12418923463406821,-0.02223352414678409,-0.46196111353668917,0.38937771068333543
298,7.214250199991511,0.01887513143640397,0.19586184503233992,-0.09979851152281437,0.021007098413228946,0.1797856791142092,-0.2155541132831418,0.021997137977505337,0.04295188893019631,-0.12233070456229474,-0.023229484105759257,-0.4616245278584372,0.39216901658014075
299,7.218526700002258,0.018975287224214113,0.19671736789230856,-0.10082504211438376,0.021111451234106113,0.17998473185863256,-0.21613146682676843,0.02188428343545439,0.040757360168186554,-0.12045902579268151,-0.024233422337624766,-0.46120698005470584,0.39490694094079404
300,7.224489599990193,0.019075938024172418,0.19757381260170165,-0.1018542973558962,0.02121525597822532,0.18017335243571925,-0.2166998879467169,0.02176663601932121,0.038565009085093215,-0.1185744533023962,-0.025244747692476036,-0.46070903461807766,0.39759103007700947
301,7.228515700000571,0.01917708117548636,0.19843112957113476,-0.102886234620093,0.02131848976773266,0.1803515521115731,-0.21725931593103545,0.02164416201570983,0.03637521664949302,-0.11667724418080798,-0.026262858191639926,-0.46013129993802027,0.40022085184736766
302,7.236481599989929,0.019278713908177925,0.1992892692691126,-0.10392081099388514,0.0214211295712477,0.18051934395727426,-0.2178096912953528,0.02151683059950289,0.03418836082716841,-0.11476765751550036,-0.027287141668389674,-0.45947443187981063,0.40279599913837694
303,7.24091039999621,0.019380833342386137,0.20014818223057948,-0.1049579832842142,0.021523152217716095,0.18067674283403795,-0.2183509557920903,0.02138461388007378,0.03200481634827761,-0.1128459542681993,-0.02831697684847215,-0.45873913268871064,0.40531608981476785
304,7.24512720000348,0.01948343648773599,0.20100781906539605,-0.10599770802395546,0.021624534410469083,0.1808237653772793,-0.21888305241907619,0.021247486941702916,0.029824954499030283,-0.11091239716125877,-0.029351734664707786,-0.4579261451199891,0.40778076317524137
305,7.249435199992149,0.019586520242774706,0.20186813046673832,-0.10703994147786078,0.021725252741460536,0.1809604299797906,-0.21940592542767795,0.021105427877285733,0.027649142944691316,-0.10896725058730089,-0.030390779635518048,-0.4570362451169475,0.41018967537097867
306,7.2535780999896815,0.019690081394476082,0.2027290672194144,-0.10808463964853908,0.021825283705647052,0.18108675677412253,-0.21991952033055712,0.020958417815636763,0.02547774559090119,-0.10701078053927944,-0.031433471106627385,-0.4560702345558201,0.4125424955815971
307,7.2577172000019345,0.01979411661781353,0.20359058020809578,-0.10913175828247294,0.02192460371548474,0.18120276761444246,-0.2204237839091364,0.020806440943386906,0.023311122475688326,-0.10504325455649326,-0.03247916440019348,-0.45502893824237445,0.41483890384037264
308,7.262729199996102,0.019898622475402316,0.20445262042546172,-0.11018125287607014,0.022023189115517573,0.18130848605788835,-0.22091866422084094,0.020649484521357266,0.021149629659357048,-0.10306494167533568,-0.03352721185518236,-0.4539132031090621,0.4170785908744
309,7.267105299994,0.020003595417211358,0.20531513898025305,-0.1112330786817491,0.022121016197029934,0.1814039373453798,-0.2214041106060971,0.02048753889656065,0.018993619124136406,-0.10107611237682833,-0.03457696378652582,-0.4527238962479295,0.4192612586647828
310,7.271223199990345,0.020109031780344837,0.206178087105234,-0.11228719071405702,0.022218061212749118,0.18148914838201743,-0.2218800736950746,0.02032059750945216,0.016843438682778565,-0.09907703853204212,-0.03562776962612061,-0.4514619044872583,0.42138662088441114
311,7.276635499991244,0.02021492778889384,0.20704141616505967,-0.11334354375581944,0.02231430039156683,0.18156414771702453,-0.22234650541416606,0.02014865689507779,0.014699431882234527,-0.09706799334546706,-0.03667897898356592,-0.45012813439493865,0.42345440346428065
312,7.28064810000069,0.020321279553858,0.207905077664047,-0.11440209236432002,0.022409709953252633,0.18162896552323024,-0.2228033589921907,0.01997171668023557,0.01256193791222043,-0.09504925129504657,-0.037729942306782956,-0.4487235107960984,0.425464345396648
313,7.284543300003861,0.020428083073137086,0.20876902325384716,-0.11546279087750909,0.022504266123148434,0.18168363357614145,-0.22325058896630337,0.01978977957834053,0.01043129152299319,-0.09302108806790785,-0.03878001138218536,-0.4472489760282338,0.4274161993329535
314,7.288838299995405,0.02053533423159242,0.20963320474101738,-0.11652559342023965,0.02259794514683309,0.18172818523264397,-0.22368815118758692,0.019602851381828337,0.0083078229410018,-0.09098378049470895,-0.03982853990337632,-0.4457054903590488,0.42930973180838417
315,7.292883200003416,0.02064302880117795,0.21049757409449074,-0.11759045391052911,0.022690723304744632,0.18176265540927208,-0.22411600282633684,0.019410940951610983,0.006191857782688606,-0.08893760648323316,-0.04087488405925063,-0.444094031732744,0.43114472437358964
316,7.297160100002657,0.020751162441140742,0.2113620834529414,-0.11865732606584554,0.02278257692674459,0.1817870805600898,-0.22453410237702193,0.01921406020388653,0.004083716972553826,-0.08688284494197147,-0.041918403292398355,-0.4424155968026475,0.43292097652875816
317,7.303636500000721,0.020859730698290592,0.21222668513204399,-0.11972616340941665,0.02287348240661475,0.18180149865418108,-0.2249424096628421,0.01901222409238107,0.0019837166471347125,-0.08481977568580878,-0.04295846150449365,-0.44067120369992685,0.43463830976822937
318,7.309817300003488,0.02096872900733841,0.21309133163162458,-0.1207969192765593,0.022963416216452558,0.18180594915261777,-0.22534088583979195,0.018805450583693126,-0.00010783195326517836,-0.08274867932113512,-0.04399442821708145,-0.43886189351872135,0.4362965711002123
319,7.314373999994132,0.021078152691302754,0.21395597564270116,-0.12186954682102721,0.023052354920933375,0.18180047298492,-0.2257294934001258,0.018593760628494514,-0.0021906225947230288,-0.08066983711805319,-0.045025679116115505,-0.4369887299007605,0.4378956333189026
320,7.318261199994595,0.02118799696198387,0.21482057005441071,-0.12294399902137342,0.023140275191431945,0.18178511252497637,-0.2261081961752057,0.018377178131695246,-0.004264354154016477,-0.07858353089290125,-0.046051596197144745,-0.43505279583960976,0.43943539119822617
321,7.3223760999972,0.021298256920504556,0.21568506796082051,-0.12402022868732501,0.023227153820000863,0.1817599115665121,-0.22647695933784906,0.018155729922263403,-0.006328730698373491,-0.07649004291666484,-0.04707156769256749,-0.4330551890338377,0.44091575673579836
322,7.326217599998927,0.021408927557917144,0.21654942266762198,-0.12509818846616802,0.02331296773320498,0.18172491529825077,-0.22683574940430554,0.017929445724081994,-0.008383461545592628,-0.07438965584273782,-0.04808498783391117,-0.4309970195039297,0.44233665684591855
323,7.33063559999573,0.021520003755875965,0.21741358769870567,-0.1261778308491409,0.023397694005822672,0.18168017027881045,-0.2271845342359175,0.017698358128029952,-0.010428261321125615,-0.07228265263727775,-0.0490912567630596,-0.4288794084308094,0.4436980329098226
324,7.33449369999289,0.02163148028737466,0.21827751680261637,-0.12725910817783515,0.023481309874414685,0.18162572441132255,-0.22752328304043448,0.017462502563683376,-0.012462850007149931,-0.0701693165112448,-0.05008978035474086,-0.4267034868633652,0.4449998397409142
325,7.338364099996397,0.021743351817547694,0.21914116395888666,-0.12834197265060143,0.02356379275075623,0.18156162691786126,-0.22785196637302724,0.017221917273084978,-0.014486952987357717,-0.06804993086059959,-0.05107996972908618,-0.42447039636637346,0.4462420455525425
326,7.34225279999373,0.021855612904535436,0.2200044833842488,-0.12942637632895979,0.023645120235156337,0.1814879283136363,-0.22817055613703335,0.01697664328708174,-0.016500301102191237,-0.06592477919864857,-0.05206124117060301,-0.42218128905025676,0.4474246329127128
327,7.345873700003722,0.021968258000412366,0.2208674295387228,-0.13051227114401276,0.023725270129664872,0.181404680380897,-0.2284790255843278,0.016726724399865063,-0.018502630693914834,-0.06379414508716091,-0.05303301640236191,-0.41983732544293567,0.4485475974997845
328,7.349776599992765,0.022081281452177772,0.22172995713158006,-0.13159960890285924,0.023804220451149726,0.18131193614269628,-0.22877734931541338,0.01647220714270043,-0.020493683641608012,-0.06165831208054941,-0.05399472266687097,-0.41743967368666984,0.44961094731218776
329,7.353661499990267,0.022194677502808347,0.222592021127182,-0.13268834129500842,0.023881949444253963,0.181209749836462,-0.22906550327926026,0.016213140757698304,-0.02247320739859795,-0.05951756366450423,-0.05494579292751609,-0.41498950933957135,0.45061470347557564
330,7.35828099999344,0.02230844029237213,0.2234535767506922,-0.1337784198987921,0.023958435594223514,0.1810981768874048,-0.22934346477281276,0.01594957716962774,-0.024440955025564624,-0.05737218319249651,-0.05588566612664506,-0.4124880144098532,0.45155889992008696
331,7.362150200002361,0.02242256385920311,0.22431457949366213,-0.13486979618777398,0.02403365763959623,0.18097727388177456,-0.22961121244022498,0.01568157095723245,-0.026396685218787363,-0.055222453827481845,-0.056813787334507114,-0.4099363762943613,0.4524435831876844
332,7.366337500003283,0.02253704214113588,0.22517498511948897,-0.13596242153715463,0.02410759458475674,0.1808470985399997,-0.229868726271813,0.01540917932362775,-0.028340162333153555,-0.05306865848023641,-0.05772960816068735,-0.4073357874849853,0.4532688131389869
333,7.370738400000846,0.022651868976799643,0.22603474966874576,-0.13705624723017087,0.024180225712343923,0.18070770968972458,-0.23011598760270408,0.015132462063703172,-0.030271156407612656,-0.0509110797443373,-0.058632587528350204,-0.40468744485876357,0.4540346632465498
334,7.374470900002052,0.02276703810697088,0.2268938294643828,-0.13815122446448794,0.02425153059549572,0.1805591672387068,-0.23035297911117025,0.014851481527154996,-0.03218944318143257,-0.04874999983170901,-0.05952219264953766,-0.4019925479055993,0.4547412202393021
335,7.379044699991937,0.02288254317598384,0.2277521811168,-0.1392473043585829,0.02432148910990497,0.18040153214770002,-0.23057968481666458,0.014566302576612088,-0.034094804102796146,-0.0465857005109858,-0.06039790002106255,-0.3992522980527262,0.4553885843590215
336,7.383917200000724,0.022998377733197874,0.2286097615287904,-0.1403444379581182,0.024390081445665925,0.1802348664032694,-0.2307960900775685,0.014276992541195757,-0.03598702633863207,-0.04441846304061868,-0.06125919638028895,-0.3964678981775412,0.45597687026595357
337,7.387784999998985,0.023114535234520603,0.22946652790035382,-0.14144257624230372,0.024457288118888375,0.180059232990581,-0.23100218158859165,0.013983621165554462,-0.03786590277857755,-0.042248568098623714,-0.06210557943443133,-0.39364055222013355,0.45650620735909136
338,7.3920581999991555,0.02323100904398572,0.23032243773338168,-0.14254167013024543,0.02452308998305938,0.17987469586617938,-0.23119794737785118,0.013686260556486767,-0.039731232041123665,-0.040076295712642616,-0.06293655840908029,-0.3907714645408855,0.4569767404544747
339,7.395642000003136,0.02334779243538424,0.23117744883621172,-0.1436416704872798,0.02458746824014968,0.1796813199307187,-0.23138337680360624,0.013384985126758607,-0.04158281847146774,-0.03790192518323927,-0.06375165482654924,-0.3878618380822293,0.4573886305917188
340,7.399802300002193,0.023464878593947934,0.23203151932805333,-0.14474252813129138,0.024650404451441052,0.17947917100176075,-0.23155846055060766,0.013079871534322824,-0.04342047213017381,-0.03572573500628879,-0.06455040349720326,-0.3849128739152252,0.45774205529109685
341,7.40412269999797,0.023582260618083557,0.23288460764328364,-0.1458441938390124,0.024711880548054586,0.17926831578661376,-0.23172319062609434,0.012770998616707167,-0.04524400878671215,-0.03354800279382878,-0.0653323536525211,-0.3819257711107138,0.45803720936068926
342,7.407825000002049,0.023699931521156445,0.23373667253561448,-0.14694661835230238,0.024771878841153946,0.179048821855192,-0.23187756035539,0.012458447319456438,-0.047053249906894176,-0.03136900518877099,-0.06609707004579275,-0.37890172535388145,0.458274305832679
343,7.412216199998511,0.023817884233321783,0.23458767308213027,-0.1480497523844058,0.024830382031793014,0.17882075761297409,-0.23202156437708837,0.012142300620050953,-0.048848022633234095,-0.029189017776846755,-0.06684413379070925,-0.3758419289095984,0.4584535767358304
344,7.415972399991006,0.023936111603401866,0.2354375686871978,-0.14915354662618585,0.024887373220395487,0.17858419227404937,-0.2321551986378124,0.011822643448372234,-0.05062815977205411,-0.027008314993971067,-0.06757314313541289,-0.37274757130224856,0.45857527364248557
345,7.420581300000776,0.024054606400807543,0.2362863190862478,-0.15025795175233236,0.02494283591584601,0.17833919583419888,-0.23227846038651823,0.01149956260325891,-0.05239349978031241,-0.02482717003298512,-0.06828371403886511,-0.369619839122147,0.4586396674139318
346,7.424612100003287,0.024173361317501942,0.23713388434942856,-0.15136291842754135,0.02499675404417607,0.17808583904406702,-0.23239134816836748,0.011173146667490147,-0.0541438867508671,-0.022645854753442374,-0.0689754803766969,-0.3664599153457105,0.45864704819978924
347,7.428705700003775,0.02429236897000454,0.23798022488513235,-0.15246839731266457,0.025049111956846472,0.17782419338238267,-0.2324938618181731,0.010843485922383558,-0.055879170392837824,-0.020464639588356925,-0.06964809402177821,-0.363268978272461,0.4585977255309657
348,7.432916799996747,0.024411621901433665,0.2388253014433944,-0.15357433907082682,0.025099894438620925,0.17755433102931767,-0.23258600245338462,0.010510672262012279,-0.05759920600675873,-0.01828379345310541,-0.07030122481979019,-0.36004820155937944,0.45849202748551376
349,7.436800900002709,0.024531112583585455,0.23966907511916585,-0.15468069437350876,0.025149086715032562,0.17727632483994427,-0.2326677724666675,0.01017479910803522,-0.059303854465266884,-0.016103583660109527,-0.07093456024689349,-0.35679875441111153,0.4583303001075884
350,7.441199699998833,0.024650833419047384,0.24051150735546029,-0.1557874139065936,0.025196674459447406,0.1769902483177773,-0.23273917551807694,0.009835961327170318,-0.0609929821900644,-0.013924275833264659,-0.07154780481288502,-0.35352180077436296,0.4581129069518722
351,7.445096499999636,0.024770776743344405,0.241352559946375,-0.15689444837637545,0.025242643799745935,0.17669617558845074,-0.23280021652682323,0.009494255151701806,-0.06266646112494417,-0.011746133826955702,-0.07214067959741761,-0.35021849901791796,0.4578402279276186
352,7.449433399990085,0.02489093482711603,0.24219219503998715,-0.15800174851552778,0.025286981324630423,0.1763941813735165,-0.23285090166267527,0.009149778101364817,-0.06432416870970842,-0.009569419651480851,-0.0727129217101401,-0.3468900022200977,0.45751265832860877
353,7.45376540000143,0.02501129987832246,0.24303037514112585,-0.15910926508902995,0.025329674089563495,0.17608434096436903,-0.23289123833701664,0.008802628908987663,-0.06596598785592862,-0.00739439340129422,-0.07326428354042316,-0.343537457750309,0.4571306084769748
354,7.457711199996993,0.025131864044478168,0.24386706311402026,-0.16021694890005053,0.025370709622368197,0.17576673019627465,-0.23292123519356644,0.008452907449512848,-0.06759180691688392,-0.005221313183817487,-0.07379453221316525,-0.3401620066560934,0.45669450314583526
355,7.462099999989732,0.02525261941491128,0.24470222218482465,-0.16132475079578568,0.025410075928491413,0.17544142542258212,-0.23294090209875837,0.00810071467081558,-0.06920151965749077,-0.0030504350531742573,-0.07430344907305243,-0.3367647838582417,0.45620478071809883
356,7.4660309000028064,0.025373558023047218,0.2455358159440212,-0.1624326216732509,0.025447761495945905,0.17510850348903803,-0.2329502501318312,0.007746152527630368,-0.07079502522609725,-0.0008820129470029456,-0.07479082913181415,-0.33334691760011537,0.4556618926719895
357,7.470329499992658,0.02549467184871511,0.2463678083487008,-0.16354051248502516,0.025483755299945256,0.17476804170826563,-0.23294929157460686,0.007389323917627093,-0.07237222811917479,0.0012837013749153125,-0.07525648076193878,-0.3299095287705808,0.45506630329052355
358,7.474610999997822,0.025615952820475497,0.24719816372472303,-0.16464837424494544,0.02551804680723788,0.174420117834416,-0.23293803990099715,0.0070303326182508995,-0.07393303814667242,0.0034464583910803967,-0.07570022595901021,-0.3264537304554942,0.4544184900471354
359,7.478744399995776,0.025737392817967983,0.24802684676875583,-0.16575615803375102,0.0255506259801412,0.1740648100379765,-0.23291650976620704,0.006669283220302994,-0.07547737039244233,0.005606010883313264,-0.07612190180498489,-0.32298062719221843,0.4537189454454515
360,7.489524499993422,0.025858983674277306,0.24885382255019597,-0.16686381500467534,0.025581483280243907,0.17370219688079835,-0.23288471699562283,0.006306281050862229,-0.07700514517250329,0.007762114014679133,-0.07652136332230282,-0.3194913159703468,0.4529681818575565
361,7.494871399991098,0.0259807171783162,0.24967905651297115,-0.16797129638898461,0.025610609671706974,0.17333235729130206,-0.2328426785732742,0.00594143207971834,-0.07851628800498482,0.009914525440547864,-0.07689848666327474,-0.3159868878456866,0.4521667380385188
362,7.499566600003163,0.02610258507722287,0.25050251447722455,-0.16907855350145992,0.02563799662407594,0.17295537053979085,-0.23279041262966604,0.005574842811956922,-0.0800107295837424,0.012063005448481599,-0.07725317057769178,-0.3124684271984641,0.4513151817061232
363,7.504468300001463,0.02622457907877061,0.2513241626408822,-0.17018553774582007,0.025663636114560226,0.1725713162139071,-0.23272793842890988,0.005206620180433145,-0.08148840574124591,0.014207317093832886,-0.07758533530779382,-0.3089370101193311,0.4504141056705045
364,7.511560200000531,0.026346690853786943,0.2521439675811041,-0.17129220062008133,0.025687520629822644,0.17218027419429874,-0.23265527635526592,0.004836871448867502,-0.08294925740684289,0.01634722630281841,-0.07789492052423808,-0.30539370344085853,0.4494641221918046
365,7.516297499998473,0.026468912038580265,0.25296189625562,-0.17239849372185223,0.025709643167336996,0.17178232463047272,-0.23257244789929415,0.004465704123952051,-0.08439323056043486,0.018482501954448623,-0.0781818841851368,-0.30183956332112766,0.4484658610759731
366,7.520812100003241,0.026591234237371912,0.253777916003951,-0.17350436875356162,0.025729997236341555,0.171377547916902,-0.23247947564361704,0.0040932258692986945,-0.08582027617726808,0.02061291596548924,-0.07844620237495763,-0.29827563456573186,0.4474199698655865
367,7.526938199996948,0.026713649024731854,0.25459199454851805,-0.17460977752761803,0.025748576858378166,0.17096602466940408,-0.23237638324826246,0.0037195444190777647,-0.08723035017516086,0.02273824337420589,-0.07868786934467432,-0.29470295072318897,0.44632711429572824
368,7.532154200001969,0.026836147948015903,0.25540409999563873,-0.17571467197149826,0.025765376567424277,0.1705478357017501,-0.2322631954356299,0.0033447674915843928,-0.08862341336020191,0.024858262429661812,-0.07890689782997659,-0.2911225341502865,0.4451879800674955
369,7.540773100001388,0.026958722529802654,0.2562142008364134,-0.17681900413276383,0.025780391409609908,0.1701230620025598,-0.232139937974984,0.0029690026998503705,-0.08999943137459922,0.026972754692331652,-0.07910331964447226,-0.2875353972051621,0.44400327345696416
370,7.545897299991338,0.027081364270328007,0.2570222659475021,-0.17792272618400204,0.025793616942499445,0.1696917847124066,-0.23200663766646373,0.0025923574595681344,-0.0913583746537266,0.029081505129191464,-0.07927718538134139,-0.283942542247604,0.4427737198024437
371,7.550584999989951,0.027204064649915274,0.2578282645917931,-0.1790257904276903,0.025805049233932804,0.16925408510112117,-0.23186332232467147,0.0022149389025404153,-0.0927002183739755,0.031184302199943677,-0.07942856195742787,-0.2803449602204913,0.44150006024706195
372,7.555717299997923,0.02732681513139868,0.25863216641896375,-0.1801281493009811,0.025814684860483984,0.1688100445453926,-0.231710020761862,0.0018368538079641793,-0.09402494239630853,0.03328093792112342,-0.07955752889246677,-0.2767436299386717,0.4401830453506332
373,7.560273099996266,0.02744960716253881,0.259433941465936,-0.18122975538040645,0.02582252090564862,0.16835974450660887,-0.2315467627709219,0.0014582085512712909,-0.09533253120734725,0.035371207891561236,-0.07966417563639562,-0.2731395173161816,0.43882342883528597
374,7.564138599991566,0.02757243217842886,0.26023356015722665,-0.182330561386501,0.025828554957815924,0.1679032665090182,-0.23137357910831627,0.0010791090608343681,-0.09662297385557529,0.03745491129699949,-0.0797486006738567,-0.26953357568836045,0.4374219652284527
375,7.567972299992107,0.027695281603890804,0.26103099330519486,-0.1834305201883442,0.02583278510804443,0.16744069211817653,-0.23119050147702422,0.0006996607753251852,-0.09789626389548997,0.03953185091313579,-0.07981091159690433,-0.26592674613459133,0.43597940908885596
376,7.575571599998511,0.027818146855860492,0.2618262121101876,-0.18452958480802106,0.02583520994762835,0.16697210291964001,-0.23099756250945672,0.00031996859972895504,-0.09915239932687521,0.041601833102877184,-0.07985122533486161,-0.2623199568328273,0.4344965151062174
377,7.579323899990413,0.027941019345760657,0.26261918816058444,-0.185627708425002,0.02583582856545492,0.1664975804979901,-0.2307947957504181,-5.9863139483605485e-05,-0.1003913825328136,0.04366466782033201,-0.07986966816248854,-0.2587141235105589,0.4329740398078828
378,7.582906099996762,0.028063890481860882,0.2634098934327435,-0.18672484438044146,0.025834640545144383,0.16601720641611573,-0.23058223563998606,-0.00043973073841968547,-0.10161322022324881,0.04572016862429702,-0.07986637490963369,-0.2551101498985572,0.43141274046330513
379,7.58691519999411,0.028186751671623406,0.26419830029084923,-0.18782094618139478,0.025831645961988215,0.1655310621947751,-0.23035991749634474,-0.0008195311530747295,-0.10281792337731353,0.04776815267182901,-0.07984148750965485,-0.2515089273421677,0.42981337101917905
380,7.591443800003617,0.028309594324033963,0.26498438148666376,-0.1889159675049537,0.0258268453797342,0.1650392292924265,-0.23012787749872593,-0.0011991620295888044,-0.10400550718319461,0.049808440693067974,-0.07979515375806205,-0.24791133415553526,0.4281766792285653
381,7.596063599994522,0.028432409851917015,0.265768110159183,-0.19000986220230098,0.02582023984723689,0.16454178908536213,-0.2298861526704817,-0.0015785217297494877,-0.10517599097431854,0.051840856957501714,-0.07972752636916167,-0.24431823575199488,0.4265034058164473
382,7.605040199996438,0.028555189674234725,0.2665494598341991,-0.19110258430268476,0.025811830895000092,0.16403882284814578,-0.2296347808623464,-0.0019575093522752798,-0.10632939817045686,0.053865229240852026,-0.0796387626087228,-0.2407304853542656,0.42479428602315195
383,7.608720899996115,0.028677925218369305,0.26732840442377026,-0.19219408801731402,0.025801620531624887,0.16353041173430688,-0.22937380073582425,-0.002336024754824512,-0.10746575622066683,0.05588138880601989,-0.07952902449564826,-0.23714892354010697,0.4230500506691901
384,7.612358700003824,0.028800607922388206,0.26810491822559973,-0.19328432774317503,0.025789611240142774,0.16301663675732103,-0.22910325174663262,-0.002713968577196999,-0.10858509654007518,0.057889170380100136,-0.07939847870173353,-0.23357437798738484,0.4212714244167244
385,7.61622239999997,0.028923229237291584,0.2688789759223247,-0.1943732580667692,0.025775805974243,0.1624975787719052,-0.2288231741283083,-0.0030912422623894827,-0.10968745445039399,0.0598884121187902,-0.0792472961600589,-0.23000766379557458,0.4194591240564919
386,7.620381200002157,0.029045780629241607,0.2696505525807172,-0.19546083376777362,0.025760208154405436,0.16197331845556415,-0.2285336088759892,-0.003467748076072411,-0.11077286911976245,0.06187895556711044,-0.07907565191167507,-0.22644958251603128,0.41761385744633767
387,7.624297899994417,0.029168253581773138,0.2704196236507977,-0.19654700982262474,0.02574282166394264,0.16144393629045775,-0.2282345977303943,-0.003843389126187096,-0.1118413834940389,0.06386064561371647,-0.07888372552554981,-0.22290092280051835,0.4157363234780859
388,7.635431299990159,0.029290639597985398,0.2711861649648635,-0.19763174140802642,0.025723650844946332,0.160909512545601,-0.22792618316204,-0.004218069386416916,-0.1128930442428113,0.0658333304513044,-0.07867170218657188,-0.21936246227012676,0.41382721462321365
389,7.641460200000438,0.029412930202714085,0.2719501527364328,-0.1987149839043835,0.025702700494106216,0.16037012725924496,-0.2276084083555965,-0.004591693726133282,-0.11392790170846588,0.06779686155513695,-0.07843977396547709,-0.21583496686981318,0.4118872204519587
390,7.645261099998606,0.029535116944683276,0.2727115635591058,-0.1997966928991611,0.025679975858371604,0.159825860221561,-0.22728131719430855,-0.004964167945946041,-0.11494600984605817,0.06975109367692148,-0.07818814058522909,-0.2123191909334298,0.4099170295031575
391,7.649519200000213,0.029657191398636276,0.27347037440534394,-0.20087682419017,0.025655482630432092,0.15927679095759384,-0.22694495424441005,-0.005335398814939058,-0.11594742617300018,0.07169588484112155,-0.07791700912244363,-0.20881587821574257,0.407917327733458
392,7.654087399991113,0.02977914516744453,0.2742265626251687,-0.20195533378877764,0.02562922694402502,0.15872299871042433,-0.22659936473957978,-0.005705294103380645,-0.11693221171874771,0.07363109632408428,-0.07762659286646417,-0.20532576092576085,0.4058887955525731
393,7.657935499999439,0.029900969884193846,0.27498010594478095,-0.20303217792304568,0.025601215369105004,0.158164562424601,-0.22624459456555468,-0.006073762609106966,-0.11790043096529286,0.07555659262215199,-0.07731711029934878,-0.20184955811306174,0.40383210630839206
394,7.6620574999979,0.030022657214247354,0.275730982465102,-0.20410731304079466,0.025571454906900448,0.15760156072986892,-0.22588069024488877,-0.0064407141805303755,-0.11885215178150245,0.07747224141638033,-0.07698878447505793,-0.19838797502201144,0.40174792541326293
395,7.666800799997873,0.03014419885728471,0.2764791706602383,-0.20518069581259657,0.02553995298486423,0.15703407192522573,-0.2255076989219021,-0.006806059737117814,-0.11978744535746803,0.07937791353233938,-0.07664184244695946,-0.19494170283529494,0.399636909408917
396,7.671457799995551,0.030265586549317026,0.27722464937587066,-0.20625228313469637,0.025506717451535422,0.15646217396327503,-0.22512566834782197,-0.007169711286953728,-0.12070638613640487,0.08127348289593755,-0.07627651500564511,-0.19151141886688713,0.3974997065821858
397,7.676904199994169,0.030386812064677207,0.2779673978275702,-0.2073220321318632,0.025471756571322928,0.15588594443493012,-0.22473464686615213,-0.007531581944724642,-0.12160905175083743,0.08315882649907927,-0.07589303693712626,-0.18809778759375279,0.39533695899467347
398,7.683670400001574,0.030507867217985256,0.2787073955990422,-0.20838990016017275,0.025435079019196137,0.15530546055437439,-0.22433468339814067,-0.007891585951737971,-0.1224955229643116,0.08503382437479455,-0.07549164745420767,-0.18470146020458011,0.3931493024815235
399,7.687980799993966,0.030628743866088107,0.2794446226402988,-0.20945584480972024,0.025396693875278147,0.15472079914431947,-0.22392582742838565,-0.008249638698009707,-0.12336588360328787,0.08689835956288494,-0.07507259043006496,-0.18132307447092597,0.3909373664296209
400,7.691858199992566,0.030749433909973516,0.2801790592657628,-0.21051982390726587,0.025356610619326325,0.15413203662161343,-0.2235081289906299,-0.008605656744504957,-0.12422022049762795,0.08875231808294347,-0.07463611381390078,-0.17796325610227087,0.38870177490317664
401,7.698181300002034,0.030869929296657383,0.2809106861523034,-0.2115817955188127,0.025314839125113987,0.15353924898306504,-0.22308163865362327,-0.008959557839667506,-0.1250586234253768,0.09059558891070679,-0.07418246833693525,-0.1746226179707905,0.3864431460310781
402,7.70579419999558,0.030990222021044206,0.2816394843372051,-0.21264171795211764,0.025271389654753736,0.15294251179157714,-0.2226464075071422,-0.009311260929352071,-0.12588118504587553,0.09242806394524782,-0.07371190641554475,-0.1713017591440612,0.3841620917823315
403,7.710353399990709,0.031110304127760408,0.28236543521607155,-0.2136995497591363,0.02522627285298466,0.15234190016260715,-0.22220248714816423,-0.009660686162920816,-0.12668800083534282,0.0942496379831919,-0.07322468167137723,-0.1680012661112672,0.3818592189655559
404,7.715109700002358,0.031230167712960454,0.2830885205406658,-0.2147552497384025,0.025179499741437687,0.15173748875091317,-0.22174992966713275,-0.010007754898611063,-0.12747916903165107,0.0960602086954164,-0.07272104914932122,-0.1647217132341875,0.3795351284877934
405,7.720622599998023,0.03134980492610563,0.28380872241668803,-0.21580877693734246,0.02513108171287173,0.15112935173753972,-0.22128878763435303,-0.01035238971170507,-0.12825479057419759,0.09785967659421688,-0.07220126584164316,-0.16146366094268474,0.3771904142240209
406,7.726071299999603,0.03146920797171534,0.2845260233014919,-0.216860090654525,0.025081030525361328,0.15051756281713582,-0.22081911408656943,-0.010694514404883204,-0.12901496903151666,0.09964794499925372,-0.07166559084107252,-0.15822765586078932,0.3748256632438605
407,7.730074299994158,0.031588369111090586,0.2852404060017418,-0.21790915044184794,0.025029358296434316,0.14990219518562928,-0.22034096251368526,-0.011034054017849819,-0.12975981054235,0.1014249200068748,-0.07111428492955939,-0.15501423267901202,0.3724414556824232
408,7.734050899991416,0.03170728066400952,0.2859518536710118,-0.218955916106662,0.024976077497167907,0.14928332152810522,-0.2198543868456318,-0.011370934833774802,-0.13048942376106784,0.10319051045483352,-0.07054760983643649,-0.15182391254249505,0.37003836348311603
409,7.738059900002554,0.03182593501039476,0.28666034980732774,-0.22000034771383242,0.02492120094626509,0.14866101400699958,-0.21935944143942374,-0.011705084381863283,-0.1312039197834078,0.10494462787965345,-0.0699658275450523,-0.14865720111368533,0.36761694926867816
410,7.741699399994104,0.0319443245919526,0.28736587825065396,-0.22104240558773955,0.02486474180412628,0.14803534425068396,-0.21885618106643373,-0.012036431437202058,-0.13190341207346873,0.10668718647060796,-0.06936920000247836,-0.14551458941352782,0.36517776604882723
411,7.7457965999929,0.03206244191378394,0.28806842318032655,-0.22208205031421954,0.024806713566927156,0.14740638334235354,-0.2183446608998856,-0.012364906020568105,-0.1325880163974507,0.10841810302430402,-0.06875798952273661,-0.1423965542706037,0.36272135786725473
412,7.753613699998823,0.03218027954596715,0.2887679691124345,-0.22311924274244602,0.02474713006069215,0.1467742018092422,-0.21782493650256088,-0.012690439402110405,-0.13325785075492091,0.11013729690481593,-0.06813245966151195,-0.1393035587095058,0.3602482607710568
413,7.7580851999955485,0.032297830125112656,0.28946450089715053,-0.22415394398675373,0.024686005435337263,0.14613886961216416,-0.21729706381467115,-0.013012964109478498,-0.133913035316248,0.11184469000749005,-0.06749287564365493,-0.1362360524021188,0.35775900335436117
414,7.762448199995561,0.03241508635588911,0.2901580037160125,-0.22518611542840491,0.02462335415866623,0.14550045613532428,-0.21676109914190891,-0.013332413935570588,-0.13455369235816025,0.1135402067242494,-0.06683950399208868,-0.13319447102247073,0.3552541072448812
415,7.766858899994986,0.0325320410125209,0.2908484630791575,-0.2262157187172993,0.024559191010339643,0.14485903017647261,-0.21621709914364998,-0.013648723943132364,-0.13517994619504334,0.11522377391202637,-0.06617261208439443,-0.1301792364405927,0.35273408678332235
416,7.7705182999925455,0.03264868694025693,0.2915358648225096,-0.22724271577362828,0.024493531075827368,0.14421465993736818,-0.2156651208213045,-0.013961830468287466,-0.13579192311634264,0.11689532085501789,-0.06549246762100318,-0.12719075697962115,0.3501994479223474
417,7.779040699999314,0.03276501705681062,0.29222019510492303,-0.22826706878947403,0.024426389740344095,0.14356741301452894,-0.2151052215068785,-0.01427167112007788,-0.13638975132030645,0.11855477922264537,-0.06479933797949564,-0.12422942644974161,0.3476506889711338
418,7.782939199998509,0.03288102435377101,0.29290144040528227,-0.22928874023035492,0.02435778268280612,0.1429173563903258,-0.21453745885172465,-0.014578184777852674,-0.13697356084219936,0.12020208303889197,-0.06409349025529003,-0.12129562453287913,0.3450883020467628
419,7.788420700002462,0.032996701897985245,0.2935795875195603,-0.2303076928367177,0.024287725869791735,0.14226455642441538,-0.21396189081539552,-0.014881311591195408,-0.13754348349170456,0.12183716865406774,-0.06337519145529735,-0.1183897182687654,0.34251277229959215
420,7.792035699996632,0.03311204283291228,0.29425462355783727,-0.2313238896253768,0.024216235549498703,0.14160907884542945,-0.21337857565466298,-0.015180992979154867,-0.1380996527952723,0.12345997470677879,-0.06264470823140453,-0.1155120609575713,0.3399245765913299
421,7.7955912000034,0.033227040379947864,0.29492653594127965,-0.23233729389090213,0.024143328245711963,0.14095098874295606,-0.21278757191273306,-0.015477171627637431,-0.13864220392308438,0.12507044208311868,-0.06190230665506644,-0.11266299132024826,0.3373241819123511
422,7.800214799994137,0.03334168783972085,0.29559531239908265,-0.23334786920695572,0.024069020751785904,0.14029035055992364,-0.21218893840865363,-0.015769791486493788,-0.1391712736234159,0.12666851386358352,-0.06114825219306934,-0.10984283524228139,0.3347120439014605
423,7.803880999999819,0.03345597859336097,0.29626094096537703,-0.23435557942757881,0.02399333012463979,0.13962722808520653,-0.2115827342270341,-0.01605879776668077,-0.13968700016618588,0.1282541352681837,-0.060382809626732814,-0.10705190544848325,0.3320886079748628
424,7.810092100000475,0.03356990610373802,0.296923409976101,-0.2353603886884308,0.023916273678767013,0.13896168444654594,-0.21096901870797524,-0.016344136936579542,-0.14018952327422587,0.12982725361409742,-0.059606243084122,-0.10429050085999635,0.32945430983756235
425,7.813965099994675,0.03368346391667266,0.29758270806583986,-0.23636226140798036,0.02383786898026556,0.13829378210380927,-0.21034785143719165,-0.016625756719463824,-0.14067898406071444,0.13138781826564683,-0.05881881641117608,-0.10155890801316088,0.3268095749069191
426,7.820950399996946,0.0337966456621188,0.2982388241646337,-0.2373611622886506,0.023758133840871342,0.1376235828425062,-0.20971929223641736,-0.01690360609334816,-0.14115552497394163,0.13293578058646852,-0.05802079332502438,-0.09885740157459454,0.3241548204088981
427,7.824566700001014,0.03390944505531765,0.2988917474947554,-0.23835705631791884,0.023677086311990083,0.13695114776757333,-0.20908340115398333,-0.01717763528991445,-0.14161928973964283,0.13447109390942857,-0.0572124371476229,-0.09618624427799663,0.32149045718194913
428,7.830257800000254,0.03402185589792337,0.29954146756745914,-0.23934990876937215,0.023594744678740884,0.13627653729743885,-0.20844023845550913,-0.017447795791826627,-0.14207042330516215,0.13599371350595119,-0.05639401050717706,-0.09354568763189677,0.3188168891318477
429,7.836975500002154,0.03413387207910043,0.30018797417970206,-0.24033968520371865,0.02351112745401365,0.13559981115833825,-0.2077898646147722,-0.017714040328817206,-0.14250907178851815,0.13750359655074826,-0.05556577509678052,-0.09093597198592061,0.3161345132608431
430,7.841019699990284,0.03424548757659274,0.30083125741083866,-0.2413263514697561,0.023426253372549867,0.1349210283788634,-0.207132340304735,-0.017976322872706202,-0.14293538242319756,0.13900070209142526,-0.05472799151312484,-0.08835732620835868,0.31344371999131826
431,7.845248999990872,0.03435669645776471,0.30147130761929053,-0.2423098737052979,0.02334014138504742,0.13424024728480352,-0.20646772638870345,-0.01823459863195352,-0.1433495035041541,0.14048499101628942,-0.0538809193285173,-0.08580996826476292,0.31074489161929575
432,7.8493618999928,0.03446749288061432,0.3021081154391918,-0.24329021833805767,0.023252810652293177,0.13355752549420777,-0.20579608391166015,-0.018488824047362885,-0.14375158433810564,0.1419564260092457,-0.053024817196183294,-0.08329410521948462,0.3080384005381692
433,7.853423099993961,0.03457787109475837,0.30274167177701183,-0.24426735208649267,0.023164280539308673,0.13287291991269898,-0.2051174740918519,-0.018738956787635857,-0.14414177518954774,0.14341497150070967,-0.052159942471197956,-0.08080993239752729,0.30532460894940333
434,7.857679399996414,0.034687825442389845,0.3033719678081561,-0.24524124196060837,0.02307457060952499,0.13218648672904987,-0.20443195831258992,-0.018984955741470147,-0.14452022722307847,0.14486059361975162,-0.051286550710545976,-0.07835763318913481,0.3026038681213447
435,7.861766899994109,0.034797350359207765,0.3039989949735469,-0.24621185526272404,0.022983700619003584,0.13149828141104525,-0.20373959811429238,-0.01922678100835833,-0.1448870924475533,0.14629326013795949,-0.050404895310313655,-0.07593737950292706,0.29987651783948155
436,7.865952899999684,0.03490644037531959,0.30462274497618463,-0.24717915958820147,0.0228916905106987,0.13080835870158947,-0.20304045518681868,-0.01946439388723524,-0.14524252366272,0.14771294041635405,-0.049515227271575,-0.07354933189502294,0.29714288714854664
437,7.870413600001484,0.0350150901161165,0.30524320977769176,-0.24814312282613768,0.022798560408786184,0.1301167726150762,-0.20233459136201695,-0.019697756865049845,-0.14558667440460174,0.14911960535631044,-0.04861779549099112,-0.07119363963195315,0.2944032943224293
438,7.874268200001097,0.035123294303121826,0.3058603815948395,-0.24910371316002278,0.02270433061303458,0.12942357643401542,-0.2016220686065251,-0.019926833608176747,-0.1459196988927304,0.15051322734618722,-0.04771284706721036,-0.06887044133797653,0.29165804686144986
439,7.882201599990367,0.035231047754812825,0.30647425289605956,-0.2500608990683642,0.022609021593215647,0.12872882270590505,-0.20090294901482592,-0.020151588953902455,-0.14624175198168674,0.1518937802122219,-0.04680062747013433,-0.06657986525059766,0.28890744242863753
440,7.885928399991826,0.03533834538741594,0.30708481639794116,-0.2510146493252785,0.02251265398355644,0.1280325632403189,-0.20017729480251528,-0.020371988903446905,-0.14655298911076414,0.15326123917406576,-0.04588138087132256,-0.06432202883497785,0.2861517691733839
441,7.8908174999960465,0.035445182215675775,0.30769206506171504,-0.25196493300105155,0.022415248577216204,0.1273348491062571,-0.19944516829978018,-0.020588000616592446,-0.14685356625184118,0.15461558079875773,-0.044955350361808415,-0.06209704007547169,0.2833913056964937
442,7.895072100000107,0.03555155335359785,0.3082959920897254,-0.25291171946266827,0.02231682632078953,0.12663573062972983,-0.19870663194510466,-0.020799592406777173,-0.1471436398713301,0.15595678295592685,-0.044022778121788994,-0.05990499889142501,0.2806263223751502
443,7.90323179999541,0.03565745401516529,0.3088965909218908,-0.25385497837431303,0.02221740830882992,0.12593525739146977,-0.19796174827917398,-0.02100673373733796,-0.1474233668915161,0.15728482478436898,-0.0430839055975229,-0.05774599630043454,0.27785708320116026
444,7.907741299990448,0.035762879515029475,0.3094938552321544,-0.25479467969784136,0.022117015778388708,0.12523347822488348,-0.1972105799388985,-0.0212093952182864,-0.14769290464454696,0.15859968666473395,-0.04213897344480393,-0.05562011499985077,0.27508384658566326
445,7.911851700002444,0.035867825269174786,0.31008777892492523,-0.2557307936932235,0.02201567010356926,0.1245304412142015,-0.19645318965157763,-0.02140754860201416,-0.14795241083930333,0.15990135019375662,-0.041188221457061816,-0.05352743091341779,0.27230686513455354
