,time,x,y,z,vx,vy,vz,ax,ay,az,jx,jy,jz
0,6.496033999996143,0.007040021268947967,-0.05302453117952637,0.038780039371984106,-0.0025058054465764723,-0.018785424697914367,-0.0028200179141292256,-0.002505090676111827,0.09546712570345461,0.03150428268629602,0.024080411838159666,0.023000180099153573,-0.05001553354199786
1,6.500262199988356,0.007029876055431831,-0.05309965476866653,0.03876890219974929,-0.002515730753154846,-0.018399500120124826,-0.0026931324716635897,-0.002406285940145544,0.09555574970462387,0.031301740423590026,0.02482702000282631,0.020882191437626957,-0.050242711868178906
2,6.504524599993601,0.007019691545035204,-0.053173218298410575,0.03875827605747171,-0.0025252507424440743,-0.018013234745815596,-0.0025670672595321372,-0.002304462504118007,0.09563587555321021,0.031098269260722698,0.025574569790617816,0.01879411800963538,-0.05047539624231971
3,6.508622399996966,0.0070094694000932154,-0.05324522046113937,0.03874815762341244,-0.0025343532096388246,-0.017626662667740902,-0.0024418260759205596,-0.0021996167875031445,0.09570762574693906,0.030893846665998197,0.026322950182373957,0.01673676115953642,-0.05071372750191711
4,6.51279209999484,0.006999211332283991,-0.05331566008598629,0.03873854356030197,-0.002543025936370427,-0.01723981747715866,-0.0023174128112032205,-0.0020917456586821525,0.09577112601001705,0.03068844953839823,0.027072049544233992,0.014710915881216171,-0.050957846642258095
5,6.516865400000825,0.006988919102679801,-0.053384536136784524,0.0387294305149631,-0.0025512566925268085,-0.0168527322508406,-0.0021938314502460924,-0.00198084643924679,0.09582650526454799,0.030482054206838225,0.027821754861699605,0.012717369660044353,-0.0512078948689987
6,6.521288299991284,0.006978594521790811,-0.053451847709962204,0.03872081511792446,-0.0025590332380949717,-0.016465439538219804,-0.002071086074710549,-0.0018669169108530726,0.09587389559844023,0.030274636429211167,0.028571951027955265,0.010756901868656946,-0.05146401367707826
7,6.525203699988197,0.006968239449601342,-0.05351759403238584,0.038712693983024765,-0.0025663433250363147,-0.016077971348660167,-0.0019491808653640291,-0.0017499553252756797,0.09591343223193996,0.03006617139100605,0.029322520045085055,0.008830283057075158,-0.05172634473239507
8,6.529311099991901,0.006957855795598463,-0.05358177445915254,0.03870506370700769,-0.002573174699210359,-0.01569035913887439,-0.0018281201043949926,-0.0016299604177166494,0.09594525347980204,0.02985663370530789,0.030073340364969798,0.006938273571402898,-0.05199502930635133
9,6.53367979999166,0.0069474455187927085,-0.053644388471331815,0.03869792086910742,-0.002579515102357618,-0.01530263380049913,-0.0017079081777235843,-0.0015069314221860225,0.09596950070666085,0.029645997415985656,0.030824286716733318,0.005081620990357755,-0.0522702069478418
10,6.537686299998313,0.00693701062773065,-0.05370543567365736,0.038691262030624826,-0.0025853522741476173,-0.014914825647873654,-0.0015885495772908292,-0.0013808680862049507,0.09598631826848569,0.029434236008423997,0.03157523080360582,0.0032610575218209093,-0.05255201361614528
11,6.541926499994588,0.006926553180499057,-0.05376491579217011,0.03868508373449452,-0.002590673954280578,-0.014526964406088081,-0.0014700489032825716,-0.00125177068055496,0.09599585344691301,0.029221322427799346,0.03232604254056672,0.0014772993975893781,-0.05284058060267964
12,6.545233699987875,0.006916075284720488,-0.05382282867181344,0.038679382504843096,-0.0025954678846142223,-0.014139079199292701,-0.001352410866270981,-0.0011196400039796153,0.09599825638581078,0.02900722909852499,0.03307659086466353,-0.0002689511671851379,-0.0531360346756612
13,6.548686399997678,0.006905579097540267,-0.05387917427398174,0.038674154846538834,-0.0025997218113034512,-0.013751198539258849,-0.0012356402892813546,-0.0009844773863855643,0.09599368004144503,0.02879192794135818,0.03382674391085976,-0.001977002003111038,-0.05343849927664011
14,6.551991999993334,0.006895066825604779,-0.05393395267402319,0.038669397244733256,-0.002603423486953017,-0.013363350314090921,-0.0011197421097953798,-0.0008462846921231669,0.09598228015113311,0.028575390383175952,0.0345763689084812,-0.003646167594075824,-0.05374809641392688
15,6.555564999987837,0.006884540725031053,-0.0539871640586971,0.038665106164394655,-0.0026065606727837132,-0.012975561777040574,-0.0010047213817389383,-0.0007050643240243617,0.09596421521082503,0.02835758735878137,0.03532533172430639,-0.005275768761713081,-0.054064946965055705
16,6.559035499987658,0.006874003101367555,-0.054038808723586296,0.03866127804983357,-0.002609121140817676,-0.0125878595353999,-0.000890583277470772,-0.0005608192303756005,0.09593964644630651,0.02813848931823513,0.03607349607692573,-0.006865137438505942,-0.05438916825735316
17,6.563020799992955,0.006863456309546106,-0.05408888707046471,0.038657909324220245,-0.002611092676100923,-0.012200269539548333,-0.0007773330897110401,-0.0004135529153045098,0.09590873775220869,0.027918066248213334,0.03682072319319421,-0.008413626213684914,-0.0547208704782983
18,6.56710979998752,0.006852902753824719,-0.054137399604621265,0.03865499638909453,-0.00261246307897259,-0.011812817072338696,-0.0006649762333573921,-0.0002632694485290466,0.09587165558607041,0.02769628770834712,0.037566872449303595,-0.009920617524544099,-0.05506015284923671
19,6.571228399989195,0.006842344887721177,-0.054184346932141664,0.03865253562386867,-0.0026132201673662535,-0.011425526739000191,-0.0005535182471198627,-0.00010997347056362817,0.0958285688330725,0.02747312288350081,0.03831180229114982,-0.011385526286034151,-0.055407101574134296
20,6.575339099988923,0.006831785213937274,-0.054229729757150694,0.03865052338532395,-0.002613351779121238,-0.011038422457617533,-0.00044296479491448293,4.632980496923887e-05,0.0957796486788502,0.027248540636687735,0.03905537035265636,-0.012807795314952176,-0.05576179156207179
21,6.578828300000168,0.006821226284273715,-0.05427354887901709,0.03864895600710229,-0.0026128457743026176,-0.010651527450061751,-0.0003333216670705603,0.00020563458708900453,0.09572506851120474,0.02702250954742885,0.03979743265375657,-0.014186889557713037,-0.0561242895040966
22,6.583244299996295,0.006810670699535609,-0.054315805189522545,0.03864782979919309,-0.0026116900375468695,-0.01026486423326359,-0.00022459478141431208,0.00036793449866430895,0.09566500383956146,0.02679499793980438,0.04053784264870049,-0.015522293591867424,-0.05649465546422851
23,6.587550500000361,0.006800121109428412,-0.05435649966999603,0.03864714104741605,-0.0026098724804529297,-0.009878454610795177,-0.00011679018424945909,0.0005332225644723562,0.09559963221687166,0.026565973907955464,0.04127645109129503,-0.01681351253355274,-0.05687294269536999
24,6.5917663000000175,0.0067895802124440996,-0.054395633388414806,0.038646886012900165,-0.0026073810440243378,-0.00949231966477454,-9.914051234779308e-06,0.0007014912013171483,0.09552913315173756,0.02633540534562343,0.04201310702434482,-0.018060074956605,-0.05725919611404575
25,6.596222199994372,0.006779050755737377,-0.05443320749647331,0.038647060931559375,-0.0026042037011401492,-0.009106479748157394,9.602731187400681e-05,0.0008727322140845711,0.09545368800672471,0.02610325998397712,0.042747659041946384,-0.01926153462790546,-0.05765345103810796
26,6.60052929999074,0.00676853553499188,-0.05446922322662187,0.03864766201356559,-0.0026003284590289588,-0.008720954477463398,0.00020102746865236661,0.0010469367960612799,0.09537347989646357,0.025869505431352847,0.04347995572176642,-0.020417469744966533,-0.05805573387047954
27,6.604853699987871,0.0067580373942763925,-0.05450368188907684,0.038648685442819755,-0.0025957433617372354,-0.00833576272589139,0.00030507985158621017,0.0012240955284830435,0.09528869359212298,0.02563410920555635,0.04420984510401949,-0.02152748106888171,-0.05846606378220602
28,6.608351999995648,0.006747559225891104,-0.05453658486880363,0.03865012737642142,-0.0025904364926069958,-0.007950922616817598,0.00040817776176105416,0.0014041983766432274,0.09519951543459945,0.025397038760001926,0.04493717386964676,-0.022591189465216755,-0.058884454132534916
29,6.6126167999900645,0.006737103970203803,-0.054567933622474356,0.038651983944137325,-0.002584395976775587,-0.007566451517612394,0.000510314368652508,0.0015872346827999664,0.09510613325886283,0.025158261504538686,0.04566178668944186,-0.02360823510208512,-0.059310913507673375
30,6.617422799987253,0.0067266746154759334,-0.054597729675400865,0.038654251247869274,-0.0025776099837106765,-0.007182366033749872,0.0006114827099837358,0.0017731931570249067,0.09500873631362591,0.024917744823195438,0.0463835261517764,-0.02457827990902833,-0.05974544536577382
31,6.6219249999994645,0.006716274197678304,-0.05462597461844478,0.03865692536112156,-0.002570066729783988,-0.006798682003273756,0.0007116756916593392,0.0019620618695263257,0.09490751516581987,0.024675456097875813,0.04710223334932198,-0.025501010785299948,-0.06018804670889905
32,6.625539599990589,0.006705905800296343,-0.05465267010490585,0.03866000232846831,-0.0025617544808683285,-0.006415414491678913,0.0008108860878143011,0.0021538282462391987,0.09480266159433753,0.024431362736835077,0.047817748505272914,-0.02637614071743311,-0.060638707517608276
33,6.629766999991261,0.006695572554124825,-0.05467781784739057,0.038663478165021296,-0.0025526615549469585,-0.006032577787235931,0.0009091065409779907,0.0023484790662088506,0.09469436848547773,0.024185432202944376,0.048529911109792996,-0.02720340684644769,-0.06109741140841464
34,6.633118999990984,0.006685277637052039,-0.054701419614662794,0.038667348855898634,-0.0025427763247317645,-0.0056501853967175445,0.0010063295623515113,0.002546000458283654,0.09458282974230754,0.023937632036854607,0.04923855951238904,-0.02798256611560697,-0.06156413750092632
35,6.636825999987195,0.006675024273833352,-0.05472347722847781,0.0386716103556948,-0.0025320872202993557,-0.005268250041455663,0.0011025475321588942,0.0027463778952046356,0.0944682402152773,0.023687929870172222,0.04994353029401409,-0.02871339085225465,-0.06203886231126447
36,6.640494699997362,0.00666481573585408,-0.05474399256040108,0.038676258587952185,-0.002520582731756997,-0.004886783653628502,0.00119775270003092,0.0029495961852241135,0.09435079564728623,0.023436293433322312,0.05064465776744302,-0.02939566772922207,-0.06252156029118061
37,6.644735199995921,0.00665465534088151,-0.05476296752861231,0.03868128944463421,-0.0025082514119464366,-0.004505797372761532,0.0012919371854198552,0.003155639462157818,0.09423069261269028,0.02318269056436778,0.05134177391815389,-0.030029200723246247,-0.0630122033810081
38,6.648299499996938,0.0066445464528059155,-0.05478040409469592,0.038686698785600236,-0.0024950818791902286,-0.004125301542507497,0.001385092978054541,0.0033644911765257908,0.09410812843846074,0.022927089220485038,0.052034709007420105,-0.030613815151613304,-0.06351076026013883
39,6.652454999988549,0.006634492481370387,-0.05479630426041912,0.038692482438082355,-0.002481062820067151,-0.003745305707784479,0.0014772119384478658,0.003576134090478116,0.09398330111057179,0.022669457492840113,0.05272329241884279,-0.031149360328344197,-0.06401719541348266
40,6.656245899997884,0.0066244968818894205,-0.054810670064499196,0.03869863619616439,-0.0024661829921995334,-0.003365818612312402,0.0015682857984720682,0.0037905502757766825,0.09385640917369432,0.022409763625608325,0.05340735333717722,-0.03163571147070041,-0.06453146827680074
41,6.659727299993392,0.006614563154956225,-0.054823503579361714,0.03870515582026336,-0.002450431227044985,-0.002986848196561681,0.0016583061620199081,0.0040077211142065415,0.09372765162217697,0.02214797603775699,0.054086721433641155,-0.03207277278918877,-0.06505353272387057
42,6.667173699999694,0.006604694846138749,-0.054834806907891234,0.0387120370366138,-0.0024337964326803982,-0.0026084015961707046,0.0017472645057559975,0.004227627301095672,0.09359722777476946,0.021884063346209327,0.054761227600684866,-0.032460480985194363,-0.06558333694815913
43,6.673223999998299,0.0065948955456644875,-0.05484458218017671,0.0387192755367553,-0.0024162675965652323,-0.0022304851409068556,0.0018351521799651594,0.004450248851664045,0.09346533713733915,0.021617994388583386,0.05543070435300371,-0.03279880640801393,-0.06612082355486948
44,6.677179599995725,0.006585168888094183,-0.05485283155025381,0.03872686697702368,-0.0023978337882742105,-0.001853104354193386,0.0019219604094875124,0.00467556510778399,0.09333217926824432,0.021349738245612107,0.056094985569467425,-0.033087751214043074,-0.06666592987651673
45,6.6815576999943005,0.006575518551984549,-0.054859557192846506,0.03873480697804612,-0.0023784841622059736,-0.001476263953158359,0.002007680294748008,0.004903554742243775,0.0931979536559264,0.021079264261332064,0.05675390580775869,-0.03332734671075023,-0.06721858898536119
46,6.685844899999211,0.006565948259540079,-0.05486476130010977,0.038743091124240604,-0.002358207960281322,-0.0010999678491507086,0.002092302812854661,0.005134195759969545,0.09306285960574673,0.020806542057322023,0.0574072995483188,-0.033517651055568774,-0.06777873052182666
47,6.689657399998396,0.006556461776253968,-0.054868446078375335,0.03875171496331994,-0.002336994514641995,-0.000724219148703658,0.0021758188187431487,0.0053674654961791924,0.09292709613617413,0.020531541546197192,0.058055000434984544,-0.033658747323025255,-0.06834628119415657
48,6.693047699998715,0.006547062910538111,-0.05487061374490221,0.03876067400580047,-0.0023148332503638313,-0.00034902015488969137,0.002258219046384089,0.005603340611467849,0.09279086188124126,0.020254232941810044,0.058696840652073035,-0.033750742465986826,-0.06892116576452749
49,6.697053199997754,0.0065377555133421025,-0.054871266524633346,0.03876996372451585,-0.002291713688195263,2.562763092777387e-05,0.0023394941100100732,0.005841797084927956,0.09265435499512642,0.01997458676477574,0.059332650510207266,-0.0337937656852107,-0.0695033073778094
50,6.700664299991331,0.006528543477761101,-0.05487040664696033,0.03877957955413564,-0.0022676254473260726,0.0003997235069683358,0.0024196345053675954,0.0060828102058877965,0.09251777306778562,0.019692573850016222,0.059962258133974745,-0.03378796700925578,-0.07009262727230947
51,6.704561699996702,0.006519430738632455,-0.054868036342497234,0.03878951689068923,-0.002242558248192649,0.0007732675686011564,0.002498630611005049,0.006326354564507519,0.09238131304101019,0.01940816535462314,0.060585489596753826,-0.03373351842527361,-0.07068904488494249
52,6.708168499986641,0.006510421272120902,-0.05486415783986496,0.03879977109109484,-0.0022165019153227387,0.001146260705540567,0.0025764726895881967,0.006572404044607206,0.09224517111492088,0.019121332764552055,0.061202169803333484,-0.033630613905326394,-0.07129247793009219
53,6.711729299990111,0.0065015190952922,-0.05485877336248776,0.038810337472694044,-0.0021894463801986563,0.0015187045986569927,0.0026531508892422635,0.006820931821395391,0.09210954266381279,0.018832047901848066,0.061812123336339696,-0.033479465488021054,-0.07190284225501618
54,6.714998299998115,0.006492728265675193,-0.05485188512540336,0.038821211312791676,-0.0021613816841203936,0.0018906017164924966,0.002728655244925797,0.007071910361137124,0.09197462217431394,0.018540282932508513,0.0624151745236484,-0.033280298729006896,-0.07252005211597926
55,6.718820800000685,0.006484052880812306,-0.05484349533208761,0.038832387848201394,-0.0021322979810715127,0.0022619553115719618,0.0028029756798362998,0.007325311419427264,0.09184060319799495,0.018246010371477158,0.0630111472230434,-0.03303335325319224,-0.07314402041489325
56,6.722947499991278,0.006475497077798445,-0.05483360617129446,0.03884386227479697,-0.0021021855405962075,0.002632769416535671,0.0028761020068244466,0.0075811060391183524,0.09170767828506507,0.01794920308859458,0.06359986539259452,-0.03273889081503966,-0.07377465776575032
57,6.726524199999403,0.00646706503280825,-0.054822219813911825,0.03885562974706929,-0.002071034750681942,0.0030030488399146855,0.0029480239298478035,0.007839264553203152,0.0915760388718463,0.017649834321136555,0.06418115472929939,-0.03239720451593229,-0.07441187144276512
58,6.73012119998748,0.006458760960611699,-0.054809338409835706,0.038867685377689386,-0.002038836120613219,0.003372799161354097,0.003018731045486368,0.00809975659598446,0.09144587513998356,0.017347877688264554,0.06475484416311725,-0.03200862126294087,-0.07505556506477565
59,6.734008499988704,0.0064505891140782924,-0.05479496408486469,0.038880024237077676,-0.002005580283763953,0.003742026726250678,0.0030882128445130622,0.008362551118030985,0.09131737588404933,0.017043307206114498,0.06532076581593295,-0.03157349729827377,-0.07570563887131075
60,6.737439099990297,0.0064425537836701,-0.054779098937617364,0.03889264135297969,-0.0019712580003303807,0.004110738639906243,0.003156458713531207,0.008627616397015559,0.09119072840688054,0.016736097300016337,0.06587875357318068,-0.031092211493349772,-0.07636199057734365
61,6.741616799990879,0.006434659296923859,-0.054761745036474074,0.03890553171004856,-0.0019358601600358502,0.00447894276131951,0.0032234579366437624,0.008894920041128237,0.09106611844137413,0.016426222812675507,0.06642864184296718,-0.030565160746669935,-0.0770245159518386
62,6.74586769999587,0.0064269100179221595,-0.05474290441654451,0.03891869024943421,-0.0018993777848361492,0.0048466476967074885,0.0032891996971569143,0.009164428989886933,0.0909437300830139,0.016113659011717258,0.0669702658371639,-0.029992760075893795,-0.07769310930420822
63,6.750156599999173,0.006419310346753683,-0.05472257907666183,0.03893211186837961,-0.0018618020316177447,0.005213862792752091,0.0033536730793102825,0.009436109519822046,0.09082374571092196,0.015798381593937018,0.06750346298154943,-0.029375445786650575,-0.07836766383936133
64,6.754362599996966,0.006411864718962585,-0.0547007709764048,0.03894579141982398,-0.0018231241948571722,0.00558059812948353,0.0034168670700148555,0.009709927256682505,0.09070634589477833,0.015480366689975569,0.06802807387734894,-0.028713677181935272,-0.0790480715919692
65,6.758732999995118,0.0064045776049872424,-0.05467748203314944,0.038959723712013075,-0.0017833357092206384,0.005946864512774744,0.0034787705606209775,0.009985847188890638,0.09059170930205869,0.015159590869100611,0.06854394186076107,-0.028007935115815594,-0.07973422397868984
66,6.762920399996801,0.006397453509588625,-0.05465271411915181,0.03897390350811665,-0.0017424281521146812,0.006312673466475182,0.0035393723486949235,0.010263833676188739,0.09048001261664153,0.01483603113941939,0.06905091179983108,-0.027258718535125855,-0.08042601242935725
67,6.766335699998308,0.006390496971268434,-0.05462646905866323,0.03898832552585313,-0.0017003932462158987,0.006678037224247487,0.0035986611397886043,0.010543850453371414,0.09037143047399258,0.014509664947559594,0.06954882921183206,-0.02646654032447058,-0.08112332841323887
68,6.76991669999552,0.006383712561677031,-0.054598748625079026,0.03900298443712137,-0.0016572228619914486,0.007042968721177505,0.0036566255492135637,0.010825860631799673,0.09026613541334871,0.014180470178669788,0.07003753976688025,-0.025631923387958187,-0.08182606343902384
69,6.774100299997372,0.006377104885011208,-0.054569554538121554,0.03901787486763966,-0.0016129090202165412,0.007407481585224565,0.0037132541038106866,0.011109826699121972,0.090164297844566,0.013848425156100417,0.07051688888033851,-0.024755397979881116,-0.08253410875245684
70,6.777612399993814,0.006370678577401772,-0.05453888846105804,0.03903299139659179,-0.001567443894497193,0.007771590128563582,0.0037685352437216183,0.011395710517494495,0.09006608602187452,0.013513508643847667,0.0709867216404958,-0.023837502059790273,-0.08324735498128696
71,6.781417699996382,0.006364438306290925,-0.054506751997953566,0.03904832855628035,-0.0015208198138021026,0.008135309338823254,0.0038224573241782216,0.011683473322717776,0.08997166600785704,0.01317569984910365,0.07144688344627845,-0.022878785421187146,-0.0839656925560115
72,6.78581299999496,0.006358388769799395,-0.05447314669095971,0.03906388083178727,-0.00147302926499238,0.008498654870137075,0.003875008617294604,0.01197307572761035,0.08988120161383968,0.012834978421300219,0.07189722111011325,-0.021879815463867514,-0.08468901249881809
73,6.789640899994993,0.00635253469608337,-0.054438074017639865,0.03907964266064163,-0.0014240648953261607,0.00886164303389982,0.003926177313848848,0.012264477730057658,0.08979485431722409,0.01249132444828368,0.0723375836550811,-0.020841181099275227,-0.08541720697587095
74,6.793052900000475,0.0063468808426813865,-0.05440153538833255,0.039095608432494544,-0.0013739195149232914,0.009224290789150519,0.003975951525044127,0.012557638722827528,0.08971278317031872,0.012144718450895561,0.07276782220645177,-0.019763492447916083,-0.08615016940247329
75,6.7964856999897165,0.006341431995851352,-0.05436353214355445,0.039111772488801225,-0.0013225860991906244,0.00958661573259221,0.004024319284246641,0.01285251750074257,0.08963514472011627,0.011795141378297493,0.0731877890531603,-0.01864737786775756,-0.08688779410119954
76,6.800375999999233,0.006336192969897829,-0.05432406555144442,0.03912812912250994,-0.0012700577912287435,0.009948636088326626,0.004071268548708953,0.013149072262911407,0.08956209294113857,0.011442574605314634,0.07359733660246101,-0.017493481600605095,-0.08762997584167172
77,6.804567599989241,0.006331168606489611,-0.05428313680524943,0.03914467257775795,-0.0012163279042392272,0.01031037069733126,0.0041167872012864565,0.013447260611453588,0.0894937791742337,0.01108699993147964,0.07399631670937676,-0.016302462693832145,-0.088376609354058
78,6.808647599988035,0.006326363773967556,-0.05424074702085361,0.03916139704957439,-0.001161389923941679,0.010671839006699475,0.004160863052152988,0.01374703954831207,0.08943035206813453,0.01072839958230752,0.07438458036111731,-0.015074994685041239,-0.08912758873740835
79,6.812888799991924,0.006321783366642624,-0.054196897234351164,0.039178296683590026,-0.0011052375110067482,0.011033061058645304,0.004203483840527597,0.0140483654714279,0.08937195752080401,0.01036675621312087,0.0747619775011805,-0.013811765430781232,-0.08988280682847277
80,6.817347099990002,0.006317432304084056,-0.05415158839966427,0.039195365575754114,-0.0010478645035040743,0.011394057479269562,0.004244637236421066,0.014351194170131257,0.08931873862237787,0.010002052915425339,0.07512835671380563,-0.012513476528161992,-0.09064215455741341
81,6.821216399999685,0.006313315530397626,-0.05410482138620676,0.03921259777205828,-0.000989264919372552,0.011754849467103567,0.004284310842414203,0.014655480818766185,0.0892708356011839,0.00963427322594138,0.07548356504481431,-0.011180842565531519,-0.09140552047445877
82,6.8253637999878265,0.006309438013493855,-0.0540565969765946,0.039229987268267714,-0.0009294329589197937,0.01211545878143903,0.004322492195477351,0.014961179970633842,0.08922838577273993,0.009263401136804841,0.075827448325399,-0.009814589978154192,-0.09217279042113317
83,6.828792499989504,0.006305804744346072,-0.054006915864403905,0.03924752800965979,-0.0008683630073413411,0.01247590773045963,0.004359168768831109,0.015268245554233784,0.08919152349502046,0.00888942110725552,0.07615985167507977,-0.00841545493157127,-0.09294384716212979
84,6.83244489999197,0.0063024207362382635,-0.05395577865197728,0.03926521389077028,-0.0008060496372505007,0.012836219159209407,0.004394327973860295,0.015576630871271625,0.08916038013455922,0.008512318076812611,0.07648061981232634,-0.006984180836400772,-0.09371857034593116
85,6.836775599993416,0.006299291024002694,-0.05390318584827909,0.03928303875514743,-0.0007424876112136559,0.013196416437450413,0.0044279571620811425,0.015886288595410476,0.08913508404179886,0.008132077477281488,0.0767895971745581,-0.005521517769667054,-0.09449683645211761
86,6.841670800000429,0.006296420663247268,-0.05384913786679994,0.0393009963951141,-0.0006776718842901923,0.013556523447431908,0.004460043627152288,0.016197170771248326,0.08911576052186976,0.007748685246354947,0.07708662805291251,-0.004028225407045139,-0.09527851800238656
87,6.846148099997663,0.006293814729572623,-0.053793635023510755,0.03931908055153807,-0.0006115976065760737,0.013916564571511867,0.00449057460695188,0.016509228814158547,0.08910253178624412,0.007362127845995778,0.07737155686671947,-0.002505076743995102,-0.09606348281117921
88,6.84979179999209,0.0062914783177789365,-0.05373667753486729,0.039337284913610965,-0.0005442601257450563,0.014276564679535492,0.004519537285737119,0.01682241351148532,0.08909551689344417,0.006972392282093728,0.07764422829829684,-0.0009528577540226493,-0.0968515943275726
89,6.853318800000125,0.006289416541062486,-0.053678265515866234,0.03935560311863602,-0.00047565498958260374,0.014636549115977586,0.004546918796380214,0.01713667502347343,0.08909483170345779,0.006579466120085224,0.07790448698558336,0.0006276364904957017,-0.09764271279226817
90,6.85753539999132,0.006287634530201981,-0.0536183989781536,0.039374028751825066,-0.0004057779485195886,0.014996543686952689,0.0045727062226541436,0.01745196288197983,0.08910058884979456,0.006183337495260664,0.07815217709808467,0.002235604290036892,-0.09843669585561951
91,6.862524099997245,0.00628613743273464,-0.053557077828185785,0.03939255534610478,-0.0003346249581766189,0.015356574647131634,0.004596886601551909,0.01776822598797666,0.0891128977138755,0.005783995123389837,0.07838714247494474,0.003870236463370667,-0.09923339803861889
92,6.867083299992373,0.006284930412121968,-0.05349430186544374,0.039411176381932395,-0.00026219218191791743,0.015716668686544737,0.00461944692565816,0.018085412611378564,0.08913186439018328,0.005381428315384997,0.07860922746975506,0.005530713875797525,-0.1000326699964605
93,6.871155999993789,0.0062840186469051975,-0.053430070780700625,0.03942988528712113,-0.0001884759933970443,0.01607685291721672,0.004640374145586938,0.018403470395372632,0.08915759164067766,0.004975626993877467,0.07881827781180945,0.007216206360452887,-0.10083435851850057
94,6.875276799997664,0.0062834073298504885,-0.053364384154344,0.039448675436675594,-0.00011347297907578553,0.016437154859601524,0.004659655172487264,0.018722346363205574,0.08919017885122867,0.004566581707881027,0.07901414085757348,0.008925874414720189,-0.10163830708067147
95,6.879559399996651,0.006283101667084016,-0.0532972414547531,0.03946754015263746,-3.717994071502827e-05,0.016797602428865188,0.004677276880599368,0.019041986924545787,0.0892297219997408,0.004154283644904442,0.07919666548549097,0.010658872159074868,-0.10244435634506008
96,6.884424499992747,0.006283106877217041,-0.053228642036731874,0.03948647270394153,4.040610215776284e-05,0.01715822392106306,0.004693226109858165,0.019362337881420458,0.0892763136364968,0.0037387246415777377,0.079365702120643,0.012414349545738218,-0.10325234484356235
97,6.894250799989095,0.006283428190461062,-0.05315858513999798,0.039505466306282454,0.00011928790980564837,0.01751904799926382,0.004707489668535359,0.019683344434776897,0.08933004287013001,0.003319897190240081,0.07952110294512996,0.014191453147550308,-0.10406210967488642
98,6.899785899993731,0.006284070847733138,-0.05308706988772792,0.03952451412199213,0.00019946801986776014,0.01788010367961336,0.0047200543358961455,0.02000495119211975,0.08939099535434311,0.002897794443933553,0.07966272211502261,0.01598932674986723,-0.104873486412481
99,6.905128399987007,0.006285040099751534,-0.05301409528515868,0.0395436092599279,0.0002809487449781205,0.018241420317351462,0.00473090686488168,0.020327102175825527,0.08945925327866364,0.0024724102237350595,0.07979041580309788,0.017807112270692718,-0.1056863089598804
100,6.909399099997245,0.006286341206121801,-0.05293966021824586,0.03956274477537164,0.00036373217041837843,0.018603027592800976,0.004740033984825027,0.020649740831125155,0.08953489536259827,0.0020437390249190665,0.0799040421117334,0.019643950655309193,-0.10650041020815397
101,6.919471199988038,0.00628797943441345,-0.05286376345237853,0.039581913669939885,0.0004478201518011363,0.018964955497337264,0.0047474224041834275,0.020972810033714605,0.08961799685361797,0.0016117760189766368,0.08000346099893584,0.021498982665013277,-0.10731562258813414
102,6.924288299996988,0.006289960059227314,-0.05278640363115076,0.039601108891505005,0.0005332143127841877,0.01932723431936109,0.004753058813270566,0.021296252097139687,0.08970862952768605,0.0011765170553155865,0.08008853423561463,0.02337134946822308,-0.1081317781756899
103,6.929406799987191,0.006292288361253749,-0.0527075792751898,0.03962032333412741,0.0006199160428135208,0.01968989463027233,0.004756929887002576,0.021620008780061394,0.08980686169202003,0.0007379586624288027,0.08015912551241479,0.025260193127824605,-0.10894870902035218
104,6.933901199998218,0.00629496962632176,-0.05262728878104097,0.03963954983799892,0.0007079264948962681,0.020052967270465193,0.0047590222876397505,0.021944021294504016,0.08991275818955805,0.00029609804693876533,0.08021510069118241,0.027164656640326797,-0.10976624725053397
105,6.937927899998613,0.0062980091444392,-0.05254553042010903,0.03965878118939713,0.0007972465834103627,0.020416483335338013,0.004759322667524825,0.0222682303151526,0.0900263804020371,-0.00014906690608442483,0.08025632794796353,0.029083883988191915,-0.1105842249421177
106,6.942437299992889,0.0063014122088242,-0.05246230233765611,0.03967801012065087,0.0008878769819526217,0.02078047416131334,0.004757817671827257,0.022592575988756625,0.09014778625488232,-0.0005975376330165719,0.08028267767111161,0.031017020784550896,-0.11140247401314174
107,6.945802399990498,0.006305184114927977,-0.052377602551856035,0.03969722931011681,0.0009798181212243937,0.02114497131188726,0.004754493941282369,0.022916997942604083,0.09027703022549519,-0.001049314890510315,0.0802940221769245,0.032963214693495016,-0.11222082590828499
108,6.949889499999699,0.006309330159449176,-0.05229142895290503,0.03971643138216702,0.0010730701869481214,0.02151000656371645,0.004749338114945077,0.023241435291627196,0.09041416335153922,-0.0015043987528389605,0.0802902355682934,0.03492161544368054,-0.11303911163834099
109,6.95405609998852,0.006313855639339846,-0.05220377930218845,0.0397356089071878,0.0011676331178104113,0.021875611892734455,0.004742336832950499,0.023565826645734225,0.09055923323933814,-0.001962788611046405,0.08027119414234857,0.03689137486770018,-0.11385716187220966
110,6.958462099995813,0.006318765850803156,-0.05211465123150367,0.039754754401589626,0.0012635066034378441,0.02224181946030662,0.00473347673927455,0.023890110120209404,0.09071228407247967,-0.002424483171034355,0.0802367771514102,0.03887164659918614,-0.11467480687117781
111,6.962768499986851,0.006324066088283013,-0.05202404224233874,0.03977386032782821,0.0013606900824240874,0.02260866159941588,0.004722744484510009,0.024214223349194017,0.09087335661776602,-0.002889480452181169,0.08018686709720857,0.0408615856394582,-0.11549187704122686
112,6.96686950000003,0.006329761643445841,-0.05193194970520686,0.039792919094436906,0.001459182740414647,0.02297617080086579,0.004710126728638276,0.02453810349846394,0.09104248823031577,-0.0033577777898922997,0.08012134921809844,0.04286034846266015,-0.11630820319588517
113,6.970541999995476,0.006335857804154713,-0.051838370859036566,0.039811923056070196,0.0015589835082372352,0.023344379699507544,0.004695610143784829,0.024861687274766866,0.09121971286036391,-0.003829371836343254,0.08004011057847449,0.04486709362023993,-0.11712361606975902
114,6.974008099990897,0.006342359853436026,-0.051743302810617474,0.03983086451355833,0.0016600910600619771,0.02371332106049794,0.004679181416984976,0.02518491093124139,0.09140506106324858,-0.004304258559098861,0.07994303917465632,0.04688098255632773,-0.11793794618714656
115,6.978290699989884,0.006349273068438771,-0.05164674253410153,0.03984973571397317,0.0017625038115755705,0.024083027765607116,0.00466082725295047,0.025507710269528854,0.09159856001280023,-0.0047824332407944955,0.07983002327251344,0.04890117998935172,-0.11875102388828307
116,6.981584699999075,0.006356602719386442,-0.05154868687055942,0.039868528850705194,0.001866219918158558,0.024453532799584718,0.004640534376837836,0.025830020639839732,0.09180023351441217,-0.005263890477967434,0.07970095133351414,0.05092685385911184,-0.11956267909257497
117,6.985744399993564,0.006364354068521583,-0.051449132527591965,0.03988723606355171,0.001971237273060023,0.02482486923657325,0.004618289537024432,0.026151776942467893,0.0920101020180021,-0.005748624178824765,0.07955571306167608,0.05295717528742201,-0.1203727414038332
118,6.989763299992774,0.006372532369042949,-0.051348076078996344,0.03990584943881629,0.0020775535055871,0.025197070226578983,0.004594079507894814,0.026472913636317437,0.09222818263076453,-0.006236627562925137,0.07939420133977537,0.05499131784180467,-0.12118104079410079
119,6.99388199999521,0.006381142864035416,-0.05124551396448681,0.03992436100941949,0.002185165979348575,0.025570168981988366,0.004567891092619365,0.026793364756063528,0.09245448912418223,-0.006727893164472709,0.07921631376609843,0.05702845637824437,-0.12198740790600614
120,6.997295699999086,0.006390190785392953,-0.05114144248946988,0.03994276275502076,0.002294071790583073,0.02594419876409559,0.004539711125914044,0.027113063933097797,0.09268903193742695,-0.007222412834442231,0.07902195286479523,0.0590677669099686,-0.12279167369773245
121,7.000639799996861,0.006399681352735022,-0.05103585782487391,0.03996104660215146,0.00240426776657192,0.02631919286964648,0.004509526476801844,0.027431944414389047,0.09293181818331035,-0.007720177741003971,0.07881102569641965,0.061108427751348754,-0.12359366893021097
122,7.004690799993114,0.006409619772316719,-0.050928756007033046,0.039979204424359066,0.0025157504641197446,0.026695184617414155,0.0044773240513691056,0.027749939080281415,0.09318285166092875,-0.008221178367504788,0.07858344441340438,0.06314962064852281,-0.12439322347027755
123,7.008673199990881,0.006420011235932904,-0.05082013293762527,0.039997228042362484,0.0026285161681111674,0.02707220733484509,0.004443090795543286,0.02806698046784389,0.09344213287075065,-0.00872540450726184,0.07833912763411673,0.06519053070039312,-0.1251901660013892
124,7.0129254999919794,0.006430860919816673,-0.05070998438366426,0.04001510922421869,0.0027425608901800905,0.02745029434475671,0.0044068136978913505,0.02838300079977228,0.09370965902662298,-0.009232845259205938,0.07807800068285893,0.06723034599082138,-0.12598432418136224
125,7.0172831999952905,0.006442173983532734,-0.05059830597754493,0.04003283968550067,0.0028578803674999455,0.027829478952080475,0.004368479792432747,0.028697932009678188,0.09398542406788647,-0.00974348902394995,0.0777999940547498,0.06926825739131304,-0.1267755249974006
126,7.023074099997757,0.006453955568866107,-0.05048509321714243,0.04005041108948677,0.0029744700616573445,0.02820979443065737,0.004328076161469565,0.029011705758585606,0.09426941866978734,-0.010257323502301154,0.07750504185917548,0.07130345849501861,-0.1275635953578264
127,7.027287799995975,0.006466210798706393,-0.050370341465964405,0.04006781504736153,0.003092325157575637,0.02859127401006514,0.004285589938411537,0.02932425344764137,0.09456163025505933,-0.010774335696111432,0.0771930816012016,0.07333514609038957,-0.12834836206582162
128,7.031311300001107,0.006478944775927779,-0.05025404595335641,0.04008504311842785,0.0032114405624912748,0.02897395086250736,0.004241008310599323,0.029635506232845336,0.09486204300816302,-0.011294511906577435,0.07686405478319965,0.07536252059496142,-0.12912965139859725
129,7.035663199989358,0.006492162582265035,-0.05013620177476015,0.04010208681033064,0.003331810904996405,0.029357858089755745,0.0041943185221432495,0.02994539504262259,0.09517063789037329,-0.011817837731690027,0.07651790748165624,0.0773847868310769,-0.1299072891467763
130,7.039607499988051,0.00650586927718578,-0.0500168038920244,0.04011893757929193,0.003453430534157235,0.029743028710161153,0.004145507876767206,0.030253850597214853,0.09548739266028732,-0.012344298064852705,0.07615459048529123,0.07940115469653308,-0.1306811007065848
131,7.042930999989039,0.006520069896759353,-0.0498958471337682,0.04013558683035749,0.0035762935187133296,0.030129495645761607,0.004094563740658548,0.03056080342736883,0.0958122818943315,-0.012873877093076037,0.07577405873624433,0.08141083894106266,-0.13145091104036277
132,7.046346399991307,0.006534769452522615,-0.04977332619579598,0.04015202591765501,0.0037003936463469974,0.030517291709459014,0.004041473545326585,0.030866183889211814,0.09614527700546323,-0.013406558295276974,0.07537627024853845,0.08341305961335754,-0.13221654447923326
133,7.0497564999968745,0.00654997293034291,-0.049649235641564385,0.04016824614466376,0.003825724423002797,0.03090644959227833,0.0039862247904662255,0.031169922174200098,0.09648634626729025,-0.01394232443887865,0.07496118535697929,0.08540704271879807,-0.13297782440764086
134,7.053285999994841,0.006565685289278367,-0.049523569902700314,0.040184238764495936,0.003952279072237317,0.03129700185073918,0.003928805046843942,0.03147194831792491,0.09683545483808752,-0.01448115757556043,0.0745287674502032,0.08739201962717974,-0.13373457348686774
135,7.058241099992301,0.0065819114604356126,-0.049396323279569825,0.040199994980189675,0.004080050534609846,0.0316889808943091,0.003869201959195763,0.031772192215984596,0.09719256478013041,-0.015023039039663963,0.07407898530785874,0.08936722638932014,-0.13448661444388876
136,7.061870899997302,0.006598656345825145,-0.049267489941897585,0.040215505945013774,0.004209031467160413,0.0320824189729314,0.003807403249126115,0.03207058365167744,0.09755763507818907,-0.01556794945031799,0.07361181545262208,0.09133190352704713,-0.13523377046588303
137,7.06529299999238,0.006615924817214828,-0.04913706392943653,0.040230762762784145,0.004339214243024245,0.03247734816462785,0.0037433967179886455,0.03236705233088057,0.09793062165716444,-0.016115868713032465,0.07312724259569137,0.0932852958612738,-0.13597586493732133
138,7.069791799993254,0.006633721714982152,-0.04900503915268751,0.04024575648819182,0.004470590951191667,0.03287380036316907,0.0036771702497721847,0.032661527913342835,0.09831147739919334,-0.016666776019698758,0.07262525839084343,0.0952266526576278,-0.13671272145302849
139,7.07421739998972,0.006652051846965785,-0.04887140939366858,0.04026047812714273,0.004603153396375437,0.033271807265815447,0.0036087118139815624,0.03295394003749518,0.09870015216246131,-0.01722064985028933,0.07210586079175038,0.09715522781021038,-0.13744416409431987
140,7.077985099997022,0.006670919987316762,-0.04873616830673373,0.040274918637108977,0.004736893098971141,0.03367140036113952,0.003538009468509839,0.033244218346549996,0.09909659279979263,-0.01777746797508941,0.07156905486562509,0.09907027911784289,-0.13817001802074058
141,7.084452999988571,0.00669033087534972,-0.048599309419440566,0.04028906892749183,0.0048718012951354354,0.03407261091691715,0.0034650513625010854,0.03353229251988659,0.09950074317161454,-0.018337207461178538,0.07101485360522465,0.10097106731181421,-0.1388901104035842
142,7.087989899999229,0.006710289214394715,-0.04846082613346688,0.04030291985999614,0.005007868937000072,0.03447546996805469,0.0033898257391702376,0.03381809230571235,0.0999125441566904,-0.01889984468220604,0.07044327755568566,0.10285685587205302,-0.1396042709913635
143,7.092102399998112,0.006730799670650186,-0.04832071172557593,0.04031646224901612,0.005145086693014075,0.03488000830456684,0.00331232093858688,0.03410154754943269,0.10033193366359838,-0.01946535532944217,0.06985435344861407,0.10472691090770314,-0.14031233238587115
144,7.096587599997292,0.0067518668720375425,-0.048178959348630125,0.04032968686203223,0.005283444948387026,0.03528625645959662,0.003232525400405796,0.0343825882152742,0.10075884664049958,-0.020033714423784446,0.06924811282648156,0.10658050094694163,-0.14101412993699222
145,7.101318799992441,0.006773495407057705,-0.048035562032653134,0.04034258442001905,0.005422933805605978,0.03569424469747214,0.003150427666553727,0.034661144403538305,0.10119321508491823,-0.02060489632595875,0.06862459141970659,0.10841689685909801,-0.1417095013877602
146,7.105014599990682,0.006795689823649873,-0.04789051268594009,0.04035514559786389,0.005563543085018167,0.03610400300180561,0.0030660163838774866,0.034937146367190586,0.10163496805288041,-0.021178874745657366,0.06798382910880697,0.11023537207736588,-0.14239828654552233
147,7.109285699989414,0.006818454628052774,-0.047743804096215856,0.04036736102479604,0.005705262325481985,0.036515561063623955,0.002979280306756877,0.03521052452880857,0.10208403167049405,-0.02175562274908275,0.06732586984547596,0.11203520320382379,-0.14308032694014244
148,7.112794099986786,0.006841794283668689,-0.04759542893184115,0.040379221284826475,0.00584808078508665,0.03692894826956142,0.0028902082996918395,0.03548120949653329,0.10254032914797682,-0.02233511276532348,0.06665076123356904,0.11381567027232038,-0.14375546561364064
149,7.117252699987148,0.006865713209930524,-0.04744537974306622,0.04039071691719805,0.005991987441932081,0.03734419369010354,0.0027987893398638483,0.035749132077630995,0.10300378079336049,-0.022917316592198107,0.06595855417563175,0.11557605680106911,-0.14442354683085096
150,7.121953399997437,0.006890215781172131,-0.04729364896333201,0.040401838416845894,0.006136970994958162,0.037761326067890476,0.002705012519675836,0.03601422329158827,0.10347430402694388,-0.023502205400292915,0.06524930327885511,0.11731564935890135,-0.1450844158296246
151,7.125521499998285,0.006915306325502082,-0.04714022891061831,0.04041257623486812,0.0062830198648304416,0.0381803738060778,0.0026088670492809564,0.036276414386954337,0.10395181339149208,-0.024089749736787153,0.06452306797947469,0.11903373638190294,-0.14573791911008777
152,7.129563999988022,0.006940989123681151,-0.046985111788838976,0.04042292077900666,0.0064301221949054944,0.03860136495672222,0.002510342259091601,0.03653563686352245,0.10443622055712659,-0.024679919531828295,0.06377991353691467,0.12072960738433865,-0.14638390456618033
153,7.133544299998903,0.0069672684080038854,-0.04682828968928398,0.040432862414138245,0.006578265852295875,0.03902432720918193,0.0024094276022566417,0.036791822497205924,0.10492743432514799,-0.025272684103420248,0.06301991129358249,0.12240255305057206,-0.1470222210648512
154,7.137685199995758,0.006994148361184695,-0.046669754592108335,0.04044239146277528,0.006727438429036502,0.0394492878785332,0.0023061126571309446,0.037044903364318954,0.10542536063366889,-0.025868012160398073,0.062243138397238926,0.12405186559038905,-0.14765271847233327
155,7.141910699996515,0.0070216331152488515,-0.04650949836786775,0.04045149820557674,0.006877627243345825,0.03987627389401621,0.0022003871297285754,0.03729481186420908,0.10592990256430797,-0.026465871807528515,0.06144967747369021,0.12567683898847906,-0.14827524747013288
156,7.146095099989907,0.007049726750428764,-0.04634751277910095,0.04046017288186891,0.007028819340975104,0.04030531178750581,0.002092240856151095,0.03754148074089306,0.106440960349839,-0.027066230546997732,0.06063961640827715,0.12727676929420464,-0.14888965898955867
157,7.150206199992681,0.0070784332940658865,-0.04618378948195846,0.04046840569017588,0.007181001496644414,0.04073642768201911,0.001981663805028742,0.03778484310392348,0.10695843138322657,-0.027669055278942232,0.05981304817994607,0.12885095456857398,-0.14949580456675485
158,7.154523999997764,0.007107756719518596,-0.046018320027877826,0.04047618678876003,0.007334160215560554,0.04116964728025928,0.0018686460799444385,0.03802483244868379,0.10748221022484651,-0.028274312305805634,0.05897007095482262,0.13039869481826286,-0.15009353655311375
159,7.158955699997023,0.007137700945076366,-0.045851095865304975,0.04048350629617209,0.007488281735017052,0.04160499585318148,0.0017531779218397656,0.03826138267801111,0.10801218861098849,-0.02888196733456996,0.058110788441293894,0.13191929299569638,-0.15068270778654197
160,7.163132299989229,0.007168269832880577,-0.045682108341461816,0.04049035429181108,0.007643352026086807,0.04204249822860537,0.0016352497114209372,0.03849442812536062,0.10854825546915818,-0.029491985478455888,0.05723531010861554,0.13341205573518808,-0.15126317157830496
161,7.167109099988011,0.0071994671878523615,-0.04551134870415965,0.04049672081649384,0.0077993567954092935,0.04248217877990471,0.0015148519715510358,0.03872390357819501,0.10909029693252854,-0.03010433125904773,0.05634375111286582,0.13487629306319238,-0.15183478166041361
162,7.170562899991637,0.007231296756627865,-0.04533880810365814,0.04050259587303424,0.007956281487072208,0.04292406141473663,0.001391975369638815,0.03894974430055048,0.10963819635290059,-0.030718968607568512,0.055436231923998894,0.13631131872694602,-0.15239739205416292
163,7.174140899995109,0.007263762226501295,-0.045164477594569825,0.04050796942683206,0.008114111284581033,0.043368169563836004,0.0012666107200206306,0.03917188605341238,0.11019183431781042,-0.031335860865942616,0.05451287789015304,0.13771645076049732,-0.1529508571227135
164,7.17901300000085,0.007296867224376093,-0.04498834813780964,0.04051283140647146,0.00827283111290534,0.0438145261698829,0.0011387489863406565,0.03939026511376039,0.11075108866806407,-0.03195497078849577,0.05357381942501958,0.13909101114277428,-0.1534950320707642
165,7.183352299995022,0.0073306153157245224,-0.04481041060258938,0.04051717170432905,0.008432425640602256,0.04426315367643871,0.0010083812839190775,0.03960481829645827,0.11131583451208142,-0.03257626054705555,0.05261919276400585,0.1404343246929418,-0.15402977364143713
166,7.18719469998905,0.007365010003556004,-0.04463065576845664,0.04052098017719152,0.008592879282039664,0.044714074016929506,0.000875498882091088,0.039815482979409636,0.11188594423450435,-0.03319969173828295,0.05164914016139463,0.1417457184124661,-0.154554940497566
167,7.192205200000899,0.007400054727394668,-0.044449074327378275,0.04052424664688263,0.008754176199722949,0.04516730860365171,0.0007400932065158384,0.04002219712704098,0.11246128750522383,-0.03382522539185409,0.050663809216554466,0.14302452223485013,-0.15507039349785318
168,7.196180299986736,0.007435752862266485,-0.04426565688586824,0.04052696090089946,0.008916300306707967,0.0456228783168284,0.0006021558414493166,0.040224899310012496,0.11304173129404677,-0.0344528219800234,0.049663351951649316,0.1442700697232147,-0.15557599597299845
169,7.200323599987314,0.007472107717696327,-0.04408039396715946,0.04052911269305779,0.009079235269087075,0.04608080349373354,0.0004616785319760143,0.04042352872124805,0.11362713988536025,-0.03508244142803674,0.048647924036045766,0.14548169779339193,-0.15607161384402185
170,7.204612399989856,0.007509122536715186,-0.043893276013419524,0.0405306917441464,0.009242964508531641,0.046541103917866734,0.00031865318619765946,0.040618025189378404,0.11421737489056068,-0.03571404312465078,0.04761768432465698,0.14665874680637206,-0.15655711550392526
171,7.208690399987972,0.007546800494877775,-0.04370429338801009,0.0405316877425901,0.009407471204886709,0.047003798808177934,0.000173071877379875,0.04080832919104052,0.11481229526346512,-0.03634758593158981,0.046572794689811244,0.14780056119914653,-0.1570323716336174
172,7.212799699991592,0.007585144699290721,-0.043513436377789615,0.040532090345121397,0.009572738298812894,0.04746890680836674,2.4926846064490682e-05,0.04099438186296213,0.11541175731783829,-0.03698302819257759,0.045513420162819805,0.1489064898133543,-0.15749725504412485
173,7.217001400000299,0.007624158187651512,-0.04332069519545925,0.04053188917746061,0.00973874849447871,0.0479364459762487,-0.00012578949785678521,0.04117612501540501,0.11601561474545968,-0.03762032774151907,0.04443972927933297,0.14997588605392687,-0.15795164033471448
174,7.221319799995399,0.007663843927298448,-0.043126059981951514,0.04053107383500427,0.0099054842623111,0.04840643377320066,-0.00027908457309617086,0.041353501147040436,0.11662371863493262,-0.03825944190876952,0.043351894430863167,0.15100810803253825,-0.15839540373511837
175,7.22549219999928,0.007704204814271815,-0.04292952080886144,0.040529633883521765,0.010072927841807973,0.048878887053679036,-0.00043496562494680014,0.041526453461233105,0.11723591749091059,-0.03890032752804126,0.04225009210147548,0.15200251901504586,-0.15882842297403885
176,7.228897099994356,0.007745243672386563,-0.04273106768091999,0.04052755885986012,0.010241061244420318,0.04935382205482053,-0.000593439723292341,0.04169492588282929,0.11785205725652204,-0.03954294094161016,0.04113450268693426,0.15295848806668164,-0.1592505766611463
177,7.232153399992967,0.007786963252316772,-0.04253069053850923,0.0405248382726567,0.010409866256500415,0.049831254386141624,-0.0007545137606260593,0.0418588630729793,0.11847198133781059,-0.040187238002228266,0.040005309850709915,0.15387539081370005,-0.15966174403725958
178,7.235484799995902,0.007829366230692154,-0.04232837926021898,0.04052146160306001,0.01057932444230373,0.05031119901933681,-0.0009181944500758925,0.04201821044072148,0.11909553063231473,-0.04083317407631154,0.03886269985801763,0.1547526103503809,-0.16006180511898777
179,7.238821199993254,0.007872455209206777,-0.042124123665444414,0.04051741830545836,0.010749417147030729,0.050793670278209024,-0.0010844883234492739,0.042172914152423024,0.11972254356083753,-0.04148070404702131,0.03770686156753044,0.15558953685863613,-0.16045064064611575
180,7.2422504999995,0.00791623271374015,-0.04191791351702411,0.04051269780821643,0.010920125499905073,0.0512786818287246,-0.0012534017292831082,0.042322921143297,0.12035285609295236,-0.04212978231702681,0.03653798746716418,0.1563855663852047,-0.16082813266016888
181,7.246242799999891,0.007960701193490821,-0.04170973852391802,0.04050728951441975,0.0110914304173085,0.05176624666914984,-0.0014249408309109193,0.04246817913521338,0.1209863017688911,-0.04278036281626208,0.03535627514164137,0.15714010053807717,-0.16119416542484263
182,7.250356799995643,0.00800586302012279,-0.04149958834392519,0.04050118280262686,0.011263312606002945,0.05225637712028283,-0.0015991116045755097,0.04260863666007551,0.12162271172259662,-0.043432399012126505,0.03416192788561804,0.15785254667149487,-0.16154862567580483
183,7.25361939999857,0.008051720486925155,-0.04128745258644069,0.04049436702762901,0.011435752566454335,0.0527490848157763,-0.0017759198375785399,0.04274424308258588,0.12226191470510599,-0.04408584391926038,0.03295515392944674,0.15852231842530196,-0.16189140238403443
184,7.257091699997545,0.008098275807985377,-0.041073320815251536,0.04048683152121731,0.011608730596238681,0.053244380692558414,-0.001955371126472184,0.042874948617365884,0.12290373711196151,-0.044740650107833006,0.03173616510129921,0.15914883673618815,-0.16222238615097556
185,7.261239200001,0.008145531117376452,-0.04085718255137104,0.040478565592957066,0.011782226793504212,0.05374227498137712,-0.002137470875275685,0.04300070434091019,0.12354800301476576,-0.045396769708430436,0.030505175964386576,0.1597315306280317,-0.1625414689455452
186,7.264910400001099,0.008193488468358158,-0.040639027275911115,0.04046955853096928,0.011956221060474075,0.054242777197475944,-0.0023222242937065104,0.043121462201734365,0.12419453419497947,-0.04605415441821833,0.02926240390893165,0.16026983782935042,-0.16284854460379714
187,7.268449499999406,0.008242149832592529,-0.040418844432992,0.040459799602719296,0.012130693106990473,0.05474589613141148,-0.002509636395446708,0.043237175033072416,0.1248431501804662,-0.04671275550986752,0.028008069819376116,0.1607632052851355,-0.1631435092365648
188,7.272043399992981,0.00829151709937374,-0.04019662343268876,0.04044927805581236,0.012305622454119975,0.055251639840024486,-0.002699711996446189,0.04334779656841619,0.12549366828342634,-0.047372523841011024,0.026742398442717034,0.16121108902712109,-0.16342626136089147
189,7.275497999988147,0.00834159207487272,-0.03997235365401397,0.04043798311879593,0.012480988437823222,0.05576001563756391,-0.0028924557132655087,0.04345328145718944,0.12614590363589348,-0.04803340986423173,0.025465618447670483,0.1616129541463691,-0.16369670208415027
190,7.279626199990162,0.00839237648139669,-0.03974602444793595,0.040425904001968625,0.012656770212686907,0.05627103008694485,-0.003087871961459858,0.04355358528076534,0.12679966922744684,-0.04869536363800725,0.024177962608541433,0.1619682754375018,-0.16395473534076105
191,7.284334299998591,0.008443871956663934,-0.03951762514043208,0.040413029898195625,0.01283294675572292,0.056784688991177334,-0.0032859649540102915,0.04364866456962639,0.1274547759459137,-0.04935833483861056,0.022879667828394765,0.1622765374654149,-0.164200267931545
192,7.288229300000239,0.008496080053094043,-0.03928714503557633,0.04039934998373028,0.013009496870238987,0.05730099738495321,-0.0034867386998038877,0.043738476819569196,0.12811103261562096,-0.050022272771372875,0.021570974498111174,0.16253723464286465,-0.16443320912931786
193,7.292173099995125,0.008549002237113953,-0.03905457341866052,0.04038485341904178,0.01318639918976878,0.057819959526384,-0.0036901970021559925,0.043822980503684876,0.12876824603872453,-0.05068712637939705,0.02025212528989733,0.162749871664857,-0.164653469968871
194,7.295745799987344,0.008602639888479962,-0.038819899559348635,0.04036952934964873,0.013363632182039365,0.058341578888921816,-0.0038963434573607947,0.04390213507881414,0.12942622103697124,-0.05135284424908278,0.018923364092149213,0.1629139633518729,-0.16486096274727383
195,7.299274499993771,0.008656994299615821,-0.0385831127148634,0.04035336690695852,0.013541174152953469,0.058865858153434675,-0.004105181453258217,0.043975900988920284,0.13008476049176132,-0.05201937461480192,0.01758493583534349,0.16302903471440874,-0.16505560083980458
196,7.3032002999971155,0.008712066674966932,-0.038344202133204594,0.040336355209112475,0.013719003250584196,0.059392799200451145,-0.004316714167822273,0.0440442396701373,0.13074366538643184,-0.05268666536293622,0.01623708717256346,0.16309462105794653,-0.1652372985816019
197,7.308397099986905,0.008767858130370726,-0.03810315705639831,0.04031848336183665,0.013897097469198084,0.0599224031025774,-0.004530944567760588,0.04410711355964222,0.13140273484716747,-0.05335466403559627,0.014880067409558521,0.16311026764238357,-0.16540597155693376
198,7.312638799994602,0.008824369692443365,-0.03785996672377655,0.040299740459298294,0.014075434653321514,0.060454670117072416,-0.00474787540713281,0.04416448610821906,0.13206176618253176,-0.054023317836996806,0.013514129096488584,0.16307552964168592,-0.1655615369542538
199,7.316038899996784,0.008881602297982984,-0.037614620375286484,0.04028011558496778,0.014253992501865305,0.06098959967858452,-0.004967509226001646,0.04421632179391312,0.13272055492405188,-0.054692573640044886,0.012139527886789875,0.16298997223577202,-0.16570391332952303
200,7.319503899998381,0.008939556793389725,-0.03736710725482875,0.040259597812486,0.014432748572301457,0.06152719039205454,-0.005189848349104517,0.044262586133454365,0.13337889486649238,-0.05536237799080262,0.01075652179743989,0.162853170335112,-0.16583302026423147
201,7.32304179998755,0.008998233934102729,-0.037117416613624055,0.040238176206537045,0.01461168028488006,0.06206744002577778,-0.005414894884540656,0.04430324568993392,0.1340365781062144,-0.05603267711231177,0.009365370317973111,0.1626647085541641,-0.16594877819459733
202,7.327161900000647,0.009057634384054247,-0.036865537713607524,0.04021583982372616,0.01479076492686808,0.06261034550461719,-0.005642650722473665,0.044338268077027385,0.1346933950812348,-0.05670341690767624,0.007966334065438292,0.1624241814866688,-0.16605110803024906
203,7.332859199988889,0.00911775871514089,-0.03661145983085017,0.04019257771346294,0.014969979656800383,0.06315590290338907,-0.005873117533843531,0.04436762196388299,0.13534913461181003,-0.05737454296080525,0.006559675231474418,0.16213119331231254,-0.16613993079902903
204,7.33636079999269,0.009178607406712086,-0.0363551722590067,0.04016837891884971,0.015149301508758027,0.06370410744040415,-0.0061062967690751835,0.04439127708295778,0.1360035839373167,-0.05804600053662544,0.005145658032729424,0.1617853572443839,-0.1662151674894365
205,7.340671399986604,0.00924018084507591,-0.036096664312789156,0.04014323247757511,0.01532870739668262,0.06425495347115136,-0.0063421896567922255,0.04440920423854561,0.13665652875237191,-0.05871773458055083,0.0037245487797688,0.16138629558162984,-0.16627673866921966
206,7.345710299996426,0.0093024793230224,-0.03583592533146576,0.04011712742281291,0.015508174118723513,0.06480843448213079,-0.006580797202521208,0.044421375315170174,0.13730775324413286,-0.059389689715612766,0.002296615998686354,0.16093363980083011,-0.16632456436691623
207,7.349090499992599,0.009365503039364518,-0.03557294468238442,0.04009005278412606,0.01568767836161999,0.0653645430848389,-0.006822120187382168,0.044427763287095766,0.1379570401291653,-0.06006181024097258,0.0008621307468467498,0.1604270302276887,-0.1663585644270429
208,7.352499799992074,0.009429252098496883,-0.03530771176452017,0.040061997588376044,0.015867196705125323,0.06592327100989939,-0.007066159166780883,0.04442834222927182,0.13860417068808362,-0.06073404013192186,-0.0005786331869566333,0.15986611609028717,-0.16637865862839424
209,7.356401899989578,0.009493726509972478,-0.03504021601204607,0.040032950860637566,0.01604670562647739,0.06648460910132835,-0.0073129144690994114,0.04442308732846115,0.13924892480285125,-0.06140632303935106,-0.002025399522004374,0.15925055628053736,-0.1663847666840179
210,7.3606761999981245,0.009558926188097512,-0.03477044689792705,0.04000290162511845,0.016226181504912666,0.06704854731096656,-0.007562386194384055,0.044411974892249066,0.13989108099757408,-0.0620786022897496,-0.00347788996563094,0.1585800197228773,-0.16637680855675943
211,7.3640152999869315,0.009624850951544603,-0.03449839393753576,0.03997183890608491,0.016405600626209656,0.06761507469307426,-0.007814574213035896,0.04439498235629289,0.14053041647878026,-0.0627508208872244,-0.0049358244637337095,0.15785418544078364,-0.1663547048668581
212,7.36748409998836,0.009691500522984358,-0.034224046692290094,0.03993975172879207,0.016584939187261453,0.06818417939908902,-0.008069478164515075,0.044372088291306684,0.14116670717675114,-0.06342292151679375,-0.006398921456290575,0.1570727425950368,-0.16631837701045496
213,7.370851199986646,0.009758874528735507,-0.033947394773311435,0.03990662912041968,0.016764173300675613,0.06875584867255445,-0.008327097456057945,0.044343272408245905,0.14179972778611036,-0.06409484654736355,-0.007866898347646426,0.156235390576371,-0.16626774704112499
214,7.37506449999637,0.009826972498433657,-0.03366842784510312,0.03987246011101301,0.016943278999388627,0.06933006884420607,-0.0085874312614054,0.044308515561491756,0.1424292518079034,-0.06476653803406382,-0.009339471618937938,0.15534183942581725,-0.16620273748565256
215,7.379378599987831,0.009895793864718708,-0.03338713562924842,0.039837233734428844,0.017122232241291516,0.06990682532724012,-0.00885047851953891,0.044267799753127314,0.14305505159358348,-0.0654379377197362,-0.010816356113997361,0.154391809663857,-0.1661232712259523
216,7.385444599989569,0.009965337962940992,-0.033103507908127244,0.03980093902928659,0.01730100891387886,0.07048610261275481,-0.009116237933420871,0.04422110814189253,0.1436768983857106,-0.06610898703631629,-0.012297263902137074,0.1533850317786792,-0.16602927118343389
217,7.389635499988799,0.01003560403088626,-0.03281753452865093,0.03976356503992444,0.01747958483894677,0.07106788426534809,-0.00938470796874181,0.04416842505665023,0.14429456235780194,-0.06677962710377047,-0.013781903716320135,0.1523212464748288,-0.16592065971403605
218,7.393114499995136,0.010106591208519783,-0.03252920540601455,0.03972510081736062,0.017657935777350715,0.0716521529188809,-0.009655886852652144,0.0441097360098813,0.14490781265704022,-0.06744979872658947,-0.015269981258652096,0.15120020534346545,-0.16579735848991634
219,7.396579499996733,0.010178298537749784,-0.03223851052746592,0.03968553542025981,0.017836037433812565,0.07223889027242003,-0.00992977257248105,0.04404502770868199,0.14551641744954055,-0.06811944239176916,-0.016761199552189122,0.150021671376229,-0.16565928870993193
220,7.40049739999813,0.01025072496221039,-0.03194543995609072,0.03964485791590469,0.01801386546176729,0.07282807708636727,-0.010206362874451907,0.043974288065416096,0.14612014396721132,-0.06878849826700498,-0.018255258963787005,0.1487854193598638,-0.16550637099448604
221,7.404095899997628,0.010323869327064231,-0.031649983834612753,0.039603057381172806,0.018191395468256075,0.07341969317878085,-0.01048565526238657,0.04389750620852766,0.14671875855621003,-0.06945690619782299,-0.019751857358761914,0.14749123636182063,-0.16533852530635557
222,7.4086175999982515,0.010397730378824925,-0.03135213238920879,0.03956012290351857,0.018368603018860397,0.07401371742189622,-0.010767646996397637,0.043814672491943325,0.14731202672772836,-0.07012460570513455,-0.02125069038368256,0.14613892230829476,-0.16515567138475248
223,7.41277729999274,0.01047230676519956,-0.031051875933336977,0.039516043581960654,0.01854546364267112,0.0746101277388579,-0.011052335091572954,0.043725778503599745,0.14789971321111917,-0.070791535985875,-0.022751451607644368,0.14472829034059898,-0.1649577290875302
224,7.417031099990709,0.01054759703495133,-0.030749204871578062,0.03947080852807468,0.018721952837291493,0.07520890110066955,-0.011339716316673045,0.04363081707370433,0.14848158200756137,-0.07145763591332367,-0.02425383253847331,0.14325916701897234,-0.16474461787787306
225,7.421359599989955,0.010623599637782444,-0.030444109703488466,0.03942440686699109,0.018898046073872993,0.07581001352335948,-0.01162978719281821,0.043529782283131715,0.14905739644483396,-0.07212284403359459,-0.02575752265571748,0.14173139269702967,-0.16451625686380672
226,7.425325899996096,0.01070031292423746,-0.030136581027464394,0.039376827738398484,0.01907371880218617,0.07641344006537336,-0.011922543992157586,0.04342266947141788,0.14962691923400684,-0.07278709856627573,-0.02726220962135533,0.1401448216785842,-0.16427256582423394
227,7.429598999995505,0.010777735145627168,-0.029826609544616,0.039328060297552224,0.019248946455721103,0.07701915482519789,-0.012217982736561417,0.04330947524345389,0.1501899125254821,-0.0734503374092111,-0.02876757951275793,0.13849932194139167,-0.16401346532682054
228,7.43375539999397,0.01085586445397315,-0.02951418606265068,0.03927809371628833,0.019423704456812324,0.07762713093920634,-0.012516099196328756,0.04319019747559742,0.1507461379634525,-0.07411249814009271,-0.030273316839325545,0.13679477500815845,-0.16373887658355263
229,7.437812899996061,0.01093469890197307,-0.029199301499764668,0.03922691718404255,0.019597968221788668,0.0782373405797223,-0.012816888888892606,0.043064835322232084,0.15129535674090017,-0.0747735180200754,-0.03177910434532481,0.13503107606999332,-0.16344872201617003
230,7.4412554999871645,0.011014236442986847,-0.02888194688854196,0.03917451990887472,0.01977171316615121,0.07884975495330969,-0.013120347077556825,0.042933389223472215,0.1518373296550529,-0.07543333399993804,-0.03328462277946986,0.13320813387974764,-0.16314292540062592
231,7.444694899997557,0.011094474931043796,-0.02856211337985973,0.039120891118498036,0.019944914709785367,0.07946434429928463,-0.01342646877025106,0.04279586091358422,0.1523718171615209,-0.0760918827248658,-0.034789550849180444,0.1313258705762574,-0.16282141189365046
232,7.448842300000251,0.011175412120870917,-0.028239792246799292,0.03906602006131344,0.020117548282206892,0.08008107788844296,-0.0137352487183063,0.042652253429061024,0.15289857942833265,-0.07674910054082604,-0.03629356541801013,0.12938422190131355,-0.16248410805883376
233,7.452241199993296,0.011257045667942429,-0.027914974888561782,0.03900989600744884,0.020289589327839225,0.08069992402200875,-0.01404668141526133,0.042502571115447974,0.15341737639182515,-0.07740492349956124,-0.037796341817398625,0.1273831374291726,-0.16213094159047425
234,7.456469599987031,0.011339373128550706,-0.02758765283438763,0.03895250824980313,0.02046101331131465,0.08132085003081348,-0.014360761095678637,0.04234681963289801,0.15392796781253434,-0.0780592873627334,-0.039297553850121854,0.12532258037574773,-0.16176184120858678
235,7.460367099993164,0.01142239195989865,-0.027257817747478867,0.038893846105094956,0.02063179572279654,0.08194382227469621,-0.014677481733984345,0.0421850059629697,0.1544301133295435,-0.07871212760606854,-0.040796873268103606,0.12320252728938019,-0.16137673634332822
236,7.464481299990439,0.011506099520213635,-0.026925461428923454,0.038833898914916114,0.020801912083335438,0.08256880614212195,-0.014996837043317623,0.04201713841840222,0.15492357251387479,-0.07936337942095081,-0.04229396921296974,0.12102296786189891,-0.16097555708212619
237,7.467719399995985,0.011590493068883162,-0.026590575821620662,0.03877265604678963,0.020971337950270303,0.08319576605001328,-0.015318820474383502,0.04184322665443428,0.15540810492131069,-0.08001297771813987,-0.043788508160366425,0.11878390489465528,-0.16055823464316832
238,7.471285099993111,0.011675569766612453,-0.026253153014206766,0.03871010689523243,0.021140048922676066,0.08382466544379556,-0.015643425214332315,0.04166328167902912,0.15588347014551118,-0.08066085713319121,-0.0452801545742934,0.11648535444131197,-0.1601247011521
239,7.475328699991223,0.011761326675604129,-0.025913185244980062,0.03864624088282246,0.021308020646847486,0.08445546679765785,-0.015970644185656323,0.041477315858905704,0.1563494278719891,-0.08130695202836902,-0.04676857217915361,0.11412734621863094,-0.15967488920788245
240,7.479566299996804,0.011847760759760117,-0.02557066490582445,0.03858104746127027,0.02147522882179546,0.08508813161503423,-0.01630047004508461,0.04128534291948422,0.1568057379345468,-0.08195119649455823,-0.048253425248267715,0.111709923967112,-0.15920873190901974
241,7.484252399997786,0.011934868884905742,-0.025225584546130563,0.03851451611249509,0.021641649204730436,0.0857226204293208,-0.016632895182495163,0.04108737794050477,0.15725216037216588,-0.08259352435338928,-0.04973437932036683,0.10923314530413739,-0.15872616280108592
242,7.487823499992373,0.01202264781903595,-0.024877936876713552,0.038446636349705174,0.02180725761652331,0.08635889280481678,-0.016967911719826933,0.04088343735018285,0.15768845548425714,-0.08323386915872615,-0.05121110142687472,0.10669708179241749,-0.15822711615299986
243,7.491987399989739,0.012111094232583526,-0.024527714773726617,0.038377397718482684,0.02197202994714162,0.08699690733788791,-0.01730551151000394,0.040673538918991343,0.1581143838881034,-0.08387216420102368,-0.052683260107951026,0.10410181948527988,-0.15771152737758326
244,7.496091399996658,0.012200204698709251,-0.02417491128256938,0.03830678979787274,0.02213594216106018,0.08763662165837181,-0.017645686135882556,0.040457701753686376,0.15852970657851592,-0.08450834251221423,-0.05415052510344378,0.10144745924057261,-0.1571793332812133
245,7.4997426999907475,0.012289975693613842,-0.023819519621790075,0.038234802201476785,0.022298970302649015,0.08827799243122346,-0.017988426909215083,0.04023594629358674,0.15893418498781398,-0.08514233687208236,-0.05561256651484509,0.09873411682116898,-0.1566304724324781
246,7.503214599986677,0.012380403596871642,-0.023461533186980608,0.03816142457855003,0.02246109050155392,0.0889209753584052,-0.01833372486964856,0.040008294311372,0.15932758104629338,-0.08577407981613065,-0.05706905368758027,0.09596192296657324,-0.15606488525403278
247,7.506646800000453,0.012471484691786055,-0.023100945554663476,0.03808664661510289,0.022622278978090833,0.0895655251810209,-0.01868157078375191,0.03977476891839419,0.1597096572427847,-0.0864035036426967,-0.058519654507851834,0.09313102364839011,-0.15548251417992215
248,7.510759099997813,0.012563215165766818,-0.022737750486169595,0.038010458035006314,0.022782512048669344,0.09021159568169537,-0.01903195514407224,0.039535394571158164,0.16008017668718635,-0.0870305404220902,-0.059964035753768394,0.09024158050553313,-0.15488330382711937
249,7.514908199998899,0.012655591110729262,-0.022371941931505976,0.03793284860110085,0.022941766131239414,0.09085913968721382,-0.01938486816823585,0.0392901970737958,0.1604389031745396,-0.08765512200509624,-0.06140186441042452,0.08729377130452318,-0.1542672003905581
250,7.518842099991161,0.012748608523515606,-0.022003514033212226,0.0378538081163092,0.023100017750734884,0.09150810907141903,-0.019740299798073232,0.03903920357391913,0.1607856012512814,-0.08827718002722358,-0.06283280879776279,0.08428779033945381,-0.15363415090662427
251,7.522859799995786,0.012842263306338204,-0.021632461130204818,0.037773326424752396,0.02325724354448669,0.09215845475838626,-0.020098239698754412,0.03878244255598024,0.16112003628255167,-0.08889664591125614,-0.06425653858672518,0.08122384822860837,-0.1529841032926752
252,7.526497799990466,0.012936551267244585,-0.02125877776160793,0.03769139341286933,0.0234134202676127,0.09281012672586432,-0.020458677257934578,0.0385199438369939,0.16144197451680237,-0.08951345087182068,-0.06567272411559572,0.07810217157315834,-0.15231700688602265
253,7.529881499998737,0.013031468120604251,-0.020882458670569905,0.03760799901053983,0.023568524798396377,0.09346307400897258,-0.020821601584926314,0.03825173856542211,0.16175118315034678,-0.09012752592229387,-0.0670810355449451,0.07492300291063421,-0.15163281257569985
254,7.534194599997136,0.013127009487617186,-0.020503498808064225,0.03752313319221088,0.0237225341436676,0.09411724470416366,-0.021187001509901063,0.037977859223725666,0.1620474303915927,-0.09073880188043472,-0.06848114214141116,0.07168660065562613,-0.15093147285494465
255,7.537694399987231,0.013223170896844138,-0.02012189333667394,0.037436785978026146,0.023875425444201927,0.09477258597343952,-0.021554865583106868,0.0376983396330365,0.16233048552511234,-0.09134720937571579,-0.06987271208356094,0.06839323952055987,-0.15021294237326005
256,7.541929299986805,0.013319947784758755,-0.01973763763435857,0.03734894743495854,0.024027175980139204,0.09542904404883189,-0.02192518207412908,0.03741321495727808,0.16260011897927593,-0.09195267885941687,-0.07125541261299065,0.0650432110616556,-0.14947717821268214
257,7.546196799987229,0.013417335496321658,-0.019350727298202336,0.03725960767794569,0.024177763176416105,0.09608656423716493,-0.022297938971189667,0.03712252170661673,0.16285610239473353,-0.09255514061418867,-0.07262891002147488,0.06163682386994953,-0.148724139887933
258,7.550301600000239,0.013515329285576479,-0.018961158148142563,0.037168756871028184,0.02432716460821263,0.09674509092508905,-0.022673123980485207,0.036826297741685825,0.16309820869359223,-0.09315452476414778,-0.0739928693579546,0.05817440388669476,-0.147953789385636
259,7.554444499997771,0.013613924316267944,-0.01856892623067724,0.037076385228490376,0.0244753580064188,0.09740456758440261,-0.023050724525567775,0.036524582279405006,0.16332621215044682,-0.09375076128475725,-0.07534695411662423,0.054656294506840467,-0.14716609108552287
260,7.558495399993262,0.013713115662482088,-0.018174027822550426,0.036982483016003646,0.02462232126312815,0.0980649367776597,-0.02343072774676278,0.03621741589972494,0.16353988846239312,-0.09434378001228481,-0.0766908260464192,0.05108285646277921,-0.14636101183922304
261,7.561890199998743,0.013812898309308735,-0.017776459434414475,0.036887040551771916,0.024768032437158957,0.09872614016405767,-0.02381312050062628,0.03590484055298607,0.16373901481911923,-0.09493351065432018,-0.07802414492701987,0.047454467811398275,-0.14553852132542924
262,7.565208499989239,0.013913267153526327,-0.017376217814467874,0.036790048207679275,0.024912469759607193,0.09938811850561131,-0.024197889359447822,0.035586899568473475,0.1639233699728143,-0.09551988280210334,-0.07934656847024771,0.04377152398443173,-0.1446985924577058
263,7.569009799990454,0.014014217004309276,-0.016973299952067582,0.03669149641043953,0.025055611639436867,0.10005081167360527,-0.024585020610807376,0.035263637662572477,0.16409273430866653,-0.0961028259443374,-0.08065775266890772,0.04003443814593223,-0.14384120156794203
264,7.573001400000066,0.014115742583957971,-0.01656770308131471,0.03659137564274739,0.025197436669098905,0.100714158655338,-0.024974500257189787,0.03493510094450449,0.16424688991766082,-0.09668226948099938,-0.0819573523293442,0.036243641759861264,-0.14296632817014954
265,7.577098899986595,0.01421783852865154,-0.016159424684612376,0.03648967644443117,0.025337923630167836,0.10137809756116242,-0.02536631401565333,0.03460133692017899,0.16438562067166346,-0.09725814273524426,-0.08324502142915394,0.0323995852002244,-0.1420739545923789
266,7.581257999991067,0.014320499389223399,-0.01574846249619448,0.036386389413606626,0.0254770514989918,0.10204256563183663,-0.025760447317540354,0.0342623944950387,0.16450871230115022,-0.09783037496424131,-0.08452041342995174,0.028502737990593715,-0.14116406595005646
267,7.584686199988937,0.014423719631959679,-0.015334814505624154,0.03628150520783198,0.025614799452352222,0.10270749924619267,-0.026156885308233402,0.03391832397538406,0.16461595247222674,-0.09839889537086266,-0.08578318168502434,0.024553588555442332,-0.14023665022503634
268,7.588152999989688,0.01452749363942051,-0.014918478961260586,0.03617501454526377,0.02575114687312453,0.1033728339291097,-0.026555612846960314,0.03356917706792417,0.1647071308623471,-0.09896363311515845,-0.08703297994192145,0.02055264403611568,-0.1392916985419269
269,7.591998399992008,0.014631815711284189,-0.014499454373693016,0.036066908205813424,0.025886073355934198,0.10403850435979461,-0.02695661450664308,0.03321500687703981,0.16478203923584703,-0.0995245173282784,-0.08826946284903711,0.016500430236859345,-0.13832920572013913
270,7.596313599991845,0.014736680065214173,-0.014077739519140651,0.03595717703230433,0.026019558712795342,0.10470444438036557,-0.027359874573815435,0.03285586790024063,0.1648404715192264,-0.10008147712840809,-0.08949228633669909,0.012397491668167853,-0.13734917032626848
271,7.600519299987354,0.014842080837748812,-0.013653333442817304,0.03584581193162909,0.02615158297873006,0.105370587004741,-0.02776537704860051,0.03249181602234861,0.16488222387703272,-0.10063444163511386,-0.09070110800845316,0.008244391416937573,-0.13635159459579346
272,7.60457339999266,0.014948012085213755,-0.013226235462259466,0.03573280387590676,0.026282126417360014,0.10603686442783639,-0.028173105644744335,0.03212290850779327,0.16490709478609425,-0.10118333998464626,-0.09189558740399957,0.004041710788170565,-0.1353364846428763
273,7.608793699997477,0.015054467784656864,-0.012796445170616634,0.035618143903639814,0.02641116952646352,0.10670320803505311,-0.028583043789717155,0.031749203992670304,0.16491488510850819,-0.10172810134598044,-0.09307538580856892,-0.00020995088990423053,-0.13430385051316882
274,7.612138199998299,0.015161441834805531,-0.012363962439902699,0.035501823120870614,0.02653869304350295,0.10736954841206503,-0.028995174624876573,0.031370762478577244,0.16490539816429892,-0.10226865493654629,-0.094240165572504,-0.004509976464944715,-0.133253706144601
275,7.615781999993487,0.01526892805704626,-0.011928787424207186,0.035383832702337026,0.026664677951131997,0.10803581535489455,-0.029409481005695966,0.030987645330170576,0.16487843980279715,-0.10280493003795191,-0.09538958952260577,-0.008857731198513678,-0.13218606935378985
276,7.620797399998992,0.01537692019642648,-0.011490920562865227,0.03526416389262703,0.026789105482703354,0.10870193788027598,-0.029825945502054696,0.030599915273758358,0.16483381847337475,-0.10333685601160403,-0.09652332155094837,-0.013252562986253815,-0.13110096162601903
277,7.625044299988076,0.015485411922678645,-0.01105036258358504,0.035142808007332015,0.026911957127764594,0.10936784423630318,-0.030244550398592758,0.030207636390099078,0.1647713452950446,-0.10386436231273422,-0.09764102815963635,-0.017693802646044848,-0.12999840761540232
278,7.62967049999861,0.015594396831266457,-0.010607114505531869,0.035019756434198517,0.02703321463750766,0.11003346191335542,-0.030665277695114332,0.02981087410051103,0.1646908341248669,-0.1043873785019801,-0.09874237948953203,-0.022180764207658146,-0.12887843485566344
279,7.633983199993963,0.015703868444452998,-0.010161177642367167,0.03489500063427825,0.0271528600301525,0.1106987176552978,-0.03108810910703602,0.029409695151357995,0.1645921016252082,-0.1049058342570744,-0.09982704894590813,-0.026712744963335436,-0.1277410740231687
280,7.637684199988143,0.015813820212390466,-0.00971255360524202,0.03476853214307622,0.027270875596271168,0.11136353747095062,-0.03151302606588487,0.02900416760318372,0.16447496733173905,-0.10541965938655175,-0.10089471178130782,-0.031289024980291257,-0.12658635917345099
281,7.641987199996947,0.015924245514231324,-0.009261244305743658,0.03464034257169674,0.02738724390408367,0.1120278466458393,-0.031940009719857346,0.028594360826649564,0.16433925372463254,-0.10592878384334901,-0.10194504391567201,-0.035908866340119305,-0.12541432754399887
282,7.6462591999879805,0.01603513765926084,-0.008807251958793914,0.03451042360798702,0.027501947804749242,0.11269156975423908,-0.032369040934427294,0.028180345501203595,0.16418478630270825,-0.1064331377369185,-0.10297772174890225,-0.040571512641093946,-0.12422501934398525
283,7.650432099995669,0.016146489888050983,-0.008350579085498409,0.03437876701767826,0.027614970437651418,0.11335463067152415,-0.032800100293002794,0.027762193612532907,0.1640113936586528,-0.10693265134512907,-0.10399242250252758,-0.04527618890933292,-0.1230184774784151
284,7.654418399994029,0.016258295373635687,-0.007891228515945216,0.03424536464552395,0.027726295235668736,0.11401695258682021,-0.033233168097630265,0.027339978448471695,0.16381890755388168,-0.10742725512415013,-0.10498882430890889,-0.050022101774977915,-0.12179474740286866
285,7.658507899992401,0.016370547222707334,-0.0074292033919517945,0.034110208416435264,0.027835905930426744,0.1146784580159585,-0.03366822436973123,0.02691377459573271,0.16360716299233602,-0.10791687971917899,-0.10596660601354801,-0.054808439619469004,-0.12055387767593974
286,7.6628467999980785,0.016483238476834448,-0.006964507169758981,0.033973290336613414,0.027943786557542278,0.11533906881472475,-0.03410524885089308,0.026483657937412888,0.16337599829415433,-0.10840145597878903,-0.10692544734286585,-0.059634372426975356,-0.11929592047245195
287,7.666923500000848,0.016596362113700573,-0.006497143622670853,0.033834602494678644,0.02804992146185532,0.1159987061924086,-0.03454422100372182,0.026049705648368972,0.16312525517066992,-0.10888091496980445,-0.10786502932513842,-0.06449905162758951,-0.11802093175378654
288,7.67340189999959,0.01670991104836424,-0.006027116843639223,0.033694137062795684,0.028154295302635905,0.11665729072565853,-0.03498512001275301,0.025611996189321546,0.16285477879934968,-0.10935518799302489,-0.10878503465846244,-0.06940161018040479,-0.11672897166304619
289,7.67742759999237,0.016823878134539925,-0.005554431247791545,0.03355188629779541,0.028256893058768332,0.11731474237263691,-0.03542792478543157,0.025170609299257116,0.1625644178981202,-0.10982420660129343,-0.10968514821074732,-0.0743411626217516,-0.11542010499800849
290,7.681253599992488,0.0169382561658999,-0.0050790915749010235,0.03340784254229236,0.028357700033896673,0.11797098048747555,-0.035872613953168764,0.024725625985491675,0.16225402479991682,-0.1102879026190432,-0.11056505747284334,-0.0793168050235694,-0.11409440146040448
291,7.685474400001112,0.017053037877396784,-0.004601102891797697,0.03326199822579785,0.028456701861528686,0.11862592383503318,-0.03631916587247996,0.024277128512411053,0.16192345552734605,-0.11074620816237986,-0.11142445280197834,-0.08432761496149876,-0.11275193577545317
292,7.689438299988978,0.017168215946606634,-0.004120470594719292,0.03311434586582831,0.028553884510090336,0.11927949060595436,-0.036767558626203865,0.023825200389567248,0.16157256986749247,-0.11119905565959412,-0.11226302732341407,-0.08937265136251675,-0.11139278799352548
293,7.692733499992755,0.01728378299509234,-0.0036372004116006235,0.032964878069008545,0.028649234287933513,0.11993159843203147,-0.03721777002480608,0.023369926361213496,0.16120123144781248,-0.11164637787368198,-0.11308047646345111,-0.09445095418639685,-0.11001704371338804
294,7.696584799996344,0.017399731589787186,-0.003151298404300299,0.03281358753216953,0.028742737848305985,0.12058216440187693,-0.037669777607780314,0.022911392398174416,0.16080930781351532,-0.11208810792466131,-0.11387649769303138,-0.09956154415389389,-0.10862479391251251
295,7.700571599998511,0.017516054244398407,-0.002662770970763472,0.03266046704344034,0.02883438219429342,0.12123110507691048,-0.03812355864513227,0.022449685689453033,0.16039667050565334,-0.11252417931072081,-0.11465079119162844,-0.10470342278796681,-0.10721613501136709
296,7.704065899990383,0.01763274342083069,-0.0021716248471193573,0.03250550948333397,0.028924154683721514,0.12187833650766251,-0.038579090138951784,0.021984894628736,0.1599631951381699,-0.11295452593105614,-0.11540306077454936,-0.10987557289194078,-0.10579116914998854
297,7.708802999986801,0.017749791530629333,-0.0016778671097122334,0.032348707825826564,0.02901204303398896,0.12252377425038391,-0.03903634882508123,0.02151710879850705,0.1595087614721256,-0.11337908210925382,-0.1161330143528631,-0.11507695929308562,-0.10435000408375424
298,7.714732699998422,0.017867190936442817,-0.0011815051770647318,0.03219005513942973,0.029098035326841194,0.12316733338394922,-0.039495311174876646,0.021046418952835527,0.15903325348673727,-0.11379778261528517,-0.11684036482107167,-0.1203065297117926,-0.10289275286652674
299,7.719339399991441,0.017984933953504537,-0.0006825468117722459,0.03202954458825554,0.029182120013064288,0.12380892852704062,-0.03995595339705385,0.020572916994316532,0.15853655944658046,-0.11421056268632965,-0.11752483127342568,-0.12556321578292706,-0.10141953369338626
300,7.723148699995363,0.018103012851133297,-0.00018100012232735642,0.031867169433073966,0.02926428591707234,0.12444847385559407,-0.04041825143961786,0.020096695947030348,0.1580185719643747,-0.11461735804749787,-0.11818613964151663,-0.13084593397364674,-0.09993046988756511
301,7.72727859999577,0.018221419854252123,0.0003231264351267443,0.031702923032362246,0.029344522241382842,0.1250858831204907,-0.04088218099187646,0.01961784992833018,0.15747918806076902,-0.11501810493254942,-0.11882402274044804,-0.13615358605456068,-0.09842568981480823
302,7.731194599997252,0.018340147144924917,0.0008298240551147913,0.031536798843346044,0.029422818570976107,0.12572106966548613,-0.04134771748653705,0.019136474121428472,0.15691830922331998,-0.1154127401039238,-0.11943821982159779,-0.14148505911737652,-0.0969053265022278
303,7.73467379999056,0.0184591868639105,0.0013390835812209087,0.03136879042303191,0.02949916487754909,0.12635394644537834,-0.041814836101882094,0.018652664750798794,0.1563358414661344,-0.11580120087037817,-0.12002847575093936,-0.1468392253034872,-0.09536951719765452
304,7.738066099991556,0.01857853111223365,0.0018508955045539667,0.031198891429230827,0.02957355152367604,0.12698442604441906,-0.04228351176400846,0.018166519061402174,0.15573169539104073,-0.11618342510345739,-0.12059453983225077,-0.15221494120387535,-0.09381840336316148
305,7.741776599999866,0.018698171952772746,0.0023652499622878243,0.031027095621572593,0.029645969266894452,0.127612420694976,-0.04275371914913601,0.017678135303598685,0.15510578625208118,-0.11655935125507948,-0.1211361638872694,-0.15761104675104243,-0.09225213104334666
306,7.745519099989906,0.018818101411863845,0.0028821367362774973,0.030853396862510703,0.029716409263743783,0.1282378422964653,-0.04322543268598903,0.017187612727888126,0.15445803402563746,-0.11692891837698172,-0.12165309959965315,-0.16302636377690094,-0.09067085152242157
307,7.7490480999986175,0.018938311480920966,0.003401545251752395,0.030677789118317485,0.02978486307380891,0.12886060243458047,-0.04369862655826195,0.016695051591285166,0.15378836348657668,-0.11729206614361606,-0.12214509648351343,-0.1684596947802112,-0.08907472215259472
308,7.752548799995566,0.019058794118072816,0.0039234645760878786,0.030500266460069064,0.029851322663810353,0.1294806124008403,-0.044173274707185815,0.016200553168476392,0.1530967042883374,-0.11764873487828949,-0.12261190199519903,-0.17390982258483673,-0.08746390659154356
309,7.756444099999499,0.019179541249816152,0.004447883417656464,0.030320823064619754,0.02991578041173791,0.13009778321246485,-0.044649350834205244,0.01570421975729213,0.1523829910418373,-0.11799886557797838,-0.1230532645705308,-0.17937551163695112,-0.08583857382836388
310,7.76044249998813,0.019300544772685904,0.004974790124759999,0.030139453215565392,0.029978229110985088,0.13071202563256099,-0.04512682840374542,0.01520615466531947,0.15164716338507633,-0.11834239993159756,-0.12346893935139035,-0.1848555110256817,-0.08419889643513216
311,7.764669500000309,0.019421796554941945,0.005504172684643989,0.029956151304195364,0.030038661974374548,0.131323250190561,-0.04560568064603667,0.014706462169097281,0.15088916603763447,-0.11867928033068549,-0.12385869357005952,-0.19034855781785567,-0.08254504906207905
312,7.768839899988961,0.019543288438271744,0.006036018722594936,0.02977091183043312,0.030097072637962807,0.13193136720284837,-0.04608588055996783,0.01420524745721818,0.1501089488433267,-0.1190094498755127,-0.12422230800195729,-0.19585337866505045,-0.08087720797613512
313,7.773203699995065,0.019665012239507885,0.006570315501121343,0.029583729403765135,0.03015345516460588,0.1325362867935412,-0.04656740091596017,0.013702616577783915,0.1493064668117141,-0.11933285238203796,-0.12455957489512484,-0.2013686890946331,-0.07919555162046858
314,7.7774135999934515,0.019786959752359532,0.007107049919219007,0.02939459874415821,0.030207804047339366,0.13313791891545343,-0.04705021425887697,0.013198676398239241,0.14848168016648797,-0.11964943239253842,-0.12487029517562764,-0.20689319166514533,-0.07750026183080247
315,7.780802599998424,0.019909122749157262,0.007646208511721408,0.029203514682964917,0.030260114212619506,0.1337361733712691,-0.04753429291098335,0.012693534575410578,0.14763455440188725,-0.11995913519239483,-0.12515427630462617,-0.2124255741204213,-0.07579152522887243
316,7.784513199992943,0.020031492982610723,0.008187777448736114,0.029010472163816966,0.03031038102346115,0.1343309598349597,-0.0480196089749915,0.01218729953265698,0.1467650603459994,-0.12026190683198226,-0.12541133141057859,-0.21796450804734893,-0.07406953387377097
317,7.788006099988706,0.020154062187578824,0.008731742535168247,0.02881546624350606,0.030358600282494173,0.13492218787346988,-0.04850613433719741,0.011680080436921498,0.1458731742280245,-0.12055769414871892,-0.1256412800383497,-0.2235086487215958,-0.07233448527459209
318,7.7919710999995,0.020276822082852093,0.009278089210332126,0.028618492092851916,0.03040476823491599,0.13550976696867825,-0.04899384067070424,0.011171987169828573,0.1449588777428228,-0.120846444789059,-0.12584394985234312,-0.229056636757977,-0.07058658196965541
319,7.796166399988579,0.020399764372946723,0.009826802547652204,0.028419544997557056,0.030448881571314416,0.1360936065396049,-0.049482699438736816,0.010663130290972314,0.14402215810484204,-0.12112810722714121,-0.12601917865473783,-0.23460710110052038,-0.06882603015304142
320,7.8003653999912785,0.020522880749909746,0.010377867254454167,0.02821862035904805,0.0304909374303235,0.13667361596480787,-0.0499726818980157,0.010153620992704438,0.14306300808850228,-0.12140263077568261,-0.12616681573330013,-0.24015866154583412,-0.06705303828697959
321,7.804669399993145,0.02064616289513454,0.010931267671846859,0.028015713695303052,0.030530933401081036,0.13724970460491703,-0.050463759102159694,0.009643571052530829,0.14208142606173182,-0.1216699655934138,-0.1262867211117424,-0.2457099289097252,-0.06526781699644733
322,7.808022400000482,0.020769602481185857,0.011486987774695482,0.02781082064166553,0.030568867525499706,0.1378217818253016,-0.050955901905120005,0.009133092793957352,0.14107741602500543,-0.12193006269512094,-0.12637876261098646,-0.25125950267681463,-0.06347058018729922
323,7.811602299989317,0.020893191173633693,0.012045011171686692,0.027603936951644054,0.03060473830040818,0.13838975701891945,-0.0514490809646639,0.00862229906263447,0.1400509876638739,-0.12218287396811665,-0.1264428127200163,-0.25680596805848893,-0.061661546577538355
324,7.81575549999252,0.021016920632895612,0.012605321105486449,0.02739505849769789,0.0306385446796295,0.13895353962940912,-0.05194326674594198,0.008111303212489826,0.13900215641177707,-0.12242835219465632,-0.1264787476357441,-0.26234789504680406,-0.05984094030924638
325,7.820165799988899,0.02114078251608741,0.013167900452991719,0.027184181272007942,0.030670286076010092,0.13951303917444674,-0.052438429525152964,0.007600219089631739,0.13793094351021892,-0.12266645107335396,-0.12648644889335564,-0.2678838403755458,-0.05800899041644739
326,7.823701999994228,0.021264768478881837,0.013732731725677072,0.02697130138723274,0.030699962363368093,0.14006816526932434,-0.052934539393284054,0.007089161005306896,0.13683737605573307,-0.12289712523729833,-0.12646580606214577,-0.27341235090557475,-0.056165929903334556
327,7.827398900000844,0.021388870177375008,0.014299797070036925,0.02675641507724915,0.03072757387830383,0.14061882765068623,-0.05343156625992209,0.006578243698018697,0.13572148703270073,-0.12312033026801994,-0.12641671913188096,-0.2789319672022691,-0.054311994199934946
328,7.833201899993583,0.021513079269959757,0.014869078268123951,0.026539518697877573,0.03075312142184201,0.1411649362003726,-0.053929479857106784,0.00606758228720065,0.13458331533140688,-0.12333602270112731,-0.12633910100440757,-0.28444122784952436,-0.052447419072370174
329,7.837653299997328,0.02163738741920531,0.015440556738184001,0.026320608727591514,0.03077660626086785,0.14170640096930176,-0.05442824974318744,0.005557292215199924,0.13342290574599652,-0.1235441600233867,-0.12623287991980703,-0.2899386738985194,-0.05057243880075908
330,7.841715699993074,0.021761786293742254,0.01601421353538751,0.0260996817682116,0.03079803012930042,0.14224313220129722,-0.054927845306652574,0.005047489181344887,0.13224030895658018,-0.12374470066363391,-0.12609799958124815,-0.29542285051085465,-0.04868728565304426
331,7.846134299994446,0.021886267570151687,0.016590029352656972,0.02587673454558423,0.030817395228995983,0.14277504035682537,-0.0554282357699132,0.004538289082919721,0.13103558151391193,-0.12393760398560202,-0.12593441602551952,-0.3008923041087684,-0.04679219141720815
332,7.849786199993105,0.022010822934857486,0.017167984521590157,0.02565176391024499,0.030834704230444338,0.14330203613669867,-0.05592939019307449,0.004029807974521317,0.1298087858445241,-0.1241228302912151,-0.1257420927908011,-0.306345576308725,-0.044887390123345694
333,7.8531785999948625,0.022135444086021087,0.01774805901347914,0.025424766838066847,0.030849960273343725,0.1438240305058549,-0.056431277477745664,0.0035221620480833287,0.12855999028442824,-0.12430034083541304,-0.12552099615674434,-0.31178119708996505,-0.04297312069987763
334,7.857271799992304,0.022260122735438398,0.01833023244042569,0.025195740430892767,0.030863166967135754,0.14434093471733267,-0.056933866370931466,0.0030154676306981733,0.12728926913945504,-0.12447009785091033,-0.12527109169304812,-0.31719767953907674,-0.041049629010694935
335,7.860674899988226,0.022384850610438902,0.018914484056554028,0.024964681917152454,0.03087432839156269,0.1448526603365382,-0.05743712546904213,0.0025098411925321873,0.1259967027614246,-0.12463206457948312,-0.12499234369412027,-0.32259351871048775,-0.039117168401315044
336,7.864638999992167,0.022509619455787073,0.01950079275932232,0.024731588652462583,0.030883449097266362,0.1453591192658365,-0.057941023222037674,0.0020053993492161496,0.12468237761769482,-0.12478620530114144,-0.12468471934034879,-0.32796719715266137,-0.03717599752986392
337,7.868051099998411,0.022634421035586317,0.02008913709093417,0.024496458120210028,0.03089053410636475,0.14586022376938007,-0.05844552793767362,0.001502258836133034,0.12334638632267422,-0.12493248534788844,-0.12434819710687173,-0.333317196617982,-0.035226375915469885
338,7.8714502999937395,0.02275924713518505,0.020679495239850746,0.0242592879321178,0.030895588912843126,0.14635588649795475,-0.05895060778575648,0.0010005364428569163,0.12198882761274225,-0.12507087109691892,-0.12398277491632083,-0.3386420096221979,-0.03326855982953199
339,7.875423599994974,0.0228840895630838,0.02127184504240305,0.02402007582879388,0.030898619482600833,0.14684602051360582,-0.0594562308023345,0.0005003489215580687,0.12060980628434982,-0.12520132995117575,-0.12358847334017153,-0.3439401436313499,-0.03130280084924669
340,7.879774299988639,0.023008940152841665,0.021866163984503056,0.023778819680263286,0.03089963225310224,0.14733053931398354,-0.05996236489379603,1.812895571626187e-06,0.11920943313510482,-0.12532383032085945,-0.1231653336853287,-0.3492101175961077,-0.02932934720557362
341,7.883719399993424,0.023133790764980584,0.022462429203452712,0.0235355174864838,0.030898634132684673,0.14780935685649324,-0.060468977840910834,-0.0004949552167349399,0.11778782492987884,-0.1254383416148775,-0.1227134143197758,-0.3544504557799712,-0.027348445985415113
342,7.887903199996799,0.02325863328888621,0.023060617489850235,0.02329016737784537,0.030895632499594126,0.14828238758236692,-0.06097603730285939,-0.0009898392637005754,0.11634510439176726,-0.12554483424014984,-0.12223278747685708,-0.3596596824591828,-0.02536034479474066
343,7.891338699992048,0.0233834596447044,0.023660705289593645,0.02304276761565327,0.030890635200794284,0.1487495464407403,-0.061483510821268565,-0.0014827234106784405,0.11488140021102619,-0.12564327960649802,-0.12172353594172071,-0.364836317210055,-0.02336529337016576
344,7.89463949999481,0.02350826178523244,0.024262668705981618,0.0227933165925949,0.030883650550595696,0.14921074891279662,-0.06199136582428042,-0.001973492174997676,0.11339684707411585,-0.12573365013897386,-0.12118574946861466,-0.3699788699909813,-0.02136354544579253
345,7.899259999991045,0.023633031697804473,0.02486648350191213,0.022541812833190063,0.030874687329182273,0.14966591103607846,-0.06249956963068754,-0.0024620304473192195,0.11189158571237998,-0.12581591929783464,-0.12061952313024478,-0.3750858384112203,-0.019355360033895753
346,7.902647299997625,0.023757761406170814,0.025472125102179784,0.022288254994224342,0.030863754781067877,0.15011494942902487,-0.06300808945416322,-0.0029482235132586667,0.1103657629531603,-0.12589006160122107,-0.12002495909996207,-0.3801557099958625,-0.017341000762546573
347,7.906310299993493,0.023882442972370903,0.02607956859587272,0.022032641865165195,0.030850862613448087,0.1505577813156962,-0.0635168924075801,-0.003431957089144016,0.10881953175017267,-0.12595605263977971,-0.1194021712273814,-0.3851869697398215,-0.015320732417799212
348,7.90991469999426,0.024007068498599304,0.02668878873886976,0.02177497236856044,0.03083602099436783,0.15099432455055678,-0.06402594550735848,-0.003913117380614294,0.10725305117357735,-0.1260138690713983,-0.11875129044216315,-0.39017811036923195,-0.013294816168512979
349,7.913411699992139,0.024131630129063844,0.027299759956437585,0.0215152455604192,0.030819240550599605,0.1514244976431195,-0.06453521567774241,-0.0043915911620454814,0.10566648635743241,-0.12606348859723973,-0.11807246815337173,-0.3951276403893232,-0.011263506201971888
350,7.917075799996383,0.024256120051834477,0.027912456345927032,0.02125346063057584,0.030800532365169275,0.1518482197823038,-0.06504466975495439,-0.004867265862619495,0.10406000842472884,-0.12610488992928964,-0.11736587611824917,-0.40003408615896896,-0.00922704861901849
351,7.921446099993773,0.024380530500681417,0.028526851679567113,0.02098961690303734,0.03077990797453876,0.15226541086047454,-0.06555427449120915,-0.005340029644689668,0.10243379441807941,-0.12613805275746198,-0.11663170395002137,-0.4048959890022142,-0.007185682393338821
352,7.925445799992303,0.024504853756901243,0.02914291940735556,0.020723713836314783,0.030757379365498556,0.15267599149723982,-0.06606399655860254,-0.005809771469710211,0.10078802724809563,-0.1261629577248986,-0.11587015665263999,-0.4097119018293179,-0.0051396413124399866
353,7.929540299999644,0.024629082151129918,0.029760632660045163,0.020455751023739317,0.03073295897181765,0.15307988306307263,-0.06657380255292572,-0.006276381156679841,0.09912289565138209,-0.12617958641075994,-0.1150814534373511,-0.4144803875331171,-0.003089155086565794
354,7.934162099991227,0.024753208065141818,0.03037996425222521,0.02018572819376282,0.030706659670663744,0.1534770077027694,-0.06708365899741497,-0.006739749438507885,0.09743859415187253,-0.12618792131448578,-0.11426582705205696,-0.4192000181466455,-0.0010344497314201783
355,7.938337499988847,0.02487722393363383,0.03100088668549738,0.01991364521024354,0.030678494778797694,0.15386728835875904,-0.06759353234643872,-0.007199768015038451,0.09573532302563147,-0.12618794584167878,-0.11342352251298468,-0.42386937396884034,0.0010242518920495422
356,7.942155699987779,0.025001122245993625,0.03162337215174555,0.019639502072716985,0.030648478048565228,0.1542506487942771,-0.06810338898913323,-0.007656329599167096,0.09401328826925544,-0.12617964429272724,-0.11255479580888837,-0.4284870428700525,0.0030867296862086527
357,7.946387199990568,0.025124895548051362,0.03224739253649897,0.019363298916652186,0.03061662366371871,0.1546270136164195,-0.06861319525299772,-0.008109327959393602,0.09227270157028686,-0.12616300185185186,-0.11165991386805574,-0.4330516208403322,0.005152766871809376
358,7.95041959999071,0.0252485364438142,0.03287291942238835,0.019085036013693515,0.030582946235065005,0.15499630829907754,-0.06912291740744153,-0.008558657965672022,0.09051378027118455,-0.126138004571243,-0.11073915558453501,-0.43756171479715134,0.007222151646025146
359,7.9544651999894995,0.025372037597182828,0.03349992409269437,0.018804713771888294,0.03054746079591671,0.1553584592057005,-0.06963252166725105,-0.009004215640256438,0.08873674731704825,-0.1261046393467087,-0.10979281296187912,-0.4420159456931932,0.009294678592042662
360,7.958755899991955,0.025495391733649224,0.03412837753498776,0.0185223327359006,0.030510182797329137,0.1557133936118082,-0.07014197419594011,-0.009445898212793648,0.086941831194475,-0.12606289389042108,-0.10882119144163688,-0.4464129490187323,0.011370148589386526
361,7.963026599987643,0.025618591641974695,0.03475825044485967,0.018237893587211795,0.030471128103106346,0.15606103972725954,-0.07065124110899665,-0.009883604173823482,0.08512926587522388,-0.12601275670728895,-0.10782460910791845,-0.4507513738733799,0.013448367830196727
362,7.966975999996066,0.025741630175847272,0.03538951322974172,0.017951397144308094,0.030430312984605783,0.1564013267183098,-0.0711602884770422,-0.010317233323443545,0.08329929076257363,-0.1259542170756537,-0.10680339608927707,-0.45502988278034623,0.01552914678067189
363,7.971335099995485,0.025864500255517772,0.03602213601281468,0.017662844362855565,0.030387754115351048,0.15673418472944564,-0.07166908232892254,-0.01074668681997611,0.0814521506364884,-0.12588726503205466,-0.10575789462453374,-0.45924715217394524,0.017612299482127617
364,7.975475599989295,0.025987194869413657,0.03665608863700488,0.017372236335862722,0.030343468565443257,0.1570595449049993,-0.07217758865474405,-0.011171867229164802,0.07958809559603583,-0.12581189135757298,-0.10468845926620622,-0.4634018733214795,0.019697643245161205
365,7.97954149999714,0.026109707075729936,0.03729134066906759,0.017079574293830984,0.030297473795776252,0.1573773394105183,-0.07268577340885406,-0.011592678574485406,0.07770738099710292,-0.12572808756506856,-0.10359545726207621,-0.46749275257272455,0.021784998134127348
366,7.983869799994864,0.026232030003996272,0.03792786140375614,0.016784859604893187,0.0302497876520414,0.15768750145387633,-0.07319360251277401,-0.012009026389426008,0.07581026739279809,-0.12563584588968996,-0.1024792684631179,-0.47151850956971764,0.023874185803412315
367,7.987318200001027,0.026354156856619442,0.03856561986807587,0.01648809377494034,0.03020042835852032,0.15798996530616136,-0.07370104185810315,-0.012420817767053772,0.07389702048563382,-0.1255351592855153,-0.10134028430449775,-0.4754778733429081,0.02596502768870769
368,7.991545500000939,0.026476080910400282,0.039204584825622064,0.016189278447736672,0.030149414511689128,0.15828466632240001,-0.07420805730942455,-0.0128279614040605,0.07196791109947585,-0.1254260214306787,-0.10017890656959914,-0.4793695766701923,0.02805734255292991
369,7.994942199991783,0.026597795518024457,0.03984472478100137,0.015888415405022904,0.030096765073655243,0.15857154096221907,-0.07471461470725017,-0.013230367640341436,0.07002321517731074,-0.12530842674384265,-0.09899554563439891,-0.48319234952939494,0.03015094370826918
370,7.99826779999421,0.026719294109526375,0.0404860079843367,0.015585506566607494,0.030042499365441785,0.1588505268105518,-0.07522067987106008,-0.013627948488853568,0.06806321380610575,-0.1251823704117731,-0.09779061778544489,-0.4869449138373,0.03224563711989329
371,8.00149059999967,0.026840570193725686,0.04112840243585597,0.015280553990445355,0.02998663706018309,0.15912156259850038,-0.07572621860247031,-0.014020617653520893,0.06608819325709059,-0.12504784842113603,-0.09656454405608378,-0.49062598418748843,0.03434122175512651
372,8.004781499999808,0.026961617359636206,0.0417718758905656,0.014973559872703495,0.02992919817626443,0.15938458822436768,-0.07623119668852898,-0.014408290549688226,0.0640984450046548,-0.12490485758325075,-0.09531775324387949,-0.49423428048552126,0.03643749340551982
373,8.008616199993412,0.027082429277846983,0.04241639586300922,0.014664526547813101,0.029870203070352225,0.1596395447746724,-0.07673557990508428,-0.014790884346410354,0.06209426566452399,-0.12475339553500012,-0.09405068849841058,-0.49776855112942797,0.03853425127450244
374,8.012750099995174,0.027202999701874894,0.04306192963211098,0.014353456488507964,0.029809672430192027,0.15988637454468135,-0.0772393340200879,-0.015168318040142103,0.06007595682533482,-0.12459346071034881,-0.09276381345530206,-0.5012275916041816,0.04063130282355233
375,8.016265199999907,0.02732332246948751,0.04370844424610018,0.014040352305849862,0.029747627267043244,0.16012502105806342,-0.0777424247967328,-0.015540512546596856,0.0580438248365485,-0.12442505230209143,-0.09145761477378843,-0.5046102446920879,0.04272846277508374
376,8.020756899990374,0.02744339150399456,0.04435590652751341,0.013725216749241636,0.02968408890773481,0.16035542908570805,-0.07824481799644761,-0.015907390794942772,0.05599818063832556,-0.12424817024142845,-0.09013260224854991,-0.507915387481003,0.04482554799151119
377,8.024139999994077,0.0275632008155066,0.04500428307827125,0.01340805270642837,0.0296190789863387,0.16057754466400437,-0.07874647938186935,-0.016268877820565058,0.05393933965442653,-0.12406281520109685,-0.08878930696881827,-0.5111419220388438,0.046922374349622195
378,8.028964999990421,0.027682744502159188,0.045653540284828126,0.013088863203486449,0.029552619435475987,0.16079131511279424,-0.07924737471986305,-0.016624900844385847,0.05186762169744637,-0.12386898860020439,-0.08742827583537967,-0.5142887792311709,0.04901875903421814
379,8.03367089999665,0.027802016751301294,0.046303644323394094,0.01276765140480033,0.029484732477349382,0.16099668905288556,-0.07974746978453359,-0.016975389321318143,0.04978335083086507,-0.12366669258882518,-0.08605006390787431,-0.5173549293719172,0.051114525643316144
380,8.037822399986908,0.027921011840647013,0.04695456116522621,0.012444420613027266,0.02941544061465771,0.1611936164228905,-0.08024673036012085,-0.01732027495774391,0.04768685518821315,-0.12345593001157867,-0.08465522950015565,-0.5203393878337299,0.053209507107235224
381,8.041943499993067,0.02803972413939055,0.04760625658198638,0.012119174269050683,0.029344766621487224,0.1613820484952776,-0.08074512224371719,-0.01765949172033341,0.04557846678978482,-0.12323670436863599,-0.08324433435157373,-0.5232412112643924,0.055303544305129876
382,8.04623459999857,0.02815814810928433,0.04825869615116248,0.01179191595192294,0.02927273353415481,0.16156193789172868,-0.08124261124784751,-0.017992975854907455,0.04345852139237875,-0.12300901979047867,-0.08181794610525149,-0.52605948995973,0.05739648275106652
383,8.050362199996016,0.028276278305679983,0.048911845261550284,0.01146264937879786,0.029199364641946866,0.16173323859797678,-0.08173916320298277,-0.018320665915283783,0.04132735836764608,-0.12277288102568502,-0.08037663936002339,-0.528793343011506,0.059488170348182635
384,8.054539799995837,0.02839410937853162,0.04956566911879446,0.011131378404853173,0.029124683477729413,0.16189590597818007,-0.08223474396002134,-0.018642502790640066,0.03918532059104125,-0.12252829343383763,-0.0789209947698031,-0.5314419153488232,0.06157845624706635
385,8.058634000000893,0.028511636073360932,0.05022013275098671,0.010798107023203,0.029048713808465843,0.16204989678886225,-0.08272931939274517,-0.018958429727082254,0.03703275434407858,-0.1222752629825351,-0.07745159766931871,-0.5340043735571419,0.0636671892784743
386,8.062067499995464,0.028628853232183837,0.050875201014319395,0.010462839364800447,0.028971479625652732,0.16219516919249669,-0.08322285540027703,-0.019268392343902086,0.03487000923706974,-0.1220137962529649,-0.07596903657573384,-0.5364799005539695,0.06575421569155225
387,8.06579119998787,0.028745755794398302,0.051530838598793434,0.010125579698330228,0.028893005135706216,0.1623316827708224,-0.08371531790958174,-0.01957233864303697,0.03269743815440635,-0.12174390045519265,-0.07447390210313119,-0.5388676923769468,0.06783937748412651
388,8.070779799993034,0.02886233879763329,0.052187010033979554,0.009786332430091051,0.02881331475032136,0.1624593985379861,-0.08420667287804691,-0.019870219016555387,0.03051539720325306,-0.12146558344722787,-0.07296678740974637,-0.541166962776253,0.06992251275419421
389,8.075041799995233,0.028978597378558683,0.05284367969483239,0.009445102103867386,0.02873243307679804,0.16257827895344348,-0.08469688629613824,-0.0201619862597309,0.028324245621718692,-0.12117885374747293,-0.07144829017758024,-0.5433769553512227,0.0720034577974319
390,8.079424799987464,0.029094526773656048,0.05350081180755598,0.009101893400790387,0.028650384908294656,0.1626882879343592,-0.0851859241900809,-0.020447595594524876,0.02612434562947285,-0.12088372053683877,-0.0699190142156513,-0.5454969530411824,0.07408204872398648
391,8.083547999995062,0.0292101223199498,0.054158370455518086,0.008756711139187998,0.028567195213964263,0.16278939086730101,-0.08567375262453193,-0.020727004695616443,0.023916062259221216,-0.1205801936581284,-0.06837956926299472,-0.5475262774828077,0.07615812084581021
392,8.087836999999126,0.029325379455698266,0.05481631958521017,0.008409560274424282,0.028482889128997928,0.16288155461927795,-0.08616033770525659,-0.021000173712293246,0.02169976321251538,-0.12026828362310366,-0.06683057050907354,-0.5494642834486602,0.07823150645972263
393,8.091844899987336,0.029440293721044373,0.055474623012250916,0.008060445898727888,0.02839749194458395,0.16296474754826917,-0.08664564558185789,-0.02126706529060582,0.019475818736170554,-0.11994800162978388,-0.06527263826464993,-0.5513103571628075,0.08030203293393239
394,8.098943599994527,0.02955486075862558,0.056133244427431325,0.007709373241009333,0.0283110290977722,0.16303893951326345,-0.08712964245059275,-0.021527644592598646,0.017244601491686933,-0.11961935958497551,-0.06370639675253315,-0.5530639202318888,0.08236952221948535
395,8.104238100000657,0.02966907631414267,0.05679214740279933,0.007356347666666709,0.028223526161277938,0.16310410188373292,-0.08761229455728357,-0.021781879308692513,0.015006486399900317,-0.11928237012551883,-0.06213247321316347,-0.554724436604493,0.08443379167926972
396,8.109107299998868,0.029782936236887263,0.057451295397781446,0.007001374677379431,0.028135008833246072,0.16316020754841706,-0.08809356820030612,-0.022029739669687756,0.012761850454164453,-0.11893704663411832,-0.060551497772749534,-0.5562914194965332,0.08649465534651762
397,8.113126899988856,0.029896436480227908,0.058110651765338396,0.0066444599108898056,0.02804550292695799,0.16320723092328684,-0.08857342973362896,-0.022271198458081027,0.010511072509037411,-0.11858340325041937,-0.05896410247766225,-0.5577644340990898,0.0885519247978099
398,8.117265299995779,0.03000957310205442,0.0587701797581511,0.006285609140772216,0.02795503436050437,0.16324514795862105,-0.08905184556989092,-0.022506231012265437,0.008254533071581738,-0.11822145487978387,-0.057370919775230525,-0.5591430945602986,0.09060540951881177
399,8.121235699989484,0.03012234226518051,0.0594298425348335,0.005924828276189819,0.02786362914645806,0.1632739361452839,-0.08952878218351142,-0.02273481522557057,0.005992614114440327,-0.11785121720141142,-0.05577258181685912,-0.560427059891074,0.09265491735395302
400,8.125995800000965,0.03023474023770466,0.06008960316616926,0.005562123361638596,0.02777131338155465,0.16329357452029086,-0.09000420611383353,-0.0229569315448311,0.0037256989002225805,-0.11747270667348099,-0.054169720990745955,-0.5616160328081892,0.09470025572029468
401,8.130213199998252,0.03034676339332938,0.060749424641369565,0.005197500576678652,0.02767811323637693,0.1633040436716671,-0.0904780839682759,-0.023172562973731704,0.0014541718039293968,-0.11708594053146283,-0.05256297090108762,-0.5627097600513455,0.09674123328490383
402,8.133670199997141,0.03045840821163871,0.06140926987434912,0.004830966235652793,0.027584054945008412,0.16330532574257828,-0.09095038242546216,-0.02338169507928868,-0.000821581865222906,-0.11669093677970524,-0.0509529655138313,-0.5637080313826602,0.09877766121952732
403,8.137946799994097,0.030569671278333866,0.06206910171001731,0.0044625267873925414,0.027489164794665417,0.16329740443474924,-0.09142106823830483,-0.023584315988291662,-0.0031011760332924324,-0.11628771417960737,-0.04934033547499377,-0.564610676933654,0.10080935343944784
404,8.142665399995167,0.030680549285426975,0.06272888293058179,0.004092188814911788,0.027393469115379366,0.1632802650112251,-0.09189010823703916,-0.023780416364033403,-0.005384224018348683,-0.11587629223927579,-0.04772570426443782,-0.5654175627288767,0.10283612549758056
405,8.146219699992798,0.030791039031393318,0.063388576261862,0.0037199590350882905,0.027296994269816893,0.16325389429852333,-0.09235746933222351,-0.023969989371670004,-0.007670338663788625,-0.11545669121063414,-0.046109689142353666,-0.5661285836300483,0.10485779198266813
406,8.150287299999036,0.030901137421282816,0.06404814437961016,0.003345844298333082,0.027199766643242074,0.16321828068831748,-0.09282311851774976,-0.024153030662599263,-0.009959132438054987,-0.115028932100105,-0.04449290884170016,-0.5667436560251851,0.1068741628491802
407,8.153668299986748,0.03101084146679116,0.06470754991583834,0.0029698515882476393,0.027101812633462778,0.1631734141387835,-0.09328702287393001,-0.024329538401983822,-0.012250217508872849,-0.11459303669537778,-0.04287599279870956,-0.5672627124320441,0.10888504008149721
408,8.1571350999875,0.03112014828629004,0.06536675546515035,0.0025919880212683516,0.027003158640570478,0.16311928617568358,-0.09374914957072338,-0.024499513327721618,-0.014543205799358151,-0.11414902760304745,-0.04125958404550796,-0.567685698704851,0.11089021660584321
409,8.161060300000827,0.031229055104815377,0.0660257235910776,0.002212260846297609,0.026903831056410057,0.16305588989325895,-0.09420946587112679,-0.02466295880134441,-0.01683770903968174,-0.11369692828417513,-0.039644333786357525,-0.5680125765028524,0.11288947846896888
410,8.164500299986685,0.03133755925401245,0.06668441683241819,0.0018306774443208717,0.026803856253908312,0.16298321995489629,-0.09466793913468916,-0.024819880823158617,-0.019133338843126346,-0.11323676307432082,-0.03803089257438054,-0.5682433320964297,0.1148826095618922
411,8.167890099997749,0.031445658172037885,0.06734279770957813,0.0014472453280093606,0.026703260576421403,0.1629012725934059,-0.09512453682106407,-0.024970288011842597,-0.021429706828913205,-0.11276855718093123,-0.03641990121950682,-0.5683779888114405,0.11686939730462928
412,8.17167419999896,0.03155334940341871,0.0680008287309127,0.0010619721413084164,0.026602070327228233,0.16281004561069554,-0.09557922649350287,-0.025114191546114224,-0.02372642479882226,-0.11229233665743397,-0.03481198103200031,-0.5684166192049389,0.11884963771270143
413,8.175356299994746,0.03166063059886943,0.06865847239906506,0.000674865659011963,0.02650031175934928,0.16270953837662133,-0.09603197582219795,-0.02525160506548571,-0.026023104958411297,-0.11180812835968275,-0.033207726682446655,-0.5683593514520445,0.12082313804187667
414,8.17953999999736,0.03176749951506881,0.06931569121729825,0.0002859337863238491,0.026398011065841987,0.16259975182687392,-0.09648275258742392,-0.025382544554232445,-0.02831936014524868,-0.11131595989867923,-0.03160770683302144,-0.5682063669011919,0.12278971570137319
415,8.183546000000206,0.03187395401439854,0.06997244769581677,-0.00010481544159307246,0.026295194370557246,0.16248068845998498,-0.09693152468249883,-0.025507028247249118,-0.030614804030376367,-0.11081585960580077,-0.030012471342852075,-0.5679578925537163,0.12474919436804888
416,8.187743099988438,0.0319799920646453,0.07062870435807443,-0.0004973738600795328,0.02619188771919556,0.1623523523335854,-0.09737826011664429,-0.025625076572245394,-0.032909051285769875,-0.11030785651692362,-0.028422558697474003,-0.5676141932025768,0.12670139984495973
417,8.192071699988446,0.032085611738667155,0.0712844237470656,-0.0008917331754538805,0.026088117070530662,0.16221474906005848,-0.09782292701781847,-0.02573671211563977,-0.03520171772227398,-0.10979198037111781,-0.02683850004540927,-0.5671755640398706,0.12864615695951243
418,8.195426499994937,0.03219081121402471,0.07193956843159799,-0.0012878849654975627,0.025983908287741275,0.16206788580168352,-0.09826549363556565,-0.02584195959737501,-0.03749242039732369,-0.10926826161983655,-0.025260819105884257,-0.5666423202959749,0.13058328691810794
419,8.198980699991807,0.03229558877257743,0.07259410101254464,-0.0016858206799521866,0.025879287129838252,0.1619117712654185,-0.09870592834392344,-0.025940845836066272,-0.03978077766915347,-0.1087367314469883,-0.023690026672921412,-0.5660147843553102,0.13251260516272725
420,8.205063699992024,0.032399942800045566,0.07324798412907454,-0.0020855316410284936,0.025774279243277985,0.16174641569760553,-0.09914419964443456,-0.026033399679403865,-0.04206640920040012,-0.10819742179544722,-0.022126608846793534,-0.5652932791531274,0.13443392157558176
421,8.208695399996941,0.03250387178553865,0.07390118046486187,-0.002487009043927759,0.02566891015395195,0.1615718308787245,-0.09958027616926832,-0.026119651874199287,-0.04434893595895116,-0.10765036538547149,-0.020571011886889316,-0.5644781324380992,0.13634704392863523
422,8.212905899999896,0.03260737432105271,0.07455365275427414,-0.002890243957375992,0.025563205259850293,0.16138803011809166,-0.10001412668438117,-0.026199634874383364,-0.046627980255993934,-0.10709559571333793,-0.019023632770768677,-0.5635696848452624,0.13825178180105954
423,8.21724089999043,0.03271044910093948,0.07520536378853866,-0.0032952273241708746,0.025457189824602933,0.16119502824830576,-0.10044572009262723,-0.026273382634759618,-0.04890316581210174,-0.10653314703810328,-0.017484822704506887,-0.562568291236554,0.14014794668188113
424,8.221390699996846,0.03281309492135143,0.0758562764218858,-0.0037019499617410977,0.025350888971809846,0.16099284161941257,-0.1008750254368118,-0.026340930447369647,-0.05117411780611585,-0.10596305437940932,-0.015954900587572696,-0.5614743112860582,0.1420353472485775
425,8.225641799988807,0.03291531067966514,0.07650635357766826,-0.004110402562717977,0.025244327679904515,0.16078148809295612,-0.10130201190278416,-0.026402314844056723,-0.053440462865150674,-0.10538535354239797,-0.014434167397413884,-0.5602880947001434,0.14391378295577117
426,8.229662999990978,0.03301709537388482,0.07715555825445627,-0.004520575695519782,0.025137530777271582,0.16056098703622385,-0.10172664882269246,-0.026457573549073608,-0.05570182899403906,-0.10480008116732649,-0.012922915183486164,-0.5590099709632891,0.1457830394073418
427,8.232841899996856,0.03311844810202627,0.07780385353211039,-0.004932459804949653,0.025030522937493287,0.16033135931686804,-0.10214890567847738,-0.02650674545432726,-0.05795784548247307,-0.10420727479188066,-0.01142143094614676,-0.5576402453135102,0.1476428863507138
428,8.236665899996297,0.03321936806148192,0.07845120257783321,-0.005346045212808164,0.02492332867466717,0.16009262729790144,-0.10256875210563067,-0.02654987060333216,-0.06020814280192654,-0.1036069729169983,-0.009929997714735883,-0.5561791967430365,0.14949307716661803
429,8.240661099989666,0.03331985454836701,0.0790975686522017,-0.005761322118521613,0.02481597233878218,0.15984481483315158,-0.10298615789722068,-0.026586990175167035,-0.06245235249663923,-0.10299921507330569,-0.008448894495082767,-0.5546270782626769,0.15133334870057744
430,8.244820199994138,0.033419906956847226,0.07974291511518224,-0.006178280599787114,0.024708478111166027,0.15958794726313738,-0.10340109300818777,-0.026618146468003964,-0.06469010708267577,-0.1023840418883028,-0.006978396150924692,-0.552984117348518,0.15316342117873732
431,8.249053199993796,0.03351952477844811,0.08038720543212956,-0.006596910613235599,0.024600869999994383,0.1593220514113392,-0.1038135275599128,-0.026643382882106867,-0.06692103994251954,-0.10176149515347997,-0.005518773391104313,-0.5512505153350018,0.15498299822062522
432,8.25246389998938,0.03361870760134643,0.08103040317977168,-0.00701720199511383,0.024493171835875637,0.15904715558092725,-0.10422343184505488,-0.026662743903257142,-0.06914478521922708,-0.1011316178914,-0.004070292992972401,-0.549426447785531,0.1567917667229084
433,8.256018399988534,0.033717455109643836,0.08167247205218245,-0.007439144461986492,0.02438540726749403,0.1587632895518869,-0.10463077633266198,-0.026676275087557474,-0.0713609777140169,-0.10049445442375415,-0.0026332178550384946,-0.547512064440193,0.15858939673613107
434,8.259493799996562,0.033815767082623086,0.08231337586674316,-0.007862727611459508,0.02427759975731721,0.15847048457857477,-0.10503553167355861,-0.026684023045282956,-0.07356925278000133,-0.09985005043944038,-0.0012078069442670114,-0.5455074893190599,0.16037554148957262
435,8.26304039999377,0.03391364339398701,0.08295307857009539,-0.008287940922925665,0.02416977257736986,0.15816877338770277,-0.10543766870600663,-0.026686035425258985,-0.0757692462206102,-0.09919845306241844,0.00020568458587028605,-0.54341282280054,0.1621498377412732
436,8.267238000000361,0.03401108401108055,0.08359154424408635,-0.008714773758333677,0.024061948805067502,0.157858190176715,-0.1058371584616412,-0.026682360899666375,-0.0779605942001179,-0.09853971091695952,0.0016070045005563123,-0.5412281551108723,0.16391190893065058
437,8.271283099995344,0.034108088994096085,0.08422873711170858,-0.009143215362981783,0.023954151319112927,0.1575387706124949,-0.1062339721716589,-0.02667304915565048,-0.08014293325107621,-0.09787387417002498,0.0029959002099171172,-0.5389536137689399,0.16566137645699672
438,8.275714199990034,0.034204658495262295,0.08486462154303485,-0.00957325486633681,0.023846402795397785,0.157210551829682,-0.10662808127309621,-0.026658150906581295,-0.08231590056824489,-0.09720099450537394,0.004372113338995876,-0.5365894494976309,0.16739788039249012
439,8.27953709999565,0.034300792758016375,0.08549916206114425,-0.010004881282878509,0.023738725702808033,0.15687357242700378,-0.10701945741480828,-0.02663771792754285,-0.0844791347102777,-0.09652112499855929,0.0057353754668133415,-0.5341361156433825,0.16912109923081545
440,8.283672799996566,0.034396492116159,0.08613232334802744,-0.010438083512966939,0.023631142298838732,0.15652787245992222,-0.10740807246273731,-0.02661180310102614,-0.08663227653544563,-0.09583431993144596,0.007085408876059086,-0.5315942789850054,0.17083075419523572
441,8.287864499987336,0.0344917569929911,0.08676407025045335,-0.010872850343729371,0.02352367462503025,0.15617349342940395,-0.10779389850439246,-0.026580460446360223,-0.0887749699906695,-0.09514063463239315,0.00842193225991966,-0.5289647582481407,0.17252659694363734
