,time,x,y,z,vx,vy,vz,ax,ay,az,jx,jy,jz
0,11.098435499996413,0.017489363454248726,-0.016203373517679694,0.024617165455015196,0.004640897960875365,-0.02405826958322472,0.027337678829550054,0.026875605785792425,0.039271598889915896,-0.0263240545438482,0.09934018364710497,0.22947511503138074,-0.17084122475600588
1,11.1035794000054,0.017512317740007523,-0.016320243718120468,0.024750184031684056,0.004773157506405115,-0.023864004359404674,0.027207258935911662,0.027360507868069414,0.04039310891046821,-0.02716146744470172,0.09950007815443508,0.23041464217590701,-0.17255733901930767
2,11.108554799997364,0.017535922850869808,-0.01643615310696535,0.024882556563117057,0.004907783923861968,-0.023664258118906323,0.027072734391016137,0.027846171621175888,0.04151916073927383,-0.028007251793571733,0.09965248279810654,0.23133743560945724,-0.17427398549272535
3,11.11307669999951,0.017560190339630525,-0.016551074898114696,0.025014262930492037,0.005044780838999786,-0.023459008909403237,0.02693406435920357,0.02833256032279072,0.04264967207717516,-0.028861409590001566,0.09979731757448723,0.2322432158874049,-0.17599091841232353
4,11.117010000001756,0.01758513177633146,-0.01666498219938158,0.02514528281579887,0.005184151697518998,-0.023248235183284446,0.026791207997985705,0.028819636855548607,0.04378455926981613,-0.029723941628565054,0.09993450036041007,0.23313170707151676,-0.17770788957680778
5,11.123848500006716,0.017610758747378382,-0.01677784801448184,0.0252755957018205,0.005325899763114991,-0.023031915804223483,0.026644124463952024,0.029307363696064324,0.04492373732642094,-0.030594847487745155,0.10006394657294224,0.234002637414006,-0.17942464878136738
6,11.130325200007064,0.017637082854648538,-0.016889645245055894,0.0254051808721429,0.005470028115469226,-0.022810030053645344,0.026492772918725926,0.029795702901914873,0.04606711994189069,-0.03147412552151218,0.10018556890785088,0.23485574001537052,-0.18114094423977253
7,11.134381099996972,0.01766411571458821,-0.017000346692721838,0.025534017411194217,0.005616539648170654,-0.02258255763707999,0.026337112534952963,0.03028461609811263,0.047214619521998985,-0.03236177285231973,0.10029927755262347,0.23569075325447317,-0.18285652271918032
8,11.13940489999368,0.017691868957299937,-0.017109925061159242,0.02566208420431315,0.005765437066574879,-0.022349478690383538,0.02617710250232534,0.03077406446616537,0.048366147209683734,-0.0332577853639979,0.10040498081438516,0.2365074207922289,-0.18457112952161595
9,11.143808099994205,0.017720354225619184,-0.017218352958222948,0.02578935993784685,0.005916722885618865,-0.022110773785835307,0.026012702033639465,0.0312640087366744,0.04952161291027871,-0.03416215769456854,0.10050258575552702,0.237305491362012,-0.18628450828910603
10,11.147994099999778,0.01774958317418025,-0.017325602898086323,0.02591582309927838,0.006070399427607897,-0.021866423938112885,0.02584387037089055,0.031754409184594753,0.05068092531576091,-0.03507488322723767,0.10059199867586464,0.23808471843718146,-0.18799640076477075
11,11.152792399996542,0.017779567468471345,-0.017431647303413345,0.02604145197738408,0.006226468819984051,-0.021616410610152657,0.02567056679141801,0.03224522562653652,0.05184399192673901,-0.035995954080880334,0.10067312539294648,0.23884485965930266,-0.18970654684519245
12,11.159632099996088,0.01781031878387874,-0.017536458507559024,0.026166224662420964,0.006384932993086837,-0.021360715718910385,0.02549275061409288,0.03273641741875928,0.05301071907112335,-0.03692536110154383,0.10074587114865687,0.23958567629961414,-0.19141468468487505
13,11.164850999994089,0.01784184880471999,-0.01764000875679768,0.026290119046344432,0.006545793677902101,-0.021099321641039625,0.0253103812055461,0.03322794345356239,0.05418101192086132,-0.03786309385395153,0.10081014027282319,0.24030693310187412,-0.19312055080848153
14,11.169151399997643,0.017874169223266134,-0.017742270212578747,0.02641311282305644,0.006709052403787458,-0.020832211218489063,0.025123417986438808,0.03371976215399812,0.0553547745090744,-0.038809140614100866,0.10086583594762785,0.24100839829771029,-0.1948238804735379
15,11.173559500006377,0.01790729173875273,-0.01784321495380966,0.02653518348868436,0.006874710496169626,-0.020559367764013767,0.024931820437762823,0.03421183146796389,0.05653190974694329,-0.039763488364305176,0.1009128602935888,0.2416898434944562,-0.19652440787593564
16,11.177745299995877,0.017941228056379592,-0.01794281497916541,0.026656308341890606,0.00704276907421223,-0.02028077506660782,0.0247355481071593,0.03470410886375411,0.05771231943975082,-0.040726122787796235,0.10095111489672531,0.24235104342046082,-0.1982218659404186
17,11.184350199997423,0.01797598988629907,-0.018041042209424422,0.026776464484213135,0.007213229048469746,-0.019996417396859083,0.02453456061527187,0.03519655132929462,0.058895904301282734,-0.04169702826172239,0.100980501563595,0.24299177552927123,-0.19991598608914465
18,11.188302900001872,0.01801158894259291,-0.018137868489830355,0.026895628820437046,0.007386091118547842,-0.019706279512241354,0.024328817662133587,0.03568911537505948,0.060082563966009674,-0.042676187849493584,0.10100092286330714,0.24361181979037322,-0.2016064981295642
19,11.192298099995242,0.01804803694223771,-0.018233265592479585,0.02701377805899738,0.007561355770785767,-0.019410346662350305,0.024118279033594748,0.036181757038592416,0.06127219700144671,-0.043663583292685784,0.10101228235935233,0.24421095881214508,-0.20329313032122026
20,11.19629399999394,0.01808534560405918,-0.01832720521873409,0.027130888712413412,0.007739023275960802,-0.019108604594075086,0.023902904607788794,0.036674431889685,0.06246470092153468,-0.04465919500403761,0.10101448473291728,0.24478897796193094,-0.20497560951445348
21,11.201445800004876,0.018123526647675196,-0.018419659001659375,0.027246937097754532,0.007919093687021157,-0.018801039556703723,0.02368265436162845,0.03716709503610095,0.06365997220017097,-0.04566300206070775,0.10100743586508017,0.24534566553019943,-0.2066536612028414
22,11.206726300006268,0.018162591792427938,-0.01851059850848716,0.027361899337137903,0.008101566836846257,-0.018487638306962748,0.0234574883773374,0.03765970112955608,0.06485790628619213,-0.04667498219778311,0.10099104290796994,0.24588081317156915,-0.20832700968355858
23,11.21092789999966,0.018202552756305123,-0.018599995243102466,0.02747575135825804,0.008286442336037972,-0.018168388113976443,0.023227366849009744,0.038152204372136705,0.0660583976212066,-0.047695111803100446,0.10096521424352466,0.24639421625292474,-0.2099953781772697
24,11.21559989999514,0.018243421254850577,-0.018687820648554662,0.02758846889494847,0.00847371957074351,-0.017843276764132526,0.02299225008919219,0.03864455852187732,0.067261339657973,-0.04872336591192398,0.10092985945357456,0.24688567366617173,-0.21165848861507847
25,11.219453099998644,0.018285209000064237,-0.01877404610959203,0.02770002748777551,0.008663397700501061,-0.017512292565862127,0.02275209853549543,0.039136716898887196,0.06846662487640637,-0.04975971819968887,0.10088488943961492,0.2473549872748399,-0.2133160613729224
26,11.223723999995856,0.01832792769929171,-0.018858642955219433,0.027810402484664407,0.00885547565612244,-0.017175424354349333,0.02250687275724711,0.039628632392096325,0.06967414479655841,-0.05080414097408801,0.100830216273122,0.2478019613274614,-0.21496781523040812
27,11.22748689999571,0.018371589054103615,-0.01894158246127882,0.02791956904155803,0.009049952137604534,-0.01683266149618456,0.02225653346218039,0.04012025746392198,0.07088378998890159,-0.05185660516741392,0.10076575300868332,0.24822640200165802,-0.2166134673412045
28,11.2315968000039,0.01841620475916478,-0.01902283585305228,0.02802750212310824,0.009246825612057478,-0.016483993893973783,0.022001041503161626,0.04061154415519183,0.07209545008286217,-0.052917080328356784,0.10069141376253386,0.2486281170710531,-0.218252733210615
29,11.236026300000958,0.018461786501093376,-0.01910237430788751,0.028134176503400214,0.009446094311664115,-0.01612941199090866,0.021740357884958934,0.0411024440905766,0.07330901377385525,-0.053985534614127556,0.10060711366021495,0.24900691562868543,-0.21988532670648128
30,11.24012180000136,0.01850834595731019,-0.01918016895784545,0.02823956676670983,0.009647756231661161,-0.01576890677530715,0.021474443771046698,0.041592908483002594,0.07452436882911988,-0.05506193478236235,0.10051276884033239,0.24936260790424541,-0.22151096006301257
31,11.244111799998793,0.018555894794878076,-0.01925619089237004,0.028343647308294372,0.009851809128341714,-0.015402469785126724,0.021203260490453107,0.04208288813912103,0.07574140209297131,-0.05614624618328292,0.10040829651431768,0.24969500512179776,-0.22312934401537113
32,11.2487162000034,0.018604444669331765,-0.019330411160979877,0.02844639233521671,0.010058250517089763,-0.015030093112453733,0.020926769544641132,0.04257233346430353,0.0769599994912483,-0.05723843275291384,0.10029361488416513,0.25000391942104244,-0.2247401878597642
33,11.253000099997736,0.018654007223498116,-0.01940280077598177,0.028547775867203112,0.01026707767043143,-0.014651769407973253,0.02064493261442223,0.04306119446730896,0.07818004603579728,-0.05833845700582915,0.1001686432845499,0.25028916384636996,-0.2263431994494712
34,11.25796220000484,0.01870459408630692,-0.019473330715205992,0.028647771737534886,0.010478287616115002,-0.014267491885414707,0.020357711566908066,0.04354942076666525,0.07940142582881296,-0.05944628002833078,0.10003330240713505,0.2505505523132464,-0.2279380853553155
35,11.262533999994048,0.018756216871592443,-0.019541971924763195,0.028746353593973983,0.010691877135224417,-0.01387725432597937,0.020065068462490763,0.044036961597524224,0.08062402206699455,-0.0605618614727605,0.09988751446494314,0.25078789976506155,-0.22952455123248872
36,11.270558000003804,0.018808887176885804,-0.019608695321822862,0.02884349489972273,0.010907842760326168,-0.013481051082745454,0.019766965561850106,0.04452376581964674,0.08184771704741631,-0.06168515955425651,0.09973120349150523,0.25100102261053414,-0.23110230235867568
37,11.278552100004164,0.018862616582198455,-0.019673471797413182,0.028939168934417794,0.011126180773660675,-0.013078877085038338,0.019463365332965426,0.04500978192717556,0.08307239217595047,-0.06281613105031451,0.09956429563617875,0.25118973929198984,-0.23267104409364428
38,11.28847460000543,0.01891741664879692,-0.019736272219242134,0.0290333487951583,0.01134688720538452,-0.012670727842753504,0.019154230458127093,0.04549495805950114,0.08429792797868096,-0.06395473130202729,0.0993867193883392,0.2513538707637512,-0.23423048226068155
39,11.293165499999304,0.018973298917969113,-0.019797067434539527,0.029126007397568196,0.011569957831867811,-0.012256599450615429,0.018839523840936304,0.045979242013221386,0.08552420411499279,-0.0651009142173665,0.09919840570449434,0.2514932405744006,-0.2357803231617294
40,11.299483499999042,0.019030274909782492,-0.019855828272919634,0.029217117476892648,0.011795388174053071,-0.011836488592372836,0.01851920861328456,0.046462581254247334,0.08675109938978812,-0.06625463227256986,0.09899928797473719,0.2516076746612232,-0.23732027309493883
41,11.307321400003277,0.019088356121834352,-0.019912525549264145,0.02930665158912848,0.01202317349587069,-0.011410392544938435,0.018193248142339934,0.04694492292943568,0.08797849176457063,-0.06741583651071702,0.0987893020115528,0.2516970011258573,-0.23885003795834792
42,11.312134000007063,0.01914755402799452,-0.019967130066625188,0.029394582112188733,0.012253308802711282,-0.010978309182476045,0.017861606037540428,0.04742621387858531,0.08920625836747322,-0.0685844765392508,0.09856838598981443,0.2517610499091421,-0.24036932292116647
43,11.316308199995548,0.019207880077140763,-0.02001961261914815,0.029480881247101298,0.012485788839958158,-0.010540236980442524,0.017524246157604423,0.04790640064548449,0.09043427550117057,-0.06976050052534664,0.09833648015905463,0.25179965235365487,-0.24187783204987442
44,11.320192800005316,0.019269345691887152,-0.020069943995014116,0.02956552101924187,0.012720608091567439,-0.010096175019597706,0.017181132617569213,0.04838542948710077,0.09166241864863976,-0.0709438551897867,0.09809352658563107,0.251812640785119,-0.24337526816233654
45,11.325347899997723,0.01933196226730563,-0.02011809497940182,0.029648473279601243,0.012957760778690172,-0.009646122989990142,0.016832229795861197,0.04886324638211318,0.09289056247698971,-0.07213448580090619,0.09783946903294301,0.2517998481685916,-0.24486133287648046
46,11.329349299994648,0.019395741169640934,-0.02016403635746895,0.02972970970608722,0.01319724085833567,-0.009190081194929683,0.01647750234139347,0.049339797038933694,0.094118580839868,-0.07333233616894236,0.09757425287558026,0.2517611079549821,-0.24633572648326107
47,11.33350480000081,0.01946069373501912,-0.02020773891735285,0.029809201804861147,0.013439042022071876,-0.00872805055494974,0.016116915180691138,0.049815026903401984,0.09534634677979331,-0.07453734863874167,0.09729782512543077,0.25169625403622087,-0.24779814780080056
48,11.338551599998029,0.01952683126814981,-0.02024917345319048,0.02988692091170932,0.013683157694763753,-0.008260032611757121,0.015750433525060042,0.05028888116706157,0.09657373253012488,-0.075749464082686,0.0970101345400127,0.2516051208053396,-0.24924829431267792
49,11.344191299998784,0.01959416504102241,-0.020288310768157646,0.029962838193449453,0.013929581033354383,-0.007786029532175077,0.015378022877781075,0.0507613047759113,0.09780060951798099,-0.0769686218947487,0.09671113174225587,0.25148754336554324,-0.25068586211553606
50,11.350440700000036,0.019662706291596478,-0.020325121677527418,0.030036924649372257,0.014178304925688726,-0.00730604411206467,0.01499964904133689,0.05123224243984987,0.09902684836824781,-0.07819475998290981,0.09640076941111536,0.25134335765727633,-0.25211054572489083
51,11.356174100001226,0.01973246622248645,-0.02035957701174761,0.0301091511127184,0.014429321989386835,-0.006820079780228717,0.0146152781246802,0.05170163864328663,0.10025231890773734,-0.07942781476131786,0.09607900243841817,0.2511724006341559,-0.25352203803768353
52,11.360853299993323,0.019803455999641024,-0.02039164761953729,0.03017948825219099,0.014682624570771123,-0.006328140602292599,0.01422487655053694,0.052169437656116105,0.1014768901709124,-0.08066772114233976,0.09574578798505501,0.2509745104907985,-0.254920030167667
53,11.364985799998976,0.019875686751017432,-0.020421304371002095,0.030247906573503767,0.01493820474384663,-0.00583023128455236,0.013828411062752115,0.05263558354487685,0.10270043040626685,-0.08191441252711701,0.0954010855184439,0.25074952673765216,-0.2563042112436385
54,11.36964910000097,0.019949169565250866,-0.020448518160768297,0.030314376420965235,0.015196054309337136,-0.005326357177793282,0.013425848733685087,0.05310002018409144,0.10392280708278057,-0.08316782079564736,0.09504485669269543,0.25049729018978273,-0.2576742683795926
55,11.373845399997665,0.02002391549031935,-0.02047325991113536,0.030378867979099007,0.015456164793776041,-0.004816524281075021,0.01301715697165217,0.05356269126625642,0.10514388689619025,-0.08442787629704988,0.09467706517683101,0.2502176429070412,-0.25902988668217214
56,11.38007440000365,0.0200999355322043,-0.020495500575246912,0.030441351274300525,0.015718527448639927,-0.004300739245489009,0.01260230352841687,0.054023540311506635,0.10636353577486078,-0.0856945078397194,0.09429767665476724,0.2499104282202918,-0.2603707491496221
57,11.384478499996476,0.020177240653546945,-0.02051521114027998,0.030501796176530465,0.015983133249533706,-0.0037790093778863223,0.012181256506728518,0.05448251067760504,0.10758161888631186,-0.0869676426806058,0.09390665880274443,0.24957549098549212,-0.26169653650366753
58,11.389328399993246,0.02025584177230093,-0.02053236263065231,0.030560172401045,0.01624997289542163,-0.0032513426445714196,0.011753984367917091,0.054939545569386856,0.10879800064556777,-0.08824720651372862,0.09350398133443179,0.2492126779389214,-0.2630069271335195
59,11.394184100005075,0.020335749760381255,-0.020546926111247626,0.03061644951016328,0.01651903680790456,-0.0027177476749485614,0.011320455939543875,0.05539458804918937,0.11001254472514908,-0.08953312345891014,0.09308961611658793,0.24882183787285647,-0.2643015970583821
60,11.398362399995676,0.020416975442309807,-0.020558872690658533,0.030670596915072332,0.016790315130552708,-0.002178233765118086,0.010880640423106184,0.055847581047424266,0.11122511406513601,-0.09082531604992418,0.09266353717653726,0.24840282157569654,-0.26558021980773944
61,11.403710800004774,0.0204995295938578,-0.02056817352444685,0.030722583877669688,0.017063797728286038,-0.0016328108814246665,0.010434507401803631,0.05629846737308037,0.11243557088257607,-0.09212370522206158,0.09222572073978232,0.24795548169371626,-0.2668424663842142
62,11.40782439999748,0.020583422940685266,-0.02057479981842112,0.03077237951244404,0.017339474186809457,-0.0010814896639618206,0.009982026848364136,0.05674718972466287,0.11364377668019893,-0.09342821029991663,0.0917761452821265,0.24747967257778516,-0.26808800530833066
63,11.412653699997463,0.02066866615697798,-0.020578722831931136,0.030819952788394216,0.01761733381209992,-0.0005242814300351591,0.00952316913292933,0.05719369070120447,0.1148495922543289,-0.0947387489853892,0.09131479160439095,0.24697525017869257,-0.2693165026782073
64,11.41720890000579,0.02075526986408196,-0.020579913881179225,0.030865272530986736,0.01789736562994903,3.8801822410286434e-05,0.009057905030997604,0.05763791281393345,0.11605287770257876,-0.09605523734605344,0.09084164295605639,0.2464420720695866,-0.2705276221621989
65,11.42136579999351,0.0208432446291359,-0.020578344342548207,0.030908307424152282,0.018179558385563947,0.0006077474114018628,0.00858620573142296,0.05807979849849087,0.11725349243198106,-0.09737758980308812,0.09035668509484954,0.2458799974758642,-0.2717210248269368
66,11.425174899995907,0.020932600963701812,-0.020573985655945735,0.030949026012321277,0.01846390054322918,0.0011825419675912852,0.008108042844475796,0.05851929012717985,0.11845129516697357,-0.09870571911796802,0.08985990625669592,0.2452888872153671,-0.2728963690401273
67,11.429501599996,0.02102334932239415,-0.020566809328164903,0.030987396702498973,0.018750380286026967,0.0017631714309443288,0.00762338840997158,0.0589563300208897,0.11964614395694724,-0.10003953637944606,0.08935129717485973,0.24466860363858503,-0.27405331057886356
68,11.433495799996308,0.021115500101507707,-0.020556786936260885,0.03102338776638033,0.019038985515615378,0.0023496210474664454,0.007132214905458609,0.05939086046153188,0.12083789618364829,-0.1013789509913012,0.08883085115812643,0.24401901071087745,-0.27519150249148905
69,11.4422052000009,0.021209063637644597,-0.020543890130943477,0.03105696734250497,0.019329703852070015,0.002941875365964657,0.006634495254466198,0.05982282370472675,0.12202640856952827,-0.10272387065797323,0.0882985640570352,0.24333997422556095,-0.27631059472741837
70,11.45096420000482,0.021304050206340595,-0.02052809063998532,0.03108810343845251,0.01962252263378585,0.003539918234854624,0.0061302028348325655,0.06025216199191019,0.12321153718722468,-0.10407420136869967,0.08775443411466943,0.24263136203565872,-0.2774102339875624
71,11.457159800003865,0.021400470020691165,-0.020509360271645596,0.031116763933078745,0.019917428917437027,0.004143732799015015,0.005619311487107756,0.06067881756156485,0.12439313747017156,-0.1054298473816916,0.08719846177216328,0.24189304419969046,-0.2784900637805202
72,11.461480600002687,0.02149833322997741,-0.020487670918108925,0.031142916578792958,0.020214409477988252,0.004753301496698078,0.005101795523035881,0.061102732659429615,0.12557106422350225,-0.1067907112088187,0.08663064945185402,0.2411248928620932,-0.27954972467293443
73,11.465234500006773,0.021597649918292206,-0.020462994558939202,0.031166529003876835,0.020513450808754188,0.005368606056490357,0.004577629734107431,0.06152384954761564,0.1267451716334936,-0.10815669360222706,0.08605100135545457,0.24032678193913493,-0.2805888546970301
74,11.469057299997075,0.021698430103166737,-0.020435303264548142,0.031187568714845196,0.020814539121499758,0.005989627494315387,0.004046789400172049,0.061942110512847086,0.12791531327540492,-0.10952769354299964,0.08545952331812896,0.23949858684234113,-0.2816070898103432
75,11.473449099998106,0.021800683734197603,-0.020404569199678348,0.03120600309884893,0.021117660346579928,0.006616346110470878,0.0035092502981014595,0.062357457874153775,0.12908134212022437,-0.11090360823225842,0.08485622270395105,0.23864018435520798,-0.2826040642508338
76,11.478189799992832,0.021904420691674722,-0.02037076462690076,0.031221799426120217,0.02142280013311505,0.007248741486697211,0.0029649887104890296,0.06276983399009216,0.13024311054130538,-0.11228433308328875,0.08424110833877567,0.23775145255078836,-0.28357941074257365
77,11.482380000001283,0.022009650785210146,-0.02033386191012632,0.031234924852460336,0.021729943849201072,0.007886792483279363,0.002413981434389521,0.06317918126578317,0.13140047032030913,-0.1136697617146479,0.08361419044263763,0.23683227067222073,-0.28453276067508737
78,11.487530700003845,0.02211638375236801,-0.020293833518131688,0.03124534642177013,0.022039076582153545,0.008530477236173365,0.0018562057900858768,0.06358544215947382,0.13255327265267555,-0.11505978594403879,0.08297548053271651,0.23588251915515676,-0.2854637441594526
79,11.494248699993475,0.022224629257295743,-0.020250652028098934,0.03125303106862332,0.02235018313878183,0.009179773154161595,0.0012916396298887289,0.06398855918862846,0.1337013681537846,-0.11645429578196573,0.08232499123282361,0.23490207966873855,-0.28637199002832303
80,11.499865599995246,0.02233439688935667,-0.02020429012916901,0.031257945620882834,0.022663248045692513,0.009834656916039334,0.00072026134696507,0.0643884749346321,0.13484460686482702,-0.11785317942560838,0.08166273585807925,0.23389083503351618,-0.2872571258545758
81,11.50766200000362,0.022445696161764197,-0.020154720626008874,0.0312600568023602,0.022978255549609507,0.010495104467827322,0.0001420498841975163,0.06478513204483041,0.13598283825816485,-0.11925632325265945,0.08098872799288007,0.23284866917652708,-0.28811877797751523
82,11.513816899998346,0.022558536510217535,-0.020101916442392165,0.031259331235518314,0.02329518961769736,0.011161091020010611,-0.00044301525692690943,0.06517847323311635,0.13711591124276404,-0.12066361181545415,0.08030298119935153,0.2317754671836148,-0.288956571562671
83,11.520312599997853,0.02267292729153903,-0.020045850624793256,0.03125573544421755,0.02361403393788707,0.011832591044804108,-0.001034954007400252,0.0655684412791263,0.1382436741700654,-0.12207492783539127,0.07960550871410699,0.23067111535177665,-0.2897701306728159
84,11.52394379999896,0.02278887778231308,-0.01998649634599459,0.031249235856505478,0.023934771919191564,0.012509578273448695,-0.0016337857217504225,0.06595497902586872,0.1393659748399277,-0.12349015219775536,0.07889632331410114,0.2295355012004201,-0.29055907835768524
85,11.53007890000299,0.022906397177526527,-0.019923826908707126,0.03123979880745022,0.024257386692008377,0.013192025693534743,-0.0022395291690741636,0.06633802937761184,0.14048266050660846,-0.12490916394701292,0.07817543748483788,0.2283685135123941,-0.2913230368259409
86,11.534504099996411,0.023025494589210528,-0.019857815749203773,0.03122739054201764,0.024581861108414524,0.013879905546356574,-0.002852202524047967,0.06671753529915299,0.14159357788510737,-0.12633184028331204,0.07744286369661513,0.22717004242748143,-0.29206162763580956
87,11.540474399997038,0.023146179045083835,-0.019788436440965642,0.031211977217992383,0.024908177742462057,0.014573189324297853,-0.0034718233579268958,0.06709343981640095,0.14269857315805895,-0.12775805655963815,0.07669861456945189,0.22593997956211184,-0.292774471687602
88,11.544229699997231,0.023268459487197544,-0.019715662698340988,0.03119352490894286,0.025236318890478615,0.015271847768253275,-0.004098408629527754,0.06746568601725407,0.14379749198324368,-0.12918768627824068,0.07594270299629272,0.2246782180466146,-0.2934611891377244
89,11.54836859999341,0.0233923447705813,-0.019639468380216605,0.031171999607230244,0.025566266571371545,0.015975850865087234,-0.004731974676193057,0.06783421705338435,0.14489017950084412,-0.13062060108695,0.07517514239686897,0.22338465252152495,-0.29412139945477284
90,11.552605799995945,0.023517843661891014,-0.019559827493701564,0.0311473672270616,0.025898002526945855,0.016685167845126286,-0.005372537204738274,0.06819897614359188,0.14597648034092,-0.13205667077615135,0.07439594704346687,0.22205917924594976,-0.29475472155413546
91,11.556780600003547,0.02364496483805818,-0.019476714197823066,0.031119593607587186,0.02623150822224106,0.017399767179690728,-0.006020111282386279,0.06855990657876658,0.14705623863172135,-0.13349576327641466,0.07360513229618104,0.2207016961574469,-0.29536077393247184
92,11.56175059999805,0.023773716884940867,-0.019390102807234254,0.031088644516042,0.02656676484589753,0.018119616578668157,-0.006674711327691475,0.06891695172753738,0.14812929800774766,-0.13493774465678024,0.07280271459901475,0.21931210283097397,-0.2959391747911509
93,11.567817000002831,0.02390410829597661,-0.01929996779593374,0.03105448565093162,0.026903753310548437,0.01884468298812366,-0.007336351101457524,0.06927005504119597,0.14919550161766063,-0.13638247912359275,0.07198871129326924,0.21789030060953096,-0.296489542133448
94,11.572739800001727,0.024036147470837238,-0.019206283800996725,0.031017082645262352,0.02724245425323414,0.01957493258795056,-0.008005043697650096,0.06961916005752568,0.15025469213361767,-0.13782982901973492,0.07116314029574208,0.21643619286217564,-0.2970114938691291
95,11.577590899993083,0.024169842714085784,-0.01910902562631744,0.030976401069815696,0.02758284803583148,0.02031033078957164,-0.008680801534307121,0.0699642104025862,0.1513067117617014,-0.1392796548244817,0.07032601970274223,0.21494968516351365,-0.2975046478930642
96,11.582305300005828,0.02430520223383552,-0.019008168246362697,0.03093240643646716,0.02792491474548556,0.021050842233691625,-0.009363636344450123,0.07030514979067991,0.15235140225300403,-0.14073181515350083,0.06947736758457988,0.21343068546560537,-0.29796862199171215
97,11.58800849999534,0.024442234140411072,-0.018903686809936242,0.030885064201549395,0.028268634195038726,0.021796430788106544,-0.010053559166994472,0.07064192202413196,0.15338860491573364,-0.14218616675779475,0.06861720213473842,0.21187910432222046,-0.2984030335925747
98,11.592052000007245,0.02458094644501164,-0.018795556643953684,0.03083433976925966,0.0286139859234602,0.02254705954557428,-0.010750580337650396,0.07097447099471164,0.15441816062848607,-0.14364256452125726,0.0677455419654127,0.21029485508699663,-0.2988074995700379
99,11.596211900003254,0.024721347058376312,-0.018683753257227615,0.03078019849511172,0.028960949196288915,0.023302690821753402,-0.011454709479809406,0.07130274068629534,0.15543990985428416,-0.14510086145772158,0.066862406238224,0.20867785404442377,-0.2991816360583105
100,11.600348299994948,0.02486344378945158,-0.018568252344262643,0.030722605689432202,0.029309503006089144,0.02406328615321066,-0.012165955495416506,0.07162667517756291,0.15645369265512726,-0.14656090870669228,0.06596781481018804,0.20702802049543442,-0.2995250580924781
101,11.604750600003172,0.025007244344061118,-0.018449029789059955,0.030661526620901533,0.029659626072919616,0.02482880629550173,-0.012884326555814988,0.07194621864608444,0.1574593487068654,-0.148022555526892,0.06506178849916844,0.20534527677639147,-0.29983737934710714
102,11.608761700001196,0.025152756323577878,-0.01832606166893106,0.030596926520139605,0.030011296844829016,0.025599211221323814,-0.013609830092555697,0.07226131537360604,0.15845671731393396,-0.1494856492894437,0.06414434915439796,0.20362954826298638,-0.30011821194533617
103,11.612982799997551,0.025299987223598688,-0.018199324258320385,0.030528770583336355,0.030364493498376666,0.026374460118740103,-0.014342472788175322,0.07257190975082446,0.1594456374242659,-0.15095003546955507,0.06321551965705755,0.2018807633398357,-0.30036716616734965
104,11.617196299994248,0.02544894443262143,-0.018068794032636327,0.030457023975927387,0.03071919393917459,0.027154511389477838,-0.015082260566924544,0.07287794628267852,0.1604259476437299,-0.1524155576368572,0.06227532396122504,0.20009885328493082,-0.3005838503571361
105,11.621059800003422,0.025599635230724928,-0.017934447672090452,0.030381651836314992,0.031075375802459823,0.027939322647293607,-0.015829198585452085,0.07317936959352317,0.16139748624991535,-0.1538820574461795,0.061323787045091546,0.1982837521911922,-0.3007678708101071
106,11.627501099996152,0.02575206678825171,-0.0177962620655445,0.03030261927963464,0.03143301645368693,0.028728850716405872,-0.01658329122344288,0.07347612443194507,0.1623600912058054,-0.15534937462679196,0.060360934888863835,0.19643539692144885,-0.3009188315487639
107,11.632039599993732,0.025906246164493676,-0.01765421431436487,0.030219891401567327,0.03179209298914729,0.029523051629993646,-0.017344542074197177,0.07376815567572109,0.16331360017312285,-0.15681734697099203,0.05938679430600867,0.19455372714589272,-0.30103633428928306
108,11.635878400004003,0.026062180306380894,-0.01750828173628426,0.03013343328219795,0.03215258223661001,0.03032188062875919,-0.018112953935157394,0.07405540833498779,0.16425785052636835,-0.15828581032302091,0.058401392697087155,0.1926386854503505,-0.3011199786321833
109,11.644372499999008,0.02621987604717352,-0.017358441869270186,0.030043209989920067,0.03251446075597208,0.03112529215956363,-0.018888528798379097,0.0743378275547987,0.16519267936722254,-0.1597545985695102,0.0574047579787668,0.19069021736638261,-0.3011693624582936
110,11.652082600005087,0.026379340105156954,-0.01720467247539993,0.029949186585387227,0.032877704839924256,0.03193323987413014,-0.019671267840964665,0.07461535861760135,0.16611792353887792,-0.16122354363226063,0.056396918381374526,0.18870827147601785,-0.30118408222408943
111,11.656389800002216,0.02654057908234023,-0.01704695154474169,0.029851328125511032,0.0332422905146254,0.03274567662781935,-0.02046117141546384,0.07488794694381982,0.16703341964146248,-0.16269247546156965,0.05537790228465816,0.18669279960954246,-0.3011637332909776
112,11.661046799999896,0.02670359946315776,-0.0168852572992415,0.02974959966750611,0.033608193540374,0.033562554478483005,-0.021258239040242297,0.0751555380927297,0.16793900404830098,-0.16416122203222208,0.05434773850607877,0.18464375702880886,-0.30110791063535497
113,11.665580200002296,0.026868407613174286,-0.016719568196615547,0.02964396627298213,0.033975389412291064,0.03438382468539795,-0.02206246938984309,0.07541807776585278,0.1688345129231266,-0.16562960934374385,0.053306456823832934,0.1825611026666305,-0.30101620959226827
114,11.669846699995103,0.027035009777793266,-0.016549862934247483,0.02953439301208279,0.03434385336102477,0.03520943770828769,-0.02287386028535769,0.07567551181293376,0.16971978223867737,-0.16709746142364673,0.05225408844372745,0.18044479930237936,-0.30088822641278945
115,11.674573500000406,0.02720341208096871,-0.016376120453090302,0.029420844967671746,0.03471356035349165,0.03603934320643781,-0.0236924086848191,0.07592778623988906,0.17059464779562075,-0.16856460033311887,0.05119066620907277,0.17829481353587626,-0.30072355869003997
116,11.67850009999529,0.027373620523920797,-0.01619831994157227,0.029303287239565334,0.035084485093658746,0.03687349003790211,-0.024518110673628375,0.07617484721683093,0.1714589452408953,-0.1700308461744252,0.050116224592946367,0.17611111593292064,-0.30052180571020054
117,11.683520299993688,0.027545640983855334,-0.01601644083950655,0.029181684948811865,0.0354566020233631,0.0377118262587969,-0.025350961455019937,0.07641664108594076,0.17231251008805484,-0.17149601710002185,0.049030799623586765,0.17389368137315067,-0.3002825687894791
118,11.690118800004711,0.02771947921268737,-0.015830462842004015,0.02905600324201735,0.03582988532317071,0.038554299122705624,-0.026190955340577013,0.07665311436876547,0.1731551777390033,-0.17295992932324344,0.04793442870120876,0.17164248914178284,-0.3000054515731148
119,11.694604400006938,0.027895140835769036,-0.015640365903388676,0.028926207295717328,0.036204308913267175,0.03940085508018518,-0.027038085740801174,0.07688421377230396,0.17398678350523372,-0.17442239713033417,0.0468271503135794,0.1693575230993224,-0.29969006034519463
120,11.698322099997313,0.028072631350621845,-0.015446130241115318,0.02879226232079456,0.03657984645437602,0.04025143977837768,-0.027892345155745145,0.07710988619352911,0.1748071626312186,-0.17588323289415717,0.04570900384568403,0.1670387720725089,-0.29933600442896624
121,11.702532499999506,0.028251956125673487,-0.01524773633968871,0.02865413356694224,0.03695647134869347,0.041105998060744935,-0.028753725165716067,0.07733007872361762,0.17561615031946226,-0.17734224709013038,0.04458002956099191,0.16468623006536778,-0.29894289654572975
122,11.707027900003595,0.02843312039899925,-0.015045164954583835,0.02851178632717238,0.03733415674084801,0.04196447396692459,-0.029622216422063752,0.07754473865228927,0.17641358175594993,-0.17879924831343677,0.04344026857540346,0.16229989640683176,-0.2985103529829435
123,11.713050599995768,0.028616129277068175,-0.0148383971161665,0.028365185942368858,0.037712875518877496,0.042826810732712876,-0.03049780863805182,0.07775381347178263,0.17719929213664007,-0.1802540432965999,0.042289762879581166,0.15987977595463018,-0.298037993852131
124,11.716787099998328,0.028800987733494005,-0.01462741413361373,0.028214297805884858,0.03809260031522752,0.04369295079017913,-0.0313804905798174,0.07795725088141217,0.17797311669490223,-0.18170643692920985,0.04112855523385778,0.15742587931960617,-0.2975254434029717
125,11.722726000007242,0.028987700607791086,-0.014412197598833271,0.02805908736818411,0.038473303507772935,0.0445628357679162,-0.03227025005743467,0.07815499879051883,0.17873489073019755,-0.1831562322785627,0.03995668882496585,0.15493822311404634,-0.2969723300793846
126,11.728530699998371,0.029176272604135273,-0.014192729390381537,0.027899520141525493,0.03885495722084501,0.04543640649143472,-0.03316707391607589,0.07834700531967873,0.17948444963793883,-0.18460323060993344,0.038774207150160236,0.15241683017774763,-0.29637828659799076
127,11.732605099998182,0.02936670829012985,-0.013968991677379266,0.027735561704690485,0.03923753332626476,0.04631360298370479,-0.034070948027272695,0.07853321880252341,0.18022162894037624,-0.18604723140798074,0.03758115417714864,0.14986172971883227,-0.29574295013481394
128,11.736713899997994,0.029559012095576518,-0.01374096692342418,0.027567177707753018,0.03962100344438786,0.04719436446585153,-0.034981857280285925,0.07871358778850861,0.18094626431783098,-0.1874880323988411,0.03637757458795818,0.14727295732623352,-0.2950659623293695
129,11.741203300000052,0.029753188311251514,-0.013508637890499862,0.02739433387689111,0.040005338945164955,0.048078629358001404,-0.03589978557358242,0.07888806104711327,0.1816581916397027,-0.1889254295715735,0.035163514029285255,0.14465055500913626,-0.29434696934072774
130,11.746195400002762,0.029949241087686932,-0.013271987642880161,0.02721699601923986,0.04039051094922755,0.048966335280280264,-0.036824715806414034,0.07905658757305029,0.18235724699608796,-0.19035921720080037,0.03393901920884631,0.14199457131307924,-0.2935856220938038
131,11.752368899993598,0.030147174433957435,-0.01303099955102833,0.027035130027785213,0.04077649032899915,0.049857419053968066,-0.037756629870515285,0.07921911659140543,0.18304326672992013,-0.19178918787055474,0.03270413786648381,0.13930506146325974,-0.292781576425715
132,11.756775999994716,0.03034699221647242,-0.012785657295490168,0.02684870188629794,0.04116324770983129,0.050751816702810426,-0.038695508641914976,0.07937559756256621,0.1837160874699857,-0.19321513249834876,0.0314589187627262,0.13658208750155834,-0.29193449335428784
133,11.760880700006965,0.030548698157773807,-0.012535944870780363,0.026657677674307295,0.04155075347116272,0.051649463454495406,-0.039641331972868635,0.0795259801872492,0.18437554616440074,-0.19463684036163997,0.030203411812679815,0.1338257183219162,-0.29104403944111246
134,11.765016399993328,0.030752295835339515,-0.012281846589261234,0.026462023572113667,0.04193897774770449,0.0525502937422916,-0.04059407868392828,0.07967021441273496,0.1850214801139724,-0.1960540991254413,0.028937668412080203,0.13103602972640152,-0.29010988685926975
135,11.769423499994446,0.030957788680392808,-0.012023347085013094,0.026261705865839598,0.042327890430659966,0.05345424120685035,-0.04155372655614419,0.07980825044107581,0.1856537270062222,-0.1974666948694479,0.02766174187442487,0.12821310451121,-0.28913171339574156
136,11.77336190000642,0.03116517997671767,-0.011760431317695406,0.02605669095251851,0.04271746116898995,0.0543612386981757,-0.04252025232339928,0.07994003873959471,0.18627212494958637,-0.19887441211567067,0.02637568773353409,0.12535703247554536,-0.28810920260201667
137,11.779096199999913,0.031374472859480494,-0.011493084576397939,0.025846945345220487,0.043107659370735144,0.055271218277760215,-0.043493631664880406,0.08006553005204434,0.18687651250752582,-0.20027703385703216,0.02507956380700694,0.1224679105044614,-0.2870420439286911
138,11.783539500000188,0.03158567031405836,-0.011221292483481084,0.02563243567821445,0.04349845420439008,0.056184111220887685,-0.044473839197691684,0.08018467540972496,0.18746672873353457,-0.2016743415863131,0.023773430181629925,0.11954584283806004,-0.28592993275444334
139,11.790524099997128,0.03179877517487412,-0.010945040998404551,0.02541312871216598,0.04388981460033405,0.0570998480191104,-0.04546084846960816,0.08029742614250118,0.18804261320787558,-0.20306611532503083,0.022457349176261108,0.11659094138133072,-0.2847725704431308
140,11.796690799994394,0.03201379012423863,-0.010664316421543524,0.025188991339370182,0.04428170925231252,0.0580183583829102,-0.046454631951970825,0.08040373388955777,0.18860400607561142,-0.20445213365294287,0.021131385266205564,0.11360332601621212,-0.28356966444441295
141,11.802795099996729,0.0322307176912003,-0.010379105397991393,0.024959990589018825,0.044674106618972934,0.058939571244546726,-0.047455161032728045,0.0805035506096787,0.1891507480863842,-0.20583217373790688,0.019795604773272128,0.11058312511792194,-0.2823209284091393
142,11.811556200002087,0.0324495602504023,-0.010089394921348131,0.02472609363250106,0.04506697492544642,0.05986341476110648,-0.048462406009621865,0.08059682858897972,0.18968268063748267,-0.20720601136650965,0.018450075660852265,0.10753047615484285,-0.2810260822832745
143,11.815162900005816,0.03267032002094753,-0.009795172337493286,0.024487267788737038,0.045460282164959016,0.060789816317771195,-0.04947633608352822,0.08068352044918847,0.19019964581947363,-0.20857342097484335,0.017094867645425556,0.10444552607131602,-0.2796848522184804
144,11.820876099998712,0.03289299906527156,-0.009496425348342474,0.02424348052954359,0.045853996100494156,0.061718702531311995,-0.05049691935194342,0.0807635791564647,0.19070148646300306,-0.2099341756782623,0.015730052237323405,0.10132843146332682,-0.2782969706161037
145,11.824965799998608,0.03311759928802379,-0.009193142015586285,0.02399469948503138,0.046248084266489915,0.06264999925381427,-0.051524122802614626,0.08083695803007808,0.19118804618614124,-0.21128804730258827,0.014355703100187142,0.09817935863152381,-0.2768621763445019
146,11.829261899998528,0.03334412243495697,-0.008885310764410449,0.023740892449032713,0.046642513970586136,0.06358363157663369,-0.05255791230733073,0.08090361075473465,0.191659169441701,-0.2126348064159871,0.012971896424935,0.09499848366150268,-0.2753802147320887
147,11.833562100000565,0.033572570091825404,-0.008572920387196146,0.02348202738455925,0.047037252295441936,0.06451952383458259,-0.05359825261586377,0.08096349139290251,0.19211470156536598,-0.2139742223601062,0.011578710854722302,0.09178599272054809,-0.27385083766325674
148,11.839921799997684,0.033802943683292175,-0.008255960047199341,0.02321807242928893,0.04743226610060305,0.06545759961035551,-0.05464510735006353,0.08101655439640632,0.1925544888259034,-0.21530606328288687,0.010176227574423283,0.08854208254369948,-0.27227380383369554
149,11.844245000000228,0.03403524447184558,-0.007934419282207927,0.022948995901081272,0.047827522024432426,0.06639778173920534,-0.05569843899811904,0.08106275461962574,0.19297837847803367,-0.21663009617219228,0.00876453049753917,0.08526696092344466,-0.27064887870523735
150,11.849449700006517,0.034269473556725195,-0.007608288008175438,0.022674766303520277,0.04822298648610633,0.06733999231388456,-0.05675820890898117,0.08110204733291321,0.19338621881741982,-0.21794608688817926,0.007343706476081736,0.08196084693564737,-0.2689758342585688
151,11.853495400006068,0.03450563187285776,-0.0072775565228300025,0.022395352331484146,0.048618625687675825,0.06828415268985782,-0.05782437728693991,0.08113438823783965,0.19377785923574087,-0.21925380019451415,0.005913845853724422,0.0786239708174753,-0.26725444875117277
152,11.857169700000668,0.03474372018980336,-0.006942215509257207,0.02211072287674106,0.04901440561621156,0.06923018349078036,-0.05889690318635147,0.08115973348600788,0.1941531502744905,-0.22055299978838352,0.0044750429358952305,0.07525657382460191,-0.26548450644373395
153,11.862213600004909,0.034983739110712245,-0.0066022560394556114,0.021820847033570345,0.049410292046048784,0.07017800461423536,-0.05997574450650827,0.08117803969888386,0.19451194367865762,-0.2218434483290412,0.0030273959459342615,0.07185890844634123,-0.26366579736114515
154,11.870640299996012,0.03522568907129289,-0.006257669577863646,0.021525694104408286,0.04980625054112559,0.07112753523773598,-0.061060857986644526,0.08118926398618238,0.19485409245262345,-0.2231249074654878,0.0015710068008492483,0.06843123897535801,-0.26179811717311297
155,11.877344299995457,0.035469570338791646,-0.005908447984856582,0.021225233605518007,0.05020224645740726,0.07207869382500798,-0.06215219920107623,0.081193363963511,0.19517945091939926,-0.22439713786385304,0.00010598091587970876,0.06497384210128804,-0.2598812670852912
156,11.881715900002746,0.03571538301098442,-0.005554583520212148,0.020919435272682703,0.05059824494539658,0.07303139813256958,-0.06324972255447382,0.08119029776884933,0.195487874782314,-0.22565989923401342,-0.0013675730637407858,0.061487007133305224,-0.25791505373113754
157,11.887103000000934,0.03596312701518082,-0.00519606884654331,0.020608269066921623,0.05099421095271899,0.0739855652166158,-0.06435338127726183,0.08118002407757646,0.19577922118642296,-0.22691295035591966,-0.0028495433300862617,0.05797103569383899,-0.25589928928420835
158,11.890885000000708,0.03621280210724108,-0.004832897032696744,0.020291705180228176,0.051390109226779467,0.07494111144019731,-0.06546312742114832,0.08116250211829382,0.19605334877720781,-0.2281560491073097,-0.004339814763332268,0.05442624116461643,-0.253833791790335
159,11.896478199996636,0.03646440787060609,-0.004465061557115586,0.019969714041329526,0.05178590431750197,0.0758979524806774,-0.0665789118547949,0.08113769168930793,0.19631011775658172,-0.22938895249327634,-0.005838268924396163,0.0508529483137112,-0.25171838542259456
160,11.902202500001296,0.03671794371534105,-0.004092556311165164,0.01964226632146693,0.05218156058014716,0.0768560033374571,-0.06770068425963459,0.0811055531745251,0.19654938993795146,-0.2306114166764674,-0.007344784039760983,0.04725149327076256,-0.24955290053694396
161,11.906219800002871,0.036973408877193,-0.0037153756024203995,0.019309332940196135,0.05257704217820688,0.0778151783399692,-0.06882839312583633,0.08106604756008225,0.19677102880198083,-0.23182319700719595,-0.008859234896463244,0.04362222365020553,-0.24733717363779278
162,11.910820699995384,0.03723080241666267,-0.0033335141579135586,0.018970885071207068,0.05297231308638406,0.07877539115594742,-0.06996198574841664,0.08101913645126586,0.1969748995528548,-0.23302404805330465,-0.010381492708272141,0.03996549848753882,-0.2450710472861188
163,11.915043500004684,0.03749012321809112,-0.002946967127340993,0.018626894148162168,0.053367337093652274,0.07973655479996919,-0.07110140822349544,0.08096478209044822,0.19716086917342124,-0.2342137236293798,-0.011911424711532496,0.03628168793756074,-0.24275437012499979
164,11.919228600003407,0.037751369988761434,-0.002555730086227562,0.018277331870552607,0.053762077806410596,0.08069858164226265,-0.07224660544469261,0.08090294737794863,0.19732880647851153,-0.23539197682686466,-0.013448893731100779,0.032571172938164014,-0.2403869970732996
165,11.923494300004675,0.03801454125801609,-0.0021597990390474654,0.017922170209571753,0.05415649865174662,0.08166138341776964,-0.0733975210996776,0.08083359589420373,0.19747858216680284,-0.23655856004516276,-0.014993757994451413,0.02883434497362405,-0.23796878941230026
166,11.928712699998869,0.03827963537639051,-0.0017591704223002618,0.017561381414005064,0.0545505628808076,0.08262487123545853,-0.0745540976668694,0.080756691922442,0.1976100688718297,-0.23771322502259631,-0.016545871093910754,0.025071605952953727,-0.23549961486797766
167,11.932405700004892,0.03854665051476333,-0.0013538411075408616,0.01719493801613573,0.05494423357228463,0.08358895558788479,-0.07571627641228808,0.08067220047122242,0.19772314121265971,-0.2388557228683121,-0.018105082135350958,0.021283368152732938,-0.23297934782393964
168,11.936435499999789,0.038815584663523924,-0.0009438084043622846,0.016822812837665287,0.055337473636003665,0.08455354636099816,-0.07688399738656597,0.0805800872956586,0.19781767584434753,-0.23998580409531695,-0.01967123599349666,0.01747005421418916,-0.23040786946319713
169,11.94252250000136,0.03908643563175768,-0.0005290700633299917,0.016444978995648406,0.055730245816616696,0.08551855284419535,-0.07805719942212153,0.08048031891746706,0.197893551508582,-0.24110321865376647,-0.02124417363325281,0.013632097282481515,-0.22778506782474545
170,11.952720500004943,0.03935920104644954,-0.00010962427886658371,0.016061409908441075,0.056122512697388334,0.08648388374062127,-0.07923582013049518,0.08037286264305696,0.1979506490854988,-0.24220771596455248,-0.022823732647100636,0.009769941364198334,-0.22511083791603584
171,11.96091009999509,0.03963387835170625,0.00031453030791434966,0.015672079301661382,0.05651423670406347,0.08744944717772711,-0.08041979589985081,0.08025768657833643,0.1979888516478148,-0.24329904495368893,-0.0244097477793605,0.00588404182325106,-0.22238508180485178
172,11.96562050000648,0.039910464807997585,0.0007433946064265186,0.015276961214162062,0.056905380108798254,0.0884151507180996,-0.08160906189264701,0.08013475964168842,0.19800804451747778,-0.24437695408679536,-0.026002050956027693,0.0019748657735186416,-0.21960770872504526
173,11.969677700006288,0.04018895749141693,0.0011769690738827178,0.014876030004014,0.05729590503415434,0.08938090137057174,-0.08280355204347495,0.08000405157848597,0.1980081153236309,-0.24544119140451431,-0.027600470872877255,-0.001957107738259285,-0.21677863537848027
174,11.97768630000064,0.04046935329296152,0.0016152537126214934,0.014469260354499861,0.057685773457171456,0.09034660560161739,-0.08400319905707512,0.07986553297808588,0.19798895406104647,-0.24649150455994012,-0.02920483236822338,-0.005911387628191516,-0.21389778625457204
175,11.981776000000536,0.040751648917832714,0.0020582480674900764,0.014056627280116949,0.058074947213527406,0.09131216934703204,-0.08520793440654027,0.07971917529446232,0.19795045314910753,-0.24752764085715315,-0.03081495568256145,-0.0098874706586948,-0.21096509385154832
176,11.987400800004252,0.0410358408847568,0.0025059512232849875,0.01363810613258836,0.05846338800181191,0.09227749802390274,-0.08641768833170804,0.07956495087042231,0.19789250749137854,-0.24854934729080688,-0.03243065602458372,-0.013884841345303003,-0.2079804989124553
177,11.991812299995216,0.041321925525326986,0.002958361802251731,0.013213672606881515,0.05885105738792282,0.0932424965428699,-0.08763238983775004,0.0794028329624726,0.19781501453549605,-0.2495563705869643,-0.03405174351175098,-0.017902971920060576,-0.20494395068842294
178,11.995896799999173,0.04160989898336708,0.0034154779616450055,0.012783302747233088,0.05923791680958251,0.09420706932068144,-0.08885196669396284,0.07923279576561476,0.1977178743330963,-0.250548457245253,-0.03567802304295079,-0.02194132229795782,-0.201855407282718
179,12.000537700005223,0.04189975721431753,0.0038772973913508584,0.012346972953179325,0.05962392758097596,0.09517112029303919,-0.09007634543276821,0.0790548144394543,0.19760098960003336,-0.25152535358305744,-0.037309294104591106,-0.025999339942031643,-0.198714836077949
180,12.004802600000405,0.04219149598464435,0.004343817311572204,0.011904659985590722,0.06000905089752185,0.09613455292774037,-0.09130545134893524,0.07886886513488715,0.1974642657776227,-0.2524868057818414,-0.038945350784965374,-0.03007645957704938,-0.1955222141570284
181,12.00963660000707,0.04248511087127168,0.004815034470579164,0.011456340972709936,0.06039324784077091,0.0970972702381214,-0.09253920849903237,0.07867492502006868,0.197307611095652,-0.25343255993544644,-0.04058598201352805,-0.03417210269054469,-0.19227752873778725
182,12.014552199994796,0.04278059726103853,0.005290945142525727,0.011001993416191807,0.06077647938343034,0.09805917479681406,-0.09377753970112064,0.07847297230476617,0.19713093663849196,-0.2543623621006536,-0.042230971920495,-0.03828567683987731,-0.18898077761870688
183,12.019122300000165,0.043077950350180326,0.00577154512533427,0.01054159519714426,0.06115870639449973,0.09902016874983412,-0.09502036653469897,0.07826298626282013,0.1969341564148663,-0.2552759583498299,-0.04388009985076756,-0.04241657501118505,-0.18563196961386347
184,12.023484000004828,0.04337716514383575,0.00625682973864964,0.010075124582168863,0.06153988964451457,0.09998015383101809,-0.0962676093409109,0.078044947256361,0.19671718743021557,-0.25617309482573264,-0.04553314012546952,-0.04656417524673991,-0.1822311249375455
185,12.03309260000242,0.04367823645557945,0.0067467938218645045,0.00960256022939971,0.061919989810918355,0.10093903137681771,-0.09751918722302445,0.07781883676059646,0.1964799497601022,-0.2570535177979075,-0.047189862206103064,-0.050727840579907146,-0.17877827547421737
186,12.037730900003226,0.04398115890698126,0.007241431732217742,0.0091238811945393,0.062298967483547914,0.10189670234145275,-0.09877501804718902,0.07758463738642694,0.19622236662320858,-0.2579169737201264,-0.04885003072415552,-0.054906919153566554,-0.1752734650296915
187,12.041981799993664,0.04428592692719243,0.007740737342967598,0.008639066936890035,0.06267678317022612,0.10285306731241749,-0.10003501844347552,0.07734233290494412,0.19594436445358715,-0.2587632092892354,-0.050513405085764615,-0.059100744351662675,-0.1717167495897214
188,12.048221699995338,0.0445925347525594,0.008244704041641335,0.008148097325379954,0.06305339730248617,0.10380802652633833,-0.10129910380720727,0.07709190827390269,0.1956458729723752,-0.2595919715051151,-0.052179739366262363,-0.06330863487579814,-0.16810819756968315
189,12.056736400001682,0.044900976426265865,0.008753324728363068,0.007650952644581251,0.06342877024142252,0.10476147988517984,-0.10256718830058505,0.07683334966324754,0.19532682525929781,-0.2604030077319641,-0.05384878225796561,-0.06752989471401648,-0.16444789017109676
190,12.061053600002197,0.04521124579800362,0.009266591814261494,0.007147613600720155,0.06380286228366414,0.10571332697279974,-0.10383918485461573,0.07656664448209476,0.1949871578246872,-0.261196065761737,-0.055520276823243515,-0.07176381310783199,-0.16073592177653281
191,12.067875699998694,0.04552333652367289,0.009784497219959219,0.006638061327676635,0.06417563366748869,0.10666346707185753,-0.10511500517135616,0.07629178140666752,0.19462681068130724,-0.26197089387927985,-0.057193960682084315,-0.07600966471747843,-0.156972400288168
192,12.074218499998096,0.04583724206511281,0.010307032374145412,0.006122277392972393,0.06454704457906824,0.10761179918107008,-0.1063945597264772,0.07600875040544752,0.19424572741476095,-0.2627272409290707,-0.058869566408596766,-0.08026670982699372,-0.15315744756026844
193,12.07908330000646,0.046152955689862704,0.010834188212233453,0.005600243803745561,0.06491705515882877,0.108558222032807,-0.10767775777215852,0.07571754276324315,0.1938438552533145,-0.2634648563845737,-0.06054682169400516,-0.08453419437907367,-0.149291199952348
194,12.086491399997612,0.04647047047095457,0.011365955175105226,0.005071943012710452,0.0652856255079307,0.10950263411102736,-0.1089645073403292,0.07541815110475103,0.19342114513796466,-0.26418349042037514,-0.06222544974366437,-0.08881134996046923,-0.1453738088105418
195,12.091775799999596,0.04678977928673756,0.011902323207943722,0.00453735792410065,0.06565271569485817,0.11044493366955849,-0.1102547152462662,0.07511056941475157,0.19297755179240536,-0.2648828939862335,-0.06390516958421595,-0.09309739392541004,-0.14140544071699726
196,12.096384699994816,0.0471108748207348,0.012443281759155635,0.003996471899593659,0.0660182857620966,0.11138501875071523,-0.11154828709255725,0.07479479305867434,0.1925130337918912,-0.26556281888164773,-0.06558569571180566,-0.0973915296671614,-0.13738627747644935
197,12.100247199996376,0.04743374956153294,0.01298881977938558,0.003449268764215337,0.06638229573292259,0.11232278720425044,-0.11284512727342666,0.07447081880622507,0.192027553630555,-0.26622301782977653,-0.06726673767259944,-0.1016929469184794,-0.13331651594032717
198,12.104369299995597,0.047758395802705245,0.013538925720623549,0.0028957328122223517,0.06674470561831189,0.11325813670663087,-0.11414513897941928,0.07413864485604284,0.19152107778734065,-0.266863244550291,-0.06894799982460059,-0.10600082201154425,-0.12919636778664245
199,12.108014299999924,0.04808480564276852,0.014093587535407147,0.002335848812960922,0.06710547542396986,0.11419096478063083,-0.11544822420243696,0.07379827086165042,0.1909935767907852,-0.2674832538311466,-0.07062918119588883,-0.11031431801402333,-0.12502605934603112
200,12.111961400005384,0.048412970985174754,0.014652792676120172,0.0017696020167001462,0.06746456515749256,0.11512116881523994,-0.11675428374112258,0.07344969795749427,0.19044502528362445,-0.26808280159973913,-0.07230997545267594,-0.11463258474803599,-0.12080583154672819
201,12.115547699999295,0.048742883538337944,0.015216528094389047,0.0011969781604382276,0.06782193483565124,0.11604864608588704,-0.11806321720659062,0.07309292878520647,0.18987540208738993,-0.26866164499414,-0.07399007066958108,-0.11895475878009207,-0.11653593996197278
202,12.119237499995506,0.049074534815696756,0.015784780240578666,0.0006179634736799032,0.06817754449180956,0.11697329377497802,-0.119374923028506,0.07272796752188554,0.18928469026711278,-0.2692195424347145,-0.07566914919501318,-0.12327996337995545,-0.11221665491678585
203,12.12425439999788,0.04940791613581372,0.016357535063389165,3.254468418337304e-05,0.06853135418348393,0.11789500899275086,-0.12068929846151329,0.07235481990767148,0.18867287719632203,-0.26975625369639855,-0.07734688789650014,-0.12760730852240826,-0.10784826165496882
204,12.128500299993902,0.04974301862251162,0.01693477800955519,-0.0005592909763249842,0.06888332400002976,0.11881368879844753,-0.12200623959202056,0.07197349327163359,0.18803995462173112,-0.27027153998194603,-0.07902295830361641,-0.13193589089569324,-0.10343106056881553
205,12.13202980000642,0.050079833205047684,0.017516494023649198,-0.0011575557664698533,0.06923341407045433,0.11972923022179996,-0.12332564134534307,0.0715839965579513,0.1873859187281539,-0.27076516399644635,-0.08069702669768396,-0.13626479388577,-0.09896536749025708
206,12.136279500002274,0.05041835061832618,0.0181026675479903,-0.00176226142958195,0.06958158457135835,0.12064153028483517,-0.124647397493214,0.07118634035092698,0.18671077020334478,-0.2712368900234116,-0.08236875435856385,-0.1405930876130723,-0.09445151400733123
207,12.14103110000724,0.05075856140315006,0.018693282522660254,-0.002373419188090527,0.06992779573499285,0.12155048602399374,-0.1259714006616703,0.07078053689875954,0.18601451430255608,-0.27168648400238116,-0.08403779761643332,-0.1449198288947292,-0.08988984775241343
208,12.14530879999802,0.05110045590651215,0.01928832238562808,-0.0029910397379552616,0.07027200785743265,0.12245599451256464,-0.12729754233932047,0.07036660013805214,0.18529716091374673,-0.2721137136078203,-0.08570380791959953,-0.14924406117455322,-0.08528073264769263
209,12.148794599997927,0.05144402428192653,0.01988777007298488,-0.00361513324313941,0.0706141813068723,0.1233579528834398,-0.12862571288599994,0.06994454571692425,0.1845587246228226,-0.2725183483291192,-0.08736643213379526,-0.15356481454710688,-0.08062454912057058
210,12.15304639999522,0.05178925648980063,0.0204916080192904,-0.004245709330126125,0.07095427653202502,0.12425625835218528,-0.12995580154181924,0.06951439101660001,0.18379922477861038,-0.27290015955159297,-0.0890253124443144,-0.15788110576952283,-0.07592169429226306
211,12.156975599995349,0.052136142297848555,0.02109981815803291,-0.0048827770824798646,0.07129225407062914,0.12515080824042962,-0.1312876964366095,0.06907615517547483,0.18301868555798262,-0.2732589206383201,-0.09068008607203473,-0.16219193815706198,-0.07117258212921676
212,12.162786600005347,0.05248467128154616,0.021712381922203903,-0.005526345035454852,0.07162807455808189,0.12604149999957034,-0.1326212845997689,0.0686298591134738,0.18221713603185039,-0.27359440701261933,-0.09233038539301157,-0.1664963014587112,-0.06637764355204401
213,12.166954800006351,0.05283483282462856,0.02232928024498922,-0.0061764211706525265,0.0719616987361834,0.12692823123480595,-0.13395645197051267,0.06817552555495175,0.1813946102315018,-0.2739063962409511,-0.09397583790216428,-0.1707931718646155,-0.061537326473560444
214,12.171275000000604,0.05318661611963053,0.022950493560578166,-0.006833012910729986,0.07229308746199385,0.12781089972948953,-0.13529308340852816,0.06771317905340583,0.18055114721452217,-0.27419466811576515,-0.09561606583070754,-0.1750815119071908,-0.05665209578134827
215,12.175667699993935,0.053540010168470396,0.023576001805092183,-0.007496127114161373,0.07262220171681859,0.1286894034698038,-0.13663106270503306,0.06724284601810734,0.17968679113209712,-0.2744590047382319,-0.09725068592138202,-0.17936027018968909,-0.05172243336950558
216,12.180211800005054,0.05389500378307809,0.024205784417634667,-0.008165770070054186,0.07294900261532498,0.12956364066977114,-0.1379702725942374,0.0667645547410068,0.17880159129758041,-0.2746991906014,-0.09887930958758369,-0.1836283813269852,-0.04674883827517032
217,12.184665199994924,0.05425158558606797,0.024839820341463596,-0.008841947493022466,0.07327345141479003,0.1304335097965976,-0.1393105947652129,0.06627833542181355,0.17789560225437467,-0.2749150126742591,-0.10050154339774672,-0.18788476594630507,-0.04173182690751525
218,12.190065200004028,0.05460974401145705,0.02547808802528856,-0.00952466451811889,0.07359550952446182,0.131298909596345,-0.14065190987417509,0.06578422019017596,0.1769688838444921,-0.2751062604871312,-0.1021169897182608,-0.1921283305261998,-0.03667193342230955
219,12.194695600002888,0.05496946730542918,0.026120565424693806,-0.010213925695827762,0.07391513851502354,0.13215973911994364,-0.14199409755718545,0.06528224312448976,0.17602150127800595,-0.27527272621938725,-0.10372524737944668,-0.19635796743767917,-0.03156971015742408
220,12.199121199999354,0.05533074352714558,0.026767230003689017,-0.010909734987121007,0.07423230012813838,0.13301589774954198,-0.14333703644328918,0.06477244026758198,0.17505352520120993,-0.2754142047890864,-0.10532591214607155,-0.2005725551667874,-0.026425727834703563
221,12.203540300004532,0.05569356054960209,0.02741805873638937,-0.011612095758579315,0.07454695628606646,0.13386728522518415,-0.14468060416809184,0.06425484964092976,0.17406503176389862,-0.27553049394266177,-0.10691857703997737,-0.2047709584409062,-0.021240575578638357
222,12.209511199995177,0.056057906060533555,0.028073028108826545,-0.012321010777580566,0.07485906910134855,0.1347138016718159,-0.14602467738777178,0.06372951125719717,0.17305610268629493,-0.2756213943447419,-0.10850283282475788,-0.2089520284664966,-0.0160148610365044
223,12.213707100003376,0.05642376756336553,0.028732114120892206,-0.013036482207557659,0.07516860088654524,0.13555534762661497,-0.14736913179353306,0.06319646712972628,0.17202682532401137,-0.27568670966900843,-0.11007826866297311,-0.21311460352652076,-0.010749210620259316
224,12.219526400003817,0.05679113237821363,0.029395292288415604,-0.013758511603327915,0.07547551416401319,0.1363918240666307,-0.14871384212650413,0.06265576127866329,0.17097729272915005,-0.275726246690377,-0.11164447303823384,-0.2172575099241134,-0.005444269889509532
225,12.223808399998234,0.05715998764293063,0.030062537645376676,-0.014487099906496234,0.07577977167570409,0.13722313243671036,-0.15005868219308985,0.06210743973145513,0.169907603706059,-0.2757398153795905,-0.11320103494259662,-0.22137956320716315,-0.00010070406812741073
226,12.23031090000586,0.05753032031420139,0.03073382474625604,-0.01522224744093425,0.07608133639294579,0.13804917467768268,-0.15140352488079295,0.061551550517393284,0.16881786286048708,-0.27572722900043967,-0.11474754476510352,-0.22547956961139182,0.0052808015730206525
227,12.236485000001268,0.05790211716868536,0.03140912766852301,-0.015963953908337818,0.076380171526188,0.13886985325476367,-0.15274824217451435,0.060988143659443154,0.16770818064126386,-0.27568830420808915,-0.11628359474946816,-0.22955632788235772,0.010699541469295356
228,12.242874100003974,0.05827536480420657,0.03208842001526268,-0.016712218383865163,0.07667624053470375,0.13968507118614662,-0.15409270517333373,0.06041727116432346,0.16657867337168195,-0.27562286114870543,-0.11780877953942753,-0.23360863168203327,0.016154789336379788
229,12.24788159999298,0.05865004964099077,0.03277167491794281,-0.017467039311858057,0.07696950713623825,0.14049473207171412,-0.15543678410778167,0.059838987009016,0.16542946326770214,-0.2755307235619376,-0.11932269713568595,-0.2376352721774283,0.021645797587477443
230,12.252606299996842,0.05902615792294953,0.033458865039320995,-0.01822841450164845,0.07725993531657882,0.14129874012180563,-0.15678034835761984,0.059253347121510605,0.16426067844408518,-0.2754117188862298,-0.12082494941121051,-0.24163504005364683,0.027171796770581937
231,12.256810299993958,0.05940367571901074,0.03414996257649214,-0.018996341123453078,0.07754748933901597,0.14209700018598928,-0.15812326647014044,0.0586604093622885,0.1630724529129607,-0.27526567836679133,-0.12231514160337571,-0.24560672652815388,0.03273199515950263
232,12.261118800000986,0.059782588924495006,0.03484493926407628,-0.019770815704358593,0.07783213375373259,0.14288941778181552,-0.15946540617899957,0.05806023351002109,0.16186492658006546,-0.27509243716489845,-0.1237928816711826,-0.24954912359553685,0.03832557858935299
233,12.265039899997646,0.0601628832625377,0.03554376637754657,-0.020551834124399884,0.07811383340712563,0.1436758991235522,-0.1608066344235828,0.057452881249323275,0.16063824524092465,-0.274891834467469,-0.1252577800034067,-0.2534610243212285,0.04395171009776965
234,12.2697640999977,0.06054454428555632,0.036246414736697354,-0.02133939161273411,0.07839255345107582,0.14445635115090094,-0.16214681736890746,0.056838416159299084,0.15939256057422513,-0.274663713599864,-0.1267094498821223,-0.2573412242618399,0.04960952897535668
235,12.278241499996511,0.060927557376762954,0.03695285470925228,-0.022133482743913142,0.07866825935215756,0.14523068155766766,-0.16348582042608842,0.05621690369677359,0.15812803012414223,-0.27440792214472476,-0.12814750889514495,-0.26118852439507345,0.05529814962573601
236,12.282816699997056,0.06131190775172146,0.03766305621461206,-0.022934101434257247,0.07894091690074512,0.1459987988203065,-0.16482350827339962,0.05558841117106097,0.15684481726513327,-0.27412431206589377,-0.1295715804551019,-0.2650017342727777,0.061016660720174434
237,12.288843799993629,0.061697580459948775,0.03837698872774096,-0.02374124093833296,0.07921049221997642,0.1467606122262469,-0.16615974487794868,0.054953007712378765,0.15554309115350826,-0.27381273983549814,-0.13098129465835703,-0.26877967420496407,0.0667641247086525
238,12.294182500001623,0.06208456038655952,0.03909462128319092,-0.024554893845538193,0.07947695177455111,0.14751603190196516,-0.16749439351797799,0.054310764238237635,0.15422302667091947,-0.27347306656263975,-0.13237628839644974,-0.2725211768901498,0.07253957774843274
239,12.298627800002578,0.06247283225395312,0.03981592247926186,-0.025375052076797647,0.07974026237936649,0.14826496884076032,-0.1688273168057946,0.053661753420768586,0.15288480436002916,-0.2731051581211753,-0.13375620518587863,-0.2762250884395495,0.07834203000567572
240,12.302828800005956,0.06286238062354269,0.04054086048229673,-0.02620170688137158,0.0800003912079969,0.14900733493019816,-0.17015837671131778,0.05300604965477308,0.15152861035800874,-0.2727088852754645,-0.13512069471070579,-0.2798902680701952,0.08417046612011102
241,12.307047499998587,0.0632531898975248,0.0412694030311095,-0.027034848833780926,0.080257305801018,0.14974304297923838,-0.17148743458623553,0.05234372902951192,0.1501546363351999,-0.27228412380361744,-0.13646941179823222,-0.28351558668520616,0.09002384593169295
242,12.31137419999868,0.06364524432068963,0.04200151744154484,-0.02787446783085168,0.08051097407421096,0.15047200674508032,-0.17281435118875424,0.05167486930674702,0.14876307944246248,-0.27183075461615475,-0.13780201557508023,-0.28709992487499936,0.09590110532335586
243,12.315060799999628,0.06403852798227072,0.04273717061116798,-0.028720553088881436,0.08076136432667252,0.15119414095977654,-0.17413898670891279,0.05099954990076225,0.14735414226933255,-0.27134866387103435,-0.13911816932470117,-0.2906421716425287,0.10180115662762104
244,12.319289499995648,0.06443302481783421,0.04347632902408398,-0.029573093140930717,0.08100844524882438,0.15190936135667038,-0.17546120079445415,0.050317851857795116,0.14592803280380492,-0.27083774308834535,-0.1404175408086898,-0.2941412246185847,0.10772288877453093
245,12.324036599995452,0.06482871861120679,0.04421895875588547,-0.030432075834241856,0.08125218593032255,0.15261758469661724,-0.17678085257725829,0.049629857832923376,0.1444849643883911,-0.27029788926389187,-0.14169980279754105,-0.2975959905007857,0.11366516764633253
246,12.327671199993349,0.06522559299644203,0.04496502547872768,-0.03129748832778816,0.08149255586784128,0.15331872879399353,-0.1780978007003217,0.048935652064319504,0.14302515567561958,-0.2697290049804271,-0.14296463372203916,-0.30100538583537223,0.11962683646603867
247,12.33196450000105,0.06562363145982428,0.045714494466529934,-0.03216931708995599,0.08172952497273137,0.15401271254248386,-0.1794119033452753,0.048235320343783354,0.14154883057646797,-0.2691309985174471,-0.14421171929412338,-0.3043683395848166,0.1256067159695654
248,12.340615099994466,0.0660228173419097,0.04646733060030216,-0.03304754789636231,0.08196306357851654,0.154699455940587,-0.18072301826043502,0.047528949975186044,0.14005621819081773,-0.26850378396074553,-0.14544075528860803,-0.3076837981988377,0.13160360460930018
249,12.348436200001744,0.06642313383960331,0.04722349837359521,-0.03393216582781039,0.08219314244814648,0.1553788801167247,-0.1820310027893883,0.04681662971786853,0.13854755270642138,-0.2678472813102219,-0.14665145038514293,-0.3109507322026296,0.1376162791252886
250,12.353616099993816,0.0668245640082707,0.047982961898072295,-0.03482315526838624,0.08241973278094104,0.1560509073537621,-0.18333571390009626,0.0460984497173638,0.13702307326509294,-0.2671614165838648,-0.14784352779724586,-0.3141681405444533,0.14364349515051558
251,12.357142099994237,0.06722709076388288,0.04874568490919846,-0.03572049990369814,0.08264280621916756,0.15671546111281126,-0.1846370082144945,0.0453745014329052,0.13548302381926688,-0.26644612191965567,-0.14901672437472402,-0.31733504975231225,0.14968398771644217
252,12.361337599999388,0.06763069688519212,0.049511630772044235,-0.03662418271926183,0.08286233485427794,0.15737246605635255,-0.1859347420385893,0.04464487757690398,0.1339276530064147,-0.2657013356746212,-0.15017078762811686,-0.3204505099574141,0.15573647206220761
253,12.365736399995512,0.06803536501593764,0.050280762487200654,-0.03753418599903362,0.08307829123289555,0.1580218480708131,-0.18722877139302468,0.04390967207148244,0.13235721404439274,-0.2649270025188435,-0.1513054732627453,-0.3235135916868281,0.16179964435454694
254,12.369765099996584,0.0684410776670799,0.05105304269680312,-0.03845049132409372,0.08329064836262841,0.15866353428866728,-0.1885189520440955,0.04316898001200543,0.13077196463714447,-0.2641230735274902,-0.15242054455022988,-0.3265233844790526,0.1678721818161544
255,12.37385770000401,0.06884781721906288,0.05182843369066201,-0.0393730795714819,0.08349937971770029,0.15929745311009547,-0.18980513953521222,0.04242289762974395,0.12917216688355268,-0.26328950627357267,-0.15351577208797967,-0.3294789968029291,0.17395274279800865
256,12.377994299997226,0.06925556592410342,0.0526068974124978,-0.04030193091318772,0.0837044592443997,0.15992353422419536,-0.19108718921881895,0.04167152225775274,0.12755808718393277,-0.26242626491927035,-0.1545909335163809,-0.33237955653603624,0.18003996699817537
257,12.38220019999426,0.0696643059085066,0.0533883954662786,-0.041237024815297514,0.0839058613663782,0.16054170862972866,-0.19236495628874892,0.040914952296292495,0.1259299961442184,-0.26153332030655485,-0.15564581401251198,-0.33522421146349485,0.18613247560531954
258,12.386752299993532,0.0700740191750067,0.054172889122657636,-0.04217834003730026,0.08410356098976206,0.16115190865539777,-0.19363829581302647,0.04015328717389156,0.12428816847758925,-0.2606106500471144,-0.15668020679683928,-0.33801213032026073,0.19222887160820346
259,12.390481700000237,0.07048468760513257,0.05496033932550856,-0.04312585463155453,0.08429753350807072,0.1617540679796329,-0.19490706276709976,0.03938662730782564,0.12263288289848971,-0.259658238609959,-0.15769391394255636,-0.34074250535522405,0.1983277402630039
260,12.399027000006754,0.07089629296159648,0.055750706698555974,-0.04407954594291849,0.08448775480694302,0.162348121649835,-0.19617111206749732,0.03861507405728484,0.12096442199924534,-0.25867607740678633,-0.1586867478403932,-0.343414556538484,0.2044276499827211
261,12.402766400002292,0.07130881689070559,0.056543951552098404,-0.045039390608545185,0.08467420126859883,0.16293400610095932,-0.19743029860589337,0.03783872966956503,0.11928307210304202,-0.25766416487091126,-0.1596585315262047,-0.3460275352990167,0.21052715372512495
262,12.40675910000573,0.07172224092479436,0.057340033889820126,-0.04600536455784482,0.08485684977604033,0.16351165917332422,-0.1986844772835343,0.0370576972300394,0.1175891231040836,-0.2566225065290933,-0.16060909787527386,-0.3485807248933795,0.21662479008754187
263,12.41113619999669,0.07213654648467697,0.05813891341568785,-0.04697744301261583,0.08503567771702569,0.1640810201296356,-0.1999335030460047,0.03627208061620897,0.11588286831697459,-0.25555111506978695,-0.16153828854049612,-0.35107343726606943,0.2227190837832091
264,12.41569530000561,0.07255171488211853,0.05894054954092861,-0.04795560048734633,0.08521066298782219,0.16464202967132652,-0.20117723091831954,0.03548198445803156,0.11416460434750313,-0.2544500104103226,-0.16244595250084656,-0.3535050090828917,0.22880854575385695
265,12.41944529999455,0.07296772732232407,0.05974490139108581,-0.04893981078968745,0.08538178399679285,0.16519462995432113,-0.20241551604034544,0.03468751410613112,0.11243463098071595,-0.2533192197640588,-0.16333194528427358,-0.35587479931999544,0.23489167314814072
266,12.423627800002578,0.07338456490644471,0.06055192781315091,-0.04993004702110029,0.08554901966783945,0.1657387646042826,-0.20364821370254796,0.03388877559970695,0.11069325107521891,-0.2521587777077734,-0.1641961295668615,-0.35818218865858875,0.2409669493872619
267,12.427587099999071,0.07380220863410032,0.06136158738276821,-0.05092628157767801,0.08571234944367623,0.166274378731346,-0.20487517938207025,0.03308587562889854,0.1089407704571561,-0.2509687262481758,-0.1650383760390585,-0.3604265791672585,0.2470328443012105
268,12.431778700003631,0.07422063940591758,0.062173838411510196,-0.05192848615114466,0.0858717532889057,0.16680141894433204,-0.2060962687791291,0.03227892149424523,0.10717749781760921,-0.24974911488796916,-0.1658585637491597,-0.36260739360275884,0.25308781419584914
269,12.436531400002425,0.07463983802608261,0.06298863895422104,-0.05293663173003228,0.08602721169289691,0.1673198333644791,-0.20731133785373793,0.0314680210657006,0.10540374461339705,-0.24850000069170827,-0.1666565807325201,-0.36472407553631714,0.2591303022481664
270,12.442470299996783,0.07505978520490714,0.06380594681642585,-0.053950688601037994,0.08617870567246154,0.16782957163868936,-0.20852024286274531,0.030653282735954464,0.10361982496324283,-0.24722144834800625,-0.1674323258202857,-0.3667760919976635,0.2651587394934383
271,12.448231699992904,0.07548046156140724,0.06462571956180338,-0.05497062635056236,0.08632621677427675,0.16833058495224812,-0.2097228403971648,0.029834815361804188,0.10182605552278273,-0.24591353022576318,-0.16818571197374932,-0.3687629396916088,0.27117154652265235
272,12.457114000004369,0.07590184762589314,0.06544791451971939,-0.0559964138664306,0.08646972707698945,0.16882282604085053,-0.21091898741976178,0.029012728184951948,0.10002275532009407,-0.24457632641981555,-0.1689166709942579,-0.3706841525996342,0.27716713550140903
273,12.462249599993813,0.07632392384256845,0.06627248879281661,-0.05702801933979762,0.08660921919286657,0.1693062492017166,-0.21210854130282872,0.028187130727433597,0.09821024555655469,-0.2432099247874716,-0.1696251567079235,-0.37253930645001976,0.28314391119354165
274,12.46735200000694,0.07674667057213609,0.06709939926465655,-0.05806541026723767,0.08674467626887926,0.1697808103036756,-0.21329135986612835,0.027358132681350945,0.09638884939876768,-0.24181442098417594,-0.17031114394975289,-0.37432801830798773,0.2891002711259208
275,12.471625699996366,0.07717006809440811,0.06792860260740785,-0.059108553453019484,0.08687608198727759,0.1702464667962512,-0.21446730141501677,0.02652584381420983,0.09455889178341864,-0.24038991849843727,-0.1709746257221294,-0.3760499452361872,0.29503460701606615
276,12.482168999995338,0.07759409661091721,0.06876005528957668,-0.06015741501156786,0.08700342056575137,0.17070317771784246,-0.2156362247787274,0.025690373886369768,0.09272069922226657,-0.23893652867356757,-0.171615611654452,-0.37770478707758487,0.3009453085112501
277,12.486169700001485,0.07801873624752809,0.0695937135837749,-0.06121196037011217,0.08712667675719965,0.1711509037029069,-0.2167979893487061,0.024851832571407374,0.09087459957985569,-0.237454370706137,-0.17223412692659051,-0.3792922909987911,0.3068307674710535
278,12.490853600000264,0.07844396705704677,0.07042953357452054,-0.062272154271521926,0.08724583584911468,0.17158960698797293,-0.21795245511688,0.024010329384067067,0.0890209218341888,-0.23594357162593918,-0.17283020920435616,-0.38081225092357907,0.31268938023334786
279,12.494453000006615,0.07886976902182596,0.07126747116606459,-0.06333796077732856,0.0873608836626486,0.1720192514164886,-0.21909948271379728,0.023165973630517207,0.08715999585996478,-0.23440426627234276,-0.1734039035398772,-0.38226450046073146,0.31851954707696617
280,12.498584600005415,0.0792961220563652,0.07210748209023878,-0.064409343270933,0.08747180655151228,0.17243980244271967,-0.22023893344666534,0.02231887438604471,0.08529215225823672,-0.23283659727949804,-0.1739552577658348,-0.3836489046475528,0.3243196706788628
281,12.50284990000364,0.0797230060099055,0.07294952191432039,-0.06548626446099856,0.08757859140082433,0.1728512271349366,-0.22137066933734614,0.021469140490237733,0.08341772222018669,-0.2312407150677381,-0.17448431988030777,-0.3849653547341601,0.33008815563134813
282,12.507015099996352,0.08015040066901832,0.07379354604891114,-0.06656868638502905,0.08768122562596296,0.17325349417798402,-0.2224945531603106,0.020616880550189638,0.08153703740766012,-0.22961677783349446,-0.1749911365205607,-0.3862137654915976,0.3358234085082991
283,12.510982899999362,0.08057828576018895,0.07463950975582706,-0.06765657041313194,0.08777969717144632,0.17364657387530227,-0.2236104484805356,0.019762202950568984,0.07965042984319837,-0.22796495154005236,-0.17547575172153923,-0.3873940732363992,0.3415238375043098
284,12.514478900004178,0.08100664095239457,0.07548736815599706,-0.06874987725196616,0.0878739945098825,0.1740304381504242,-0.2247182196913681,0.01890521586893365,0.07775823180984232,-0.22628540991098633,-0.17593820642332186,-0.3885062335447767,0.3471878523550648
285,12.518880899995564,0.08143544585967742,0.07633707623736743,-0.06984856694887452,0.08796410664099927,0.1744050605480195,-0.22581773205235817,0.018046027290605362,0.07586077576346173,-0.2245783344216922,-0.176378538501019,-0.3895502208926452,0.35281386583234164
286,12.523635899997316,0.08186468004371338,0.07718858886281062,-0.07095259889620063,0.08805002309073923,0.1747704162345361,-0.22690885172704053,0.017184745023692154,0.07395839423607022,-0.2228439142782397,-0.17679678297334625,-0.3905260318854064,0.35840029713569044
287,12.528033299997333,0.08229432301637629,0.07804186077803593,-0.07206193183578985,0.08813173391043602,0.17512648199830155,-0.22799144582056127,0.016321476711928393,0.07205141971664988,-0.22108234637582072,-0.17719297228718253,-0.39143368901251596,0.36394557524471394
288,12.534020199993392,0.08272435424229854,0.07889684661949935,-0.07317652386367317,0.08820922967603474,0.17547323624900196,-0.22906538241705407,0.015456329846921536,0.07014018451784268,-0.21929383524490223,-0.17756713589940742,-0.39227324314186984,0.3694481411022194
289,12.5395903000026,0.08315475314142777,0.07975350092230914,-0.0742963324349328,0.08828250148738763,0.17581065901648288,-0.23013053061674166,0.014589411785071092,0.06822502063244375,-0.21747859298837918,-0.17791929948345941,-0.39304477564517787,0.3749064501074455
290,12.543913400004383,0.08358549909158054,0.08061177812812394,-0.07542131436874798,0.08835154096763949,0.1761387319488285,-0.23118676057269905,0.013720829767554942,0.06630625957936097,-0.21563683920340754,-0.17824948394278176,-0.393748399923303,0.38031897464719056
291,12.548825799996848,0.08401657143099311,0.08147163259303968,-0.0765514258536191,0.08841634026271836,0.17645743830966001,-0.23223394352719248,0.01285069094687157,0.06438423224522952,-0.21376880089386735,-0.17855770485818284,-0.3943842605372715,0.38568420461943786
292,12.553768500001752,0.08444794946087011,0.08233301859546127,-0.077686622452768,0.08847689204097982,0.17676676297466976,-0.2332719518475888,0.011979102412217066,0.0624592687388479,-0.2118747123870882,-0.17884397310027594,-0.3949525305776496,0.3910006464718806
293,12.557657400000608,0.08487961244793184,0.08319589034395576,-0.07882685910971242,0.08853318949294521,0.1770666924274997,-0.23430065906188213,0.011106171210053355,0.06053169825845271,-0.20995481525569085,-0.1791082958011551,-0.39545341102220666,0.39626682366836247
294,12.567448500005412,0.08531153962696038,0.0840602019850838,-0.07997209015401277,0.08858522633114657,0.177357214754981,-0.23531993989384078,0.010232004360007063,0.05860184895242032,-0.2080093582297629,-0.17935067834369212,-0.3958871349216245,0.4014812815052714
295,12.578324000001883,0.08574371020334541,0.08492590761120632,-0.08112226930718945,0.08863299679001993,0.17763831964165366,-0.23632967029767732,0.00935670885603331,0.05667004774571243,-0.20603859707171931,-0.17957112679904239,-0.39625397617579544,0.4066425964846443
296,12.582936199993128,0.08617610335562928,0.08579296126826262,-0.08227734968880782,0.0886764956257616,0.17790999836331314,-0.2373297274919748,0.008480391658538106,0.05473662011497003,-0.2040427943970487,-0.1797696493310684,-0.3965542569834408,0.4117493846421316
297,12.586453800002346,0.08660869823805138,0.08666131696351408,-0.0834372838227264,0.08871571811614465,0.17817224377933621,-0.23831998999260834,0.007603159681842802,0.05280188984229227,-0.20202221946793947,-0.1799462566604454,-0.39678834703233135,0.4168003028036842
298,12.591538599997875,0.08704147398309146,0.08753092867324731,-0.08460202364350304,0.08875066006025288,0.17842505032382586,-0.23930033764465822,0.006725119781779409,0.05086617879822929,-0.19997714800176788,-0.18010096070486933,-0.39695665539274744,0.4217940429646209
299,12.595566999996665,0.08747440970401141,0.08840175035043159,-0.08577152050295438,0.08878131777817633,0.17866841399582029,-0.2402706516534634,0.005846378756419033,0.04892980677463576,-0.1979078620195531,-0.18023377249918435,-0.397059621236811,0.4267293241545219
300,12.599622399997315,0.08790748449739556,0.08927373593232646,-0.08694572517686489,0.08880768811075235,0.17890233234880745,-0.24123081461505647,0.004967043353955149,0.04699309135819124,-0.1958146497337985,-0.180344701253898,-0.3970977075417005,0.43160488718881784
301,12.604485599993495,0.08834067744569,0.09014683934803687,-0.08812458787184327,0.08882976841933798,0.17912680447970034,-0.242180710546123,0.0040872202826156764,0.04505634782467523,-0.19369780544814197,-0.18043375399696518,-0.3970713995167644,0.4364194948324426
302,12.610893399993074,0.08877396761974064,0.09102101452601329,-0.08930805823232371,0.08884755658564777,0.17934183101732015,-0.24312022491345772,0.0032070162220404494,0.04311988902783014,-0.19155762944360089,-0.1805009359619036,-0.39698120729889147,0.44117193571863705
303,12.615433200000552,0.0892073340813309,0.09189621540149444,-0.0904960853477096,0.08886105101163708,0.17954741411028757,-0.24404924466281422,0.00232653782940744,0.04118402526734455,-0.18939442783999672,-0.18054625121554874,-0.39682766846294903,0.4458610282820264
304,12.62055710000277,0.08964075588571868,0.09277239592388935,-0.0916886177596562,0.08887025061939964,0.17974355741421819,-0.2449676582470094,0.0014458917446868507,0.039249064153228305,-0.18720851244383513,-0.1805697025838137,-0.39661134698854994,0.45048562089134775
305,12.62465379999776,0.09007421208417306,0.09364951006409516,-0.0928856034694885,0.08887515485110219,0.17993026607829077,-0.24587535565328933,0.0005651845974915016,0.037315310483874355,-0.1850002006084359,-0.1805712911883125,-0.3963328301527917,0.45504458820164845
306,12.628526500004227,0.0905076817265106,0.09452751182174818,-0.09408698994575085,0.0888757636689488,0.18010754673125332,-0.2467722284300694,-0.0003154769831491014,0.03538306614074342,-0.18276981511739518,-0.1805510160124456,-0.3959927249848478,0.4595368269084987
307,12.633991399998196,0.09094114386363168,0.09540635523240515,-0.09529272413188562,0.08887207755521083,0.18027540746696402,-0.2476581697131634,-0.0011959863577057975,0.03345263000100921,-0.1805176840861307,-0.18050887458924564,-0.39559165608253527,0.4639612539834489
308,12.637973399992916,0.09137457755005716,0.09628599437465328,-0.0965027524540387,0.08886409751229943,0.1804338578295452,-0.2485330742515632,-0.0020762368730852373,0.03152429785354123,-0.17824414086255608,-0.18044486466017,-0.3951302666009184,0.46831680878161824
309,12.644442100005108,0.09180796184646538,0.09716638337714674,-0.09771702082898964,0.08885182506282532,0.1805829087981048,-0.2493968384326991,-0.0029561218677274805,0.029598362301906735,-0.17594952390806767,-0.18035898553751906,-0.3946092211664551,0.4726024579616189
310,12.648340700005065,0.09224127582222935,0.09804747642556759,-0.0989354746722035,0.08883526224962161,0.180722572770944,-0.2502493603070586,-0.0038355346818310645,0.02767511265192773,-0.17363417665022796,-0.18025123956953543,-0.3940292078349382,0.47681720007615386
311,12.652625000002445,0.09267449855795408,0.09892922776950827,-0.10015805890600116,0.08881441163570383,0.18085286354918206,-0.25109053961200956,-0.004714368676741801,0.02575483479558432,-0.17129844731897367,-0.18012163342449872,-0.3933909374815391,0.4809600660795964
312,12.659589699993376,0.09310760914801333,0.0998115917292728,-0.10138471796784358,0.0887892763041036,0.1809737963198315,-0.25192027779482157,-0.005592517257703445,0.023837811104521506,-0.1689426887943481,-0.17997017759919925,-0.3926951413315012,0.4850301168163875
313,12.664001800003462,0.0935405867030853,0.10069452270259416,-0.10261539581872665,0.08875985985760679,0.18108538763838392,-0.2527384780350037,-0.0064698738884519415,0.021924320338039174,-0.1665672584672084,-0.17979688592464035,-0.3919425686719926,0.4890264426324719
314,12.669103899999756,0.09397341035268683,0.10157797517126563,-0.10385003595168332,0.08872616641844477,0.18118765541098794,-0.25354504526596705,-0.0073463321091444996,0.020014637558918448,-0.16417251809074818,-0.17960177694202017,-0.39113398704813185,0.49294816651612033
315,12.673788700005389,0.09440605924770612,0.10246190370768433,-0.10508858140038976,0.08868820062785775,0.18128061887621388,-0.2543398861959143,-0.00822178556437575,0.01810903403949958,-0.16175883361056784,-0.17938487508429285,-0.390270183876129,0.4967944477894773
316,12.67920800000138,0.09483851256293264,0.10334626298130471,-0.10633097474787129,0.08864596764551269,0.18136429858631545,-0.25512290932784465,-0.009096128032632269,0.01620777716177303,-0.15932657498018823,-0.17914621056998584,-0.3893519655328686,0.5005644826925667
317,12.68403990000661,0.09527074949958415,0.10423100776499926,-0.10757715813530364,0.08859947314877935,0.18143871638801995,-0.2558940249786439,-0.00996925345327298,0.014311130332337938,-0.15687611598542447,-0.17888581853770552,-0.38838015396043646,0.5042575007206083
318,12.687987600002089,0.0957027492878296,0.10511609294132462,-0.1088270732709051,0.08854872333188504,0.18150389540296044,-0.2566531452973761,-0.010841055947541287,0.01241935291561411,-0.15440783409562683,-0.17860373825327713,-0.38735558382576685,0.5078727609432594
319,12.692511200002627,0.09613449118930784,0.10600147350869149,-0.11008066143891625,0.08849372490498568,0.18155986000781446,-0.2574001842829227,-0.011711429837811576,0.010532700176506479,-0.15192211032395828,-0.1783000133779693,-0.38627910220618494,0.5114095532788014
320,12.698222799997891,0.09656595449964152,0.10688710458743693,-0.11133786350866409,0.08843448509313283,0.18160663581417688,-0.25813505780091134,-0.012580269671217724,0.008651423216684431,-0.14941932906620642,-0.1779746933145765,-0.38515157160974073,0.5148672050878623
321,12.70764280000003,0.09699711855094571,0.10777294142579795,-0.11259861994370696,0.08837101163511424,0.1816442496480771,-0.25885768359978245,-0.013447470252029865,0.006775768887784676,-0.14689987789674308,-0.177627834898154,-0.3839738744619563,0.5182450901860284
322,12.71179210000264,0.09742796271433048,0.10865893940578406,-0.11386287081105537,0.08830331278210511,0.18167272952900523,-0.25956798132572795,-0.01431292668177504,0.00490597968392493,-0.14436414731942343,-0.17725950281403452,-0.38274691525775106,0.5215426335263197
323,12.716237000000548,0.09785846640239633,0.10954505404894621,-0.11513055579046262,0.08823139729611726,0.18169210464838084,-0.26026587253632805,-0.015176534395691468,0.003042293633915998,-0.14181253051787068,-0.17686976811595512,-0.38147161779693195,0.5247593064186863
324,12.719862900004957,0.0982886090717217,0.11043124102203937,-0.11640161418377871,0.08815527444829478,0.1817024053475277,-0.26095128071305396,-0.016038189188394385,0.0011849442207416533,-0.1392454231530063,-0.17645870591048696,-0.38014891951457375,0.5278946173873295
325,12.724002600007225,0.09871837022534176,0.1113174561425766,-0.11767598492436286,0.08807495401711288,0.18170366309535715,-0.2616241312729298,-0.016897787227743266,-0.0006658396709254051,-0.13666322320251628,-0.17602639398148856,-0.3787797682675722,0.5309481074012863
326,12.731934399998863,0.09914772941521832,0.11220365538427392,-0.11895360658655117,0.08799044628653825,0.18169591046583083,-0.2622843515794695,-0.017755225067089993,-0.0025098338038983636,-0.13406633080490418,-0.17557291313242496,-0.3773651225913477,0.5339193509129025
327,12.735911900002977,0.09957666624470073,0.11308979488238459,-0.12023441739517586,0.08790176204410845,0.1816791811151644,-0.2629318709528173,-0.018610399662485205,-0.004346818643464323,-0.13145514808882774,-0.17509834775519822,-0.3759059525621302,0.5368079585123785
328,12.740481100001489,0.10000516037097698,0.1139758309389216,-0.12151835523513184,0.08780891257892443,0.18165350975875394,-0.26356662067902,-0.019463208390475082,-0.00617657941497021,-0.1288300789912584,-0.17460278599554263,-0.37440323908198586,0.5396135768845925
329,12.744251199997962,0.10043319150751509,0.11486172002776684,-0.12280535766098637,0.08771190967955629,0.18161893214781788,-0.26418853401839393,-0.020313549066921028,-0.007998906151836646,-0.12619152908723896,-0.17408631946788225,-0.37285797144335386,0.5423358841925435
330,12.749027099998784,0.10086073942649376,0.11574741879966582,-0.12409536190662726,0.0876107656318523,0.1815754850458551,-0.2647975462131364,-0.021161319962015052,-0.009813593729387327,-0.12353990545307507,-0.17354904238764896,-0.3712711448282409,0.5449745845244066
331,12.752915300006862,0.10128778396122236,0.11663288408710716,-0.1253883048949468,0.08750549321669812,0.18152320620495688,-0.2653935944943581,-0.02200641981063572,-0.011620441888468976,-0.12087561655025861,-0.1729910513039314,-0.3696437584115407,0.547529405383105
332,12.757509699993534,0.10171430500854975,0.1175180729090862,-0.12668412324755848,0.08739610570772482,0.18146213434203454,-0.2659766180885625,-0.02284874782475568,-0.013419255250779697,-0.11819907211314691,-0.1724124454121848,-0.367976814463452,0.5500000965836674
333,12.762379599997075,0.10214028253126191,0.11840294247575268,-0.12798275329454423,0.08728261686894712,0.18139230911498191,-0.2665465582235824,-0.023688203706847908,-0.015209843333733536,-0.11551068304364187,-0.17181332653877204,-0.3662713181537429,0.5523864295618671
334,12.765911399998004,0.10256569656046773,0.11928745019294183,-0.12928413108422898,0.08716504095234055,0.18131377109875804,-0.2671033581340322,-0.024524687662142452,-0.016992020563879547,-0.11281086130561294,-0.171193799292213,-0.3645282770908533,0.5546881980014021
335,12.76976310000464,0.10299052719797297,0.1201715536665887,-0.13058819239298106,0.08704339269536022,0.18122656176141866,-0.2676469630662145,-0.025358100413508028,-0.01876560628727056,-0.11010001981345845,-0.17055397143569415,-0.3627487012014189,0.5569052185695746
336,12.775550899998052,0.1034147546186419,0.12105521070702545,-0.1318948727350347,0.08691768731837281,0.18113072344009779,-0.26817732028248525,-0.02618834321734237,-0.020530424781707073,-0.10737857231935251,-0.16989395418621506,-0.36093360389476853,0.5590373332486178
337,12.782487300006323,0.10383835907274618,0.12193837933316144,-0.13320410737233293,0.08678794052202024,0.1810262993169198,-0.26869437906506083,-0.027015317881371834,-0.022286305278465025,-0.10464693327906557,-0.169213863560525,-0.3590840041124564,0.5610844154481303
338,12.788719999996829,0.10426132088830076,0.12282101777654554,-0.1345158313243873,0.08665416848447816,0.18091333339476906,-0.26919809071907397,-0.027838926793670584,-0.02403308199453169,-0.10190551767958805,-0.16851382273765883,-0.3572009283474596,0.563046377067297
339,12.79372109999531,0.10468362047338607,0.12370308448530985,-0.1358299793781505,0.08651638785853649,0.18079187047288756,-0.2696884085746996,-0.02865907296350537,-0.025770594174029552,-0.099154740836063,-0.16779396368928795,-0.35528541236437644,0.564923173310985
340,12.798442900006194,0.10510523831845543,0.12458453812799399,-0.13714648609789687,0.0863746157684595,0.18066195612224045,-0.27016528798823003,-0.02947566006625784,-0.027498686137231745,-0.0963950181724315,-0.1670544274329231,-0.35333850176533704,0.5667148048057831
341,12.808390999998664,0.10552615499862658,0.1254653375972485,-0.1384652858351055,0.0862288698066282,0.18052363666063562,-0.27062868634206094,-0.030288592486739173,-0.029217207327506052,-0.09362676499772458,-0.1662953635090291,-0.35136125115396977,0.5684213170661733
342,12.812228199996753,0.10594635117595635,0.12634544201341652,-0.1397863127383406,0.0860791680299778,0.18037695912763127,-0.2710785630435845,-0.031097775359011943,-0.030926012352175337,-0.09085039629191584,-0.16551692879990218,-0.3493547222818961,0.5700427971480725
343,12.81598299999314,0.10636580760169748,0.12722481072799233,-0.1411095007631238,0.08592552895625177,0.18022197125925693,-0.2715148795230866,-0.03190311459818358,-0.032624961011381653,-0.08806632651485607,-0.16471928563021873,-0.3473199811462446,0.5715793675118958
344,12.820122300006917,0.10678450511853668,0.12810340332695644,-0.14243478368179402,0.08576797156012919,0.18005872146263951,-0.27193759923077604,-0.0327045169217002,-0.03431391831063461,-0.0852749694519882,-0.16390260025774236,-0.3452580947327378,0.5730311781009546
345,12.823852999994417,0.10720242466281374,0.12898117963398675,-0.14376209509335075,0.08560651526927099,0.17988725879060188,-0.2723466876331768,-0.03350188986641775,-0.03599275445790616,-0.08247673810055257,-0.16306704191579727,-0.3431701284110398,0.574398399884229
346,12.82763650000561,0.107619547266721,0.12985809971354575,-0.14509136843327877,0.08544117996028083,0.17970763291631728,-0.2727421122090475,-0.03429514180055575,-0.037661344850772105,-0.07967204457828837,-0.16221278173599044,-0.34105714457481995,0.5756812215326563
347,12.831986899996991,0.10803585406048304,0.13073412387384448,-0.14642253698335167,0.0852719859546348,0.1795198941080333,-0.27312384244488275,-0.03508418193026021,-0.039319570060241484,-0.07686130004205985,-0.16133999279415587,-0.33892020156593605,0.5768798479862671
348,12.836088900003231,0.10845132627451647,0.13160921266968315,-0.14775553388141258,0.08509895401457819,0.17932409320388404,-0.27349184983003905,-0.03586892031200551,-0.040967315807404085,-0.07404491461053447,-0.16044885105213563,-0.3367603527923087,0.577994500123387
349,12.841959299999871,0.10886594524156958,0.13248332690516945,-0.1490902921311302,0.08492210533893427,0.17912028158684193,-0.273846107851482,-0.03664926786834388,-0.042604472938655234,-0.07122329728603591,-0.15953953565662793,-0.33457864693795336,0.5790254141638018
350,12.846131900005275,0.10927969239884128,0.13335642763631486,-0.15042674461172834,0.08474146155884743,0.1789085111597715,-0.27418659198814965,-0.03742513640322235,-0.04423093740439204,-0.06839685588304395,-0.15861222938783548,-0.3323761281385888,0.5799728409249063
351,12.850265500004753,0.10969254929007918,0.13422847617350955,-0.15176482408768688,0.08455704473344253,0.17868883432058896,-0.2745132797050025,-0.038196438622108524,-0.04584661023595113,-0.06556599695730334,-0.1576671195860749,-0.3301538359256272,0.5808370468601871
352,12.85469870000088,0.11010449756765624,0.13509943408387642,-0.1531044632184133,0.08436887734537174,0.17846130393754106,-0.2748261504466952,-0.038963088156346096,-0.04745139752375857,-0.06273112572419388,-0.1567043989746788,-0.3279128058550959,0.5816183164838846
353,12.86109750000469,0.11051551899462535,0.13596926319350489,-0.154445594567882,0.08417698229623631,0.1782259733245777,-0.2751251856308305,-0.039724999591307555,-0.04904521040040236,-0.059892645964188126,-0.1557242666175271,-0.3256540707590597,0.5823169559974986
354,12.865226099995198,0.11092559544675136,0.13683792558956465,-0.1557881506142399,0.08398138290185882,0.17798289621679594,-0.27541036864070845,-0.04048208850008985,-0.05062796503098926,-0.05705095990584698,-0.1547269289496488,-0.3233786622140772,0.5829332971683298
355,12.86955790000502,0.11133470891451958,0.13770538362229998,-0.15713206375937502,0.08378210288737621,0.1777321267459067,-0.2756816848174392,-0.041234271481720035,-0.0521995826105412,-0.05420646809344443,-0.15371259992671957,-0.3210876104522295,0.5834676979589792
356,12.874239299999315,0.11174284150511986,0.13857159990690418,-0.1584772663384453,0.08357916638213943,0.17747371941570406,-0.27593912145140115,-0.041981466196309186,-0.0537599893534843,-0.05135956926382283,-0.15268150017415308,-0.3187819425046922,0.5839205387339919
357,12.878285600003435,0.1121499754444054,0.13943653732527458,-0.15982369062936377,0.08337259791446351,0.17720772907763466,-0.27618266777315215,-0.04272359139495793,-0.055309116472936855,-0.04851066025101956,-0.15163385614844593,-0.31646268085784507,0.5842922174099314
358,12.882566100000986,0.11255609307882562,0.1403001590276487,-0.16117126886223865,0.08316242240623552,0.17693421090646894,-0.27641231494395757,-0.04346056694672978,-0.05684690015708947,-0.04566013591043055,-0.1505698994793729,-0.3141308423147385,0.5845831468282678
359,12.886648200001218,0.11296117687733234,0.14116242843412188,-0.1625199332287662,0.08294866516740153,0.17665322037610087,-0.2766280560459618,-0.04419231386214011,-0.05837328153738736,-0.04280838904906291,-0.14948986688101865,-0.311787436441458,0.5847937547215375
360,12.891677099993103,0.1133652094332589,0.14202330923604747,-0.16386961589157498,0.08273135189034543,0.1763648132355297,-0.27682988607203585,-0.04491875431926172,-0.05988820664975562,-0.03995581035002854,-0.14839400134763164,-0.30943346494170737,0.5849244864343861
361,12.901119600006496,0.11376817346617148,0.14288276539732014,-0.1652202489935196,0.0825105086441213,0.17606904548503777,-0.27701780191521236,-0.04563981169887864,-0.061391626396680936,-0.037102788276254586,-0.14728255441114518,-0.3070699220406928,0.5849758104630923
362,12.906696599995485,0.114170051823692,0.14374076115554366,-0.1665717646669219,0.08228616186848924,0.17576597335254224,-0.277191802357594,-0.04635541063261248,-0.06288349651218147,-0.034249708940942133,-0.1461557885630772,-0.3046977946957387,0.5849482251764969
363,12.911244899994928,0.11457082748329125,0.14459726102308357,-0.16792409504275663,0.08205833836767835,0.1754556532701146,-0.27735188805852484,-0.047065477061700556,-0.06436377752594301,-0.03139695594571792,-0.1450139783180927,-0.3023180616421098,0.5848422616875681
364,12.91532559999905,0.11497048355405094,0.14545222978800593,-0.16927717225977718,0.08182706530384926,0.17513814185068208,-0.27749806154192,-0.04776993829549659,-0.06583243471898131,-0.02854491022308256,-0.14385740906103275,-0.2999316910879442,0.5846584798815174
365,12.919627499999478,0.11536900327839306,0.14630563251490272,-0.1706309284735776,0.08159237019028634,0.17481349586497985,-0.2776303271829003,-0.0484687230590023,-0.06728943806529375,-0.025693949913305696,-0.1426863743247012,-0.29753963832283753,0.5843974603057585
366,12.923697599995648,0.1157663700337755,0.14715743454560576,-0.17198529586558808,0.08135428088439668,0.1744817722188215,-0.2777486911939209,-0.04916176152481451,-0.06873476216419475,-0.022844450285982993,-0.14150117299604292,-0.2951428442508414,0.5840597970248322
367,12.928128900006412,0.1161625673343532,0.1480076014997904,-0.1733402066520016,0.0811128255805907,0.17414302793071118,-0.27785316161064094,-0.04984898533340457,-0.07016838616765764,-0.01999678368662736,-0.1403021078796283,-0.2927422347040916,0.5836460943917885
368,12.932013199999346,0.11655757883260427,0.14885609927547103,-0.1746955930926315,0.08086803280308322,0.17379732010982296,-0.27794374827753116,-0.05053032761105313,-0.07159029370595499,-0.017151319489719267,-0.13908948557747255,-0.2903387201449589,0.5831569653125322
369,12.936426400003256,0.11695138832092088,0.14970289404939005,-0.17605138749969793,0.08061993139859919,0.17344470593433825,-0.2780204628332855,-0.051205722988957245,-0.07300047281209508,-0.014308424062228261,-0.13786361632538638,-0.2879331953335089,0.5825930297499482
370,12.94024919999356,0.11734397973316428,0.15054795227730203,-0.177407522246543,0.08036855052898838,0.1730852426301622,-0.27808331869607317,-0.05187510761956883,-0.07439891584421851,-0.011468460731254689,-0.1366248137234385,-0.28552653906205605,0.5819549142752544
371,12.944408499999554,0.11773533714618367,0.15139124069415502,-0.1787639297762733,0.08011391966377172,0.17271898745001815,-0.2781323310486342,-0.05253841919307262,-0.07578561940744538,-0.008631789751927493,-0.13537339516928973,-0.28311961421319853,0.5812432516811993
372,12.94946849999542,0.11812544478129848,0.15223272631417087,-0.18012054261032986,0.07985606857259528,0.17234599765292635,-0.27816751682321866,-0.053195596957951535,-0.07716058427683802,-0.0057987682788189785,-0.13410968209811672,-0.2807132679981538,0.5804586797539747
373,12.953136600001017,0.11851428700574361,0.15307237643082633,-0.1814772933569836,0.07959502731757596,0.17196633048404986,-0.27818889468640334,-0.05384658173980493,-0.07852381532157297,-0.0029697503458218895,-0.1328339994140781,-0.278308331659803,0.5796018410946905
374,12.956910699998843,0.11890184833407709,0.15391015861673676,-0.18283411471975716,0.07933082624557196,0.1715800431549129,-0.27819648502383454,-0.05449131595636827,-0.07987532142500713,-0.00014508683930558543,-0.13154667522136212,-0.275905620142174,0.5786733834787576
375,12.961158899997828,0.11928811342954991,0.15474604072344433,-0.18419093950577173,0.07906349598038194,0.17118719282402653,-0.2781903099247831,-0.0551297436337079,-0.08121511540562568,0.002674874525512459,-0.13024804112303606,-0.273505932780048,0.5776739586587234
376,12.96517070000118,0.11967306710543758,0.15557999088111268,-0.18554770063401804,0.0787930674148575,0.17078783657787805,-0.2781703931666566,-0.055761810424155824,-0.08254321394383494,0.005489789219732817,-0.1289384324897123,-0.2711100535057772,0.5766042225118736
377,12.970462400000542,0.12005669432633304,0.1564119774981297,-0.18690433114355215,0.07851957170292746,0.17038203141227076,-0.2781367601994064,-0.05638746362512515,-0.08385963750492778,0.008299315925842396,-0.12761818875912995,-0.2687187502819138,0.575464835283517
378,12.975686899997529,0.12043898020940037,0.15724196926062023,-0.1882607642016144,0.07824304025152673,0.16996983421406486,-0.2780894381297955,-0.05700665219996712,-0.08516441026034197,0.011103116555253692,-0.12628765418438326,-0.26633277609009787,0.5742564619755395
379,12.983577399994829,0.12081991002558905,0.15806993513187062,-0.18961693311167163,0.07796350471241717,0.16955130174328523,-0.2780284557056342,-0.05761932680408508,-0.08645756002027166,0.013900856277163198,-0.12494717859600882,-0.2639528699459019,0.5729797771560712
380,12.98840349999955,0.12119946920080783,0.15889584435166698,-0.19097277132138252,0.07768099697386176,0.16912649061551965,-0.2779538432997668,-0.058225439813225255,-0.08773911816482503,0.01669220358300619,-0.12359711766977081,-0.2615797558224412,0.5716354684938111
381,12.992628000007244,0.12157764331705778,0.15971966643554808,-0.19232821243048348,0.07739554915216947,0.16869545728469817,-0.2778656328936784,-0.0588249453522028,-0.08900911956613614,0.01947683034979043,-0.12223783310795582,-0.2592141418717986,0.5702242354103386
382,12.99673860000621,0.12195441811352373,0.16054137117397552,-0.1936831901985941,0.07710719358308922,0.16825825802625105,-0.2777638580608635,-0.05941779932496097,-0.09026760251192799,0.022254411891405024,-0.12086969244509786,-0.2568567202182071,0.568746788360182
383,13.003481199993985,0.12232977948762329,0.1613609286314224,-0.19503763855294085,0.07681596281306158,0.16781494892063367,-0.277648553949933,-0.06000395944140218,-0.09151460862560708,0.025024627014931612,-0.11949306937556765,-0.2545081658810671,0.567203850479546
384,13.01110360000166,0.12270371349601304,0.1621783091453828,-0.19639149159599772,0.07652188959035096,0.167365585837264,-0.2775197572674329,-0.0605833852506426,-0.09275018277932108,0.02778715808803562,-0.11810834529378235,-0.252169135635833,0.5655961603347776
385,13.016631000005871,0.12307620635555103,0.16299348332530378,-0.1977446836130424,0.07622500685597294,0.1669102244188955,-0.2773775062602941,-0.06115603818286706,-0.09397437300294198,0.03054169112208713,-0.11671591052112507,-0.24984026717855967,0.5639244732105433
386,13.025564299998225,0.12344724444421441,0.16380642205144233,-0.19909714907962558,0.07592534773441824,0.16644892006644246,-0.2772218406978406,-0.06172188159455153,-0.09518723038897442,0.03328791585211758,-0.115316165667201,-0.24752217838000437,0.5621895580270694
387,13.030257699996582,0.12381681430197153,0.16461709647364944,-0.20044882266895175,0.07562294552413885,0.16598172792428048,-0.277052801853459,-0.06228088082359634,-0.09638880899426301,0.03602552578987007,-0.11390952273467567,-0.24521546686411816,0.5603921927941772
388,13.035451599993394,0.12418490263160673,0.1654254780100837,-0.2017996392591697,0.07531783368773427,0.1655087028660305,-0.2768704324860892,-0.06283300324532567,-0.09757916574078912,0.038754218259412804,-0.11249640508995983,-0.24292070967841511,0.5585331621341063
389,13.045027400003164,0.12455149629949668,0.16623153834585658,-0.20314953394057264,0.07501004584189139,0.16502989948082705,-0.27667477682154695,-0.06337821832733484,-0.09875836031416281,0.04147369442602599,-0.11107724818167895,-0.2406384625212319,0.5566132547938354
390,13.054067999997642,0.12491658233633711,0.16703524943161216,-0.2044984420227067,0.07469961574703567,0.1645453720600924,-0.2764658805337324,-0.06391649769249805,-0.099926455056882,0.04418365930754938,-0.10965250072121933,-0.2383692590197611,0.5546332612256617
391,13.058320800002548,0.12528014793781816,0.16783658348204342,-0.20584629904138765,0.07438657729665649,0.16405517458484598,-0.2762437907258419,-0.0644478151853312,-0.10108351485978202,0.04688382177966913,-0.10822262427885693,-0.2361136112078669,0.552593972090746
392,13.06312780000735,0.125642180465247,0.16863551297434812,-0.20719304076562609,0.07407096450631097,0.1635593607135374,-0.2760085559115253,-0.06497214693106015,-0.10222960705995562,0.04957389457266827,-0.10678809122109094,-0.2338720103976998,0.5504961755369011
393,13.069311500003096,0.12600266744611588,0.16943201064662644,-0.20853860320446044,0.07375281150237313,0.16305798377035166,-0.27576022599612926,-0.06548947138186338,-0.10336480134070461,0.05225359425015998,-0.10534938230261058,-0.23164492732614006,0.5483406556192868
394,13.075909899998804,0.12636159657461504,0.1702260494962228,-0.20988292261369915,0.07343215251058666,0.16255109673401796,-0.27549885225806203,-0.06599976935245126,-0.10448916963088829,0.05492264119043288,-0.10390698385495978,-0.22943281164547602,0.5461281936685178
395,13.082197600000654,0.12671895571208913,0.1710176027780143,-0.21122593550257193,0.07310902184446699,0.16203875222709677,-0.27522448733021865,-0.06650302403888579,-0.10560278599990704,0.05758075957852933,-0.10246138443861835,-0.22723609090971805,0.5438595701161699
396,13.086320300004443,0.12707473288743693,0.17180664400264808,-0.21256757864029074,0.07278345389367054,0.16152100250581305,-0.27493718518142307,-0.06699922102150285,-0.10670572654716276,0.060227677405397535,-0.10101307167141194,-0.22505517048300527,0.5415355650081795
397,13.090283199999249,0.12742891629745431,0.17259314693473055,-0.21390778906252003,0.07245548311236824,0.16099789945042153,-0.27463700109786165,-0.0674883482527949,-0.10779806929614905,0.06286312646497777,-0.09956252914852785,-0.2228904339873776,0.5391569571349759
398,13.094210199997178,0.12778149430712063,0.17337708559097076,-0.21524650407775658,0.07212514400773298,0.16046949455607304,-0.2743239916645537,-0.06797039603028976,-0.1088798940882794,0.06548684234486939,-0.09811023559116379,-0.220742245339178,0.5367245231015201
399,13.098392400002922,0.12813245544982932,0.17415843423828062,-0.21658366127361905,0.07179247112857773,0.15993583892421537,-0.27399821474687586,-0.06844535697612887,-0.1099512824968413,0.06809856441434584,-0.0966566662518241,-0.21861095233443287,0.5342390368518178
400,13.102668699997594,0.12848178842756344,0.17493716739183432,-0.21791919852304759,0.07145749905404211,0.15939698325429902,-0.2736597294721498,-0.06891322602365395,-0.11101231775579776,0.07069803581038356,-0.09520229297339536,-0.2164968879061018,0.5317012709267637
401,13.106987299994216,0.128829482111016,0.17571325981308764,-0.21925305399041373,0.07112026238236142,0.15885297783587252,-0.2733085962113027,-0.06937400039756146,-0.11206308468600511,0.07328500343794656,-0.09374758344135885,-0.21440037135217155,0.5291120006740625
402,13.111385500000324,0.12917552553965586,0.17648668650776028,-0.22058516613754117,0.07078079571974678,0.15830387254100786,-0.27294487656045224,-0.06982767959319507,-0.11310366963599394,0.07585921799708063,-0.09229300040813077,-0.21232170961857866,0.5264720064967
403,13.116623800000523,0.12951990792173965,0.1772574227237813,-0.22191547372963605,0.07043913366935611,0.1577497168169735,-0.2725686333223028,-0.07027426534913397,-0.11413416042070106,0.0784204340051305,-0.09083899938858139,-0.21026119792813175,0.5237820734072167
404,13.123468599995247,0.12986261863427007,0.1780254439492,-0.22324391584112618,0.0700953108204417,0.1571905596792574,-0.2721799304875136,-0.0707137616040065,-0.11515464626838515,0.08096840981948623,-0.08938602635730147,-0.2082191218157587,0.5210429942796662
405,13.127816499996698,0.13020364722290192,0.1787907259100632,-0.22457043186140965,0.0697493617377424,0.15662644970475786,-0.27177883321587326,-0.07114617444661658,-0.11616521777921143,0.08350290769152131,-0.08793451679267121,-0.20619575769382328,0.5182555736785566
406,13.131997699994828,0.130542983401797,0.1795532445682598,-0.22589496150051042,0.06940132095111776,0.15605743502521052,-0.27136540781714164,-0.0715715120634328,-0.11716596687768169,0.08602369382668823,-0.08648489445023737,-0.20419137300294612,0.5154206271774201
407,13.13613990000158,0.130880617053429,0.18031297611933395,-0.22721744479463998,0.06905122294545235,0.1554835633208432,-0.2709397217316382,-0.0719897846767499,-0.11815698677269003,0.08853053843180957,-0.0850375697479659,-0.2022062271119205,0.5125389783944948
408,13.140996500005713,0.13121653822833979,0.18106989699026763,-0.2285378221116637,0.06869910215089312,0.1549048818141926,-0.2705018435106227,-0.0724010044764268,-0.11913837191873111,0.09102321574625837,-0.08359293913761713,-0.2002405708941507,0.5096114556707548
409,13.144872799995936,0.13155073714484927,0.18182398383723358,-0.22985603415647107,0.06834499293341961,0.15432143726413744,-0.2700518427965791,-0.07280518555191638,-0.12011021797182432,0.09350150405684533,-0.0821513849562553,-0.19829464574284858,0.5066388901889818
410,13.148456499999156,0.13188320418871968,0.18257521354331968,-0.23117202197624967,0.06798892958574429,0.15373327596014516,-0.2695897903034514,-0.07320234382255497,-0.12107262174111577,0.09596518571065182,-0.08071327542611478,-0.19636868318481973,0.5036221157923317
411,13.15270839999721,0.1322139299127765,0.1833235632162257,-0.2324857269656627,0.06763094631856277,0.15314044371677715,-0.2691157577968023,-0.07359249696959079,-0.12202568114103521,0.09841404712814728,-0.07927896519163187,-0.1944629055341708,0.5005619680905393
412,13.15679039999668,0.13254290503648755,0.1840690101859341,-0.23379709087192937,0.06727107725211713,0.1525429858684021,-0.26862981807392067,-0.07397566437171198,-0.12296949514927455,0.10084787880730373,-0.07784879543976543,-0.19257752643226234,0.4974592829622885
413,13.162309099992854,0.1328701204455016,0.18481153200235528,-0.23510605579980845,0.06690935640807508,0.15194094726411111,-0.2681320449439406,-0.07435186703824861,-0.1239041637642117,0.10326647532210474,-0.07642309381147253,-0.1907127500717697,0.4943148966444845
414,13.166548499997589,0.13319556719114817,0.1855511064329487,-0.23641256421648466,0.0665458177017448,0.15133437226284643,-0.26762251320796326,-0.07472112754383728,-0.12482978795532029,0.10566963532753074,-0.0750021746696346,-0.18886877065702237,0.49112964600120096
415,13.171847300007355,0.1335192364899003,0.1862877114603206,-0.2377165589563583,0.06618049493459144,0.15072330472880024,-0.2671012986391272,-0.07508346996423652,-0.12574646961532937,0.10805716156069131,-0.07358633939748101,-0.18704577342031795,0.4879043672675905
416,13.175686100003077,0.13384111972280133,0.18702132527980037,-0.23901798322573733,0.06581342178707807,0.15010778802701,-0.26656847796271915,-0.07543891981390238,-0.1266543115205467,0.11042886083355816,-0.07217587693824139,-0.18524393524995778,0.4846398966227978
417,13.180635400000028,0.13416120843485774,0.18775192629699514,-0.24031678060743297,0.06544463181179104,0.14948786501914432,-0.26602412883631543,-0.07578750398706785,-0.12755341728914465,0.11278454403968582,-0.07077106394450396,-0.18346342472087832,0.4813370732645541
418,13.18599319999339,0.13447949433439899,0.1884794931253251,-0.24161289506525802,0.0650741584268557,0.1488635780595052,-0.26546832982982704,-0.07612925069677529,-0.1284438913417822,0.11512402617693553,-0.06937216465788494,-0.18170440245346028,0.47799674168215794
419,13.190951700002188,0.1347959692924061,0.18920400458353923,-0.2429062709484278,0.06470203490965645,0.148234968991198,-0.26490116040541933,-0.07646418941478214,-0.12932583886339077,0.11744712637636752,-0.06797943105866713,-0.1799670226986523,0.4746197539918828
420,13.195399400006863,0.13511062534181018,0.18992543969321302,-0.24419685299586266,0.06432829439083866,0.14760207914250642,-0.26432270089727544,-0.076792350812053,-0.13019936577925836,0.11975366794774546,-0.0665931034045944,-0.1782514357002282,0.4712069732256881
421,13.203296799998498,0.1354234546767626,0.19064377767622898,-0.24548458634039155,0.06395296984860918,0.14696494932329576,-0.263733032491072,-0.07711376670392095,-0.13106457873985772,0.12204347844050827,-0.0652134107689249,-0.1765577877534086,0.46775927437901804
422,13.207981200001086,0.13573444965187784,0.19135899795223932,-0.24676941651285425,0.06357609410327315,0.1463236198215359,-0.2631322372031478,-0.07742846999582799,-0.13192158509750224,0.12431638969949514,-0.06384057107017443,-0.17488622144552501,0.46427754389857895
423,13.21165729999484,0.1360436027814504,0.19207108013611243,-0.24805128944610172,0.06319769981206384,0.14567813039993233,-0.2625203978594361,-0.07773649462877655,-0.1327704928935218,0.126572237920921,-0.06247479119208854,-0.17323687718165387,0.4607626787261212
424,13.215859100004309,0.13635090673864722,0.19278000403536277,-0.24933015147889293,0.0628178194642115,0.14502852029257407,-0.261897598074087,-0.07803787552624017,-0.1336114108498003,0.12881086369877418,-0.06111626695330586,-0.1716098931230526,0.4572155823866361
425,13.219916999994894,0.1366563543546765,0.19348574964756463,-0.2506059493596866,0.06243648537629106,0.14437482820164738,-0.2612639222279474,-0.07833264853931908,-0.13444444835535094,0.13103211204263437,-0.05976518388497427,-0.17000540471022788,0.4536371614254503
426,13.223594099996262,0.1369599386179347,0.19418829715774993,-0.2518786302503282,0.062053729687825986,0.14371709229421462,-0.2606194554470096,-0.07862085040123609,-0.13526971545320157,0.13323583238931636,-0.058421717829409005,-0.168423544722149,0.450028324628205
427,13.22768690000521,0.13726165267313253,0.19488762693579065,-0.25314814172963135,0.061669584357079824,0.1430553501990558,-0.25996428358077733,-0.07890251867833173,-0.13608732282754762,0.13542187861307928,-0.057086033563811346,-0.1668644431858257,0.4463899816171523
428,13.231964799997511,0.1375614898204009,0.19558371953376574,-0.25441443179685386,0.061284081157138064,0.14238963900357285,-0.2592984931806152,-0.0791776917111353,-0.13689738178975538,0.13759010902357796,-0.05575828438175059,-0.16532822785615658,0.44272304117968764
429,13.236063100004683,0.13785944351437857,0.19627655568331337,-0.255677448875068,0.06089725167227452,0.14171999525076764,-0.25862217147813454,-0.07944640856127762,-0.13770000427019558,0.1397403863597681,-0.05443861296062481,-0.1638150251117661,0.43902841081793514
430,13.240127199998824,0.13815550736328283,0.1969661162929684,-0.25693714181442556,0.06050912729455102,0.14104645493622595,-0.2579354063636022,-0.07970870896102367,-0.13849530281298503,0.14187257778346396,-0.0531271504042787,-0.1623249599862187,0.4353069970153843
431,13.244554499993685,0.1384496751279639,0.19765238244548514,-0.25819345989531767,0.06011973922067606,0.14036905350514672,-0.2572382863643893,-0.0799646332508466,-0.13928339056812472,0.1439865548758445,-0.051824014239919766,-0.160858156854981,0.4315597065536495
432,13.252612900003442,0.13874194072094498,0.19833533539514592,-0.2594463528314295,0.059729118449213435,0.13968782584940279,-0.25653090062341416,-0.08021422230942148,-0.14006438129294238,0.14608219364385527,-0.050529307251437436,-0.15941474200741892,0.4277874491459911
433,13.25935350000509,0.13903229820544935,0.19901495656505513,-0.26069577077268996,0.059337295778123765,0.13900280630455603,-0.25581333887752866,-0.08045751747981897,-0.14083838936931886,0.14815937454240305,-0.04924311619348977,-0.15799484612921774,0.4239911402499793
434,13.265309199996407,0.13932074179441653,0.1996912275444187,-0.2619416643081154,0.05894430180269305,0.13831402864675002,-0.2550856914357445,-0.08069456048695575,-0.14160552982934532,0.15021798250819363,-0.047965511223689805,-0.1565986054070652,0.42017170160130085
435,13.269696300005307,0.1396072658495092,0.2003641300858078,-0.2631839844685469,0.058550166913879424,0.137621526089475,-0.25434804915728954,-0.08092539335824953,-0.14236591838332516,0.1522579069871334,-0.04669654658979664,-0.1552261620105688,0.416330060734784
436,13.27402899999288,0.1398918648801131,0.2010336461024068,-0.26442268272928027,0.05815492129701569,0.13692533128018733,-0.25360050342956686,-0.08115005834777254,-0.143119671450132,0.1542790419634951,-0.04543626089925205,-0.1538776634624584,0.41246715039164045
437,13.27784110000357,0.14017453354233142,0.20169975766524392,-0.26565771101258795,0.05775859493089589,0.1362254762967783,-0.25284314614592657,-0.08136859785953582,-0.1438669061790683,0.1562812859815373,-0.04418467783699697,-0.15255326072293998,0.40858390546705037
438,13.288118500000564,0.14045526663797575,0.20236244700040487,-0.2668890216901323,0.057361217587226176,0.13552199264398046,-0.25207606968341395,-0.08158105437864453,-0.1446077404615374,0.1582645421448956,-0.04294180810905151,-0.15125310819202306,0.4046812619296771
439,13.29729689999658,0.14073405911355508,0.2030216964862284,-0.2681165675852705,0.056962818830382914,0.1348149112497225,-0.2512993668805472,-0.08178747041354074,-0.14534229295292475,0.16022871812766273,-0.041707651117417636,-0.14997736598192793,0.40076016065528164
440,13.304129900003318,0.14101090605926442,0.20367748865048424,-0.26934030197525116,0.05656342801742693,0.13410426246132215,-0.2505131310149576,-0.08198788844349651,-0.14607068310643595,0.16217372621117432,-0.040482195468010664,-0.1487262009334036,0.3968215508927867
441,13.308811299997616,0.14128580270797395,0.20432980616753174,-0.2705601785933009,0.056163074298373805,0.13339007604151104,-0.24971745578080823,-0.08218235086581117,-0.14679303120489168,0.16409948332889843,-0.03926541989829662,-0.14749978607750558,0.39286639044192595
442,13.317523699995943,0.14155874443422026,0.20497863185545892,-0.2717761516306007,0.05576178661672319,0.1326723811643174,-0.24891243526599643,-0.08237089995235304,-0.14750945838931562,0.1660059111049543,-0.03805729432400547,-0.1462982999775147,0.3888956445199641
443,13.322429799998645,0.14182972675320066,0.2056239486732009,-0.27298817573815043,0.055359593710152984,0.1319512064108121,-0.24809816392919684,-0.08255357780696676,-0.1482200866843102,0.16789293588794735,-0.03685777947953351,-0.1451219253535481,0.3849102843267895
444,13.329693199993926,0.1420987453197712,0.2062657397176376,-0.2741962060285209,0.05495652411146413,0.13122657976474378,-0.2472747365767336,-0.08273042631850734,-0.14892503901322837,0.1697604887754912,-0.035666827187692075,-0.14397084660069664,0.38091128494840626
445,13.337327800007188,0.14236579592745022,0.2069039882206694,-0.27540019807749294,0.05455260614973293,0.13049852860813696,-0.24644224833938436,-0.08290148712087876,-0.14962443919934026,0.17160850562759242,-0.03448438050928635,-0.1428452480244997,0.37689962535753196
446,13.345413699993514,0.14263087450742754,0.2075386775462721,-0.2766001079255832,0.05414786795164562,0.12976707971691576,-0.24560079464912188,-0.08306680154752705,-0.150318411963793,0.1734369270911785,-0.03331037248665807,-0.1417453133018689,0.3728762890751809
447,13.34926550000091,0.14289397712758106,0.20816979118752976,-0.2777958920794563,0.05374233744309459,0.12903225925652187,-0.24475047121567878,-0.08322641057922286,-0.15100708292151896,0.17524569861993589,-0.032144726203776876,-0.14067122455462597,0.3688422600392123
