,time,x,y,z,vx,vy,vz,ax,ay,az,jx,jy,jz
0,20.697514999992563,0.08357506658096686,-0.012270179144035708,0.035862247136795866,-0.00436606498928156,-0.024023566827187304,0.005582498900573462,0.03704761905859291,0.21137577714722147,-0.16522335258844706,0.06580724860711804,0.17973754552589366,-0.3226730000730593
1,20.70188860000053,0.08355554120842233,-0.012377536140164357,0.03588598703421585,-0.004196432024076422,-0.0230577585526267,0.004825673717713264,0.037345224017177055,0.21219321926955775,-0.1666937091155925,0.06470902174963732,0.17876231143218854,-0.3221637901827466
2,20.705903499998385,0.08353679250961747,-0.01248048025005552,0.03590626028394586,-0.004025453307645432,-0.022088232627185067,0.004062148545895971,0.037637805603063366,0.21300620066488662,-0.1681616868259373,0.06360423744527471,0.1777809946219133,-0.32162961581210486
3,20.710062499987544,0.08351882656936074,-0.012578994566442776,0.03592303635668442,-0.003853151816313937,-0.021115009456409768,0.0032919344928473136,0.037925334241323896,0.21381469256727478,-0.16962717135042485,0.062493039629000185,0.176793143741086,-0.3210702465809697
4,20.71428259999084,0.08350164936737389,-0.012673062275414438,0.035936284774973924,-0.0036795506597832052,-0.020138109581722713,0.0025150431902480003,0.03820778101166706,0.21461866414786618,-0.1710900472653062,0.0613755717967947,0.17579830543069777,-0.3204854504172796
5,20.71834809999564,0.08348526677769053,-0.012762666657054637,0.035945975115601055,-0.0035046730781496407,-0.019157553689849612,0.0017314867985601765,0.03848511764793754,0.21541808250581124,-0.17255019808488312,0.06025197755441235,0.17479602440881728,-0.31987499375821976
6,20.72264309998718,0.08346968456806825,-0.012847791086127497,0.035952077012019204,-0.003328542438919436,-0.018173362622288598,0.0009412780118866023,0.0387573165396176,0.2162129126597994,-0.17400750625516845,0.059122400635634766,0.17378584366021363,-0.3192386417331289
7,20.73096289999376,0.08345490839941447,-0.012928419032804579,0.03595456015679316,-0.003151182234014098,-0.0171855573848167,0.00014443006285493566,0.03902435073149345,0.21700311754071777,-0.1754618531482974,0.057986984536469555,0.17276730477281188,-0.3185761583098389
8,20.73909920000005,0.08344094382522585,-0.013004534063435765,0.03595339430406611,-0.0029726160767881422,-0.016194159157025427,-0.0006590432724721178,0.03928619392182022,0.21778865798625244,-0.17691311905752255,0.05684587269803623,0.171739948287496,-0.3178873063221149
9,20.74380649998784,0.08342779629104131,-0.013076119841363672,0.035948549272049116,-0.002792867699051356,-0.015199189301876482,-0.0014691276696668749,0.039542820463656404,0.21856949273673748,-0.17836118319187547,0.05569920883581558,0.1707033139469394,-0.3171718473416207
10,20.747871599989598,0.08341547113390865,-0.013143160127781685,0.03593999494553306,-0.0026119609480743204,-0.0142006693752752,-0.002285808250977834,0.039794205366031746,0.21934557843202573,-0.17980592366999393,0.0545471367201765,0.1696569408536793,-0.3164295416504868
11,20.75172649999149,0.08340397358186484,-0.013205638782635691,0.03592770127842334,-0.002429919783600022,-0.01319862113565481,-0.0031090695803434455,0.04004032429327996,0.22011686960877963,-0.18124721751453338,0.05338980028611555,0.1686003674289761,-0.3156601484607722
12,20.755893099994864,0.0833933087534299,-0.013263539765569526,0.03591163829629734,-0.0022467682748554623,-0.012193066553574572,-0.003938895658382301,0.040281153567207524,0.22088331869696667,-0.18268494064799573,0.05222734390761758,0.16753313125491862,-0.3148634260516835
13,20.76015259999258,0.08338348165711448,-0.013316847136914247,0.035891776098984765,-0.0020625305975434864,-0.011184027821336014,-0.004775269917368861,0.04051667016892874,0.2216448760157102,-0.18411896788839238,0.05105991219644222,0.16645476896015332,-0.3140391317330263
14,20.765363599988632,0.08337449719094116,-0.013365545058721291,0.03586808486317097,-0.0018772310308376571,-0.010171527362618909,-0.005618175216184083,0.04074685173919931,0.22240148976874263,-0.18554917294473966,0.04988765003872786,0.16536481619929713,-0.31318702207372606
15,20.76870329999656,0.0833663601419794,-0.013409617795839629,0.03584053484502333,-0.0016908939543710411,-0.009155587842138971,-0.00646759383525007,0.04097167658058529,0.22315310604006847,-0.18697542841480608,0.04871070281449912,0.16426280773763494,-0.3123068531397276
16,20.77316449998761,0.08335907518589436,-0.013449049717037007,0.03580909638284077,-0.0015035438452113005,-0.008136232175323405,-0.007323507471460152,0.04119112365979866,0.22389966879019002,-0.1883976057827776,0.047529216489091905,0.16314827761783954,-0.31139838067695
17,20.776948599988827,0.08335264688650942,-0.013483825296165352,0.0357737398997264,-0.0013152052748281766,-0.007113483538003017,-0.008185897233092236,0.04140517261070017,0.22464111985329102,-0.1898155754186735,0.046343337521695616,0.16202075943446517,-0.31046136062325735
18,20.780757599990466,0.08334707969538264,-0.01351392911337041,0.035734435906283404,-0.0011259029060411948,-0.006087365376113447,-0.009054743634733563,0.04161380373580075,0.2253773989359659,-0.1912292065806812,0.045153212572716137,0.16087978654888646,-0.30949554935552986
19,20.78509309999936,0.08334237795139715,-0.013539345856345628,0.035691155003333974,-0.0009356614899734537,-0.005057901415398879,-0.009930026592215355,0.0418169980065953,0.22610844361636373,-0.19263836741682558,0.043958988796431855,0.159724892233292,-0.30850070381775724
20,20.789211799987243,0.08333854588036535,-0.013560060321630303,0.03564386788466141,-0.0007445058629962861,-0.004025115671121079,-0.010811725417552792,0.04201473706773336,0.22683418934423089,-0.19404292496847195,0.04276081395074016,0.15855560992908865,-0.30747658202390965
21,20.793451499994266,0.08333558759464721,-0.013576057415952015,0.035592545339775204,-0.0005524609436450085,-0.00298903245776271,-0.011699818813911612,0.042207003238353774,0.22755456944241176,-0.195442745176582,0.0415588358118195,0.15737147352346462,-0.3064229433232441
22,20.79761189999408,0.08333350709278259,-0.013587322157613272,0.035537158256699036,-0.0003595517295514098,-0.0019496763987226864,-0.012594284870605148,0.042393779510916794,0.22826951510941382,-0.19683769288763656,0.040353202192428723,0.1561720176581888,-0.3053395482539526
23,20.801706699989158,0.0833323082591375,-0.013593839677922374,0.035477677624781497,-0.00016580329437015205,-0.0009070724359960977,-0.013495101058114939,0.042575049552705614,0.22897895542372482,-0.1982276318585566,0.03914406112483638,0.15495677801307248,-0.3042261585431923
24,20.805833699996583,0.08333199486356446,-0.013595595222668346,0.03541407453752949,2.8759215302435457e-05,0.00013875416016981905,-0.014402244223132658,0.04275079770632688,0.22968281734896318,-0.19961242476262636,0.037931560805925045,0.1537252915254214,-0.303082537207635
25,20.80989779999072,0.08333257056107689,-0.013592574153639866,0.03534632019546419,0.00022411058300651987,0.0011877777816427257,-0.015315690583634745,0.04292100899071157,0.23038102574019673,-0.2009919331953314,0.036715849780113045,0.15247709660273473,-0.30190844846205034
26,20.814064499994856,0.0833340388915375,-0.013584761950188061,0.035274385908999346,0.00042022552550910057,0.0022399724728068443,-0.016235415723977575,0.04308566910328387,0.23107350335103305,-0.20236601767944792,0.035497076774738894,0.15121173320269782,-0.3007036577924848
27,20.81825269998808,0.08333640327936087,-0.013572144210832977,0.035198243101342,0.0006170786959019531,0.00329531192099467,-0.017161394590018517,0.043244764419460624,0.2317601708406678,-0.2037345376715483,0.03427539020618272,0.14992874289950497,-0.2994679319653396
28,20.82248360000085,0.08333966703323016,-0.013554706654913642,0.03511786331141528,0.0008146446866874005,0.004353769446952919,-0.01809360148427043,0.04339828199031576,0.23244094678157995,-0.2050973515671732,0.03305093832620073,0.1486276689295891,-0.29820103884447013
29,20.82673679999425,0.08334383334582776,-0.013532435124281494,0.035033218196803294,0.0010128980328549548,0.005415317995344423,-0.019032010061069898,0.04354620954341439,0.2331157476669972,-0.2064543167056689,0.03182386962434141,0.14730805614587683,-0.2969027475284723
30,20.830763399993884,0.08334890529358008,-0.01350531558503707,0.03494427953671801,0.0012118132149746962,0.0064799301252821745,-0.019976593321775846,0.04368853548414753,0.23378448791817397,-0.20780528937661158,0.030594332535276613,0.14596945101094147,-0.2955728283964216
31,20.83511099999305,0.08335488583641643,-0.013473334129309773,0.03485101923498795,0.0014113646622860878,0.007547578000897592,-0.020927323609996367,0.04382524889389686,0.23444707989179442,-0.2091501248250618,0.029362475219306242,0.1446114016655623,-0.29421105312581236
32,20.840278699994087,0.08336177781754196,-0.013436476977080584,0.034753409323068585,0.0016115267557746166,0.008618233381942089,-0.021884172606835263,0.043956339529367526,0.23510343388787572,-0.21048867725815237,0.02812844594648354,0.14323345812539254,-0.2928171949765978
33,20.847151299996767,0.08336958396322465,-0.013394730478047547,0.034651421963074386,0.0018122738312545223,0.009691867614427424,-0.022847111326178955,0.044081797824256364,0.23575345815896476,-0.2118207998529336,0.026892393499014566,0.14183517263087464,-0.2913910288183443
34,20.8514135999867,0.0833783068825963,-0.013348081113533843,0.034545029450832224,0.0020135801824606547,0.010768451621311147,-0.023816110110014582,0.044201614892254805,0.23639705892123292,-0.21314634476320862,0.025654467390766385,0.14041610000599636,-0.2899323313678266
35,20.856010499992408,0.08338794906746774,-0.013296515498438239,0.0344342042189561,0.0022154200641585895,0.011847955893238142,-0.02479113862377925,0.0443157825307192,0.23703414036694484,-0.21446516312954578,0.024414817995300705,0.1389757979076111,-0.28844088176575977
36,20.860190599996717,0.08339851289215823,-0.013240020383227597,0.03431891883994297,0.002417767695269962,0.012930350479339794,-0.025772165851769453,0.04442429322484144,0.23766460467782716,-0.21577710509137413,0.02317359682023971,0.1375138270633439,-0.28691646164936946
37,20.86447169999883,0.08341000061333911,-0.013178582655971242,0.03419914602928936,0.0026205972620206223,0.014015604978097465,-0.026759160092600636,0.044527140153821664,0.2382883520397071,-0.2170820197976576,0.02193095645239855,0.13602975148632304,-0.2853588551435546
38,20.86849519998941,0.08342241436989196,-0.013112189344416806,0.03407485864862858,0.0028238829211222664,0.015103688528275174,-0.027752088954713972,0.04462431719453846,0.23890528065783975,-0.21837975541891,0.020687050082217436,0.13452313862163873,-0.2837678490531455
39,20.87246289999166,0.08343575618278126,-0.013040827618107287,0.03394602970888832,0.0030275988029540664,0.016194569799922866,-0.028750919351945518,0.04471581892338411,0.2395152867728824,-0.21967015915962265,0.019442031613506647,0.13299355950869907,-0.2821432327252068
40,20.876730399992084,0.08345002795494154,-0.012964484790538959,0.03381263237346829,0.0032317190147610414,0.01728821698545479,-0.029755617499146327,0.04480164062093572,0.24011826467770256,-0.22095307726902352,0.018196055956085797,0.1314405889822616,-0.28048479795776066
41,20.881198599992786,0.08346523147117924,-0.012883148321359795,0.033674639961437776,0.00343621764387829,0.018384597790806062,-0.03076614890784974,0.04488177827645953,0.24071410673518598,-0.22222835505267233,0.016949278751426388,0.12986380590343416,-0.2787923393386675
42,20.885211699991487,0.08348136839808926,-0.012796805818608035,0.03353202595075276,0.003641068760970444,0.01948367942667347,-0.031782478381997256,0.044956228590079715,0.24130270339715143,-0.2234958368863105,0.01570185615316794,0.12826279335205762,-0.2770656544187582
43,20.889279199996963,0.08349844028398637,-0.012705445040990502,0.033384763981492475,0.0038462464232756808,0.020585428599844555,-0.03280457001373214,0.045024988975280865,0.24188394322391335,-0.22475536622903536,0.014453944900293997,0.12663713873818322,-0.275304543666156
44,20.893228599990834,0.08351644855885135,-0.01260905390020025,0.03323282785911491,0.004051724677868002,0.021689811504616824,-0.03383238717924544,0.04508805756174422,0.24245771290421345,-0.22600678563673346,0.013205702243929512,0.12498643391209538,-0.2735088108326341
45,20.8977065999934,0.08353539453429212,-0.012507620463273144,0.03307619155773122,0.004257477564927114,0.02279679381430863,-0.03486589253469215,0.04514543319718249,0.24302389727578677,-0.22724993677859617,0.011957286002219016,0.12331027523321487,-0.2716782633005432
46,20.901897099989583,0.08355527940351976,-0.012401132954982937,0.0329148292233985,0.004463479121017441,0.023906340672865966,-0.03590504801218781,0.045197115450676596,0.24358237934592178,-0.22848466045371724,0.010708854798139482,0.12160826353740319,-0.2698127121564951
47,20.905731599996216,0.08357610424133949,-0.012289579760274396,0.0327487151774307,0.00466970338238844,0.025018416686560855,-0.03694981481587607,0.0452431046166795,0.2441330403117282,-0.22971079660828037,0.009460568041215442,0.11988000409866115,-0.26791197241959763
48,20.91010739999183,0.08359787000415682,-0.012172949426734095,0.032577823919727265,0.00487612438829013,0.026132985915783002,-0.0380001534180821,0.04528340171818618,0.24467575958034773,-0.23092818435423845,0.008212585799441225,0.1181251065672918,-0.2659758633067122
49,20.91418069999781,0.0836205775299988,-0.012051230667098413,0.032402130132119136,0.0050827161843023175,0.027250011866922524,-0.03905602355555043,0.04531800850956931,0.245210414788658,-0.2321366619889205,0.006965068762711226,0.11634318491009307,-0.2640042084614945
50,20.91831359999196,0.08364422753855046,-0.011924412361798354,0.032221608681731705,0.005289452825675992,0.028369457484341307,-0.040117384225777236,0.045346927479415704,0.24573688182293765,-0.2333360670157998,0.005718178206281358,0.11453385740625854,-0.26199683606360197
51,20.922974000000977,0.08366882063120659,-0.011792483561540775,0.03203623462436426,0.005496308380688421,0.029491285142435097,-0.04118419368343763,0.04537016185302872,0.24625503483853303,-0.23452623616509688,0.004472076027272598,0.1126967466701161,-0.2599535789480493
52,20.9267453999928,0.08369435729113879,-0.011655433489925605,0.03184598320788553,0.005703256934007367,0.03061545663778423,-0.04225640943690579,0.045387715595597664,0.24676474627973066,-0.23570700541563638,0.003226924671569557,0.11083147973324771,-0.2578742749432959
53,20.93099949999305,0.08372083788337789,-0.01151325154609866,0.031650829875644874,0.005910272590075092,0.031741933181396974,-0.04333398824488165,0.04539959341403344,0.2472658869001728,-0.23687821001853349,0.001982886969179063,0.108937688202232,-0.25575876703130646
54,20.93539869999222,0.08374826265491188,-0.01136592730743961,0.03145075026989859,0.006117329476489315,0.032870675391046454,-0.04441688611312704,0.04540580075863634,0.2477583257841687,-0.2380396845205106,0.0007401266280653951,0.10701500854936716,-0.2536069032154326
55,20.939329599990742,0.08377663173479918,-0.011213450532284687,0.031245720235250858,0.006324401747402428,0.034001643283708374,-0.04550505829130504,0.04540634382943577,0.2482419303697618,-0.23919126278637892,-0.0005011915828359463,0.10506308236184841,-0.2514185365289212
56,20.94373009999981,0.08380594513429758,-0.011055811162683622,0.031035715822108897,0.006531463586960275,0.03513479626810833,-0.046598459269921184,0.04540122957952725,0.24871656647231358,-0.2403327780224326,-0.0017409023276322535,0.10308155642122212,-0.24919352532284983
57,20.94744309999805,0.08383620274700884,-0.010892999327190329,0.030820713290151798,0.006738489212731806,0.03627009313737462,-0.047697042777376165,0.04539046571690641,0.24918209830829532,-0.24146406280155652,-0.0029788394107415008,0.1010700829209509,-0.24693173353222417
58,20.95170099999814,0.08386740434903893,-0.01072500534368685,0.030600689111812556,0.006945452879164584,0.03740749206180257,-0.04880076177713605,0.04537406071047588,0.24963838852085649,-0.24258494908904743,-0.004214835538992773,0.09902831974349395,-0.24463303079902565
59,20.95635069999844,0.08389954959917416,-0.010551819722240036,0.030375619975772723,0.00715232888106922,0.03854695058174053,-0.04990956846502046,0.04535202379404913,0.2500852982061435,-0.24369526826884394,-0.005448722468165402,0.09695593054008673,-0.24229729268207412
60,20.960248499992304,0.08393263803907317,-0.010373433167990371,0.030145482790469164,0.0073590915571113994,0.03968842560059423,-0.05102341426661207,0.04532436497102077,0.2505226869395958,-0.24479485117126182,-0.006680330801689562,0.0948525848628783,-0.23992440095964349
61,20.96423899999354,0.08396666909347493,-0.010189836584072463,0.029910254687612343,0.007565715293338918,0.04083187337795267,-0.05214224983479771,0.04529109502020639,0.25095041280346975,-0.24588352810198397,-0.007909489990529874,0.09271795844635124,-0.237514243711396
62,20.96822070000053,0.0840016420704229,-0.010001021074566565,0.029669913025715505,0.007772174526726968,0.041977249522843436,-0.05326602504744229,0.04525222550051393,0.2513683324157015,-0.24696112887054303,-0.009136028205322175,0.09055173346150212,-0.235066715286085
63,20.97316189999401,0.08403755616150538,-0.009806977947480575,0.029424435393634176,0.007978443748747777,0.043124508987121876,-0.05439468900518967,0.045207768757949705,0.2517763009597492,-0.2480274828190168,-0.010359772427798631,0.08835359873989168,-0.23258171643460224
64,20.977455999993253,0.08407441044211215,-0.009607698717761856,0.0291737996141154,0.008184497508979798,0.04427360605899862,-0.055528190029398315,0.045157737929455925,0.2521741722154991,-0.24908241885172427,-0.011580548853111888,0.08612325001561003,-0.230059154465149
65,20.98131160000048,0.08411220387170784,-0.009403175110338271,0.028917983747356074,0.008390310418712346,0.045424494356710574,-0.05666647566021302,0.045102146946247264,0.25256179859131495,-0.2501257654653364,-0.01279818246920855,0.08386039018131654,-0.2274989432710688
66,20.985115899995435,0.0841509352941214,-0.009193399063187726,0.028656966094569764,0.00859585715458522,0.04657712682234081,-0.05780949265477515,0.04504101054148476,0.2529390311572792,-0.25115735077882584,-0.014012497221366365,0.0815647296202859,-0.22490100336738675
67,20.98925619998772,0.08419060343785265,-0.008978362730435565,0.028390725201561367,0.008801112462263332,0.047731455715792716,-0.05895718698556758,0.044974344252111706,0.2533057196802709,-0.2521770025639111,-0.015223316396410778,0.07923598660393692,-0.22226526212339584
68,20.993512999993985,0.08423120691639528,-0.008758058485479083,0.028119239862309027,0.009006051160093072,0.04888743260892981,-0.06010950383890259,0.04490216442302326,0.25366171266083243,-0.2531845482771277,-0.0164304619642497,0.07687388758675816,-0.21959165384078702
69,20.9991258999944,0.08427274422857677,-0.008532478924138366,0.02784248912255258,0.009210648142814967,0.05004500837988616,-0.06126638761355928,0.04482448821490793,0.25400685737093753,-0.25417981509098464,-0.017633754614296417,0.0744781675172464,-0.21688011964413492
70,21.003244699997595,0.08431521375891522,-0.008301616867832692,0.027560452283387906,0.009414878385291564,0.05120413320755064,-0.06242778191955566,0.044741333608085,0.2543409998936941,-0.25516262992503685,-0.01883301402996551,0.07204857027347515,-0.21413060765923952
71,21.00684389998787,0.08435861377799328,-0.008065465366781682,0.027273108904866564,0.009618716946255091,0.05236475656623949,-0.06359362957706949,0.044652719407842455,0.25466398516508437,-0.2561328194786684,-0.020028058797227986,0.06958484898920661,-0.21134307314084183
72,21.01020809999318,0.08440294244284918,-0.00782401770323029,0.026980438809599994,0.009822138972084024,0.053526827220561256,-0.06476387261550931,0.044558665249108405,0.2549756570166426,-0.2570902102633296,-0.02121870623991204,0.0670867663163768,-0.20851747845401783
73,21.01433909998741,0.08444819779738506,-0.00757726739469679,0.026682422086367622,0.010025119700593351,0.05469029322047858,-0.06593845227272935,0.04445919160329119,0.25527585821958904,-0.25803462863515064,-0.022404772291702884,0.06455409470077622,-0.20565379332681025
74,21.01851939999324,0.08449437777279263,-0.007325208197242803,0.026379039093728223,0.010227634464873533,0.05585510189657571,-0.06711730899439801,0.04435431978411825,0.25556443053002187,-0.25896590082948273,-0.0235860717888201,0.06198661654020314,-0.20275199510110092
75,21.02259839999897,0.08454148018799645,-0.007067834108764448,0.026070270463633787,0.010429658697134015,0.057021199855532424,-0.06830038243352779,0.04424407195180683,0.2558412147344939,-0.25988385299579986,-0.02476241801268137,0.059384124268369795,-0.19981206876338956
76,21.026935899993987,0.0845895027501147,-0.006805139372303652,0.025756097105045166,0.010631167932580227,0.05818853297580726,-0.06948761145016212,0.044128471123074026,0.2561060506959696,-0.26078831123252083,-0.025933622232643845,0.05674642046947158,-0.1968340070933123
77,21.030707999991137,0.0846384430549378,-0.00653711847937867,0.0254365002075488,0.010832137813348398,0.0593570464035306,-0.07067893411122286,0.04400754117947798,0.25635877740044677,-0.2616791016232654,-0.027099494090209276,0.05407331809711243,-0.1938178109420186
78,21.038699999990055,0.08468829858742503,-0.006263766173332854,0.025111461244973748,0.011032544092458628,0.060526684548613076,-0.07187428769052784,0.04388130687392375,0.2565992330049104,-0.2625560502742154,-0.028259841178221758,0.0513646407331262,-0.19076348938635626
79,21.044186099999934,0.08473906672221929,-0.005985077452700664,0.024780961979008267,0.011232362637809043,0.06169739108107606,-0.07307360866897908,0.043749793842842465,0.2568272548863148,-0.2634189833517771,-0.02941446889443129,0.04862022277839538,-0.18767105993567887
80,21.047793099991395,0.08479074472418006,-0.005701047574589911,0.02444498446281512,0.011431569436239948,0.06286910892760682,-0.07427683273492386,0.0436130286140328,0.257042679691278,-0.2642677271218285,-0.03056318135628192,0.045839909505863065,-0.18454054884266896
81,21.05154689999472,0.08484332974893528,-0.005411672058079182,0.024103511044644848,0.0116301405975995,0.06404178026834223,-0.07548389478470091,0.04347103861049669,0.2572453433855472,-0.26510210799021666,-0.031705781163157476,0.04302355684492457,-0.1813719912223318
82,21.055915199991432,0.0848968188434514,-0.005116946687629418,0.023756524371446118,0.011828052358842846,0.0652153465338751,-0.07669472892337081,0.04332385216044926,0.25743508130172693,-0.2659219525430903,-0.032842068975386836,0.04017103102624119,-0.17816543113366792
83,21.060263599996688,0.08495120894662259,-0.004816867516508645,0.023404007392472326,0.012025281088189094,0.0663897484024732,-0.07790926846563007,0.043171498504994285,0.2576117281855048,-0.266727087588142,-0.03397184433748672,0.03728220835751966,-0.17492092169984175
84,21.064156899999944,0.08500649688987874,-0.004511430870228915,0.0230459433628836,0.01222180328929045,0.06756492579750718,-0.07912744593691763,0.043014007800625635,0.2577751182413346,-0.2675173401960368,-0.03509490602587398,0.03435697517797417,-0.17163852507096355
85,21.06826619998901,0.08506267939781272,-0.0042006333499945,0.022682315847343322,0.012417595605412014,0.06874081788508625,-0.08034919307470687,0.04285141112373138,0.25792508517824686,-0.2682925377413149,-0.03621105171945951,0.03139522790320095,-0.16831831243158799
86,21.072464099997887,0.08511975308882647,-0.003884471836160389,0.022313108723608338,0.012612634823641989,0.06991736307190394,-0.08157444082998512,0.042683740476099616,0.2580614622559411,-0.2690525079438888,-0.03732007812762708,0.02839687307532355,-0.16496036419541574
87,21.0767543999973,0.08517771447579664,-0.003562943491700136,0.02193830618611199,0.012806897879121693,0.07109449900329416,-0.08280311936892415,0.042511028788255335,0.258184082331054,-0.2697970789117217,-0.03842178093551496,0.025361827431524965,-0.16156477021049434
88,21.081758899992565,0.08523655996675933,-0.0032360457656820866,0.0215578927495391,0.013000361859286212,0.07227216256149897,-0.08403515807474897,0.042333309925465315,0.2582927779038763,-0.27052607918419624,-0.039515954657603033,0.02229001805072827,-0.1581316298948522
89,21.08566019999853,0.08529628586561433,-0.0029037763967530226,0.021171853252391935,0.013193004008149168,0.07345028986415071,-0.0852704855498038,0.04215061869241035,0.258387381165959,-0.2712393377760299,-0.0406023927291113,0.01918138256578449,-0.15466105249337206
90,21.08926349999092,0.08535688837284898,-0.0025661334166282345,0.020780172860546363,0.013384801730585994,0.07462881626297395,-0.0865090296178215,0.041962990838356556,0.2584677240487657,-0.2719366842229865,-0.04168088670134697,0.01603586939101625,-0.1511531573576349
91,21.093273699996644,0.08541836358628148,-0.0022231151535870046,0.020382837070797126,0.013575732596665866,0.07580767634271139,-0.08775071732640638,0.041770463069166514,0.258533638273354,-0.2726179486283443,-0.0427512256013689,0.012853437982006872,-0.14760807408684262
92,21.09749229998852,0.08548070750182424,-0.0018747202359724751,0.019979831714391334,0.013765774346044523,0.07698680392027894,-0.08899547494972745,0.04157307305831084,0.25858495540139714,-0.2732829617098926,-0.04381319584050471,0.00963405914703197,-0.14402594269249003
93,21.101569699996617,0.08554391601426727,-0.001520947595694839,0.019571142960549185,0.013954904892396635,0.07816613204415696,-0.09024322799142995,0.041370859459713714,0.25862150688770597,-0.27393155484790144,-0.044866581031548426,0.0063777153531959585,-0.14040691364890565
94,21.10583419998875,0.08560798491808194,-0.0011617964717367593,0.0191567573199709,0.014143102327925783,0.07934559299402433,-0.09149390118776601,0.04116386192043173,0.25864312413404283,-0.27456356013257965,-0.045911162171688384,0.0030844009977303776,-0.1367511478879324
95,21.110496699999203,0.08567290990824554,-0.0007972664136598971,0.018736661648328892,0.014330344927912466,0.08052511828064057,-0.0927474185109391,0.04095212109183098,0.2586496385441179,-0.27517881041199593,-0.04694671791673148,-0.000245877336136635,-0.13305881706084077
96,21.11418709999998,0.08573868658108648,-0.0004273572851114068,0.018310843149744196,0.014516611155326018,0.08170463864598151,-0.09400370317267172,0.040735678639764836,0.2586408815797366,-0.27577713934192544,-0.04797302507499932,-0.003613100647090177,-0.12933010383492174
97,21.118459199991776,0.08580531043515091,-5.206926732922738e-05,0.017879289380246098,0.014701879665465448,0.08288408406363346,-0.09526267762800449,0.04051457725124639,0.2586166848179129,-0.27635838143647623,-0.04898985862582836,-0.007017237333229866,-0.12556520204385607
98,21.122554899993705,0.0858727768720903,0.00032859713735501926,0.017441988251213916,0.014886129310632212,0.08406338373944978,-0.09652426357932561,0.04028886064445747,0.2585768800086813,-0.27692237211930726,-0.04999699170102714,-0.010458243052102422,-0.12176431684365814
99,21.126774899996235,0.08594108119757063,0.0007146411020167242,0.016998928032799877,0.015069339144862342,0.08524246611247242,-0.09778838198063707,0.040058573575590256,0.2585212991334865,-0.2774689477756771,-0.05099419609710745,-0.013936060616753166,-0.11792766498261703
100,21.131076399993617,0.08601021862220314,0.0011060614716437982,0.01655009735733199,0.015251488428661617,0.08642125885612098,-0.0990549530420588,0.039823761844184395,0.25844977446394357,-0.27799794580612397,-0.05198124216569612,-0.017450619958556794,-0.11405547511308123
101,21.13495399999374,0.08608018426249671,0.001502856759648213,0.016095485222695837,0.015432556633786369,0.08759968887965014,-0.10032389623458451,0.03958447230096813,0.25836213862056673,-0.27850920468135815,-0.052957898868088306,-0.021001838172712707,-0.11014798787441528
102,21.13910539999779,0.08615097314183223,0.0019050251443848,0.015635080995694075,0.015612523448050173,0.08877768232987444,-0.10159513029508653,0.039340752852697856,0.2582582246311144,-0.2790025639966986,-0.053923934013293165,-0.024589619622041356,-0.10620545601157987
103,21.14366549999977,0.08622258019145881,0.0023125644656785235,0.015168874415382578,0.01579136878014879,0.08995516459315783,-0.10286857323156803,0.03909265246782814,0.2581378659883714,-0.2794778645280469,-0.0548791141848761,-0.02821385606028119,-0.10222814472530901
104,21.147490599993034,0.08629500025151214,0.002725472221361425,0.014696855596382034,0.01596907276451857,0.09113206029766543,-0.1041441423286785,0.03884022118201852,0.2580008967073694,-0.27993494828951776,-0.055823204521331146,-0.03187442673300006,-0.0982163318482973
105,21.15177149999363,0.08636822807205502,0.003143745563820433,0.014219015032163785,0.016145615766211627,0.09230829331587499,-0.10542175415349152,0.03858351010580663,0.2578471513822488,-0.2803736585910198,-0.05675596798449604,-0.035571198447496795,-0.09417030793659828
106,21.1557199999952,0.0864422583141402,0.0035673812965572147,0.013735343598308726,0.01632097838582422,0.09348378676734727,-0.10670132456154544,0.03832257143678754,0.25767646524284155,-0.28079384009671976,-0.05767716488383521,-0.039304025638217055,-0.09009037644951219
107,21.16033289999177,0.08651708555089584,0.003996375870761253,0.013245832555738048,0.016495141464483006,0.09465846302175354,-0.10798276870315439,0.03805745847162574,0.25748867421093646,-0.2811953388842639,-0.05858655313279545,-0.04307275041961321,-0.08597685390766632
108,21.16429570000037,0.08659270426863384,0.004430725381897311,0.012750473553914581,0.01666808608888299,0.09583224370215919,-0.10926600102998907,0.0377882256158963,0.25728361495638,-0.281578002504684,-0.05948388859608218,-0.04687720262135983,-0.08183007005040152
109,21.173266899990267,0.08666910886798128,0.004870425566308455,0.012249258634013513,0.01683979359636353,0.09700504968856286,-0.11055093530193416,0.037514928392929504,0.25706112495302025,-0.28194168004305437,-0.060368924559308555,-0.05071719979487214,-0.07765036790348258
110,21.18336559999443,0.08674629366503496,0.005315471797835804,0.011742180232061188,0.017010245580026954,0.09817680112169028,-0.11183748459422233,0.03723762345848916,0.25682104253474825,-0.28228622217901517,-0.061241411436546295,-0.05459254717823658,-0.07343810386015613
111,21.18743399999221,0.08682425289253959,0.0057658590844561495,0.011229231182040764,0.01717942389394844,0.09934741740704459,-0.11312556130484365,0.036956368612284525,0.2565632069517619,-0.28261148124816887,-0.062101097757616554,-0.05850303761849443,-0.06919364796730566
112,21.19094859999313,0.08690298070108986,0.006221582064938646,0.010710404718963427,0.017347310658399628,0.1005168172192133,-0.1144150771622396,0.03667122280364392,0.25628745842731615,-0.2829173113052135,-0.06294773040615688,-0.062448451421662325,-0.06491738425738189
113,21.1945357999939,0.08698247116035622,0.0066826350055217195,0.010185694481903877,0.017513888265110255,0.1016849185064362,-0.1157059432332883,0.03638224614085533,0.25599363821535476,-0.2832035681883665,-0.06378105421722931,-0.06642855613669178,-0.06060971102756466
114,21.198317699992916,0.08706271826033499,0.0071490117966114125,0.00965509451699871,0.017679139382576953,0.10285163849543799,-0.11699806993158604,0.03608949990051009,0.2556815886592309,-0.283470109585044,-0.06460081184911326,-0.0704431062916936,-0.05627104113786549
115,21.201805499993498,0.08714371591262252,0.007620705949502373,0.009118599280406377,0.0178430469614101,0.10401689369653175,-0.11829136702603163,0.03579304653801281,0.2553511532517447,-0.28371679509900355,-0.06540674367386344,-0.07449184314753866,-0.05190180222915827
116,21.205737399999634,0.08722545795171407,0.008097710593122746,0.008576203641227263,0.01800559423973848,0.10518059990899911,-0.11958574364972027,0.03549294969792325,0.25500217669611114,-0.28394348631801225,-0.06619858763075234,-0.07857449446464797,-0.047502436768236435
117,21.21011469999212,0.08730793813632733,0.008580018470804234,0.008027902884382532,0.01816676474865046,0.10634267222674984,-0.12088110830914507,0.035189274225802925,0.25463450496812473,-0.28415004688140016,-0.0669760792991321,-0.08269077421235793,-0.04307340203346742
118,21.214418099989416,0.08739115015075082,0.009067621937078605,0.007473692713450289,0.0183265423177067,0.10750302504426898,-0.12217736889370708,0.03488208617789244,0.25424798537977816,-0.2843363425475976,-0.06773895211848284,-0.08684038228598506,-0.038615170104786795
119,21.21848250000039,0.08747508760621774,0.009560512954501995,0.006913569253457675,0.018484911080469582,0.10866157206285665,-0.12347443268553274,0.034571452830951116,0.25384246664400734,-0.2845022412615974,-0.06848693669340275,-0.09102300419719586,-0.03412822790838407
120,21.22256399999605,0.08755974404230485,0.010058683090508329,0.006347529053627496,0.018641855480105676,0.10981822629716573,-0.12477220636959926,0.034257442698273265,0.25341779894113425,-0.2846476132228997,-0.06921976084782751,-0.09523831066642335,-0.029613077319001847
121,21.22675829999207,0.08764511292835735,0.010562123514293248,0.005775569090077969,0.018797360275061244,0.11097290008204765,-0.12607059604417178,0.033940125539033285,0.25297383398732937,-0.28477233095390736,-0.06993715055823033,-0.09948595728040119,-0.02507023526835161
122,21.234339999995427,0.08773118766493954,0.011070824993729973,0.005197686768474154,0.01895141054474993,0.11212550507971449,-0.1273695072315525,0.03361957236579056,0.252510425104178,-0.28487626936885935,-0.07063882953320913,-0.10376558433449115,-0.02050023396299238
123,21.23878239998885,0.08781796158531158,0.01158477789231855,0.0046138799266296614,0.01910399169529673,0.11327595228721926,-0.12866884488914654,0.033295855457669,0.2520274272885807,-0.2849593058442135,-0.0713245188472202,-0.10807681680247054,-0.015903621189487262
124,21.244283899999573,0.08790542795693256,0.012103972166169938,0.004024146837057158,0.019255089465345876,0.11442415204425556,-0.1299685134208531,0.032969048371202514,0.2515246972825953,-0.2850213202903631,-0.07199393769076141,-0.11241926444617752,-0.011280960564612651
125,21.247926299998653,0.08799357998299019,0.012628397361026398,0.0034284862094661798,0.01940468993190372,0.11557001404127482,-0.13126841668878542,0.032639225946672415,0.2510020936423373,-0.2850621952243017,-0.07264680375453779,-0.11679252204253741,-0.006632831758434535
126,21.25178189999133,0.0880824108039572,0.013158042609319609,0.002826897193206744,0.019552779516204433,0.11671344732791437,-0.13256845802532452,0.03230646431544905,0.25045947680575104,-0.2850818158433744,-0.07328283295482325,-0.1211961695715757,-0.0019598306817979966
127,21.256106799992267,0.08817191349917453,0.013692896627267928,0.002219379379657224,0.019699344989619838,0.11785436032173288,-0.13386854024551198,0.031970840908834085,0.24989670915979556,-0.28508007009965236,-0.07390173919588985,-0.12562977233121533,0.0027374304435886457
128,21.260189499997068,0.08826208108846155,0.014232947712014183,0.0016059328045549333,0.01984437347960576,0.11899266081725111,-0.13516856565978203,0.031632434467568936,0.2493136551071687,-0.28505684877432363,-0.07450323436993002,-0.13009288104070485,0.007458323124501986
129,21.26436069999181,0.08835290653375359,0.014778183738805383,0.0009865579502678734,0.01998785247569858,0.12012825599529595,-0.13646843608703269,0.031291325050677755,0.2487101811325495,-0.2850120455517087,-0.07508702868641708,-0.13458503192001775,0.012202202712038635
130,21.268252099995152,0.08844438274076684,0.01532859215821574,0.00036125574800610204,0.020129769835542245,0.12126105243264534,-0.13776805286803304,0.030947594041971886,0.24808615586859822,-0.2849455570925948,-0.07565283048917361,-0.1391057467907972,0.016968408516020043
131,21.27262169998721,0.08853650256069076,0.015884159993414342,-0.0002699724200288002,0.020270113790944136,0.1223909561119743,-0.13906731687916318,0.030601324160561306,0.24744145016127805,-0.28485728310720787,-0.0762003459084565,-0.1436545331615984,0.021756263861364106
132,21.27696959998866,0.0886292587919083,0.016444873837478894,-0.0009071247185576816,0.02040887295399795,0.1235178724320956,-0.14036612854648706,0.03025259947053228,0.24677593713507773,-0.28474712642803296,-0.07672927944681247,-0.1482308841117733,0.026565076131182523
133,21.28114849999838,0.08872264418174415,0.017010719850756792,-0.0015501988572027034,0.020546036323227854,0.12464170621850061,-0.14166438786015656,0.02990150538611544,0.24608949225939217,-0.28461499308239313,-0.07723933456423283,-0.15283427813516454,0.03139413681212395
134,21.285451699994155,0.08881665142824094,0.017581683758274996,-0.0021991920885326664,0.020681593289758476,0.12576236173420552,-0.14296199438914634,0.029548128676026453,0.24538199341517078,-0.284460792364856,-0.07773021380594543,-0.15746417909988994,0.036242721520387
135,21.28924869999173,0.0889112731819638,0.018157750847200036,-0.002854101206176286,0.020815533643498658,0.12687974269089997,-0.1442588472963183,0.029192557467468568,0.24465332096166487,-0.28428443690957567,-0.07820161871132399,-0.16212003612871878,0.04111008998540283
136,21.293253699986963,0.089006502047833,0.018738905964349566,-0.003514922543004917,0.020947847579347964,0.12799375226040205,-0.14555484535381621,0.02883488125130409,0.24390335780416697,-0.284085842762848,-0.07865325006967956,-0.16680128333316271,0.045995485959720785
137,21.29783039999893,0.08910233058698505,0.019325133513756844,-0.004181651969386234,0.021078525703427588,0.12910429308642482,-0.14684988695879198,0.028475190883723932,0.24313198946318354,-0.2838649294562744,-0.07908480854236528,-0.17150733955905806,0.050898137061208125
138,21.30177749998984,0.08919875131866219,0.019916417454289605,-0.0048542848915103945,0.02120755903930209,0.13021126729666216,-0.14814387014946748,0.02811357858574513,0.24233910414449472,-0.2836216200807564,-0.0794959951382814,-0.17623760828779061,0.05581725462489033
139,21.306033199987723,0.08929575672213025,0.020512741297324773,-0.00553281624979021,0.021334939034205726,0.13131457651519426,-0.14943669262153578,0.02775013794054348,0.24152459280922792,-0.28335584136101083,-0.07988651170756263,-0.1809914774484562,0.06075203366058416
140,21.310067099999287,0.08939333923862493,0.02111408810448048,-0.006217240517336896,0.021460657565239852,0.13241412187521265,-0.1507282517449026,0.027384963888448317,0.2406883492456308,-0.28306752372995053,-0.08025606125283888,-0.18576831909738778,0.065701652968678
141,21.314110299994358,0.08949149127332617,0.021720440485406833,-0.006907551698512943,0.021584706945553606,0.13350980403208024,-0.15201844458076585,0.02701815272143626,0.23983027014206773,-0.28275660140214376,-0.08060434866082213,-0.19056748933105702,0.07066527546478903
142,21.31882809998933,0.08959020519736081,0.022331780595637056,-0.007603743327563637,0.02170707993049109,0.13460152317672214,-0.1533071678990272,0.026649802071453472,0.23895025515958726,-0.2824230124452339,-0.08093108145212027,-0.1953883283011014,0.07564204872127046
143,21.322607599999174,0.08968947334983303,0.022948090134500387,-0.008305808467328734,0.021827769723665544,0.1356891790493476,-0.15459431819602296,0.026280010898070628,0.23804820700478144,-0.2820666988484597,-0.08123596994585462,-0.20023016020063605,0.08063110565653753
144,21.32675449999806,0.08978928803988237,0.02356935034309837,-0.009013739708035701,0.021946769982993934,0.13677267095350532,-0.1558797917125605,0.025908879475303757,0.2371240315024781,-0.2816876065877882,-0.08151872802798794,-0.20509229319418792,0.08563156537627789
145,21.33091649999551,0.08988964154876927,0.024195542002345943,-0.009727529166175891,0.02206407482665092,0.13785189777046836,-0.15716348445224335,0.0255365093722616,0.23617763766923933,-0.28128568568676243,-0.08177907415734874,-0.20997401934429158,0.09064253435087123
146,21.338924999989104,0.08999052613198738,0.02482664543107894,-0.010447168483464922,0.022179678838926947,0.13892675797395984,-0.1584452922000625,0.025163003430790858,0.23520893778672317,-0.28086089027089556,-0.08201673228026944,-0.2148746145597735,0.09566310807701309
147,21.34307329999865,0.09009193402140249,0.025462640484229485,-0.011172648825888417,0.02229357707597831,0.139997149645207,-0.15972511054121763,0.024788465737781498,0.23421784747565377,-0.2804131786133636,-0.08223143316575648,-0.21979333813063456,0.10069237269667358
148,21.34760749999259,0.09019385742741731,0.026103506551070774,-0.01190396088283404,0.022405765071432656,0.1410629704883414,-0.16100283488012512,0.02441300159063442,0.2332042857734253,-0.27994251317463364,-0.08242291533815177,-0.2247294319686338,0.10572940568401928
149,21.351677799990284,0.09029628854116155,0.02674922255353296,-0.012641094866310605,0.022516238841824104,0.14212411784616097,-0.16227836045960073,0.024036717461060297,0.2321681752149984,-0.27944886064189134,-0.08259092491297126,-0.22968211959598622,0.11077327566762535
150,21.355817499992558,0.09039921953670622,0.027399766944591675,-0.01338404051025507,0.022624994891868557,0.14318048871626793,-0.16355158238022727,0.023659720962044505,0.23110944191972782,-0.2789321919702907,-0.08273521502964462,-0.23465060479304028,0.11582304201975144
151,21.360196499997983,0.09050264257330187,0.02805511770673111,-0.01413278706992829,0.02273203021959752,0.1442319797676227,-0.1648223956199134,0.023282120816819733,0.23002801568459286,-0.2783924824261277,-0.08285554579633689,-0.2396340702993509,0.12087775453632225
152,21.36414549998881,0.0906065497976397,0.028715252350483517,-0.014887323321400397,0.022837342321350436,0.1452784873575323,-0.1660906950536552,0.02290402682633417,0.22892383008287207,-0.2778297116310088,-0.08295168458319185,-0.24463167638495206,0.12593645343395748
153,21.36841999999888,0.0907109333461353,0.029380147913047234,-0.015647637561126793,0.02294092919661178,0.1463199075491041,-0.1673563754734977,0.022525549835549545,0.2277968225704046,-0.27724386360505165,-0.08302340571102976,-0.24964255927582527,0.130998169575513
154,21.37380509999639,0.09081578534723392,0.030049780956985378,-0.016413717605615597,0.023042789352696023,0.14735613612920345,-0.16861933160869044,0.022146801703748602,0.22664693459862553,-0.27663492680899654,-0.08307049012198463,-0.25466582978491287,0.13606192475401446
155,21.37751179999032,0.09092109792373694,0.030724127569007647,-0.01718555079118746,0.023142921809313904,0.1483870686269384,-0.16987945814603328,0.021767895273837122,0.2254741117333133,-0.27600289418481744,-0.08309272570907575,-0.25970057194344137,0.14112673205836682
156,21.38118050000048,0.09102686319514877,0.03140316335883762,-0.01796312397382858,0.02324132610297741,0.14941260033270032,-0.1711366497504022,0.021388944339645496,0.22427830378010818,-0.2753477631944979,-0.08308990740746203,-0.2647458415048003,0.14619159647826901
157,21.38511079999444,0.09113307328004348,0.0320868634581682,-0.018746423529137735,0.02333800229126783,0.15043262631779344,-0.17239080108544869,0.02101006361439846,0.22305946491690526,-0.274669535855125,-0.08306183792615435,-0.26980066433731786,0.15125551577704277
158,21.38934039999731,0.09123972029845066,0.03277520251970797,-0.019535435352368076,0.023432950956953136,0.15144704145468305,-0.17364180683444586,0.020631368691342997,0.22181755383403182,-0.27396821876970445,-0.0830083290101595,-0.2748640346972516,0.15631748131646492
159,21.39449639999657,0.09134679637425959,0.0334681547163213,-0.020330144858564294,0.02352617321189696,0.15245574043790344,-0.17488956172126874,0.020252976000706524,0.2205525338823917,-0.2732438231547316,-0.0829292019891381,-0.2799349137843768,0.161376478926267
160,21.398208300000988,0.09145429363764074,0.0341656937402654,-0.021130536982795774,0.0236176707007834,0.15345861780565734,-0.17613396053149183,0.019875002765320695,0.2192643732268167,-0.2724963648630761,-0.08282428898457898,-0.28501222886846944,0.16643149005023453
161,21.402059399988502,0.09156220422748393,0.03486779280252743,-0.021936596180486174,0.023707445604621256,0.1544555679621225,-0.1773748981335782,0.019497566946569417,0.21795304500217777,-0.27172586440109975,-0.08269343420873021,-0.2900948727117437,0.17148149317728056
162,21.40573589999985,0.0916705202938518,0.03557442463226498,-0.022748306427839843,0.023795500643975852,0.15544648520047497,-0.17861226950013315,0.019120787188165584,0.2166185274720043,-0.27093234693848894,-0.08253649416562639,-0.2951817030710449,0.17652546533892735
163,21.410007899990887,0.09177923400044741,0.036285561476353194,-0.023565651222365244,0.023881839081960475,0.15643126372664234,-0.17984596972918293,0.0187447827602656,0.21526080418913565,-0.2701158423117146,-0.08235333836428155,-0.3002715423835356,0.1815623833968397
164,21.4139725999994,0.09188833752709502,0.037001175099041904,-0.02438861358349545,0.023966464726958493,0.15740979768379232,-0.18107589406546,0.018369673496741346,0.213879864157207,-0.26927638502212137,-0.08214385070937788,-0.3053631775267907,0.1865912252727087
165,21.41866919999302,0.09199782307223253,0.03772123678172607,-0.025217176053305698,0.024049381935042673,0.15838198117755883,-0.1823019379216644,0.01799557972661077,0.2124757019934891,-0.26841401422817035,-0.08190793058002058,-0.31045535942643304,0.19161097101164384
166,21.4243404000008,0.09210768285541429,0.03844571732283301,-0.026051320697327802,0.024130595612071905,0.15934770830201572,-0.1835239968996781,0.017622622201470928,0.21104831809395275,-0.2675287737338295,-0.08164549350631248,-0.3155468027204505,0.19662060382282662
167,21.428620499995304,0.09221790911982268,0.03917458703782973,-0.026891029105461203,0.02421011121544866,0.16030687316640843,-0.18474196681172056,0.01725092202075779,0.20959771879917005,-0.26662071197132486,-0.08135647210288934,-0.3206361859096929,0.20161911196200114
168,21.432634599987068,0.09232849413478696,0.039907815759353975,-0.027736282392980323,0.024287934755534035,0.16125936992264076,-0.1859557437014058,0.016880600550664867,0.20812391655800636,-0.2656898819723616,-0.08104081800738511,-0.32572215183567355,0.2066054919779856
169,21.439707099998486,0.09243943019830773,0.04064537283747226,-0.028587061201637672,0.024364072796665713,0.16220509279349954,-0.18716522386463544,0.016511779331723,0.20662693008916372,-0.26473634132126495,-0.08069850451420353,-0.33080330840558547,0.2115787531226229
170,21.444753899995703,0.09255070963958512,0.04138722714006831,-0.029443345700861767,0.024438532457730065,0.1631439361016148,-0.18837030387022838,0.016144579973697358,0.20510678453826012,-0.26376015208597975,-0.08032952889790299,-0.3358782302162327,0.21653792151047294
171,21.44935599999735,0.09266232482154839,0.04213334705336527,-0.030305115589048384,0.0245113214122215,0.16407579429911703,-0.1895708805801845,0.015779124041976504,0.20356351162456174,-0.2627613807332725,-0.07993391319979369,-0.3409454615008929,0.22148204182316897
172,21.45398719998775,0.0927742681433847,0.04288370048258463,-0.031172350094943298,0.02458244788777838,0.16500056199793572,-0.190766851169541,0.015415532945295142,0.20199714977118494,-0.26174009804418596,-0.07951170338611886,-0.3460035204558549,0.22641017603714858
173,21.457928599993465,0.09288653204306452,0.04363825485274474,-0.03204502797911464,0.024651920665218322,0.16591813400064412,-0.19195811314586492,0.015053927829801094,0.20040774421236782,-0.26069637904084525,-0.079062968214036,-0.35105090397669103,0.2313214013746893
174,21.461664899994503,0.09299910899986151,0.04439697710960109,-0.03292312753551342,0.024719749077107944,0.16682840533173607,-0.19314456436844188,0.014694429477121003,0.19879534708047444,-0.2596303029206002,-0.07858779888465425,-0.35608609183732537,0.23621480944405585
175,21.465840299992124,0.09311199153686496,0.045159833720730104,-0.0338066265931209,0.024785943005868456,0.16773127126926443,-0.19432610306716805,0.014337158201591824,0.19716001747515072,-0.25854195299067373,-0.07808630935333627,-0.3611075508807761,0.24108950644001434
176,21.46924969999236,0.09322517222348237,0.04592679067675795,-0.03469550251768141,0.024850512881408094,0.1686266273767486,-0.19550262786114278,0.013982233745496382,0.1955018215121064,-0.25743141660047564,-0.07755863662248279,-0.36611373948115006,0.24594461413350674
177,21.472795999987284,0.09333864367793027,0.04669781349273536,-0.035589732213519305,0.0249134696782722,0.16951436953525786,-0.1966740377769432,0.013629775173624487,0.19382083235157485,-0.25629878506722437,-0.07700494108949553,-0.37110311252750416,0.2507792716176373
178,21.4801257999934,0.09345239856971084,0.047472867209659056,-0.03648929212543848,0.02497482491231398,0.17039439397557846,-0.19784023226653852,0.013279900765334848,0.1921171302016391,-0.2551441535923363,-0.07642540751572063,-0.3760741268394408,0.255592637432424
179,21.48376439999265,0.09356642962207237,0.048251916396139974,-0.03739415824070268,0.025034590636860133,0.17126659731032728,-0.19900111122480202,0.01293272790027883,0.19039080229729796,-0.25396762116766847,-0.0758202454473156,-0.38102524585666453,0.26038389101719855
180,21.488604899990605,0.09368072961445088,0.049034925150217575,-0.03830430609109474,0.025092779438339326,0.17213087656592807,-0.20015657500657025,0.012588372946623794,0.18864194286102054,-0.2527692904786612,-0.07518968819108642,-0.3859549435090811,0.26515223263657217
181,21.49287799999001,0.09379529138489072,0.04982185710131969,-0.03921971075505252,0.02514940443142835,0.17298712921436527,-0.2013065244432716,0.012246951156117852,0.18687065304651454,-0.25154926781125597,-0.07453399188149686,-0.3908617072550856,0.269896882728425
182,21.497829999992973,0.09391010783244191,0.05061267541236649,-0.04014034685987977,0.02520447925372354,0.17383525320464735,-0.20245086085913655,0.011908576560822674,0.18507704087156968,-0.25030766296098467,-0.07385343456594619,-0.39574404002612545,0.27461708065369106
183,21.501734999998007,0.09402517191953218,0.05140734278201726,-0.04106618858402993,0.025258018059945046,0.17467514699394823,-0.20358948608699706,0.011573361876521072,0.18326122114409044,-0.24904458915129038,-0.07314831444906209,-0.40060046084963,0.2793120819353901
184,21.506200599993463,0.0941404766743114,0.0522058214470584,-0.0419972096594611,0.025310035515727275,0.17550670957839593,-0.20472230248375187,0.011241418415462948,0.18142331538925793,-0.24776016296779832,-0.07241894839278223,-0.40542950360713714,0.2839811550000655
185,21.510150099988092,0.094256015192967,0.05300807318493103,-0.04293338337406086,0.025360546791027366,0.1763298405235496,-0.20584921294556638,0.010912856003453073,0.17956345178688934,-0.24645450430635674,-0.07166567112946472,-0.41022971498264466,0.2886235788922534
186,21.51426399999764,0.09437178064200832,0.05381405931639697,-0.043874682574139914,0.025409567553159408,0.177144439994617,-0.20697012092286407,0.01058778289977395,0.17768176511731207,-0.2451277363281533,-0.07088883482342045,-0.41499965319302556,0.2932386425608021
187,21.519378099997997,0.09448776626051844,0.0546237407083419,-0.04482107966699364,0.02545711395947256,0.1779504087864377,-0.20808493043511703,0.010266305718272695,0.17577839671030257,-0.2437799854142652,-0.07008880956460134,-0.4197378879893732,0.29782564581077176
188,21.52781459999096,0.09460396536237177,0.055437077776714846,-0.0457725466235306,0.02550320264966554,0.17874764835323495,-0.2091935460854228,0.009948529342781155,0.17385349439094827,-0.2424113811120937,-0.06926598547177075,-0.42444300163261306,0.3023839014999221
189,21.53219469999021,0.09472037133841579,0.05625403048960269,-0.04672905498096705,0.025547850737693317,0.17953606083810517,-0.21029587307480635,0.009634556829020568,0.1719072124196882,-0.2410220560698808,-0.06842077461337046,-0.42911358927920573,0.3069127375286425
190,21.536717700000736,0.09483697765861485,0.05707455837043859,-0.04769057584558591,0.025591075803186914,0.18031554910222275,-0.21139181721619976,0.009324489302502178,0.16993971143465705,-0.23961214596499442,-0.067553610623565,-0.43374825715305004,0.3114114967872289
191,21.541394699990636,0.09495377787415359,0.057898620501342896,-0.04865707989555878,0.025632895882428893,0.18108601675380387,-0.21248128494809004,0.009018425863933805,0.1679511584083992,-0.23818178943892596,-0.0666649483179938,-0.4383456193240045,0.315879534952415
192,21.548288699996192,0.09507076561949847,0.058726175526595724,-0.04962853738382935,0.025673329458910397,0.18184736817691644,-0.21356418334790592,0.008716463490625046,0.1659417266195946,-0.23673112804567245,-0.06575526479104439,-0.44290429513905905,0.3203162188854767
193,21.55227859999286,0.09518793461441509,0.059557181656240625,-0.050604918141057546,0.025712395453407397,0.182599508560186,-0.21464042014519494,0.00841869693188603,0.16391159563320226,-0.23526030620134447,-0.06482506016608337,-0.4474229076034279,0.32472092652446716
194,21.55590339998889,0.09530527866593916,0.06039159666981898,-0.051586191578623125,0.025750113213583704,0.18334234392542464,-0.21570990373455062,0.00812521860359004,0.16186095128695144,-0.23376947113353108,-0.06387485737586783,-0.45190008135090953,0.3290930456469996
195,21.5599147999892,0.095422791670299,0.06122937792023478,-0.052572326691687696,0.02578650250310556,0.18407578115621365,-0.21677254318832775,0.007836118485575059,0.1597899856899967,-0.23225877284219199,-0.06290520100992443,-0.4563344399819648,0.33343197130976876
196,21.56423079999513,0.09554046761478727,0.06207048233774973,-0.05356329206231431,0.02582158349030889,0.18479972802652012,-0.21782824826921282,0.007551484026719008,0.1576988972336876,-0.23072836407237562,-0.06191665643702916,-0.46072460480916194,0.3377371042596741
197,21.572274799997103,0.09565830057958005,0.06291486643410901,-0.05455905586264413,0.025855376736448117,0.1855140932293779,-0.2188769294426905,0.007271400050344822,0.155587890601666,-0.22917840028960287,-0.06090981011609266,-0.4650691961584442,0.3420078515550885
198,21.57659969999804,0.09577628473950144,0.06376248630679798,-0.055559585858129715,0.025887903183500656,0.18621878640559628,-0.21991849788938955,0.006995948656460227,0.15345717676876738,-0.22760903964691878,-0.059885270254133975,-0.46936683538975904,0.346243628290856
199,21.580630799988285,0.09589441436573139,0.06461329764342978,-0.056564849410824285,0.02591918414152409,0.18691371817243088,-0.22095286551724885,0.006725209121161679,0.15130697299268875,-0.2260204429445432,-0.058843666386080316,-0.4736161455443517,0.3504438576013106
200,21.585101699994997,0.09601268382745497,0.06546725572626351,-0.05757481348272599,0.02594924127554316,0.1875988001522164,-0.22197994497349524,0.00645925780270663,0.14913750280698626,-0.22441277359689504,-0.05778564685056184,-0.47781575110054536,0.3546079684401156
201,21.58922119998897,0.09613108759345065,0.066324315436853,-0.0585894446391764,0.025978096592050273,0.18827394500097355,-0.22299964965650876,0.00619816806393979,0.14694899601497055,-0.22278619761249208,-0.05671187586289857,-0.48196427789930807,0.3587353935996674
202,21.593345199988107,0.09624962023361641,0.06718443126082593,-0.059608709052313,0.026005772425184967,0.18893906643698624,-0.22401189372761723,0.0059420102050615755,0.14474168868338325,-0.2211408835790395,-0.05562303186925017,-0.4860603536464209,0.3628255688439141
203,21.59743909999088,0.09636827642043197,0.06804755729279319,-0.06063257250457526,0.026032291422621222,0.1895940792693508,-0.2250165921228255,0.005690851401065548,0.14251582313171218,-0.21947700265123898,-0.05451980635758409,-0.4901026094319679,0.3668779325917237
204,21.60199319999083,0.09648705093035617,0.06891364724138838,-0.0616610003922641,0.026057676531176317,0.19023889942645558,-0.22601366056449873,0.005444755645351573,0.14027164791200925,-0.2177947285387651,-0.05340290228447964,-0.49408968216335075,0.37089192628857315
205,21.606435099995,0.096605938645158,0.06978265443443699,-0.06269395772915451,0.026081950982183858,0.19087344398434633,-0.2270030155729821,0.005203783701511784,0.13800941777601497,-0.21609423749068438,-0.05227303288630455,-0.498020217399713,0.3748669947799054
206,21.610744499994325,0.09672493455318051,0.07065453182425456,-0.06373140915016101,0.026105138276662897,0.19149763119490582,-0.227984574478142,0.004967993057786549,0.13572939362912467,-0.21437570828002636,-0.05113092087439083,-0.5018928715097126,0.37880258637921427
207,21.6142744999961,0.09684403375053662,0.07152923199307289,-0.06477331891505554,0.026127262170275566,0.1921113805137993,-0.2289582554308448,0.004737437886190938,0.13343184247783282,-0.2126393221875818,-0.049977296660726395,-0.505706312879373,0.38269815329644297
208,21.618564299991704,0.09696323144223579,0.07240670715859306,-0.06581965091223758,0.026148346658123402,0.19271461262817496,-0.22992397741435053,0.004512169013153481,0.13111703737268282,-0.21088526298256646,-0.04881289652875874,-0.5094592234125136,0.38655315160963133
209,21.622641099995235,0.09708252294324118,0.0732869091796643,-0.066870368662556,0.026168415959437193,0.19330724948408892,-0.23088166025561518,0.004292233895326041,0.1287852573420265,-0.20911371690667782,-0.04763846190205902,-0.5131503000489189,0.3903670407714324
210,21.62689669999236,0.09720190367945675,0.07416978956208715,-0.06792543532318221,0.026187494502152672,0.19388921431360154,-0.23183122463653894,0.00407767659689282,0.1264367873211273,-0.2073248726592598,-0.04645473837442097,-0.5167782552931769,0.39413928380930746
211,21.63333139999304,0.0973213691886436,0.07505529946453948,-0.06898481369153465,0.026205606907393406,0.19446043166155585,-0.23277259210513324,0.0038685377742263246,0.12407191808109633,-0.2055189213795336,-0.04526247463081098,-0.5203418176013801,0.3978693472554692
212,21.63779419999628,0.09744091512126567,0.07594338970462385,-0.07004846620925381,0.026222777973906545,0.1950208274120257,-0.23370568508660688,0.0036648546630379834,0.12169094615446871,-0.20369605663240128,-0.04406242244782683,-0.5238397321839243,0.401556701373418
213,21.64201499999035,0.09756053724126407,0.07683401076503472,-0.07111635496622774,0.026239032662428514,0.19557032881441536,-0.2346304268944037,0.0034666610630299287,0.1192941737568176,-0.20185647438861057,-0.04285533650997769,-0.5272707625963736,0.4052008226083305
214,21.647386099997675,0.09768023142676016,0.07772711279984398,-0.07218844170466782,0.026254396079980778,0.19610886450919274,-0.23554674174110762,0.003273987326721251,0.11688190869782072,-0.20000037298820933,-0.04164197406263828,-0.5306336934130699,0.4088011968982837
215,21.65187659999356,0.09779999367068674,0.07862264564090277,-0.0732646878232337,0.026268893464133625,0.19663636455317793,-0.23645455474914714,0.003086860347265059,0.11445446427848957,-0.19812795309050987,-0.0404230957903194,-0.5339273323271693,0.4123573225650658
216,21.65609819999372,0.09791982008134752,0.07952055880435761,-0.07434505438120671,0.02628255016719081,0.19715276044433902,-0.237353791961244,0.0029053035392643577,0.11201215918308222,-0.19623941761117755,-0.039199466254927595,-0.53715050956674,0.4158687115954255
217,21.660755599994445,0.09803970688290406,0.08042080149727851,-0.07542950210271013,0.026295391640278373,0.19765798514609484,-0.23824438035054382,0.0027293368225919084,0.10955531738165807,-0.1943349716605092,-0.03797185296331665,-0.5403020746959901,0.4193348881008947
218,21.667023499991046,0.09815965041579018,0.08132332262439666,-0.07651799138097491,0.026307443417381702,0.198151973111222,-0.23912624783050188,0.0025589766117106176,0.1070842680511655,-0.19241482249456912,-0.036741026056527196,-0.5433808945629397,0.4227553875533877
219,21.67285709999851,0.0982796471370533,0.08222807079495059,-0.07761048228265019,0.02631873109933695,0.19863466030543797,-0.23999932326456805,0.002394235802327725,0.1045993454967151,-0.19047917946043935,-0.0355077589129982,-0.5463858544702174,0.4261297593266748
220,21.67715979999048,0.09839969362062277,0.083134994329639,-0.07870693455215733,0.026329280337746383,0.19910598423058998,-0.2408635364755733,0.0022351237552135274,0.1021008890619889,-0.18852825392417583,-0.03427282811215637,-0.5493158596962131,0.42945756958485237
221,21.682006599992743,0.0985197865575046,0.08404404126767837,-0.079807307616086,0.026339116818822204,0.199565883947421,-0.24171881825475744,0.0020816462831876555,0.09958924303663978,-0.18656225918971397,-0.03303701303210868,-0.5521698349825812,0.4327384017604796
222,21.685669799990137,0.09863992275590237,0.08495515937396345,-0.0809115605876306,0.02634826624718321,0.20001430009791418,-0.24256510037041606,0.001933805638607092,0.09706475657137499,-0.184581410422464,-0.03180109553854784,-0.554946721531311,0.4359718541008516
223,21.689415199987707,0.09876009914126421,0.08586829614632867,-0.08201965227106522,0.0263567543295845,0.2004511749272842,-0.24340231557623143,0.001791600503189822,0.09452778361274411,-0.18258592459059603,-0.03056585888735184,-0.5576454736231143,0.4391575363951614
224,21.69380629999796,0.09888031275625532,0.08678339882290921,-0.083131541166256,0.026364606758621324,0.20087645230572698,-0.24423039761938384,0.0016550259855118291,0.091978682849065,-0.1805760204184856,-0.029332087157407403,-0.5602650573922298,0.44229506831086807
225,21.698241699996288,0.09900056076065626,0.08770041438960076,-0.08424718547321006,0.026371849196435947,0.20129007774991786,-0.24504928124845796,0.0015240736160037475,0.08941781765638634,-0.1785519183431723,-0.028100565872589786,-0.5628044508424409,0.445384079008334
226,21.701880199994772,0.09912084043118695,0.08861928958761667,-0.08536654309666003,0.026378507258375872,0.20169199844426844,-0.24585890222115706,0.0013987313387750146,0.08684555604426744,-0.17651384047131993,-0.02687208196547753,-0.5652626448020025,0.4484242067567804
227,21.705702799998107,0.09924114916125586,0.08953997092114159,-0.08648957165068333,0.026384606496626144,0.20208216326193024,-0.2466591973118168,0.0012789835069414684,0.08426227059303125,-0.17446201053917784,-0.02564742331957399,-0.5676386445665659,0.4514150983683954
228,21.710024100000737,0.09936148446063472,0.09046240466508021,-0.08761622846335518,0.026390172383824947,0.20246052278547924,-0.24745010431875425,0.001164810878624724,0.08166833838455971,-0.1723966538747025,-0.02442737867809357,-0.5699314714904082,0.45435640926875553
229,21.714403699996183,0.09948184395505834,0.09138653687289952,-0.08874647058143494,0.02639523029665942,0.20282702932728838,-0.24823156207143626,0.0010561906131116973,0.07906414092503375,-0.17031799735687636,-0.023212737680664036,-0.5721401651485216,0.4572478037920925
230,21.718236699991397,0.09960222538574962,0.09231231338456337,-0.0898802547750845,0.026399805499446233,0.20318163694950742,-0.24900351043745741,0.0009530962665192335,0.07645006405600902,-0.1682262693751366,-0.02200429071664236,-0.5742637847780203,0.4600889549627541
231,21.722598199994536,0.09972262660886963,0.09323967983455698,-0.09101753754261828,0.026403923127687853,0.20352430148362435,-0.24976589032933832,0.0008554977892914819,0.07382649786400935,-0.1661216997906871,-0.020802828614562577,-0.5763014107048606,0.4628795440527853
232,21.726903299990227,0.09984304559489272,0.09416858165999989,-0.09215827511528359,0.0264076081716303,0.20385498054962078,-0.2505186437111508,0.0007633615246969529,0.07119383657858998,-0.16400451989996231,-0.01960914278819446,-0.5782521469246807,0.46561926016416877
233,21.73094909999054,0.09996348042790656,0.09509896410884516,-0.09330242346207104,0.02641088545980571,0.20417363357460358,-0.25126171360498284,0.000676650204993747,0.06855247845839206,-0.1618749623997495,-0.018424025200091558,-0.5801151226583265,0.46830779984079657
234,21.735093700001016,0.10008392930483716,0.09603077224816231,-0.09444993829455396,0.026413779642555105,0.20448022181092096,-0.25199504409724577,0.0005953229502590763,0.06590282567501855,-0.1597332613541916,-0.01724826808724094,-0.5818894940875183,0.47094486676216624
235,21.739238699999987,0.10020439053459862,0.09696395097250171,-0.09560077507175624,0.026416315175560288,0.20477470835373507,-0.25271858034483824,0.0005193352670567383,0.06324528418325842,-0.1575796521627033,-0.016082664747369562,-0.5835744476464028,0.4735301713229734
236,21.743739499986987,0.10032486253716799,0.09789844501233778,-0.09675488900504797,0.026418516303354456,0.2050570581579544,-0.2534322685811607,0.0004486390400950344,0.06058026357494145,-0.15541437153080814,-0.014928010179358736,-0.5851692043050482,0.47606343104650795
237,21.752553999991505,0.10044534384258462,0.09883419894258787,-0.09791223506306822,0.02642040704277801,0.2053272380544735,-0.25413605612201345,0.00038318252505326517,0.057908176910094346,-0.15323765743428414,-0.013785100241884273,-0.5866730261158012,0.4785443737574167
238,21.75689559998864,0.10056583308987407,0.0997711571912035,-0.09907276797667439,0.026422011166423745,0.20558521676556532,-0.25482989137128415,0.00032291034791337425,0.05522944051108869,-0.15104974906106342,-0.012654730208261045,-0.588085222467715,0.4809727418958892
239,21.76033409999218,0.10068632902589654,0.10070926404782968,-0.10023644224391688,0.02642335218608656,0.20583096491924346,-0.2555137238263159,0.00026776351096716026,0.052544473736752764,-0.14885088673602975,-0.011537692900586812,-0.5894051509310313,0.48334829390567896
240,21.76424189998943,0.10080683050411979,0.10164846367252715,-0.10140321213503746,0.026424453336263438,0.20606445506259438,-0.25618750408290875,0.00021767940916569045,0.04985369876881731,-0.14664131185025855,-0.010434776678077531,-0.590632212572624,0.4856708010343326
241,21.768623699987074,0.10092733648331707,0.10258870010455327,-0.10257303169748948,0.026425337557752275,0.20628566167419177,-0.2568511838400427,0.0001725918544741461,0.04715754042875341,-0.1444212668149983,-0.009346764485725516,-0.591765846138678,0.4879400431244106
242,21.77268409999669,0.10104784602619052,0.1035299172711975,-0.10374585476097933,0.02642602748137399,0.20649456117575823,-0.2575047159044592,0.00013243110089806588,0.044456426017275855,-0.14219099502929727,-0.00827443367112133,-0.5928055248555766,0.4901558066442513
243,21.77681119999033,0.10116835829792055,0.1044720589966686,-0.1049216349425285,0.02642654541179961,0.2066911319431159,-0.25814805419508907,9.712387050888944e-05,0.0417507851603589,-0.13995074085194556,-0.007218555234766365,-0.5937507551846892,0.4923178834380934
244,21.78082469999208,0.10128887256464177,0.1054150690110301,-0.10610032565155535,0.02642691331150975,0.20687535431644358,-0.258781153747378,6.65933853078167e-05,0.03904104966009675,-0.1377007495805015,-0.0061798926779524045,-0.5946010760736445,0.4944260710550605
245,21.78508279999369,0.10140938819184608,0.10635889095918095,-0.10728188009497663,0.026427152784912304,0.2070472106098672,-0.259403970717523,4.0759403759406646e-05,0.03632765334754819,-0.13544126742023316,-0.005159200228119137,-0.5953560596503403,0.49648017599296707
246,21.79425969999284,0.10152990464271375,0.1073034684098785,-0.10846625128232797,0.026427285062635156,0.2072066851203748,-0.2600164623865152,1.9538268841280423e-05,0.033611031927267256,-0.13317254143355922,-0.004157220223060318,-0.5960153156482464,0.49848001930578867
247,21.8009325999883,0.10165042147637321,0.10824874486480049,-0.10965339203090216,0.026427330986082104,0.20735376413598894,-0.2606185871639146,2.8429684353876697e-06,0.030891622789786327,-0.13089481945784687,-0.0031746809348075053,-0.5965784975920824,0.5004254435757732
248,21.80623509999714,0.10177093834609129,0.10919466376764246,-0.11084325497090412,0.026427310992276364,0.2074884359429715,-0.26121030459114325,-9.416796774755948e-06,0.02816986479972959,-0.1286083499912626,-0.002212295142450466,-0.5970453039863126,0.5023163159370436
249,21.81047949999629,0.1018914549973948,0.11014116851324558,-0.11203579255061927,0.02642724509903578,0.20761069083206352,-0.2617915753442191,-1.7334539896036454e-05,0.02544619809745633,-0.12631338208299311,-0.0012707599308998147,-0.5974154728234713,0.5041525242999235
250,21.814243699991493,0.10201197126612552,0.11108820245675093,-0.11323095704159332,0.026427152890485847,0.2077205211038808,-0.2623623612360477,-2.1006918093094043e-05,0.022721063937261858,-0.12401016525353249,-0.00035075786206764355,-0.5976887728453268,0.5059339698162859
251,21.818557899998268,0.10213248707642968,0.11203570892277648,-0.11442870054382162,0.026427053502870917,0.20781792107367816,-0.2629226252184293,-2.0533669862186917e-05,0.01999490456872443,-0.12169894945362383,0.0005470418184172906,-0.5978649969764999,0.507660560041565
252,21.8230188999878,0.1022530024386835,0.1129836312146149,-0.11562897499094726,0.026426965610639334,0.20790288707566276,-0.2634723313839757,-1.6017556304537195e-05,0.017268163134795674,-0.11937998504691322,0.0014219832179536312,-0.5979439604539762,0.509332206317537
253,21.826973799994448,0.10237351744735582,0.11393191262344986,-0.11683173215546787,0.026426907412790267,0.20797541746682885,-0.2640114449679593,-7.564298065065997e-06,0.014541283570207508,-0.1170535227927619,0.0022734250402181412,-0.5979255006496011,0.510948823973859
254,21.830740499994132,0.10249403227880904,0.11488049643758878,-0.11803692365395058,0.02642689661953399,0.20803551263034462,-0.26453993235007345,4.717494733480831e-06,0.011814710501181531,-0.11471981382706219,0.0031007413534962338,-0.5978094775435397,0.5125103324915657
255,21.835153799998807,0.10261454718904015,0.11582932595171008,-0.11924450095225489,0.026426950439277765,0.20808317497847212,-0.2650577610561061,2.0716392559450183e-05,0.009088889139517681,-0.11237910964355839,0.00390332171901511,-0.5975957751122933,0.5140166553755969
256,21.83937009998772,0.10273506251136293,0.11677834447612251,-0.12045441537076293,0.026427085565925202,0.2081184089549882,-0.26556489975953007,4.031821770863403e-05,0.0063642651696440644,-0.11003166207582536,0.0046805719592325785,-0.5972843028134761,0.5154677201748273
257,21.843408599990653,0.10285557865403314,0.11772749534603448,-0.12166661808961678,0.026427318166511855,0.20814122103707425,-0.2660613182830122,6.340612138045901e-05,0.003641284629163518,-0.10767772327840677,0.005431915309915781,-0.5968749966825501,0.5168634587349784
258,21.847580399989965,0.102976096097818,0.11867672193083068,-0.1228810601539625,0.026427663869207557,0.2081516197366476,-0.26654698759983164,8.986066542201366e-05,0.0009203937859005379,-0.1053175457064869,0.0061567929322225235,-0.5963678206674546,0.5182038069797338
259,21.853746699998737,0.10309661539351192,0.1196259676433535,-0.12409769247920041,0.026428137751697587,0.20814961560112985,-0.26702187983520365,0.00011955990407473832,-0.001797960993724814,-0.10295138209902528,0.006854663785035444,-0.5957627680549947,0.5194887037262629
260,21.857604499993613,0.10321713715939998,0.12057517594918667,-0.1253164658562412,0.026428754329930578,0.2081352212135779,-0.2674859682675439,0.00015237946455406062,-0.004513333380659523,-0.10057948546923169,0.007525004990525868,-0.5950598626603305,0.520718090515047
261,21.861839799996236,0.10333766207867105,0.1215242903759379,-0.12653733095676772,0.02642952754723462,0.20810845119221202,-0.2679392273297056,0.0001881926321302552,-0.0072252772256926065,-0.09820210908925286,0.008167313443844216,-0.5942591622843393,0.5218919138974397
262,21.86857500000042,0.10345819089678207,0.12247325452251819,-0.12776023833850236,0.02643047076384116,0.20806932218924754,-0.268381632610104,0.00022687044538945736,-0.009933346726951021,-0.09581950645978347,0.008781109160542023,-0.5933607644752199,0.5230101295923806
263,21.872762099999814,0.10357872441877553,0.1234220120684138,-0.12898513845047913,0.02643159674686995,0.20801785288889524,-0.2688131608536764,0.0002682818118450945,-0.012637096624924057,-0.09343193125684109,0.009365940141886738,-0.592364813387161,0.5240727085703035
264,21.881633400000283,0.10369926350655242,0.12437050678294737,-0.13021198163831976,0.02643291766090738,0.2079540640044142,-0.2692337899625212,0.0003122936475735984,-0.015336082432514574,-0.09103963724588808,0.009921386893047326,-0.5912715064391512,0.5250796423416172
265,21.885506399994483,0.10381980907610386,0.12531868253452297,-0.13144071814951166,0.026434445059265007,0.2078779782740142,-0.26964349899607454,0.00035877103403450083,-0.018029860690795884,-0.08864287818037238,0.010447065880081161,-0.5900810970769985,0.5260309448098454
266,21.893520499987066,0.10394036209470423,0.12626648329984985,-0.1326712981386856,0.02643618987598818,0.2077896204555756,-0.2700422681708242,0.0004075773892360173,-0.020717989224254326,-0.08624190769894757,0.010942631724776788,-0.5887938935294534,0.5269266525952666
267,21.89773839998816,0.10406092357806991,0.12721385317313938,-0.13390367167289105,0.026438162418675696,0.20768901732022405,-0.2704300788595488,0.0004585746445734745,-0.02340002738520122,-0.08383697922106186,0.011407777296409894,-0.5874102558626779,0.5277668238631151
268,21.90183689999685,0.10418149458748703,0.12816073637527012,-0.1351377887368669,0.026440372362101318,0.20757619764482105,-0.270806913590079,0.0005116234168317658,-0.02607553628215035,-0.08142834585486569,0.011842231992070868,-0.5859305905649791,0.5285515337918325
269,21.905857099991408,0.10430207622691193,0.12910707726291631,-0.13637359923830558,0.026442828742602186,0.20745119220345565,-0.27117275604369734,0.0005665831693392958,-0.028744078974839347,-0.0790162603341331,0.012245759084418899,-0.5843553427028485,0.5292808689002235
270,21.910138299994287,0.10442266964004773,0.13005282033763538,-0.13761105301310914,0.02644553995317017,0.2073140337581565,-0.2715275910533238,0.0006233123597803026,-0.03140522063106535,-0.07660097497790921,0.012618153234429767,-0.5826849892441337,0.5299549232404221
271,21.91638739999325,0.1045432760074001,0.13099791025491164,-0.13885009983063676,0.02644851373918841,0.20716475704895287,-0.2718714046015475,0.0006816685786635146,-0.03405852866080955,-0.07418274166215406,0.012959239210400075,-0.5809200348115766,0.5305737960255784
272,21.92022289999295,0.10466389654331487,0.1319422918331532,-0.140090689398943,0.026451757194785597,0.2070033987833636,-0.27220418381855405,0.0007415086854509948,-0.03670357283434251,-0.07176181180102711,0.013268871467621885,-0.5790610098180021,0.5311375908597811
273,21.92442189999565,0.10478453249300057,0.1328859100626398,-0.14133277137000635,0.0264552767598141,0.20682999762538082,-0.27252591697998607,0.0008026889431931679,-0.039339925399340434,-0.06933843632555464,0.013546933764509316,-0.5771084703949098,0.5316464166856395
274,21.929203299994697,0.1049051851295385,0.1338287101144192,-0.14257629534494792,0.026459078217432187,0.2066445941838907,-0.27283659350467626,0.0008650651511565003,-0.04196716119833922,-0.06691286565627172,0.013793339088735097,-0.5750629980628248,0.5321003878617013
275,21.93364059999294,0.10502585575088319,0.13477063734914949,-0.14382121087923935,0.026463166692291804,0.206447231000586,-0.2731362039522584,0.0009284927787848478,-0.044584857782844135,-0.06448534968118351,0.014008030151669758,-0.5729252012310879,0.5324996254023217
276,21.93880289999652,0.10514654567685595,0.1357116373258851,-0.14506746748789975,0.02646754664934261,0.2062379525373461,-0.2734247400206993,0.0009928271028367271,-0.04719259554446285,-0.062056137717098864,0.014190980522317658,-0.5706957195490869,0.5328442622861528
277,21.945052799987025,0.10526725624613444,0.1366516558108041,-0.14631501465068106,0.02647222189327053,0.20601680516295334,-0.2737021945435571,0.0010579233516888667,-0.049789957868701065,-0.05962547843917489,0.014342195468468322,-0.5683752275294496,0.5331344474073255
278,21.94962210000085,0.10538798881324106,0.13759063878587313,-0.14756380181723996,0.02647719556861794,0.20578383713907053,-0.2739685614868708,0.001123636850145302,-0.052376531299141355,-0.057193619806213306,0.014461711060867013,-0.5659644349520977,0.5333703449101371
279,21.953249499987574,0.10550874474553365,0.13852853245744665,-0.14881377841229493,0.026482470160542948,0.20553909860545988,-0.27422383594573724,0.0011898231555704034,-0.05495190569492398,-0.05476080899627309,0.014549592380304408,-0.5634640831676566,0.5335521316365651
280,21.95753979998699,0.10562952542020082,0.1394652832647971,-0.15006489384076688,0.026488047496181208,0.205282641564524,-0.274468014140613,0.0012563381863455148,-0.05751567436121053,-0.0523272923552471,0.014605931414154257,-0.5608749397926286,0.5336799939398367
281,21.96175799999037,0.10575033222126501,0.14040083788857322,-0.15131709749290248,0.026493928746576814,0.20501451986533512,-0.27470109341342275,0.001323038338817096,-0.060067434158281426,-0.049893315361536905,0.014630845227303074,-0.5581977971732318,0.5337541252700816
282,21.965935299987905,0.10587116653659548,0.1413351432591845,-0.15257033874937936,0.026500114429110738,0.20473478918718094,-0.2749230722235389,0.001389780599071101,-0.06260678561798881,-0.0474591225966498,0.014624475925656322,-0.5554334729723054,0.5337747259547816
283,21.970307899988256,0.1059920297549335,0.14226814656510944,-0.1538245669863927,0.026506604410451187,0.20444350702253178,-0.27513395014362163,0.001456422659548275,-0.06513333305820701,-0.04502495771187607,0.014586991058487906,-0.5525828097275433,0.533742003562464
284,21.97477939999953,0.10611292326293228,0.14319979526112464,-0.15507973158072255,0.026513397910045637,0.20414073265954255,-0.27533372785529475,0.0015228230344882096,-0.06764668469525621,-0.042591063395568875,0.014518582758478957,-0.5496466760233069,0.5336561718490059
285,21.978690999996616,0.10623384844221397,0.14413003707645344,-0.1563357819147809,0.02652049350412412,0.20382652716399452,-0.27552240714468723,0.0015888411687012593,-0.07014645276904061,-0.040157681349431894,0.014419467083577817,-0.5466259671879661,0.5335174496151885
286,21.98251679999521,0.10635480666644608,0.14505882002283038,-0.15759266738163838,0.02652788913018332,0.20350095336065596,-0.2756999908978928,0.00165433754700995,-0.07263225366183225,-0.03772505226621901,0.014289884291350042,-0.5435216047420215,0.5333260605999292
287,21.98683859998709,0.10647579929843945,0.14598609240247978,-0.15885033739003,0.026535582091988037,0.20316407581414053,-0.2758664830963082,0.0017191738055231376,-0.07510370801837572,-0.03529341580699574,0.014130098564336498,-0.5403345366914065,0.5330822333388113
288,21.99113909999141,0.10659682768727027,0.14691180281600563,-0.16010874136933917,0.026543569065070168,0.2028159608091725,-0.2760218888118851,0.0017832128385725122,-0.0775604408673471,-0.03286301058012925,0.01394039746164491,-0.5370657370169767,0.5327862008991582
289,21.995303399991823,0.10671789316542817,0.1478359001701902,-0.16136782877456027,0.026551846102705497,0.20245667633033732,-0.27616621420227705,0.0018463189049849297,-0.08000208173680246,-0.030434074120966038,0.013721091168803696,-0.5337162051963853,0.5324382000799219
290,21.999468399997568,0.10683899704599273,0.14875833368569916,-0.16262754909123836,0.02656040864238196,0.2020862920412939,-0.276299466505906,0.0019083577281771168,-0.08242826477127599,-0.028006842878119463,0.01347251130860561,-0.5302869658400599,0.5320384707930823
291,22.0034764999873,0.10696014061984063,0.14967905290469072,-0.1638878518403867,0.026569251512689348,0.20170487926345726,-0.2764216540369838,0.0019691965915821564,-0.08483862884390844,-0.025581552198789492,0.013195010502681207,-0.5267790675217285,0.5315872565341037
292,22.00763999999617,0.107081325152885,0.15059800769832626,-0.16514868658338117,0.026578368940657918,0.20131251095418795,-0.27653278618044547,0.0020287044347454698,-0.08723281766287892,-0.023158436310759326,0.012888962169969688,-0.5231935818608701,0.531084804454672
293,22.012298999994528,0.10720255188334943,0.1515151482741805,-0.16641000292683145,0.02658775455952456,0.20090926168450407,-0.276632873386806,0.0020867519469132305,-0.08961047987516464,-0.02073772830705176,0.012554760563004183,-0.5195316031940532,0.5305313654761408
294,22.01626099999703,0.1073238220190782,0.1524304251835489,-0.1676717505274286,0.026597401416924994,0.20049520761632442,-0.27672192716695365,0.0021432116634592913,-0.09197126916997518,-0.018319660126891114,0.012192821445278654,-0.5157942487604545,0.529927196703209
295,22.023434399990947,0.10744513673488501,0.15334378932865028,-0.16893387909676882,0.026607301983539403,0.20007042647923698,-0.2767999600868336,0.0021979580656516055,-0.09431484438420426,-0.01590446251834534,0.011803582840935424,-0.5119826600901995,0.5292725650808127
296,22.027460400000564,0.10756649716994207,0.15425519196972232,-0.1701963384061524,0.026617448162194562,0.19963499754678038,-0.2768669857619001,0.0022508676839167706,-0.09664086961852654,-0.013492364985934834,0.011387505290639007,-0.5080980049048938,0.5285677502849346
297,22.031026599986944,0.10768790442521183,0.1551645847320078,-0.1714590782913569,0.026627831297451315,0.19918900161215347,-0.2769230188513223,0.002301819199940178,-0.09894901436018341,-0.011083595726908549,0.010945070662878453,-0.5041414761326529,0.5278130455614211
298,22.03493799999705,0.10780935956092348,0.1560719196126287,-0.1727220486573834,0.026638442185637917,0.1987325209633769,-0.2769680750518554,0.0023506935390888955,-0.10123895359009627,-0.00867838157120229,0.010476779940648212,-0.5001142870053326,0.5270087547304022
299,22.03894629998831,0.10793086359409627,0.15697714898734574,-0.17398519948317362,0.026649271085280462,0.19826563935802577,-0.27700217109149866,0.0023973739523249675,-0.10351036786093598,-0.006276947945036362,0.009983151374193299,-0.4960176654974685,0.5261551888930883
300,22.044222699987586,0.10805241749611111,0.15788022561720208,-0.1752484808262984,0.02666030772788333,0.19778844199767914,-0.2770253247230347,0.0024417460917801844,-0.10576294335351583,-0.003879518840909949,0.009464719127067625,-0.4918528515105218,0.5252526652953323
301,22.04805909999413,0.10817402219033215,0.15878110265504988,-0.17651184282761592,0.026671541329048906,0.19730101550213838,-0.2770375547174138,0.002483698080320594,-0.10799637192917955,-0.0014863167915637663,0.008922031684961765,-0.4876210957731506,0.524301506486812
302,22.05232969998906,0.10829567854977988,0.15967973365195878,-0.17777523571589973,0.02668296059989249,0.19680344788339885,-0.27703888085705564,0.002523120572608787,-0.11021035117616407,0.0009024371523567757,0.008355650392571506,-0.4833236588535847,0.523302041200551
303,22.055995499991692,0.10841738739485682,0.16057607256350512,-0.179038609812436,0.02669455375871894,0.19629582851944535,-0.2770293239290299,0.002559906811323742,-0.1124045844529798,0.0032865234563606983,0.007766148630255511,-0.4789618112003252,0.5222546055240594
304,22.060323699988658,0.10853914949112706,0.16147007375594136,-0.18030191553558927,0.026706308542950367,0.19577824812782824,-0.2770089057180474,0.002593952680713715,-0.11457878093514454,0.005665724135129814,0.007154111375192008,-0.4745368328088248,0.5211595424922695
305,22.066697299989755,0.10866096554715077,0.16236169201224435,-0.18156510340533585,0.026718212221291185,0.19525079873903256,-0.2769776489993397,0.00262515675881356,-0.11673265565552372,0.008039822782865188,0.00652013479869554,-0.4700500124901145,0.5200172026787785
306,22.070296799996868,0.10878283621237471,0.16325088253804185,-0.18282812404776458,0.026730251606132065,0.19471357366968625,-0.27693557753137305,0.0026534203673248984,-0.11886592954439375,0.010408604611697988,0.005864825717891874,-0.4655026482755203,0.5188279449625942
307,22.07429379998939,0.10890476207507985,0.16413760096741642,-0.18409092819954373,0.02674241306616994,0.1941666674955639,-0.276882716048378,0.0026786476188323713,-0.12097832947347345,0.012771856489029147,0.005188801467426606,-0.4608960474136641,0.517592136522796
308,22.07903599999554,0.10902674366038698,0.16502180336858574,-0.18535346671235373,0.026754682539242586,0.19361017602439334,-0.27681909025272283,0.002700745465513713,-0.12306958829596011,0.01512936697589152,0.004492690100452395,-0.45623152600744915,0.5163101530273849
309,22.082877499997267,0.10914878142832139,0.16590344624945846,-0.18661569055728444,0.026767045545392897,0.19304419626849423,-0.276744726807093,0.0027196237481891326,-0.12513944488725,0.017480926366011975,0.0037771300051309773,-0.45151040989024077,0.5149823789636054
310,22.086844299992663,0.10927087577193767,0.166782486563065,-0.18787755082919658,0.026779487200150824,0.19246882641721325,-0.2766596533265085,0.0027351952415336452,-0.12718764419296574,0.01982632672718629,0.0030427693004206535,-0.4467340371139553,0.5136092094250176
311,22.093480799987447,0.10939302701550548,0.16765888171286192,-0.18913899875104617,0.02679199222801002,0.1918841658091247,-0.27656389837012585,0.002747375697615661,-0.12921393729236968,0.02216536195664045,0.0022902658729035096,-0.4419037616446407,0.5121910539926029
312,22.09765029999835,0.10951523541275726,0.16853258955790926,-0.1903999856781712,0.02680454497610688,0.19129031490388732,-0.2764574914327506,0.0027560838914452027,-0.1312180814800973,0.02449782785780365,0.0015202873037145526,-0.4370209559953939,0.5107283405751657
313,22.101625999988755,0.10963750114519884,0.1694035684179182,-0.1916604631025387,0.0268171294281126,0.19068737525369933,-0.2763404629359391,0.002761241663846044,-0.1331998403535845,0.02682352223069645,0.000733509606105712,-0.43208701166611274,0.5092215150429793
314,22.105740399987557,0.10975982432048377,0.170271777078168,-0.19292038265695016,0.02682972921830325,0.19007544947435795,-0.2762128442186865,0.0027627739554897243,-0.1351589838988117,0.029142244945362387,-6.938440205360062e-05,-0.42710333669109685,0.5076710371331355
315,22.11029719999351,0.10988220497085228,0.1711371747942898,-0.19417969611920374,0.026842327645762252,0.18945464121593242,-0.2760746675278589,0.002760608834923879,-0.13709528855536376,0.03145379799491037,-0.0008877064887121822,-0.4220713515070452,0.5060773771163024
316,22.114275699990685,0.1100046430516352,0.17199972129691596,-0.19543835541621243,0.026854907688706065,0.18882505513323003,-0.2759259660083975,0.0027546775199246173,-0.1390085372644877,0.03375798553854506,-0.0017207644343576927,-0.4169924873795197,0.5044410125088608
317,22.11835349998728,0.11012713843982347,0.17285937679619456,-0.19669631262807688,0.026867452018881428,0.18818679685603093,-0.27576677369335834,0.0027449143925122703,-0.14089851951980092,0.036054613924621906,-0.0025678629098703034,-0.4118681854877248,0.5027624258741012
318,22.12260740000056,0.11024969093270347,0.17371610198616733,-0.19795351999211272,0.026879943016027995,0.1875399729590916,-0.2755971254939061,0.0027312570122971984,-0.14276503140700159,0.038343491713623064,-0.0034283039704197907,-0.40669989538734597,0.501042105627672
319,22.126851399996667,0.11037230024655842,0.17456985804901043,-0.19920992990683214,0.026892362782397296,0.18688469093201754,-0.2754170571891443,0.0027136461269908906,-0.14460787564055697,0.04062442970855861,-0.00430138734829189,-0.40148907460982275,0.4992805459308075
320,22.13108500000089,0.11049496601543608,0.17542060665913767,-0.20046549493587848,0.026904693157311244,0.18622105914893203,-0.27522660541583194,0.002692025683081013,-0.1464268615997589,0.04289724097696866,-0.005186410599114087,-0.39623718723629625,0.4974782452609415
321,22.135250899998937,0.110617687789983,0.17626830998716467,-0.20172016781191396,0.026916915731778457,0.18554918683802002,-0.27502580765801293,0.002666342835008838,-0.14822180535240573,0.04516174086828768,-0.006082669778429871,-0.3909457034184838,0.4956357058264672
322,22.139444499989622,0.11074046503634548,0.17711293070373424,-0.2029739014404597,0.026929011863136468,0.18486918405098096,-0.27481470223657434,0.0026365479496735147,-0.14999252968648777,0.04741774703050882,-0.006989460283392392,-0.38561610014941566,0.49375343411527456
323,22.14357439999003,0.11086329713513737,0.177954431983202,-0.2042266489036883,0.02694096268970913,0.1841811616322836,-0.2745933282987238,0.0026025946079327278,-0.15173886414089888,0.04966507943255128,-0.007906077602660594,-0.38024985983805554,0.4918319406051336
324,22.147629899991443,0.11098618338047476,0.17879277750718126,-0.20547836346416776,0.02695274914546251,0.18348523118833873,-0.27436172580734386,0.002564439602267449,-0.15346064502412157,0.051903560378283135,-0.008831817901718267,-0.3748484689896947,0.4898717384777768
325,22.151776999991853,0.11110912297907742,0.17962793146794756,-0.206728998568557,0.026964351974641008,0.1827815050565836,-0.2741199355303415,0.002522042932944122,-0.15515771543290297,0.05413301451716031,-0.00976597829701565,-0.36941341802241306,0.4878733443923189
326,22.156098999999813,0.11123211504943695,0.18045985857170158,-0.20797850785125274,0.026975751746388228,0.18207009627448434,-0.2738679990299053,0.002475367803179072,-0.1568299252692659,0.0563532688653035,-0.010707857112260381,-0.3639462010141944,0.48583727881424144
327,22.16011409999919,0.11135515862105161,0.18128852404169085,-0.20922684513798692,0.026986928869339,0.1813511185484651,-0.2736059586516628,0.0024243806129631566,-0.1584771312568784,0.058564152819137696,-0.011656753512811894,-0.3584483151900864,0.4837640653133807
328,22.164216399993165,0.11147825263372757,0.1821138936211894,-0.21047396444937472,0.026997863606183944,0.18062468622276134,-0.2733338575138135,0.0023690509575607275,-0.16009919695338742,0.0607654981700663,-0.012611966608934377,-0.3529212608461089,0.48165423148748926
329,22.168380099989008,0.11160139593694655,0.18293593357633536,-0.2117198200044129,0.027008536088247777,0.1798909142482364,-0.27305173949615197,0.002309351629513172,-0.16169599276609428,0.06295713912653411,-0.01357279523658371,-0.3473665416812728,0.47950830881342277
330,22.17260669999814,0.11172458728930004,0.18375461069882615,-0.21296436622392764,0.027018926330072166,0.1791499181510917,-0.27275964922899976,0.0022452586191372328,-0.1632673959673166,0.06513891232734417,-0.014538538341447377,-0.3417856637365248,0.4773268320198675
331,22.178741999989143,0.11184782535798994,0.18456989230847073,-0.21420755773397204,0.02702901424399858,0.1784018140015435,-0.27245763208210727,0.002176751113025869,-0.16481329070038628,0.06731065685799964,-0.01550849525325292,-0.33618013462433677,0.47511033997153707
332,22.182613400000264,0.11197110871839579,0.18538174625559914,-0.21544934936917265,0.027038779654737458,0.17764671838247814,-0.2721457341534364,0.00210381149204471,-0.16633356798798482,0.06947221427208507,-0.016481965393358864,-0.3305514642627657,0.4728593749718158
333,22.18678039999213,0.11209443585370829,0.1861901409233288,-0.21668969617602463,0.0270482023139328,0.17688474835805276,-0.27182400225786746,0.0020264253324998698,-0.16782812574483638,0.07162342860124793,-0.017458248146462994,-0.32490116491214555,0.4705744812633073
334,22.19092689998797,0.11221780515462938,0.1869950452296877,-0.21792855341613537,0.027057261914741986,0.17611602144223498,-0.27149248391589076,0.0019445814053045025,-0.16929686878637773,0.07376414636290399,-0.018436643537427196,-0.31923075011204505,0.46825620495510034
335,22.195505099996808,0.11234121491913873,0.1877964286295938,-0.2191658765694165,0.027065938106392753,0.1753406555673244,-0.2711512273422433,0.0018582716709735513,-0.1707397088317557,0.07589421656955543,-0.01941645331049397,-0.3135417346819463,0.46590509343219094
336,22.20025209999585,0.11246466335232656,0.18859426111669103,-0.2204016213372238,0.027074210508717375,0.17455876905246492,-0.2708002814345153,0.001767491268947178,-0.17215656451250338,0.0780134907311098,-0.02039698233782256,-0.30783563512498174,0.46352169393743786
337,22.204394999993383,0.11258814856629273,0.18938851322504155,-0.22163574364544533,0.02708205872661226,0.17377048057208722,-0.2704396957617658,0.0016722384997387867,-0.17354736137921983,0.08012182285126469,-0.021377539972972075,-0.30211396867664625,0.4611065529843181
338,22.208636199997272,0.11271166858011143,0.19017915603067395,-0.22286819964753757,0.027089462364409303,0.17297590912436006,-0.2700695205531622,0.001572514801913845,-0.17491203190156995,0.08221906942447063,-0.022357442227351348,-0.2963782542540796,0.4586602186178038
339,22.217963099988992,0.11283522131986133,0.19096616115298776,-0.22409894572750982,0.027096401040125527,0.17217517399963278,-0.2696898066866234,0.0014683247143873297,-0.1762505154836223,0.08430508945293638,-0.023336015630139248,-0.2906300166638137,0.4561832445530447
340,22.22281319998729,0.11295880461872025,0.19174950075601377,-0.22532793850285684,0.027102854399490558,0.17136839474874677,-0.2693006056773044,0.0013596758181976742,-0.1775627585022262,0.0863797444813392,-0.024312601087537966,-0.28487078942017746,0.4536761920805596
341,22.226781699995627,0.11308241621712325,0.19252914754952957,-0.22655513482743822,0.027108802129665203,0.17055569115112784,-0.26890196966592284,0.001246578663605422,-0.1788487143480551,0.08844289863120665,-0.02528655554718326,-0.27910211269565044,0.4511396289311319
342,22.230973999990965,0.11320605376298243,0.19330507479002887,-0.22778049179430448,0.027114223972604032,0.16973718318272346,-0.2684939514069299,0.0011290466966867169,-0.18010834344528975,0.090494418625274,-0.02625725146800371,-0.27332552838170615,0.4485741241121157
343,22.235142699995777,0.11332971481196685,0.19407725628154454,-0.22900396673846865,0.027119099738104432,0.16891299098391555,-0.2680766042566148,0.00100709619126717,-0.18134161324761333,0.09253417377476998,-0.02722407579551611,-0.26754257591844954,0.4459802408138757
344,22.2392167999933,0.1134533968278414,0.19484566637632533,-0.2302255172396238,0.02712340931654839,0.1680832348274942,-0.26764998216139163,0.0008807461848612937,-0.18254849821985825,0.09456203593907643,-0.02818642902921007,-0.26175478958795184,0.4433585319874864
345,22.243370799988043,0.11357709718286293,0.1956102799753668,-0.23144510112480784,0.02712713269136727,0.167248035086738,-0.26721413964627183,0.0007500184191124019,-0.1837289798093149,0.09657787947267994,-0.029143725314053626,-0.25596369642925165,0.4407095382159986
346,22.24752499999886,0.11370081315823276,0.19637107252879693,-0.23266267647101588,0.027130249951240377,0.16640751220364927,-0.26676913180363476,0.0006149372748974551,-0.18488304640836198,0.09858158116541618,-0.030095393556078223,-0.25017081499413235,0.43803378823026246
347,22.251678399989032,0.11382454194460409,0.19712802003611726,-0.23387820160776257,0.027132741301967845,0.1655617866573753,-0.2663150142822452,0.00047552970259213186,-0.18601069331442707,0.1005730201941261,-0.031040877550503276,-0.24437765523734242,0.43533179883687106
348,22.2559770999942,0.11394828064264283,0.19788109904630055,-0.2350916351195944,0.027134587078033172,0.16471097893280887,-0.2658518432764649,0.000331825156007098,-0.18711192269161575,0.10255207806224309,-0.03197963548792261,-0.23858571866276207,0.432604072095406
349,22.26050279999617,0.11407202626364044,0.19863028665774557,-0.2363029358485536,0.027135767753873576,0.16385520948935922,-0.26537967551582103,0.00018385552715696478,-0.18818674353200535,0.1045186385257039,-0.03291114006407787,-0.2327964976283591,0.42985109499679564
350,22.26422779999848,0.11419577573017753,0.19937556051808983,-0.23751206289659524,0.027136263954847573,0.1629945987299058,-0.2648985682548936,3.165507919535712e-05,-0.18923517161093473,0.1064725875296022,-0.033834878406495524,-0.2270114752374382,0.42707334070519193
351,22.268315799999986,0.11431952587683679,0.20011689882388128,-0.2387189756279589,0.027136056467893663,0.16212926696997695,-0.2644085792634615,-0.00012473961814701297,-0.19025722944730625,0.10841381314542627,-0.034750351635601716,-0.22123212588651758,0.4242712674175194
352,22.27266639999289,0.11444327345096375,0.20085428032010993,-0.23992363367149602,0.027135126251909062,0.16125933440706572,-0.2639097668169624,-0.00028528975162437205,-0.1912529462638725,0.11034220549731084,-0.035657074425837106,-0.21545991420360153,0.4214453177495543
353,22.27680169999076,0.11456701511347439,0.20158768429959967,-0.24112599692295444,0.027133454447833223,0.16038492109017077,-0.2634021896873114,-0.00044995432503490624,-0.19222235793785458,0.11225765669367549,-0.03655457363365597,-0.2096962947569066,0.4185959205983959
354,22.28078209998785,0.11469074743970788,0.20231709060226205,-0.24232602554722202,0.027131022388474233,0.15950614688956255,-0.2628859071339845,-0.0006186902097692846,-0.19316550695857237,0.1141600607704634,-0.03744238725505401,-0.20394271238454023,0.4157234920560207
355,22.284820399989258,0.11481446692032378,0.20304247961421243,-0.2435236799805299,0.0271278116081313,0.1586231314667107,-0.2623609788953551,-0.0007914521958616857,-0.19408244238106961,0.11604931363111186,-0.038320064663257936,-0.19820060138768109,0.41282843585105583
356,22.2889981999906,0.11493816996224258,0.20376383226674943,-0.24471892093261707,0.027123803851955532,0.15773599424447313,-0.2618274651803245,-0.000968193044706197,-0.1949732197763854,0.11792531299382038,-0.039187166206167204,-0.19247138534841496,0.409911145979329
357,22.29322300000058,0.11506185288962828,0.2044811300351992,-0.24591170938885734,0.027118981085091618,0.15684485437747703,-0.26128542666013976,-0.0011488635364362604,-0.19583790118351796,0.11978795835551337,-0.04004326313353332,-0.18675647661958755,0.4069720098162205
358,22.301621399994477,0.11518551194491225,0.20519435493762467,-0.2471020066123492,0.027113325501606476,0.15594983072274604,-0.26073492446035285,-0.0013334125219769011,-0.1966765550550432,0.12163715096749485,-0.04088793909666813,-0.18105727547995434,0.40401141199311735
359,22.306044599987217,0.1153091432898573,0.205903489533402,-0.24828977414596956,0.027106819533156187,0.15505104181057727,-0.2601760201528603,-0.0015217869841024462,-0.19748925620137292,0.12347279383476682,-0.04172079130068952,-0.17537516998973057,0.4010297388610789
360,22.310019399999877,0.11543274300666057,0.20660851692166426,-0.2494749738143909,0.027099445857357757,0.15414860581567685,-0.25960877574786884,-0.0017139320999979512,-0.19827608573505595,0.12529479173239538,-0.04254143055957495,-0.16971153511472828,0.3980273792222133
361,22.31412989999808,0.11555630709909395,0.20730942073961442,-0.2506575677260618,0.027091187405885456,0.15324264052854497,-0.25903325368578567,-0.0019097913028190408,-0.1990371310070479,0.1271030512114997,-0.0433494806193782,-0.1640677305999586,0.39500472231638517
362,22.318503699993016,0.11567983149368086,0.20800618516070818,-0.2518375182751501,0.02708202737228111,0.1523332633271927,-0.2584495168291295,-0.0021093063380806516,-0.1997724855316182,0.12889748059725564,-0.044144576731383445,-0.1584450997644587,0.39196215636113313
363,22.32246640000085,0.11580331204090781,0.20869879489270904,-0.2530147881434497,0.02707194921953614,0.15142059114921186,-0.2578576284544389,-0.0023124173122031503,-0.20048224891162797,0.1306779899815679,-0.04492636503020881,-0.15284496858906274,0.38890006778158714
364,22.3266922999901,0.1159267445164704,0.2093872351756163,-0.2541893403022498,0.02706093668745909,0.15050474046417348,-0.25725765224425035,-0.0025190627432289925,-0.20116652675511698,0.13244449121405,-0.04569450306436421,-0.14726864446987828,0.3858188419018063
365,22.330712199996924,0.11605012462255211,0.21007149177946843,-0.2553611380141687,0.02704897379979509,0.14958582724645836,-0.25664965227908887,-0.0027291796142078603,-0.2018254305892124,0.1341968979010018,-0.04644865999740496,-0.14171741643747945,0.38271886357338886
366,22.335009199989145,0.11617344798913513,0.21075155100202325,-0.2565301448349499,0.027036044871106488,0.1486639669484407,-0.2560336930294552,-0.002942703425747966,-0.20245907777871494,0.1359351254021229,-0.047188516626199606,-0.13619255490233081,0.379600516660973
367,22.33906929999648,0.11629671017534199,0.2114273996663167,-0.2576963246152227,0.027022134513413,0.1477392744740613,-0.2554098393478466,-0.003159568249567804,-0.20306759143768574,0.13765909082479755,-0.047913766094290676,-0.1306953094966921,0.3764641849891613
368,22.343276199986576,0.11641990667080693,0.21209902511810208,-0.25885964150222573,0.027007227642583922,0.1468118641528175,-0.25477815646079605,-0.003379706787553749,-0.20365110032834932,0.1393687130294445,-0.04862411433090451,-0.12522690797521027,0.3733102540695265
369,22.34761289999005,0.11654303289707581,0.21276641522317147,-0.2600200599414949,0.02699130948443965,0.1458818497142585,-0.2541387099608442,-0.0036030504293158494,-0.2042097387626532,0.14106391263955348,-0.04931927975833356,-0.11978855742276766,0.3701391113862314
370,22.353249299994783,0.11666608420903317,0.2134295583645624,-0.2611775446785137,0.026974365580618928,0.1449493442628731,-0.25349156579848725,-0.0038295293085765713,-0.20474364651218713,0.14274461204963992,-0.049998993712553806,-0.11438144367158468,0.3669511472027997
371,22.35668509999232,0.11678905589635562,0.2140884434396503,-0.26233206076032745,0.026956381794166078,0.1440144602534066,-0.2528367902740762,-0.004059072364562885,-0.2052529687044264,0.14441073544263971,-0.050663000406605686,-0.10900672935964889,0.36374675478701485
372,22.36059969999769,0.11691194318498986,0.21474305985712996,-0.26348357353712015,0.026937344314838314,0.14307730946669497,-0.252174450029606,-0.004291607398061017,-0.20573785571494266,0.14606220879991522,-0.05131105616268081,-0.10366555378358402,0.36052632945065527
373,22.364293599996017,0.1170347412386545,0.2153933975338876,-0.26463204866375367,0.026917239664181712,0.1421380029859647,-0.25150461204052366,-0.004527061125804693,-0.20619846306230535,0.1476989599098917,-0.051942929192158024,-0.098359033852914,0.3572902690679767
374,22.368356899998616,0.11715744516036435,0.2160394468917661,-0.2657774521012697,0.026896054700342478,0.14119665117362562,-0.2508273436074387,-0.004765359234523682,-0.20663495130899603,0.14932091838279235,-0.0525583994494191,-0.09308826467462186,0.35403897451483207
375,22.37277929999982,0.11728004999397612,0.21668119885422557,-0.2669197501183535,0.026873776622649954,0.1402533636484745,-0.25014271234779667,-0.0050064264339987445,-0.20704748596164124,0.15092801566327965,-0.05315725876026614,-0.08785431848945643,0.3507728498101271
376,22.376925299991854,0.11740255072575456,0.21731864484290056,-0.26805890929276,0.026850392975943996,0.1393082492633977,-0.2494507861874744,-0.005250186512281425,-0.20743623736222538,0.1525201850464806,-0.05373931032756521,-0.0826582448564365,0.34749230116956875
377,22.38098699999682,0.11752494228595757,0.2179517767740572,-0.26919489651270073,0.026825891654654342,0.1383614160835671,-0.24875163335230743,-0.005496562384240163,-0.20780138059000636,0.15409736168199772,-0.05430436778019643,-0.07750107222939379,0.3441977351014889
378,22.384950399995432,0.11764721955043955,0.21858058705495165,-0.27032767897819265,0.026800260906685212,0.13741297136503736,-0.24804532235964855,-0.0057454761381059176,-0.20814309536710748,0.15565948257256695,-0.05485225537450036,-0.07238380740343618,0.34088955811354077
379,22.38923709999653,0.11776937734227198,0.219205068580092,-0.27145722420236823,0.02677348933707016,0.13646302153380271,-0.24733192200990753,-0.005996849085855595,-0.20846156595538454,0.15720648657539357,-0.05538280812211015,-0.06730743500276751,0.3375681775909052
380,22.39341209999111,0.11789141043338008,0.21982521472740574,-0.27258350001274695,0.026745565911397144,0.135511672165335,-0.2466115013780975,-0.0062506018109235815,-0.20875698105734627,0.15873831440881986,-0.055895871369167606,-0.062272918911754994,0.33423400165247663
381,22.397752399992896,0.11801331354619463,0.22044101935431493,-0.2737064745524684,0.026716479959028212,0.1345590279645442,-0.24588412980531388,-0.006506654214747362,-0.2090295337260737,0.16025490865234937,-0.05639130072346048,-0.05728120358821709,0.3308874366601071
382,22.401933599991025,0.11813508135531797,0.22105247679372098,-0.27482611628148595,0.026686221176100054,0.13360519274613789,-0.24514987689028042,-0.0067649255638144975,-0.20927942127811855,0.16175621373059734,-0.05686896205425592,-0.05233321402770582,0.3275288870717948
383,22.40589699998964,0.11825670848920325,0.2216595818499007,-0.2759423939777229,0.02665477962831459,0.13265026941537633,-0.24440881248097462,-0.007025334536206723,-0.20950684520309687,0.16324217591197596,-0.05732873205926827,-0.04742985514256987,0.32415875734754024
384,22.409870499992397,0.11837818953184584,0.2222623297943155,-0.2770552767381897,0.02662214575351501,0.13169435994925643,-0.2436610066661858,-0.007287799273818029,-0.20971201107092413,0.16471274331002733,-0.05777049903282272,-0.042572012199065964,0.3207774514341809
385,22.414048799997545,0.11849951902448605,0.2228607163613359,-0.2781647339800629,0.026588310364000098,0.1307375653781129,-0.24290652976712818,-0.007552237435904886,-0.20989512844539548,0.16616786587741017,-0.05819416229905429,-0.03776055173455717,0.3173853724010296
386,22.418171599987545,0.11862069146732171,0.22345473774388278,-0.27927073544172626,0.02655326464861186,0.12977998576759042,-0.242145452329054,-0.007818566246134747,-0.21005641079978637,0.16760749540390954,-0.05859963173640378,-0.03299632148246233,0.31398292280557205
387,22.422416499990504,0.11874170132122988,0.2240443905889876,-0.28037325118377293,0.02651700017462074,0.1288217202010146,-0.24137784511288465,-0.008086702541799384,-0.21019607542974825,0.1690315855137589,-0.0589868285637987,-0.028280149602493088,0.31057050520496526
388,22.42693869999493,0.11886254300949665,0.22462967199327286,-0.28147225158997025,0.026479508889364397,0.12786286676215855,-0.2406037790868482,-0.008356562828033848,-0.21031434336188845,0.1704400916683151,-0.059355685596944235,-0.023612844245569274,0.3071485225213727
389,22.431317099995795,0.1189832109195538,0.22521057949835505,-0.2825677073681858,0.0264407831216384,0.1269035225184477,-0.23982332541808624,-0.008628063329367334,-0.2104114392626977,0.17183297116671248,-0.05970614671780788,-0.018995194393142574,0.3037173781894669
390,22.435254299998636,0.11910369940472125,0.225787111086172,-0.28365958955127557,0.026400815582864827,0.12594378350455696,-0.23903655546428523,-0.008901120039103516,-0.21048759135478515,0.1732101831498831,-0.06003816683804169,-0.01442796949082361,0.3002774762308316
391,22.439437799999723,0.11922400278595441,0.22635926517423618,-0.2847478694979336,0.026359599368032595,0.12498374470637953,-0.2382435407652469,-0.0091756487705378,-0.21054303132246427,0.17457168860188954,-0.06035171189910678,-0.00991191747430695,0.29682922059195715
392,22.443431599996984,0.11934411535359521,0.2269270406108159,-0.2858325188935034,0.026317127956398914,0.12402350004548525,-0.23744435303450737,-0.009451565206338792,-0.21057799420998316,0.17591745034790726,-0.06064675848810965,-0.0054477653893068205,0.29337301653696457
393,22.448272099994934,0.11946403136912583,0.22749043667004676,-0.28691350975075114,0.02627339521197923,0.1230631423640175,-0.23663906415092587,-0.00972878494626174,-0.21059271833276463,0.1772474330682598,-0.060923293983942854,-0.0010362201983462821,0.2899092717443259
394,22.452190799987875,0.1195837450669242,0.2280494530469752,-0.28799081441060015,0.026228395383813507,0.12210276340996115,-0.23582774615017596,-0.010007223557862896,-0.2105874451829949,0.17856160330640394,-0.06118131712442057,0.003322033597912852,0.286438396965485
395,22.46038169998792,0.11970325065602015,0.22860408985253552,-0.2890644055428268,0.026182123105993615,0.12114245382290059,-0.23501047121626137,-0.010286796629385588,-0.21056241931916878,0.179859929488972,-0.061420839433207836,0.007626335680308847,0.2829608099773923
396,22.46501770000032,0.11982254232185122,0.2291543476084636,-0.2901342561467175,0.026134573397447264,0.12018230312029504,-0.23418731167282442,-0.010567419833489064,-0.2105178882559941,0.18114238196980653,-0.06164188704868238,0.011876049471268973,0.27947693755308983
397,22.4686001999944,0.11994161422801675,0.22970022724214867,-0.29120033955168523,0.026085741661384148,0.11922239968424073,-0.23335833997426023,-0.010849008996814923,-0.21045410235794926,0.18240893306797554,-0.06184449990088466,0.016070562245763368,0.2759872142958915
398,22.47248959999706,0.12006046051802867,0.2302417300814263,-0.29226262941784553,0.026035623684445383,0.11826283074871703,-0.23252362869667845,-0.011131480156209227,-0.21037131472817566,0.18365955710117424,-0.062028729882612835,0.020209285898861718,0.2724920808840182
399,22.476942199995392,0.12017907531705789,0.2307788578493139,-0.2933210997365507,0.025984215635636874,0.11730368238736204,-0.2316832505287128,-0.011414749611608186,-0.2102697810950346,0.18489423040773023,-0.06219464095894761,0.024291656580054152,0.268991983114337
400,22.48888479999732,0.12029745273367529,0.23131161265869218,-0.2943757248308818,0.025931514064996403,0.11634503950175334,-0.23083727826228212,-0.011698733983259203,-0.21014975970433503,0.18611293137128357,-0.06234230945970275,0.02831713531536281,0.2654873750520936
401,22.493447999993805,0.12041558686158596,0.2318399970069338,-0.2954264793560988,0.025877515902005103,0.11538698581016656,-0.22998578478317477,-0.011983350267273884,-0.21001151120021627,0.18731564047151944,-0.06247182371398608,0.03228520987263879,0.26197872246991327
402,22.497586499986937,0.12053347178135575,0.23236401377048221,-0.29647333830004646,0.025822218453747867,0.11442960383694253,-0.229128843061347,-0.01226851588951606,-0.20985529850036322,0.18850234034021407,-0.06258328293453146,0.03619539326095834,0.258466502114428
403,22.501801099992008,0.12065110156212869,0.23288366619938342,-0.2975162769835161,0.025765619402833333,0.11347297490238399,-0.2282665261409962,-0.012554148750979209,-0.20968138669057548,0.1896730158052786,-0.06267679485761167,0.04004722076939319,0.2549511971712031
404,22.505924999990384,0.12076847026333457,0.23339895791177262,-0.2985552710605612,0.02570771680514042,0.11251717911308434,-0.22739890713045752,-0.012840167260149008,-0.20949004292699078,0.19082765390544226,-0.06275247318238136,0.043840249454346544,0.2514332905328474
405,22.512468699991587,0.12088557193638583,0.23390989288831782,-0.2995902965187664,0.025648509087443153,0.11156229535271608,-0.22652605919214316,-0.013126490355025975,-0.20928153633532995,0.1919662438728973,-0.06281043581529583,0.047574057003292335,0.24791326180009987
406,22.516175199998543,0.12100240062636346,0.2344164754666224,-0.3006213296794719,0.025587995044956326,0.11060840127327859,-0.2256480555325974,-0.01341303751947603,-0.20905613792348374,0.1930887771206301,-0.06285080411983883,0.0512482391761049,0.24439158823209226
407,22.52008709999791,0.12111895037369151,0.2349187103355889,-0.30164834719795175,0.025526173838811204,0.10965557328668375,-0.22476496939255136,-0.013699728798410185,-0.20881412050409448,0.1941952472337332,-0.06287370231276816,0.05486240969613792,0.24086874452680268
408,22.52447619999293,0.12123521521579997,0.2354166025297449,-0.3026713260635471,0.02546304499346275,0.10870388655670989,-0.22387687403705725,-0.013986484808628484,-0.2085557586081363,0.1952856499547339,-0.0628792564217285,0.05841620054015607,0.2373452022368102
409,22.529375799989797,0.12135118918877562,0.23591015742353336,-0.30369024359975477,0.02539860839406641,0.10775341499137557,-0.222983842745677,-0.01427322674449248,-0.20828132840485244,0.1963599831695777,-0.06286759399267419,0.06190926047591985,0.23382143013332457
410,22.533639999994197,0.12146686632900099,0.23639938072556899,-0.3047050774642712,0.02533286428383361,0.10680423123562377,-0.22208594880274432,-0.01455987638610069,-0.20799110762867362,0.19741824689627707,-0.06283884474830138,0.06534125473537084,0.23029789647639481
411,22.539233999996213,0.1215822406747811,0.23688427847286184,-0.30571580564899203,0.025265813261333966,0.10585640666436223,-0.22118326548765685,-0.014846356110966378,-0.2076853755021361,0.19846044329160048,-0.06279314111827217,0.06871186501146061,0.22677507194108157
412,22.543461499997647,0.12169730626795781,0.23736485702501017,-0.3067224064799673,0.025197456277744286,0.10491001137585064,-0.2202758660650772,-0.015132588907028986,-0.2073644126628289,0.19948657666640987,-0.06273061889772946,0.0720207879590168,0.22325343151697438
413,22.547569799993653,0.12181205715551148,0.2378411230583638,-0.3077248586173119,0.025127794634032103,0.1039651141854073,-0.21936382377508531,-0.015418498390337978,-0.20702850109998505,0.20049665350967433,-0.06265141768672526,0.07526773369679897,0.21973345619449886
414,22.553362099992228,0.12192648739114959,0.2383130835601595,-0.3087231410550711,0.02505682997804338,0.10302178261937461,-0.21844721182316035,-0.01570400882207214,-0.2066779240950909,0.20149068251918778,-0.06255568026798991,0.07845242587823094,0.2162156312095509
415,22.55776119999064,0.12204059103688186,0.23878074582262937,-0.30971723312103927,0.024984564301530836,0.10208008290936746,-0.21752610337005293,-0.01598904512054829,-0.20631296615783215,0.20246867460957263,-0.06244355224086774,0.08157460158245539,0.21270044267319865
416,22.561884399998235,0.12215436216458182,0.2392441174370837,-0.3107071144765332,0.0249109999371321,0.10114007998682287,-0.2166005715216941,-0.016273532874901832,-0.205933912967697,0.20343064291225824,-0.062315182259632534,0.08463401021743963,0.20918837772084026
417,22.566096899987315,0.1222677948575343,0.2397032062879697,-0.31169276511611893,0.02483613955527328,0.10020183747778101,-0.21567068931906766,-0.01655739835926906,-0.20554105131992645,0.20437660278484496,-0.06217072153917342,0.08763041355633833,0.2056799249536456
418,22.570128299994398,0.12238088321196877,0.24015802054690677,-0.3126741653672924,0.02475998616101776,0.09926541769792786,-0.21473652972803378,-0.016840568541959266,-0.20513466906678574,0.20530657181510886,-0.06201032284918237,0.09056358610286834,0.20217557289803217
419,22.574031599986483,0.12249362133857811,0.2406085686666999,-0.31365129589011376,0.02468254309088611,0.09833088164791182,-0.21379816562916482,-0.017122971090463398,-0.20471505506018228,0.20622056981631523,-0.06183414022166268,0.0934333151274798,0.19867580890928516
420,22.577489599992987,0.12260600336402291,0.24105485937533241,-0.3146241376767951,0.02460381400965921,0.0973982890089097,-0.2128556698076116,-0.017404534377958466,-0.2042824990926072,0.2071186188212236,-0.06164232937117168,0.09623940074227887,0.1951811192466232
421,22.580967999994755,0.12271802343242116,0.24149690166993876,-0.31559267205124236,0.024523802907138823,0.09646769813848208,-0.21190911494299405,-0.017685187492149076,-0.2038372918390699,0.2080007430780859,-0.061435048006120735,0.09898165575356195,0.1916919890705265
422,22.586268399987603,0.12282967570682293,0.2419347048107595,-0.3165568806685511,0.024442514094870093,0.0955391660666688,-0.21095857359930384,-0.017964860244611087,-0.20337972479938454,0.20886696904462712,-0.06121245588353931,0.1016599059901095,0.1882089009079125
423,22.58987409999827,0.12294095437067017,0.24236827831507854,-0.31751674551445597,0.024359952202816886,0.09461274849237074,-0.21000411821484993,-0.018243483180132625,-0.20291009023711043,0.20971732537004498,-0.060974714607920505,0.10427398975567467,0.1847323336278152
424,22.59366959999897,0.12305185362924109,0.2427976319511451,-0.31847224890473497,0.024276122175999094,0.09368849978000222,-0.20904582109232553,-0.018520987584223086,-0.20242868112683213,0.21055184287964804,-0.060721987649446175,0.10682375771953274,0.18126276273332503
425,22.597612499987008,0.12316236771107932,0.24322277573208037,-0.31942337348456834,0.0241910292710995,0.0927664729563536,-0.2080837543888936,-0.018797305492620375,-0.20193579109409807,0.21137055455951806,-0.06045444087446118,0.10930907401372235,0.17780065867895525
426,22.602623699989635,0.12327249086940728,0.24364371990977088,-0.3203701022278523,0.024104679053014357,0.09184671970779149,-0.20711799010639373,-0.019072369703638167,-0.20143171435269316,0.21217349552580153,-0.06017224241764282,0.11172981509810247,0.17434648606586398
427,22.606684099999256,0.12338221738352391,0.24406047496874966,-0.3213124184364686,0.024017077391347643,0.09092929037769343,-0.2061486000817078,-0.01934611378650725,-0.2009167456549288,0.21296070300203188,-0.0598755621692923,0.11408586884562515,0.17090070532614993
428,22.610705099999905,0.12349154156018609,0.24447305162006616,-0.32225030573951063,0.023928230456885566,0.09001423396410156,-0.2051756559771736,-0.01961847208904656,-0.20039118023725838,0.21373221630378283,-0.05956457184898775,0.11637713520282753,0.16746377228042753
429,22.61434679999365,0.12360045773497415,0.24488146079514606,-0.32318374809246525,0.023838144718020846,0.08910159811765325,-0.20419922927109052,-0.019889379746676292,-0.1998553137645431,0.21448807681195547,-0.059239444511816265,0.11860352523738746,0.16403613697002387
430,22.61864770000102,0.12370896027364074,0.24528571363964224,-0.3241127297763523,0.023746826937145023,0.08819142913974312,-0.2032193912483768,-0.020158772685585465,-0.19930944228435446,0.21522832794678048,-0.058900353889314166,0.1207649601124668,0.1606182458521184
431,22.62457229998836,0.12381704357344342,0.24568582150727794,-0.32503723539682156,0.023654284167043845,0.08728377198087046,-0.20223621299131225,-0.020426587625733992,-0.1987538621805947,0.21595301516112622,-0.05854747473747252,0.12286137149211908,0.15721054384572497
432,22.62848609998764,0.12392470206446063,0.24608179595368257,-0.32595724988320746,0.023560523747262193,0.08637867023922428,-0.2012497653702567,-0.020692762087194273,-0.1981888701241017,0.21666218593316164,-0.05818098323904457,0.12489270117323356,0.15381347279820948
433,22.632605499995407,0.12403193021089114,0.24647364873022196,-0.32687275848754155,0.023465553300441633,0.08547616615948123,-0.20026011903445956,-0.020957234396822563,-0.19761476302962624,0.21735588974567802,-0.057801056948575444,0.12685890086584914,0.15042747155734001
434,22.63761209999211,0.12413872251233662,0.24686139177782326,-0.3277837467835234,0.023369380728624496,0.08457630063178301,-0.19926734440296676,-0.0212199436940992,-0.1970318380084407,0.21803417807940903,-0.057407874902343475,0.12875993245123313,0.14705297801830036
435,22.64117709999846,0.1242450735050674,0.24724503722079585,-0.32869020066545007,0.023272014209538158,0.08367911319096659,-0.19827151165549137,-0.021480829938802706,-0.19644039232296248,0.21869710441102252,-0.05700161845946902,0.1305957670653098,0.14369042861386225
436,22.64531629999692,0.12435097776327111,0.2476245973606492,-0.3295921063471038,0.02317346219282913,0.08278464201595546,-0.19727269072333886,-0.02173983392452145,-0.19584072334772223,0.21934472420179063,-0.056582472308061196,0.13236638506298223,0.14034025875311554
437,22.64948719998938,0.1244564299002841,0.24800008466990822,-0.3304894503605986,0.023073733396224105,0.08189292392934583,-0.196270951280381,-0.02199689729550443,-0.19523312852431288,0.21997709489958303,-0.05615062516051601,0.1340717767136179,0.13700290486781863
438,22.653437999993912,0.12456142456980511,0.24837151178592737,-0.3313822195551859,0.022972836801610354,0.08100399439720876,-0.19526636273396292,-0.022251962566514502,-0.1946179053160145,0.22059427594620107,-0.05570627033867062,0.13571194300516867,0.13367880587815778
439,22.66285599999537,0.12466595646709087,0.24873889150470418,-0.3322704010960178,0.022870781651015706,0.08011788752909024,-0.19425899421581017,-0.022504973145016115,-0.19399535115540928,0.22119632879273965,-0.05524960650534868,0.1372868965580859,0.13036840743652872
440,22.668433099999675,0.12477002033013318,0.24910223677469343,-0.33315398246287004,0.022767577442486572,0.07923463607829112,-0.19324891457279567,-0.02275587335770069,-0.19336576339067094,0.22178331694562728,-0.054780838798462274,0.13879666202901145,0.127072166754894
441,22.673215499991784,0.12487361094081686,0.2494615606906231,-0.33403295144882117,0.022663233925825997,0.078354271442357,-0.1922361923574268,-0.023004608483018094,-0.19272943922949773,0.22235530602601647,-0.05430017883117855,0.1402412774647771,0.12379055399448763
442,22.6767519999994,0.12497672312605798,0.24981687648731316,-0.33490729615888837,0.02255776109817498,0.07747682366386958,-0.19122089581807078,-0.023251124777703507,-0.1920866756730526,0.22291236382849874,-0.05380784291761191,0.14162079466642818,0.12052405102325672
443,22.681150399992475,0.12507935175892151,0.2501681975334986,-0.3357770050086178,0.022451169199508587,0.07660232143153906,-0.1902030928889061,-0.023495369493126122,-0.19143776945657603,0.22345456036916214,-0.05330405035327611,0.1429352784217978,0.11727314871022734
444,22.690636499988614,0.12518149175971846,0.2505155373256583,-0.3366420667226286,0.02234346870806815,0.07573079208153707,-0.18918285117970968,-0.02373729088613267,-0.19078301699032563,0.22398196791962915,-0.0527890225371458,0.14418480738371586,0.1140383443617004
445,22.694389599986607,0.1252831380970819,0.25085890948185013,-0.33750247033311015,0.022234670335758492,0.07486226159912783,-0.18816023796549786,-0.023976838227388754,-0.1901227142921791,0.22449466103173074,-0.05226298286205348,0.14536947450941534,0.11082013982038307
446,22.69798679999076,0.12538428578902203,0.2511983277355547,-0.33835820517827164,0.022124785023504043,0.07399675462061574,-0.18713532017608844,-0.02421396181122275,-0.18945715692456627,0.22499271655420716,-0.051726156531800085,0.14648938640156461,0.10761904036765152
447,22.70172869999078,0.12548492990395999,0.25153380592952845,-0.33920926090074405,0.02201382393655628,0.07313429443555171,-0.18610816438558947,-0.02444861296229907,-0.18878663993308217,0.22547621364736994,-0.051178769957151066,0.14754466308772024,0.10443555230855459
