,time,x,y,z,vx,vy,vz,ax,ay,az,jx,jy,jz
0,7.096305800019763,0.0345831279556827,-0.10657261906170395,-0.024035205596871844,0.01888013944134854,-0.015559552411568258,0.010216694708762065,0.053799267187345956,0.09283841218452796,-0.015388034065244098,0.059853876750568594,0.3353214813192472,-0.07423784024512241
1,7.101106100017205,0.034662956120156664,-0.10663719567305074,-0.02399240088343102,0.01910678573615233,-0.015166392017994605,0.0101513632845654,0.054049531547668755,0.09425228969866194,-0.01569948583674532,0.05922803157526483,0.3374652678682167,-0.07396419981795806
2,7.105319100024644,0.03474373908658324,-0.1067001073481865,-0.023949873508061565,0.019334478360850338,-0.014767270180139605,0.010084725249868424,0.05429713643985541,0.09567513621861892,-0.016009775154664427,0.058588378199324394,0.33958920549235766,-0.0736847299224315
3,7.108680000004824,0.03482548122918286,-0.10676132895201762,-0.023907628952161704,0.01956320601576879,-0.014362149376697756,0.010016785541947562,0.05454202389097366,0.09710686749572937,-0.016318877709683453,0.05793494711335264,0.34169290089720344,-0.07339952431443099
4,7.1131090999697335,0.03490818687417149,-0.10682083519249311,-0.023865672676163588,0.01979295715784437,-0.013950992443943079,0.009947549199423648,0.05478413605889299,0.09854739762310774,-0.016626769596874404,0.05726776995277699,0.34377595805474426,-0.07310868178476444
5,7.117342400015332,0.03499186029873889,-0.10687860062212208,-0.02382401011911093,0.020023720001183902,-0.013533762582701059,0.009877021360517296,0.055023415236607705,0.0999966390230836,-0.01693342733735221,0.056586879241102936,0.3458379769417064,-0.07281230638722734
6,7.121489799988922,0.03507650573002912,-0.10693459963952065,-0.023782646698244134,0.020255482517640522,-0.013110423365421278,0.009805207261212222,0.055259803855379014,0.10145450242618645,-0.017238827900862303,0.05589230806246421,0.34787855330568823,-0.07251050764870245
7,7.12657510000281,0.035162127344123655,-0.10698880649098892,-0.023741587808593374,0.02048823243739977,-0.012680938743326006,0.009732112233320744,0.055493244486305555,0.10292089685661096,-0.01754294872919967,0.05518408969945695,0.34989727924946845,-0.07220340067423785
8,7.130336600006558,0.03524872926502683,-0.10704119527211794,-0.023700838822579985,0.020721957249568972,-0.012245273053605017,0.009657741702450246,0.05572367984042116,0.10439572961611347,-0.0178457677596797,0.0544622574464601,0.35189374309092536,-0.07189110579101966
9,7.133948599977884,0.03533631556365389,-0.1070917399294272,-0.023660405089626628,0.020956644202764146,-0.011803391026699544,0.009582101185871387,0.05595105276869613,0.10587890626829974,-0.018147263445564495,0.05372684462137521,0.3538675298299913,-0.07157374753177098
10,7.138199699984398,0.03542489025682137,-0.10714041426203275,-0.023620291935776607,0.021192280305699397,-0.011355257793629168,0.009505196290312852,0.05617530626223368,0.1073703306264466,-0.018447414770988196,0.05297788467035082,0.35581822161615045,-0.07125145383447097
11,7.141619700007141,0.03551445730624011,-0.10718719192334636,-0.023580504663322573,0.021428852327775482,-0.01090083889337815,0.009427032709704108,0.056396383453151545,0.10886990474171954,-0.018746201264656138,0.05221541126156754,0.357745397771958,-0.07092435592578793
12,7.145919599977788,0.03560502061751059,-0.10723204642280573,-0.02354104855044481,0.021666346799676606,-0.010440100280321362,0.009347616222854998,0.056614227615566774,0.11037752889119201,-0.019043603013790333,0.05143945802829762,0.3596486343487897,-0.07059258823336136
13,7.150236000015866,0.03569658403912094,-0.107274951127636,-0.023501928850859447,0.021904750013967265,-0.009973008331711322,0.009266952691081267,0.056828782164317485,0.11189310156232868,-0.019339600677091267,0.05065005821817683,0.3615275043138784,-0.07025628864264795
14,7.154615200008266,0.0357891513614473,-0.10731587926464296,-0.023463150793476707,0.022144048025678306,-0.009499529855234563,0.009185048055775207,0.057039990652999466,0.11341651944257697,-0.01963417550084242,0.04984724444814827,0.3633815783916042,-0.06991559925060821
15,7.158691100019496,0.03588272631575676,-0.10735480392203804,-0.02342471958206953,0.02238422665288726,-0.009019632096586164,0.009101908335895803,0.05724779677062799,0.11494767741092213,-0.019927309338207536,0.049031048400237254,0.3652104243155783,-0.06957066665189064
16,7.162163899978623,0.0359773125732126,-0.10739169805129521,-0.023386640394952935,0.022625271477276332,-0.008533282747097103,0.009017539625377168,0.0574521443371171,0.11648646852119186,-0.020218984667740796,0.04820150116083259,0.367013606104492,-0.06922164147146848
17,7.165762999968138,0.03607291374388191,-0.1074265344690401,-0.023348918384674414,0.022867167844674754,-0.008040449951449126,0.008931948090463094,0.05765297730279343,0.11803278398752418,-0.02050918460875545,0.04735863426062997,0.3687906850201125,-0.06886867791493057
18,7.170580799982417,0.03616953337574542,-0.10745928585897173,-0.0233115586777157,0.023109900865612678,-0.007541102315424265,0.008845139966986295,0.05785023975261721,0.1195865131757249,-0.02079789293605374,0.046502480035917046,0.3705412195436745,-0.06851193412480243
19,7.175101000000723,0.036267174953709715,-0.10748992477381676,-0.023274566374206045,0.023353455415898998,-0.0070352089136923495,0.008757121557579142,0.058043875908733035,0.12114754358853708,-0.021085094098290767,0.04563307125530747,0.37226476425463884,-0.06815157309761738
20,7.1794096999801695,0.03636584189862198,-0.10751842363731672,-0.023237946547647423,0.023597816137196703,-0.00652273929768435,0.00866789922879854,0.058233830131553234,0.12271576084757338,-0.021370773240413282,0.04475044117827096,0.3739608693867088,-0.06778776344317844
21,7.183759799983818,0.03646553756628704,-0.1075447547462484,-0.02320170424465198,0.0238429674376098,-0.006003663503531767,0.008577479408148042,0.05842004692280062,0.12429104867485337,-0.021654916228405888,0.04385462369487498,0.37562908033704295,-0.06742067951892164
22,7.188060300017241,0.036566265246487005,-0.10756889027247786,-0.023165844484692263,0.024088893492284238,-0.0054779520600951705,0.008485868580994708,0.05860247092776651,0.12587328887061036,-0.02193750967285929,0.042945653583259226,0.37726893780658,-0.06705050074658844
23,7.191982500022277,0.03666802816200341,-0.10759080226504829,-0.0231303722598646,0.024335578244013823,-0.0049455759970901455,0.008393073287393107,0.05878104694051785,0.12746236129600827,-0.02221854094797246,0.042023567023332584,0.37887997864113865,-0.06667741081193775
24,7.196274899994023,0.036770829467641916,-0.10761046265230229,-0.02309529253466601,0.024583005403884906,-0.004406506853261111,0.008299100118842447,0.0589557199104733,0.12905814385801873,-0.02249799820839369,0.04108840150328098,0.3804617353173732,-0.06630159756539222
25,7.200361099967267,0.03687467224925988,-0.1076278432440385,-0.023060610245784853,0.024831158451937573,-0.0038607166846343897,0.008203955714969006,0.05912643494682448,0.13066051248781688,-0.02277587040738759,0.04014019566809083,0.3820137356857464,-0.06592325268923648
26,7.20455409999704,0.03697955952279663,-0.10764291573370323,-0.023026330301905634,0.025080020637847505,-0.003308178072873631,0.008107646760130557,0.05929313732383879,0.13226934112349795,-0.02305214731087862,0.03917898903875242,0.3835355039518782,-0.06554257082716697
27,7.210603800020181,0.03708549423330673,-0.10765565170061732,-0.022992457583528175,0.02532957498163174,-0.002748864133678163,0.008010179979980743,0.05945577248292024,0.13388450169672222,-0.023326819508301108,0.03820482125306032,0.3850265604428896,-0.06515974917537144
28,7.214687399973627,0.037192479253996234,-0.10766602261223836,-0.022958996942801315,0.02557980427434786,-0.0021827485252506815,0.0079115621379823,0.059614286031530475,0.13550586411346752,-0.023599878423205406,0.03721773158679513,0.38648642111671233,-0.0647749870797239
29,7.219056400004774,0.0373005173852618,-0.10767399982645874,-0.02292595320337139,0.025830691078790678,-0.0016098054568573926,0.007811800031882278,0.05976862374122466,0.1371332962365494,-0.023871316320721935,0.036217758579724486,0.38791459786587584,-0.06438848555655152
30,7.22333200002322,0.03740961135373279,-0.10767955459393984,-0.022893331160245563,0.02608221773017491,-0.0010300096974426372,0.00771090049016252,0.059918731543428694,0.13876666386892733,-0.02414112631413893,0.03520493946304102,0.3893105978165824,-0.06400044697728799
31,7.227225499984343,0.03751976381131615,-0.10768265806048247,-0.02286113557967013,0.026334366336796384,-0.00044333658432936214,0.007608870368459592,0.06006455552266216,0.1404058307303329,-0.02440930236971568,0.03417930970401141,0.390673922861365,-0.06361107444948103
32,7.231416900001932,0.03763097733424406,-0.10768328126943419,-0.02282937119902395,0.026587118780657726,0.00015023796796979295,0.0075057165459748,0.06020604190848786,0.14205065843664744,-0.024675839308057043,0.033140902702287,0.392004070243204,-0.0632205712791647
33,7.235081400023773,0.03774325442212406,-0.10768139516413386,-0.022798042726726947,0.0268404567180619,0.0007507374588786736,0.007401445921882568,0.060343137066181954,0.1437010064814405,-0.02494073280440741,0.03208974943908324,0.39330053173781837,-0.06282914081914101
34,7.238583399972413,0.037856597496991704,-0.10767697059039351,-0.0227671548421637,0.02709436158015948,0.001358184792791336,0.007296065411737981,0.060475787485734504,0.14535673220847367,-0.02520397938874986,0.03102587840740748,0.3945627927891422,-0.06243698639302248
35,7.241930600022897,0.03797100890236528,-0.10766997829901827,-0.02273671219562216,0.027348814573449714,0.0019726022699670933,0.007189581943884334,0.06060393977193313,0.14701769078597193,-0.025465576445461643,0.02994931592743461,0.39579033349064263,-0.06204431103231147
36,7.245989200018812,0.03808649090230267,-0.10766038894836479,-0.02270671940824744,0.027603796680244444,0.002594011577347967,0.007082002455863566,0.06072754063601459,0.14868373518737646,-0.025725522211203233,0.028860086835572958,0.3969826289124242,-0.06165131686319811
37,7.250564999994822,0.03820304568045999,-0.10764817310693833,-0.022677181072010694,0.027859288659098997,0.003222433779291941,0.006973333890841557,0.06084653689154069,0.15035471616836552,-0.025983815769419234,0.027758215559276433,0.3981391487507569,-0.061258204452288835
38,7.254499599977862,0.03832067533915205,-0.10763330125602913,-0.02264810174969297,0.028115271045241436,0.003857889308197252,0.006863583194064786,0.060960875455084704,0.15203048224466129,-0.02624045704272766,0.026643726911680835,0.3992593576318234,-0.060865172385997576
39,7.258606799994595,0.038439381898414615,-0.10761574379238825,-0.02261948597488387,0.02837172415100922,0.004500397955049088,0.006752757309349605,0.061070503348787,0.15371087967160402,-0.026495446783885213,0.025516646441986084,0.4003427150883481,-0.06047241696104334
40,7.263019800011534,0.038559167295068524,-0.10759547103094343,-0.022591338251994903,0.028628628066299937,0.00514997885987218,0.00664086317561484,0.061175367703986745,0.1553957524217624,-0.026748786565574886,0.024377000633722168,0.40138867579322235,-0.0600801320793033
41,7.267082699981984,0.03868003338178575,-0.1075724532075552,-0.022563663056287302,0.028885962659038495,0.005806650502089292,0.00652790772345691,0.06127541576544415,0.15708494216647156,-0.027000478770487384,0.02322481694019572,0.4023966898632646,-0.059688509014142306
42,7.2712696000235155,0.038801981926157456,-0.10754666048181374,-0.022536464833914173,0.029143707575663345,0.006470430690818625,0.006413897871765809,0.06137059489527016,0.15877828825599685,-0.0272505265791445,0.022060123702452163,0.40336620283591934,-0.05929773584384542
43,7.2753173999954015,0.038925014609764115,-0.10751806293987665,-0.02250974800197674,0.029401842241626702,0.007141336555065561,0.0062988405244025734,0.06146085257645904,0.16047562770087595,-0.027498933955217984,0.02088295013782642,0.40429665672052495,-0.058907996779814675
44,7.2799131000065245,0.03904913302724779,-0.10748663059734813,-0.02248351694859444,0.02966034586191047,0.007819384533863232,0.006182742566938678,0.06154613641672187,0.1621767951609196,-0.027745705627705758,0.019693326456709192,0.405187491189968,-0.05851947118538648
45,7.284213299979456,0.039174338685386584,-0.10745233340219969,-0.02245777603298857,0.029919197421558685,0.008504590366371802,0.00606561086348333,0.06162639415300066,0.16388162293657071,-0.027990847068002988,0.018491284084182828,0.4060381442582803,-0.0581323327229579
46,7.287905999983195,0.0393006330021714,-0.10741514123773259,-0.02243252958557904,0.030178375686231378,0.009196969081946402,0.005947452253615601,0.0617015736571649,0.165589940963601,-0.02823436446490907,0.01727685592918953,0.40684805265442536,-0.05774674893922455
47,7.292231799976435,0.03942801730588506,-0.10737502392558197,-0.02240778190809383,0.030437859202784908,0.009896534990191833,0.005828273549421817,0.06177162294278829,0.16730157680761207,-0.028476264698212225,0.01605007634913266,0.407616652242956,-0.05736288069285471
48,7.296105000015814,0.03955649283418391,-0.10733195122876295,-0.02238353727369064,0.030697626299882798,0.010603301670984276,0.005708081532649734,0.06183649017054772,0.1690163556622681,-0.02871655530888552,0.014810980484219544,0.40834337842106583,-0.05698088100953258
49,7.300417500024196,0.03968606073318208,-0.10728589285475858,-0.02235979992709026,0.03095765508862144,0.011317281964511138,0.005586882951996457,0.06189612364940455,0.17073410034713463,-0.028955244463046988,0.013559603486441954,0.4090276660485532,-0.0566008938144819
50,7.304501099977642,0.039816722056538384,-0.1072368184586497,-0.022336574084721013,0.031217923463150866,0.012038487961274597,0.005464684520565573,0.06195047183552237,0.17245463130532235,-0.02919234091150129,0.012295980309036213,0.4096689497282239,-0.056223053897432894
51,7.308571800007485,0.03994847776454578,-0.10718469764628694,-0.022313863934873522,0.031478409101291356,0.012766930992111642,0.005341492913495159,0.0619994833316785,0.17417776660368306,-0.02942785395340533,0.011020146057054463,0.410266663805888,-0.05584748822099882
52,7.312906900013331,0.04008132872322342,-0.10712949997750441,-0.022291673637865085,0.03173908946514926,0.013502621618199264,0.005217314765720334,0.062043106889128674,0.17590332193045347,-0.02966179340680811,0.009732136641677365,0.41082024314142307,-0.055474317246629205
53,7.316957800008822,0.04021527570341133,-0.10707119496937578,-0.02227000732621323,0.031999941801749275,0.014245569621054688,0.005092156669848918,0.06208129141251864,0.17763111060193257,-0.029894169583462266,0.00843198925928821,0.41132912420676065,-0.05510365571729419
54,7.3210621000034735,0.04035031937986777,-0.107009752099512,-0.022248869104817975,0.03226094314369157,0.014995783992596698,0.004966025174135714,0.062113985965775935,0.17936094356935517,-0.030124993265943138,0.007119742613155853,0.41179274459529847,-0.05473561308976219
55,7.325538999983109,0.040486460330369414,-0.10694514080940087,-0.02222826305115239,0.03252207030983359,0.015753272925203645,0.0048389267805505004,0.06214113977888495,0.18109262942144538,-0.03035427568609404,0.00579543711205065,0.41221054334922635,-0.05437029379748424
56,7.329658699978609,0.04062369903481445,-0.10687733050778846,-0.022208193215461105,0.03278329990600409,0.016518043801796237,0.004710867942933505,0.06216270225544826,0.18282597439404163,-0.03058202850435511,0.004459114706886071,0.4125819619872354,-0.054007797495825495
57,7.334093299985398,0.04076203587432877,-0.10680629057410193,-0.022188663620966387,0.033044608325748556,0.017290103185976454,0.004581855065237158,0.06217862297808852,0.18456078238128906,-0.030808263790270005,0.0031108183884215835,0.4129064446213751,-0.05364821962868193
58,7.338012899970636,0.040901471130375344,-0.10673199036191387,-0.02216967826408141,0.03330597175108862,0.018069456812204423,0.004451894499845425,0.06218885171178749,0.18629685494624681,-0.031032994006577705,0.0017505916729838198,0.41318343788724804,-0.05329165228131774
59,7.342451200005598,0.04104200498386677,-0.10665439920244775,-0.022151241114630474,0.03356736615329553,0.018856109576026497,0.004320992545949285,0.0621933384049649,0.18803399133149368,-0.03125623199688814,0.000378478158899303,0.4134123908736302,-0.052938184472447816
60,7.346344200021122,0.04118363751428117,-0.10657348640812431,-0.02213335611607592,0.03382876729365868,0.019650065524341277,0.004189155447969662,0.06219203318908888,0.18977198846914375,-0.031477990972229225,-0.0010054786493847005,0.4135927556132932,-0.05258790182125272
61,7.350330399989616,0.04132636869878118,-0.10648922127614889,-0.02211602718575161,0.03409015072425578,0.020451327845711888,0.0040563893940459865,0.06218488637827637,0.19151064099557794,-0.03169828449592344,-0.002401235609685001,0.4137239870595048,-0.052240886278626955
62,7.354544300003909,0.04147019841133634,-0.10640157309213927,-0.02209925821510255,0.034351491788718005,0.02125989886075583,0.003922700514586256,0.06217184846664755,0.19324974126126204,-0.03191712646787574,-0.0038087504784509473,0.4138055420579499,-0.05189721564832526
63,7.358925800013822,0.04161512642184852,-0.10631051113379374,-0.02208305306993056,0.03461276562297796,0.02207578001253979,0.00378809488088767,0.062152870123417525,0.1949890793368363,-0.032134531105424885,-0.00522798261309647,0.4138368799545058,-0.05155696320722741
64,7.363059900002554,0.041761152395280554,-0.10621600467459968,-0.022067415590645484,0.03487394715599356,0.022898971857020667,0.0036525785038476572,0.06212790218434696,0.19672844302804238,-0.03235051292443932,-0.006658893696329295,0.41381746324925345,-0.05122019792142198
65,7.367159300018102,0.04190827589078781,-0.10611802298758205,-0.022052349592521694,0.03513501111042413,0.023729474053565878,0.003516157332743414,0.0620968956407451,0.19846761788731054,-0.03256508672198491,-0.008101448108918326,0.4137467565450409,-0.050886984393726124
66,7.371303899970371,0.042056496360852486,-0.10601653534909157,-0.022037858865959572,0.03539593200326184,0.02456728535549178,0.003378837254088628,0.06205980162778692,0.20020638721984832,-0.03277826755697966,-0.009555612871657201,0.41362422636041524,-0.0505573827818665
67,7.375706300023012,0.04220581315042045,-0.10591151104263277,-0.022023947176751612,0.035656684146409594,0.025412403600635142,0.0032406240905756335,0.06201657141400398,0.2019445320936551,-0.032990070732173665,-0.01102135702670206,0.41344934211127987,-0.05023144923651584
68,7.379378399986308,0.042356225496040435,-0.10580291936273148,-0.0220106182663528,0.035917241647224145,0.02626482570197577,0.0031015236000836084,0.061967156394802075,0.20368183135386264,-0.033200511778486,-0.012498650842637264,0.41322157620429856,-0.04990923645627666
69,7.382753500016406,0.042507732525005455,-0.10569072961884163,-0.02199787585215505,0.03617757840903947,0.027124547638328517,0.002961541474752396,0.06191150808863426,0.20541806163353485,-0.03340960644164981,-0.013987465207397838,0.4129404032889353,-0.04959079441780609
70,7.386167599994224,0.04266033325449636,-0.10557491113929102,-0.021985723627765377,0.03643766813167774,0.027991564445056683,0.0028206833401029623,0.061849578135621544,0.2071529973617209,-0.0336173706726866,-0.015487771394650221,0.4126053006082666,-0.04927617081383269
71,7.391860899981111,0.042814026590727576,-0.10545543327526619,-0.02197416526328771,0.03669748431196107,0.028865870204831726,0.002678954754191289,0.061781318295689794,0.20888641077720396,-0.03382382061823333,-0.01699954169375107,0.4122157484426233,-0.04896541084296077
72,7.396270599972922,0.04296881132809494,-0.10533226540483584,-0.021963204405608196,0.03695700024420686,0.02974745803846224,0.0025363612068101432,0.06170668044189495,0.21061807194028354,-0.034028972609249766,-0.018522750777482215,0.41177122950227746,-0.048658556806609854
73,7.400280200003181,0.043124686148325625,-0.10520537693701282,-0.021952844678683716,0.037216189020683424,0.030636320095752703,0.0023929081187378945,0.06162561654706279,0.21234774874141912,-0.034232843147957465,-0.020057376823701734,0.4112712285769272,-0.04835564773513952
74,7.404855599976145,0.0432816496196298,-0.10507473731585436,-0.021943089683833492,0.03747502353199301,0.0315324475464051,0.002248600841050076,0.061538078667685604,0.2140752069100662,-0.03443544889340436,-0.021603401222608544,0.4107152328162783,-0.048056719481343976
75,7.4090849999920465,0.04343970019585375,-0.10494031602460055,-0.02193394300003341,0.037733476467392085,0.032435830570951965,0.002103444654489545,0.061444018933022655,0.2158002100256784,-0.03463680664918963,-0.023160807420325752,0.41010273250064133,-0.047761805047559315
76,7.412889299972448,0.04359883621563427,-0.10480208258985081,-0.021925408184212913,0.03799152031508273,0.033346458351750485,0.0019574447688812282,0.06134338953871768,0.21752251953302107,-0.034836933351777975,-0.024729580171501984,0.4094332214615398,-0.04747093483684136
77,7.417570599995088,0.04375905590155421,-0.10466000658577805,-0.021917488771554233,0.03824912736247928,0.03426431906404426,0.0018106063226005136,0.06123614274218196,0.21924189475670913,-0.03503584606033585,-0.026309704885194303,0.40870619712921075,-0.0471841370910039
78,7.421207999985199,0.04392035735929911,-0.10451405763838027,-0.021910188275793763,0.03850626969646087,0.035189399867079606,0.0016629343820734293,0.061122230861710314,0.22095809291691995,-0.03523356194872788,-0.027901166841719203,0.4079211615130309,-0.046901438001625724
79,7.427340599999297,0.04408273857681487,-0.10436420542976942,-0.0219035101895255,0.0387629192036307,0.03612168689529942,0.0015144339413123158,0.061001606278447286,0.22267086915217255,-0.03543009829628623,-0.02950395076056846,0.4070776223698235,-0.04662286171591141
80,7.431921200011857,0.04424619742346656,-0.10421041970249699,-0.0218974579845063,0.039019047570585094,0.037061165249650946,0.0013651099214935963,0.060874221439135234,0.22437997654486128,-0.03562547247985629,-0.031118040216410948,0.4061750932743997,-0.046348430815634216
81,7.436004100018181,0.04441073164919837,-0.10405267026391597,-0.021892035111962884,0.03927462628419582,0.038007818988994274,0.0012149671705603126,0.060740028862989605,0.226085166144628,-0.035819701968592015,-0.03274341699696227,0.4052130938763564,-0.04607816673187128
82,7.440258699993137,0.04457633888369478,-0.10389092699057867,-0.021887245002900426,0.039529626631936994,0.03896163112160659,0.0010640104628436462,0.06059898114984473,0.22778618699605443,-0.03601280431948784,-0.034380060880256746,0.404191150974794,-0.04581208990270256
83,7.444316199980676,0.04474301663554324,-0.10372515983267003,-0.021883091068412745,0.039784019702235864,0.03992258359682343,0.0009122444987030124,0.06045103098890136,0.2294827861710683,-0.036204797173499684,-0.03602794885189961,0.40310879940613825,-0.04555022001270085
84,7.448074500018265,0.04491076229139833,-0.10355533881847576,-0.021879576699993922,0.04003777638487323,0.040890657296815354,0.000759673904180188,0.060296131173452214,0.23117470880409868,-0.03639569825308998,-0.03768705432348468,0.4019655824647307,-0.04529257619154937
85,7.452482299995609,0.04507957311514778,-0.10338143405888477,-0.02187670526985139,0.04029086737145801,0.041865832028524716,0.0006063032306600419,0.060134234616199475,0.23286169812801777,-0.03658552536001824,-0.03935734713131408,0.40076105234700227,-0.04503917701985721
86,7.4568912999820895,0.045249446247080605,-0.10320341575192507,-0.021874480131220415,0.040543263155956445,0.042848086515744455,0.000452136954543236,0.0599652943639911,0.2345434955130298,-0.03677429637293501,-0.04103879343172342,0.39949477099196545,-0.04479004071607341
87,7.460771000012755,0.04542037870305761,-0.10302125418733281,-0.021872904618679922,0.04079493403529051,0.04383739839138176,0.0002971794769271799,0.05978926361401822,0.23621984050967798,-0.0369620292467436,-0.0427313555848092,0.39816631015200965,-0.044545185545386036
88,7.465027600002941,0.04559236737368453,-0.10283491975115318,-0.021871982048469667,0.04104585011000328,0.04483374418989839,0.0001414351232840972,0.05960609572952881,0.23789047088832857,-0.037148742013631234,-0.04443499231733893,0.3967752511359288,-0.0443046299891057
89,7.468979600002058,0.04576540902348813,-0.10264438293037301,-0.021871715718808776,0.04129598128498944,0.045837099339906234,-1.5091856866686773e-05,0.059415744254655685,0.23955512268001766,-0.03733445278385463,-0.04614965903788325,0.3953211848311959,-0.04406839279723161
90,7.473414300009608,0.04593950029009549,-0.10244961431758393,-0.021872108910215658,0.041545297270285275,0.046847438156950985,-0.00017239729028728298,0.059218162927481194,0.24121353021612255,-0.037519179747213006,-0.04787530842150339,0.3938037118219062,-0.043836493227940775
91,7.477731699997093,0.046114637683416754,-0.1022505846156756,-0.02187316488582931,0.04179376758190904,0.04786473383644118,-0.00033047708036133285,0.05901330568995032,0.24286542617019988,-0.0377029411758468,-0.04961189101780196,0.3922224426924158,-0.043608951164408695
92,7.482218699995428,0.046290817584831466,-0.10204726464255834,-0.021874886891732094,0.04204136154273423,0.048888958446783565,-0.000489327207446072,0.05880112669582414,0.24451054160020944,-0.03788575542669267,-0.05135935541315619,0.3905769972090378,-0.043385787091451085
93,7.487620099971536,0.04646803624637866,-0.10183962533591404,-0.021877278157274,0.04228804828339684,0.049920082922667065,-0.0006489437292330618,0.058581580319229165,0.24614860598347366,-0.038067640944085865,-0.05311764874489693,0.3888670039930338,-0.04316702216560719
94,7.491862599970773,0.04664628978995083,-0.10162763775797523,-0.021880341895398447,0.0425337967432405,0.05095807705849202,-0.0008093227811221273,0.05835462115828866,0.24777934725615255,-0.038248616262804354,-0.054886717555354125,0.38709210122215226,-0.042952678285240506
95,7.495369800017215,0.04682557420649196,-0.10141127310033128,-0.0218840813029697,0.04277857567125423,0.05200290950198598,-0.0009704605766076787,0.0581202040364929,0.24940249185410038,-0.03842870001126045,-0.05666650712517855,0.38525193630323007,-0.04274277806133775
96,7.499032300023828,0.04700588535519938,-0.10119050268876109,-0.021888499561101917,0.04302235362702913,0.053054547747976376,-0.001132353407679478,0.057878284011934525,0.2510177647495884,-0.03860791091429946,-0.058456960222753714,0.383346165006857,-0.04253734460720751
97,7.5032965000136755,0.04718721896272984,-0.10096529798809163,-0.021893599835489923,0.04326509898177374,0.05411295813231501,-0.0012949976452324853,0.05762881638919125,0.2526248894848877,-0.038786267794623554,-0.06025801660278277,0.38137445109479073,-0.04233640116467691
98,7.508367999980692,0.0473695706224099,-0.10073563060708174,-0.021899385276741717,0.04350677991937064,0.05517810582593302,-0.0014583897394795944,0.05737175673277607,0.25422358820585983,-0.038963789572448226,-0.06206961212995123,0.3793364663896962,-0.04213997068935638
99,7.512665699992794,0.047552935793450865,-0.1005014723033306,-0.02190585902071271,0.04374736443750485,0.056249954829047745,-0.0016225262203585916,0.05710706088638645,0.2558135816961259,-0.03914049526343989,-0.06389167813590332,0.3772318907044255,-0.04194807572212203
100,7.51691090001259,0.04773730980016869,-0.10026279498821028,-0.021913024188841647,0.043986820348882245,0.05732846796550489,-0.0017874036979275555,0.056834684991759754,0.2573945894100629,-0.039316403977292046,-0.06572414158314116,0.3750604120063992,-0.041760738453403314
101,7.521300899970811,0.04792268783120914,-0.10001957073182172,-0.02192088388848818,0.04422511528251647,0.058413606877262776,-0.0019530188627598457,0.05655458550654469,0.25896632950835435,-0.03949153491620326,-0.0675669246213542,0.37282172651071627,-0.04157798062969593
102,7.525884700007737,0.048109064938778534,-0.09977177176797364,-0.021929441213272106,0.044462216685097554,0.05950533201903334,-0.0021193684863267093,0.056266719226886266,0.26052851889176953,-0.039665907372667494,-0.0694199436990986,0.37051553870314174,-0.041399823763849875
103,7.5296242000185885,0.048296436037880384,-0.09951937049918363,-0.021938699243414145,0.044698091822468686,0.060603602653050315,-0.0022864494213736953,0.055971043312764396,0.2620808732369072,-0.03983954072971976,-0.0712831093654288,0.3681415617611634,-0.04122628947969244
104,7.533790900022723,0.04848479590555855,-0.099262339501701,-0.021948661046078358,0.04493270778120783,0.061708376844010725,-0.002454258602305326,0.05566751531224634,0.2636231070335142,-0.04001245446162334,-0.07315632624652518,0.36569951757737573,-0.041057399453615286
105,7.538071700022556,0.0486741391801472,-0.09900065153055038,-0.021959329675716153,0.045166031470308364,0.06281961145415674,-0.002622793045567287,0.0553560931870218,0.2651549336204259,-0.04018466813362441,-0.0750394927652384,0.3631891370398631,-0.04089317542629204
106,7.542237900022883,0.04886446036052808,-0.09873427952459589,-0.02197070817441191,0.04539802962297534,0.06393726213851927,-0.002792049850029038,0.05503673533901285,0.26667606522524157,-0.04035620140273777,-0.07693250108294886,0.3606101608263166,-0.040733639500521744
107,7.546108999988064,0.04905575380539556,-0.0984631966116248,-0.021982799572230215,0.045628668798529795,0.06506128334033338,-0.002962026197372607,0.05470940063639774,0.2681862130069401,-0.04052707402000514,-0.07883523699380729,0.35796233998764276,-0.04057881456180587
108,7.550343699986115,0.04924801373252994,-0.09818737611345019,-0.02199560688756474,0.04585791538442379,0.06619162828664008,-0.0031327193524941827,0.05437404844110986,0.2696850871004614,-0.04069730583481623,-0.08074757949324088,0.35524543641651457,-0.040428724827436514
109,7.554424799978733,0.04944123421807941,-0.09790679155103156,-0.022009133127488863,0.046085735598375865,0.06732824898407644,-0.003304126663929233,0.05403063863848868,0.27117239666326054,-0.040866916801782685,-0.08266940028714748,0.3524592239917592,-0.04028339648901556
110,7.558578399999533,0.0496354091958513,-0.09762141664961294,-0.022023381288108115,0.04631209549063531,0.06847109621486881,-0.0034762455643118795,0.05367913166890438,0.2726478499295088,-0.04103592699046011,-0.0846005636275054,0.34960348960544996,-0.040142858460097706
111,7.562805900000967,0.04983053245661311,-0.0973312253438771,-0.022038354354914663,0.04653696094638347,0.06962011953307852,-0.003649073570881739,0.053319488558790686,0.27411115426528176,-0.041204356598506714,-0.08654092668720614,0.34667803346803977,-0.040007143077101855
112,7.566856999997981,0.05002659764740392,-0.09703619178311529,-0.022054055303144023,0.04676029768825887,0.07077526726105894,-0.003822608286053909,0.05295167094911864,0.2755620162253251,-0.041372225967297185,-0.08849034001551172,0.34368267025276944,-0.039876286385597946
113,7.571867500024382,0.050223598270856644,-0.09673629033641121,-0.022070487098134327,0.0469820712789979,0.07193648648617842,-0.003996847398057059,0.052575641122600866,0.2770001416178626,-0.04153955559748783,-0.09044864770106312,0.34061722993586546,-0.03975032817531936
114,7.576861499983352,0.050421527684531633,-0.09643149559783826,-0.022087652695688402,0.04720224712418857,0.07310372305782213,-0.004171788681634256,0.05219136203079514,0.2784252355684247,-0.04170636616492477,-0.09241568779296742,0.3374815574707099,-0.039629312225462565
115,7.580711700022221,0.050620379100262104,-0.09612178239166877,-0.02210555504243893,0.047420790475139044,0.07427692158465149,-0.00434742999881478,0.05179879731776898,0.27983700258191735,-0.04187267853827107,-0.09439129281477951,0.3342755129275235,-0.039513286509166405
116,7.5848157000145875,0.05082014558351183,-0.09580712577759426,-0.022124197076217014,0.04763766643183034,0.07545602543212779,-0.004523769299763123,0.05139791134288267,0.281235146607625,-0.04203851379663378,-0.09637528933173199,0.33099897179675625,-0.039402303117530735
117,7.588606800010893,0.05102082005274541,-0.09548750105595548,-0.02214358172642447,0.04785283994597635,0.07664097672031804,-0.0047008046236989755,0.05098866920809176,0.28261937110382973,-0.042203893246552354,-0.0983674978109943,0.3276518244990807,-0.03929641788584936
118,7.592308500024956,0.051222395278811644,-0.09516288377298111,-0.02216371191441014,0.04806627582420606,0.07783171632196177,-0.004878534099889032,0.05057103678190472,0.28398937909869504,-0.042368838436483834,-0.10036773327608206,0.3242339759876796,-0.039195689815300194
119,7.597021299996413,0.051424863884340595,-0.09483324972603409,-0.022184590553850504,0.04827793873132497,0.07902818386078866,-0.005056955948688739,0.050144980721184486,0.285344873251542,-0.04253337116893,-0.10237580500283001,0.3207453455385036,-0.039100180769170836
120,7.6006937000202015,0.051628218343154376,-0.09449857496886441,-0.022206220551134755,0.048487793193680545,0.08023031771010043,-0.005236068482636037,0.049710468497661774,0.2866855559119699,-0.04269751351236904,-0.10439151619218653,0.3171858661889567,-0.03900995512832807
121,7.60503759997664,0.05183245097969246,-0.09415883581686738,-0.022228604805754615,0.048695803602646505,0.08143805499158543,-0.005415870107593411,0.04926746842248709,0.2880111291764141,-0.042861287810486585,-0.106414664507467,0.3135554843169655,-0.03892507920116898
122,7.608651200018357,0.052037553968451805,-0.0938140088523464,-0.022251746210699,0.0489019342181947,0.08265133157437597,-0.005596359323919229,0.04881594966822792,0.28932129494372805,-0.04302471668914743,-0.10844504193461633,0.3098541589650165,-0.03884562096665737
123,7.613022300007287,0.05224351933344216,-0.09346407092977917,-0.022275647652853683,0.04910614917256428,0.08387008207433012,-0.005777534727668389,0.04835588229459537,0.29061575496605935,-0.043187823063466566,-0.11048243416305552,0.3060818611847581,-0.038771649986725505
124,7.617671400017571,0.052450338947657035,-0.09310899918108642,-0.022300312013406057,0.049308412474049816,0.0850942398535167,-0.005959395011823104,0.047887237275645936,0.2918942108989225,-0.043350630144044534,-0.11252662052695352,0.3022385732185617,-0.03870323698565498
125,7.621540499967523,0.05265800453256087,-0.09274877102090251,-0.022325742168255138,0.04950868801089916,0.08632373701991801,-0.006141938967545963,0.0474099865260018,0.2931563643451948,-0.04351316144050275,-0.11457737372486973,0.29832428754367163,-0.03864045312582756
126,7.625679499993566,0.05286650765759276,-0.09238336415184668,-0.022351940988426862,0.04970693955532195,0.0875585044272846,-0.006325165485440427,0.0469241029304093,0.2944019168971548,-0.04367544076163083,-0.11663445902550326,0.2943390067068204,-0.038583369213341455
127,7.629583299974911,0.05307583973968729,-0.09201275656979481,-0.02237891134049469,0.049903130767635924,0.08879847167519145,-0.006509073556805136,0.046429560376635676,0.2956305701790875,-0.04383749221224437,-0.11869763366012576,0.2902827428098669,-0.038532054991185456
128,7.633823600015603,0.05328599204281316,-0.09163692656915023,-0.022406656087005438,0.050097225200552,0.09004356710925081,-0.006693662274867986,0.045926333790134714,0.2968420258849993,-0.043999340187390684,-0.12076664639040331,0.28615551767612607,-0.03848657838571026
129,7.637886699987575,0.053496955677530024,-0.0912558527481137,-0.022435178086910267,0.050289186303611955,0.09129371782148542,-0.006878930835991735,0.04541439917057638,0.29803598582262153,-0.044161009362872455,-0.12284123716960123,0.28195736366564433,-0.038447004928486225
130,7.641346300020814,0.0537087216005644,-0.09086951401395105,-0.02246448019600064,0.05047897742778056,0.0925488496509113,-0.007064878540828419,0.044893733629360374,0.2992121519579782,-0.04432252468459364,-0.1249211367921103,0.2776883235577646,-0.0384133976160474
131,7.646292100020219,0.053921280614405126,-0.09047788958825828,-0.02249456526734902,0.05066656183019864,0.09380888718428554,-0.007251504795435395,0.044364315429091826,0.3003702264584026,-0.044483911357904096,-0.12700606685848134,0.2733484508578783,-0.03838581641913128
132,7.6503042000113055,0.05413462336691923,-0.09008095901222296,-0.0225254361517542,0.050851902679107,0.09507375375705071,-0.0074388091123402,0.043826124021388774,0.3015099117396837,-0.0446451948328202,-0.12909573996230553,0.26893781009891404,-0.03836431760526933
133,7.654619299981277,0.05434874035098877,-0.0896787021518813,-0.02255709569819096,0.051034963058917304,0.09634337145447897,-0.007626791111532349,0.04327914008478695,0.30263091051161695,-0.04480640078767518,-0.1311898595730617,0.2644564764438167,-0.038348953633602134
134,7.658592100022361,0.05456362190416932,-0.08927109920336998,-0.02258954675426374,0.05121570597545466,0.09761766111299935,-0.007815450521390762,0.042723345563532036,0.3037329258218089,-0.04496755511345554,-0.13328812039847202,0.2599045363413554,-0.03833977335337807
135,7.662874499976169,0.054779258208370894,-0.08885813069817208,-0.02262279216666408,0.051394094361354545,0.09889654232171013,-0.008004787179543896,0.042158723702438505,0.304815661106741,-0.045128683899119997,-0.13539020879390234,0.2552820888571006,-0.0383368225181323
136,7.666393099993002,0.05499563928956178,-0.08843977750835619,-0.02265683478163153,0.051570091081598414,0.10017993342413534,-0.008194801033673762,0.041585259082240464,0.3058788202467625,-0.04528981342025805,-0.1374958026683878,0.2505892458835829,-0.038340144217879846
137,7.670622400008142,0.05521275501749603,-0.08801602085180753,-0.022691677445417845,0.05174365893920781,0.10146775152019934,-0.00838549214228072,0.041002937655240435,0.3069221076189204,-0.04545097012804192,-0.13960457178816632,0.24582613249068253,-0.03834977834154195
138,7.6751792000140995,0.055430595105465115,-0.0875868422974505,-0.022727323004754326,0.051914760681079614,0.10275991246842751,-0.008576860675394628,0.040411746778108715,0.307945228154898,-0.04561218063336632,-0.14171617785877677,0.24099288795418064,-0.038365760695186164
139,7.679586899990682,0.05564914911007449,-0.08715222377046135,-0.022763774307321995,0.05208335900395588,0.10405633088840785,-0.008768906915206319,0.03981167524684204,0.30894788740249085,-0.04577347168838832,-0.14383027388263056,0.23608966650326668,-0.03838812293191905
140,7.683695700019598,0.05586840643104546,-0.08671214755746992,-0.022801034202224242,0.052249416560552944,0.10535692016350835,-0.008961631256623567,0.03920271333496317,0.30992979158982864,-0.04593487017007781,-0.14594650357461467,0.2311166375069103,-0.03841689327017953
141,7.688038399966899,0.05608835631104319,-0.08626659631174954,-0.022839105540461674,0.052412895965852344,0.1066615924438785,-0.009155034207764298,0.03858485283339199,0.310890647688418,-0.04609640306779529,-0.14806450102350552,0.22607398528727163,-0.0384520972181424
142,7.691938799980562,0.05630898783553152,-0.08581555305839358,-0.022877991175408906,0.05257375980356511,0.10797025864969662,-0.00934911639040813,0.03795808709149125,0.3118301634757958,-0.04625809747293169,-0.15018389035326876,0.2209619097048089,-0.038493757813135694
143,7.696577199967578,0.05653028993265529,-0.08535900119947797,-0.02291769396329321,0.052731970632767695,0.10928282847469795,-0.009543878540402497,0.03732241105978473,0.3127480476034903,-0.046419980568498685,-0.15230428525552367,0.21578062683389082,-0.038541895797042716
144,7.700410899997223,0.05675225137315094,-0.0848969245192081,-0.02295821676367471,0.052887490994725374,0.11059921038999333,-0.009739321508026689,0.03667782133493313,0.3136440096653537,-0.04658207962024291,-0.15442528921158086,0.21053036887027107,-0.038596529657039885
145,7.704476299986709,0.056974860770286184,-0.08442930718904933,-0.022999562439928106,0.05304028341990622,0.1119193116481717,-0.009935446258323277,0.03602431620058575,0.3145177602647457,-0.046744421966578756,-0.15654649633343065,0.20521138392254773,-0.03865767535684211
146,7.708894899988081,0.05719810657982957,-0.08395613377283931,-0.023041733859725647,0.05319031043514791,0.11324303828768346,-0.010132253871377532,0.03536189566528705,0.3153690110811127,-0.04690703500744342,-0.15866749190138846,0.19982393617237743,-0.03872534655301271
147,7.712815599981695,0.057421977100050425,-0.08347738923188165,-0.023084733895521195,0.05333753457099034,0.11457029513750266,-0.010329745542555167,0.03469056149880895,0.3161974749385183,-0.047069946196048,-0.16078785294838938,0.19436830603967534,-0.03879955499203852
148,7.716996099974494,0.057646460471750004,-0.08299305893001914,-0.023128565425035216,0.053481918369147834,0.11590098582208645,-0.010527922582712413,0.03401031726514575,0.31700286587361126,-0.047233183031070346,-0.16290714863345046,0.18884478990394257,-0.03888031045781988
149,7.721290200017393,0.05787154467832428,-0.08250312863868561,-0.023173231331740592,0.05362342439011914,0.11723501276660858,-0.010726786418368136,0.03332116835570718,0.31778489920181335,-0.04739677304796476,-0.16502494038159993,0.18325370010148595,-0.038967621057851065
150,7.7255185000249185,0.05809721754585907,-0.08200758454193524,-0.02321873450534907,0.05376201522093863,0.11857227720247523,-0.010926338591840858,0.03262312202113705,0.318543291585264,-0.04756074381356048,-0.16714078235150934,0.17759536511299823,-0.0390614939825024
151,7.729683200013824,0.05832346674325796,-0.08150641324144803,-0.02326507784229822,0.05389765348305377,0.11991267917312967,-0.011126580761375477,0.031916187400575384,0.3192777611005849,-0.04772512292375386,-0.16925422151779185,0.17187012914440328,-0.03916193593740324
152,7.733616199984681,0.05855027978240364,-0.08099960176151029,-0.02331226424623895,0.05403030184032229,0.12125611754013768,-0.011327514701260885,0.031200375552785316,0.31998802730330134,-0.04788993800174148,-0.1713647972146563,0.1660783519623231,-0.03926895333031639
153,7.73711300001014,0.05877764401835308,-0.08048713755396901,-0.023360296628523455,0.05415992300715132,0.12260248998953376,-0.01152914230194183,0.03047569948925121,0.32067381129422357,-0.04805521669728319,-0.17347204115918344,0.16022040952469868,-0.0393825524929234
154,7.741949499992188,0.05900554664956728,-0.07996900850315897,-0.023409177908693672,0.054286479756772796,0.12395169303846454,-0.011731465570130349,0.02974217420510992,0.32133483578916927,-0.0482209866867995,-0.1755754775103471,0.15429669416716163,-0.039502739529203544
155,7.746095500013325,0.05923397471817599,-0.07944520293080125,-0.023458911014970166,0.054409934929642564,0.1253036220421211,-0.011934486628918443,0.02899981671175277,0.3219708251869116,-0.04838727567136015,-0.17767462238959633,0.14830761434832668,-0.0396295195151703
156,7.750399600015953,0.059462915110278076,-0.0789157096008721,-0.023509498884741527,0.054530251441989856,0.1266581712009535,-0.0121382077178726,0.028248646071786798,0.32258150563676047,-0.04855411137005449,-0.17976898397443997,0.1422535947412935,-0.03976289593208505
157,7.7544324999907985,0.059692354556278096,-0.07838051772444081,-0.023560944465054055,0.05464739229451029,0.1280152335681712,-0.012342631193090746,0.027488683430850067,0.32316660510727974,-0.04872152151321565,-0.18185806291923784,0.1361350764202365,-0.039902870818519745
158,7.759014800016303,0.05992227963125975,-0.07783961696447549,-0.023613250713101636,0.05476132058118276,0.12937470105753535,-0.012547759527239811,0.026719952049035735,0.32372585345543703,-0.048889533837069156,-0.18394135233163195,0.12995251690912066,-0.040049444706009706
159,7.766013299988117,0.06015267675539657,-0.07729299744061545,-0.023666420596715743,0.054871999498226603,0.13073646445144024,-0.012753595309567692,0.025942477332905497,0.3242589824957305,-0.04905817607641621,-0.18601833811084797,0.12370639017913279,-0.04020261613421278
160,7.769879199971911,0.06038353219440065,-0.0767406497339091,-0.023720457094855412,0.054979392353187606,0.13210041340928683,-0.012960141245879317,0.025156286864069895,0.32476572606931686,-0.04922747595520675,-0.18808849954416498,0.11739718634799852,-0.04036238073987902
161,7.77512210002169,0.06061483206000975,-0.07618256489151587,-0.02377536319809704,0.055083462574135385,0.1334664364761453,-0.013167400158469365,0.02436141042618786,0.3252458201106108,-0.0493974611715646,-0.19015130936573896,0.11102541172358688,-0.040528729638676694
162,7.779469900007825,0.06084656231051328,-0.07561873443137133,-0.023831141909123794,0.05518417371897636,0.13483442109168836,-0.013375374985972455,0.023557880033052543,0.32569900271677954,-0.04956815937475825,-0.19220623353329389,0.10459158920181422,-0.04070164767866646
163,7.783781000005547,0.06107870875131773,-0.07504915034681404,-0.023887796243214156,0.055281489484887245,0.13620425359943797,-0.01358406878310228,0.022745729957467993,0.3261250142176868,-0.04973959813554474,-0.19425273118206474,0.09809625799090362,-0.04088111213796689
164,7.787925400014501,0.061311257035551965,-0.07447380511117288,-0.023945329228729138,0.055375373717870734,0.13757581925628656,-0.013793484720252505,0.02192499675972214,0.32652359724306973,-0.04991180491219301,-0.19629025446198192,0.09153997404817167,-0.0410670920878023
165,7.792313600017223,0.06154419266471292,-0.0738926916823139,-0.024003743907597463,0.05546579042242834,0.13894900224230858,-0.0140036260829503,0.021095719317832096,0.32689449679615445,-0.050084807015473645,-0.19831824831465775,0.08492331139001924,-0.04125954820569846
166,7.796218300005421,0.061777500989352266,-0.07330580350714518,-0.024063043335798198,0.055552703771370344,0.14032368567090037,-0.014214496271162936,0.02025793885789178,0.32723746033184464,-0.050258631573111924,-0.20033615082386516,0.07824686258845608,-0.041458432915786374
167,7.8000766999903135,0.06201116720980454,-0.07271313452607844,-0.0241232305838401,0.0556360781157437,0.14169975159924902,-0.01442609879845252,0.01941169898137111,0.32755223783451093,-0.05043330549595693,-0.20234339360195433,0.07151123890581773,-0.04166369091432407
168,7.804733500001021,0.06224517637695726,-0.07211467917744592,-0.024184308737237144,0.05571587799487147,0.1430770810391262,-0.014638437290998202,0.01855704569221542,0.32783858189731185,-0.05060885544685218,-0.20433940174252216,0.06471707085451481,-0.04187525950853789
169,7.808776699996088,0.06247951339306347,-0.0715104324018712,-0.024246280896979656,0.05579206814650855,0.14445555396802368,-0.014851515486489239,0.017694027424542506,0.32809624780468855,-0.05078530780965297,-0.2063235939602513,0.05786500857490739,-0.04209306826030018
170,7.812924399971962,0.06271416301259719,-0.07090038964659251,-0.024309150180000523,0.05586461351711391,0.14583504934064065,-0.015065337232886765,0.016822695068566564,0.32832499361486206,-0.05096268865510179,-0.20829538307081352,0.050955722090990106,-0.04231703833793331
171,7.816927400010172,0.06294910984315233,-0.07028454686973701,-0.02437291971963593,0.055933479272224224,0.14721544510071277,-0.015279906487030002,0.015943101994261178,0.32852458024447734,-0.051141023704396965,-0.21025417610684535,0.043989901566162844,-0.04254708241076723
172,7.821884899982251,0.06318433834638534,-0.06966290054454462,-0.024437592666079852,0.055998630806925034,0.14859661819321093,-0.015495227313091792,0.015055304076308377,0.32869477155325055,-0.0513203382941817,-0.2121993739329054,0.036968257444221345,-0.0427831047427934
173,7.825458400009666,0.06341983283900215,-0.06903544766353979,-0.0245031721868318,0.056060033756434105,0.14997844457688186,-0.015711303880890502,0.014159359720998271,0.32883533442979823,-0.05150065734089999,-0.21413037111683036,0.029891521407366773,-0.04302500107598509
174,7.829531499999575,0.06365557749378978,-0.06840218574264992,-0.02456966146713713,0.05611765400679869,0.1513607992371684,-0.015928140464045937,0.013255329892259495,0.3289460388843376,-0.051682005304804844,-0.21604655631477843,0.02276044682013122,-0.043272658805065554
175,7.833765999996103,0.06389155634069316,-0.06776311282526848,-0.02463706371041929,0.05617145770569771,0.15274355619952926,-0.0161457414379887,0.012343278135322176,0.32902665813824733,-0.05186440615578331,-0.21794731256445837,0.015575807864798365,-0.04352595733414643
176,7.837869399983901,0.0641277532679376,-0.06711822748626149,-0.024705382138703387,0.05622141127333793,0.15412658854311226,-0.016364111277828823,0.0114232706002835,0.32907696870950026,-0.05204788334036259,-0.21983201710895645,0.008338399494628944,-0.04378476856179729
177,7.84220929996809,0.0643641520231972,-0.06646752883591574,-0.024774619993030524,0.056267481413454216,0.1555097684147922,-0.016583254556087793,0.010495376067251587,0.32909675050183096,-0.05223245975161251,-0.2217000413266211,0.001049037994824955,-0.044048957803458376
178,7.846203900000546,0.06460073621480976,-0.06581101652382719,-0.024844780533862302,0.05630963512441709,0.1568929670435935,-0.016803175940314177,0.009559665970500448,0.3290857868948839,-0.05241815770390546,-0.22355075154917337,-0.00629143911176562,-0.044318384971328714
179,7.850286300003063,0.06483748931303855,-0.06514869074272801,-0.024915867041475113,0.056347839710436026,0.1582760547554861,-0.01702388019060348,0.008616214416736843,0.3290438648325883,-0.05260499891273696,-0.2253835099731054,-0.013682173437801702,-0.04459290611690048
180,7.85463419998996,0.06507439465138143,-0.06448055223225062,-0.024987882816343794,0.056382062792820535,0.15965890098855073,-0.017245372157044143,0.007665098201594045,0.32897077491016974,-0.05279300448245208,-0.227197674448845,-0.021122286150181236,-0.04487237539913968
181,7.858677899988834,0.06531143542792726,-0.06380660228262718,-0.02506083117951445,0.056412272321322135,0.16104137430850637,-0.017467656777134234,0.0067063968296709785,0.3288663114590051,-0.052982194902610504,-0.22899259850422488,-0.028610878323561045,-0.04515664690670359
182,7.862946600012947,0.06554859470676037,-0.06312684273832316,-0.025134715472966397,0.05643843658556388,0.16242334242458886,-0.017690739073196887,0.005740192530828697,0.3287302726306623,-0.05317259005103044,-0.23076763220963023,-0.03614703102206533,-0.04544557591416932
183,7.86706050002249,0.06578585541941305,-0.06244127600160336,-0.025209539059963253,0.056460524226519294,0.1638046722057846,-0.017914624149822575,0.004766570272957121,0.3285624604810687,-0.05336420920071354,-0.23252212220038854,-0.043729805192443225,-0.04573901971133663
184,7.871376299997792,0.06602320036636647,-0.06174990503602901,-0.025285305325393383,0.056478504248049254,0.16518522969741684,-0.018139317191342774,0.0037856177780833007,0.3283626810554488,-0.053557071029859876,-0.23425541095312916,-0.05135824145310458,-0.04603683832141893
185,7.875567700015381,0.0662606122186002,-0.061052733369884336,-0.02536201767609976,0.056492346028516306,0.1665648801380933,-0.018364823459356406,0.0027974255412210602,0.328130744474266,-0.05375119363482996,-0.2359668358746781,-0.05903135981489259,-0.04633889477021398
186,7.879629599978216,0.06649807351919076,-0.06034976509953123,-0.02543967954119961,0.05650201933247999,0.16794348797701497,-0.01859114829031247,0.0018020868541379844,0.3278664650205075,-0.05394659454242239,-0.23765572832005163,-0.06674815921596677,-0.046645055190979216
187,7.883964399981778,0.06673556668495942,-0.05964100489269033,-0.02551829437239395,0.05650749432251096,0.1693209168916573,-0.01881829709313969,0.000799697832459783,0.32756966122953574,-0.05414329072371741,-0.23932141317225586,-0.07450761693416608,-0.04695518917471494
188,7.887959100014996,0.06697307400817004,-0.058926457991647016,-0.025597865644267317,0.05650874157111414,0.17069702980583432,-0.019046275346945515,-0.0002096425570305292,0.3272401559813132,-0.05434129860929904,-0.2409632085856886,-0.082308687934206,-0.04726916982304242
189,7.892069800000172,0.06721057765827716,-0.05820613021638069,-0.025678396854577963,0.05650573207277233,0.17207168890815522,-0.019275088598773717,-0.0012258324671313098,0.32687777659574097,-0.05454063410354314,-0.2425804258686915,-0.09015030427215019,-0.04758687359633851
190,7.897216400015168,0.06744805968372505,-0.057480027967615616,-0.025759891524538725,0.05649843725611531,0.17344475567088974,-0.019504742461423502,-0.002248767141935846,0.32648235492988975,-0.054741312598562956,-0.2441723697409335,-0.09803137453411603,-0.04790817994558513
191,7.900727299973369,0.06768550201379807,-0.05674815822979159,-0.025842353199088893,0.05648682899620122,0.17481609086924207,-0.01973524261132434,-0.0032783388897345916,0.32605372747805667,-0.054943348985402526,-0.24573833852038532,-0.1059507831021397,-0.0482329706930624
192,7.904561500006821,0.06792288646052297,-0.056010528573952785,-0.02592578544715722,0.05647087962691349,0.1761855546010574,-0.01996659478644915,-0.004314437056300424,0.3255917354751672,-0.05514675766277634,-0.2472776241927467,-0.11390738968396757,-0.04856112944275038
193,7.908968899981119,0.06816019472062347,-0.05526714716055279,-0.026010191861916245,0.05645056195346674,0.1775530063069649,-0.020198804784262614,-0.005356947998374489,0.32509622500078467,-0.055351552543306586,-0.2487895125290913,-0.12190002905616279,-0.04889254115384997
194,7.912811600021087,0.0683974083775277,-0.05451802274217409,-0.026095576061028053,0.05642584926502659,0.17891830479095872,-0.020431878459686786,-0.006405755057940372,0.3245670470846717,-0.05555774705867787,-0.2502732835529089,-0.12992751075262504,-0.049227092175691226
195,7.917139699973632,0.0686345089034288,-0.053763164666160136,-0.0261819416868815,0.05639671534743185,0.18028130824142818,-0.020665821723092725,-0.007460738539635891,0.32400405781341796,-0.055765354166167895,-0.25172821210073204,-0.1379886188862755,-0.04956467034121393
196,7.921135500015225,0.06887147766139937,-0.053002582877158026,-0.026269292406821094,0.05636313449600414,0.18164187425263512,-0.020900640538321018,-0.008521775689739882,0.3234071184375003,-0.05597438635458794,-0.25315356800891403,-0.14608211198365198,-0.04990516516549028
197,7.925722100015264,0.06910829590755971,-0.05223628791957004,-0.026357631913367575,0.056325081528446785,0.1829998598466441,-0.021136340920723338,-0.009588740675154037,0.3227760954793012,-0.05618485565248236,-0.2545486166277098,-0.1542067230937129,-0.05024846868715221
198,7.92962810001336,0.0693449447933007,-0.051464290939911984,-0.026446963924430338,0.056282531797831076,0.18435512149570765,-0.021372928935251893,-0.010661504566711043,0.32211086083925417,-0.05639677364114205,-0.2559126200369001,-0.16236116024354363,-0.05059447609893214
199,7.933655400003772,0.06958140536756122,-0.050686603689076556,-0.02653729218351195,0.05623546120563546,0.18570751514508882,-0.02161041069461038,-0.011739935328374928,0.3214112919000315,-0.056610151468104275,-0.25724483774596296,-0.17054410650586727,-0.05094308579451515
200,7.9392920000245795,0.06981765857916061,-0.04990323852449984,-0.026628620459905026,0.056183846214822634,0.18705689623632213,-0.021848792357456907,-0.012823897806434816,0.32067727163212223,-0.056824999860559965,-0.2585445261796985,-0.17875421977631226,-0.05129419968994378
201,7.943016099976376,0.07005368527918607,-0.04911420841222913,-0.02672095254888165,0.05612766386296953,0.1884031197309237,-0.02208808012666765,-0.01391325371438145,0.3199086886998922,-0.05704132914155524,-0.2598109380720362,-0.18699013285908986,-0.05164772355018137
202,7.947001599997748,0.0702894662234354,-0.04831952692889014,-0.026814292271875654,0.05606689177547155,0.18974604013454366,-0.022328280247675972,-0.015007861617005314,0.3191054375664418,-0.057259149246143844,-0.26104332246515205,-0.19525045352355544,-0.0520035666801808
203,7.95070470002247,0.07052498207491548,-0.04751920826355178,-0.026908643476658063,0.05600150817880622,0.19108551152155778,-0.022569399006871844,-0.016107576915265726,0.3182674185991904,-0.057478469734991745,-0.2622409246624299,-0.20353376432740566,-0.052361641521713395
204,7.955442600010429,0.07076021340639646,-0.04671326721948666,-0.027004010037505934,0.055931491913864616,0.1924213875601074,-0.022811442730055326,-0.017212251829993558,0.3173945381762206,-0.05769929980714055,-0.26340298615952296,-0.21183862274790208,-0.052721863483537156
205,7.960904199979268,0.0709951407030223,-0.0459017192158254,-0.027100395855364803,0.05585682244935202,0.19375352153758493,-0.023054417780943293,-0.018321735386180836,0.31648670879075946,-0.057921648312184514,-0.2645287453209588,-0.22016356179896737,-0.05308415052698929
206,7.964668900007382,0.07122974436497767,-0.04508458028910287,-0.027197804858004958,0.0557774798952514,0.1950817663865521,-0.023298330559725258,-0.01943587340237098,0.31554384915233535,-0.05814552375955043,-0.2656174389922987,-0.2285070906042676,-0.05344842220827959
207,7.968181599979289,0.07146400471021155,-0.04426186709469465,-0.027296241000171757,0.05569344501631324,0.19640597471107582,-0.02354318750164811,-0.020554508488500173,0.314565884286442,-0.05837093432262419,-0.2666683034352998,-0.23686769474840744,-0.053814598363884525
208,7.971823300002143,0.07169790197721762,-0.04343359690814189,-0.027395708263730004,0.055604699245537174,0.1977259988134841,-0.023788995075606622,-0.021677480043148553,0.31355274563274316,-0.05859788783698016,-0.26768057369697773,-0.24524383654360388,-0.05418259743411388
209,7.975447000004351,0.07193141632787116,-0.04259978762636286,-0.027496210657802413,0.05551122469768495,0.19904169072152747,-0.024035759782713315,-0.022804624246077935,0.312504371142495,-0.058826391790415655,-0.2686534828612193,-0.25363395451827003,-0.05455233437826039
210,7.979566499998327,0.072164527850323,-0.04176045776874948,-0.027597752218901966,0.05541300418282475,0.2003529022159539,-0.02428348815480519,-0.023935774049192077,0.3114207053810498,-0.05905645330365512,-0.26958626158203697,-0.2620364627154896,-0.05492371875807049
211,7.983588800008874,0.07239721656195032,-0.0409156264781471,-0.027700337011057823,0.05531002121992015,0.20165948485853172,-0.02453218675285138,-0.02507075916515096,0.31030169963117527,-0.05928807910427432,-0.27047813803750886,-0.27044975137923494,-0.055296653301311144
212,7.987929399998393,0.0726294624123648,-0.04006531352171547,-0.0278039691259343,0.05520226005047018,0.20296129002049315,-0.02478186216524071,-0.02620940605794387,0.3091473119897898,-0.05952127549532991,-0.27132833811528245,-0.27887218813865494,-0.05567103280369256
213,7.9921152999741025,0.07286124528647808,-0.03920953929166937,-0.027908652682942375,0.05508970565217748,0.20425816891137036,-0.025032521005925647,-0.02735153793306301,0.3079575074613269,-0.059756048320053205,-0.27213608538989026,-0.2873021184028419,-0.056046743497635707
214,7.995751400012523,0.07309254500762481,-0.03834832480589726,-0.028014391829343073,0.054972343752670995,0.20554997260822375,-0.025284169912413057,-0.028496974727885916,0.306732258051152,-0.059992402925173625,-0.2729006018476651,-0.2957378660026791,-0.05642366284815954
215,8.000684799975716,0.07332334134074346,-0.03748169170845619,-0.02812119074034208,0.05485016084325497,0.20683655208526333,-0.025536815543599867,-0.02964553310794267,0.3054715428535315,-0.06023034412389671,-0.27362110940433415,-0.3041777349116981,-0.05680165933650009
216,8.00457719998667,0.07355361399561494,-0.03660966226994141,-0.028229053619174927,0.054723144192663,0.20811775824381648,-0.025790464577452626,-0.030797026470055177,0.30417534813058406,-0.060469876157408654,-0.27429683147122025,-0.3126200113440718,-0.05718059168338606
217,8.008835899992846,0.07378334263015904,-0.03573225938772944,-0.02833798469718211,0.05459128186078067,0.20939344194261295,-0.02604512370851956,-0.03195126495176983,0.3028436673826139,-0.060711002651325216,-0.2749269939830086,-0.32106296584780625,-0.057560307680948365
218,8.012813300010748,0.07401250685378838,-0.03484950658609308,-0.028447988233873355,0.05445456271232029,0.21066345402834383,-0.026300799645244042,-0.03310805544313616,0.3014765014094671,-0.060953726567377305,-0.2755108250936209,-0.3295048546744754,-0.0579406437195399
219,8.017036999983247,0.07424108623081982,-0.03396142801618757,-0.028559068516980153,0.05431297643044454,0.21192764536646236,-0.02655749910707053,-0.03426720159358302,0.3000738583693505,-0.06119805015588235,-0.27604755377518714,-0.33794392052317607,-0.05832142517277599
220,8.021328500006348,0.07446906028394293,-0.033068048455906725,-0.0286712298624957,0.05416651353038339,0.2131858668722373,-0.026815228821358512,-0.03542850381192025,0.2986357538339347,-0.06144397491066654,-0.27653640911659555,-0.3463783939939131,-0.05870246650904496
221,8.025686100008897,0.07469640849774584,-0.032169393309608066,-0.02878447661470149,0.05401516537305773,0.21443796954201697,-0.027073995520109504,-0.03659175926731849,0.29716221083495575,-0.061691501522473526,-0.2769766202766553,-0.3548064952852845,-0.059083571145679394
222,8.029605799994897,0.07492311032229824,-0.03126548860770613,-0.028898813146179748,0.05385892417868807,0.21568380448467425,-0.027333805936489364,-0.037756761888917086,0.2956532599050472,-0.06194062983266083,-0.2773674164142732,-0.3632264351701757,-0.05946453207326713
223,8.033759900019504,0.07514914517679167,-0.03035636100613327,-0.02901424385781078,0.05369778304042145,0.21692322295321395,-0.027594666801166068,-0.03892330236621702,0.29410893911614056,-0.06219135879185653,-0.2777080277164175,-0.3716364153705502,-0.059845133211014805
224,8.037872700020671,0.07537449245323698,-0.029442037785667296,-0.02913077317875462,0.05353173593793686,0.21815607637654064,-0.02785658483848448,-0.04009116815732986,0.2925292941171465,-0.06244368642504875,-0.27799768677636694,-0.3800346291277518,-0.060225151083570044
225,8.0422275000019,0.07559913152021903,-0.028522546851125225,-0.029248405566416245,0.05336077775100277,0.2193822163913826,-0.028119566762510678,-0.041260143500956165,0.2909143781675616,-0.06269760980433772,-0.27823562929515155,-0.3884192620269987,-0.06060435649716749
226,8.046131599985529,0.07582304172670819,-0.02759791673042257,-0.02936714550639395,0.0531849042729819,0.22060149487434236,-0.02838361927297768,-0.042430009430530755,0.28926425216821877,-0.06295312502811491,-0.2784210943152763,-0.3967884920292271,-0.06098251603453103
227,8.049699199968018,0.07604620240592841,-0.02666817657349767,-0.02948699751241048,0.053004112224269824,0.22181376397407895,-0.028648749051154748,-0.0436005437881658,0.2875789846946263,-0.06321022720638114,-0.27855332426618595,-0.4051404892459949,-0.06135939350995355
228,8.054050399980042,0.07626859287928178,-0.025733356151100468,-0.029607966126226706,0.05281839926568253,0.22301887614363877,-0.028914962755669696,-0.04477152123917826,0.28585865202961047,-0.06346891045215713,-0.27863156531592087,-0.41347341707037133,-0.061734751429407965
229,8.058380100002978,0.07649019246032916,-0.024793485853445055,-0.029730055917537624,0.05262776401177292,0.2242166841729123,-0.029182267018305993,-0.045942713288988975,0.28410333818714845,-0.06372916787907526,-0.2786550681660498,-0.4217854346724045,-0.0621083525089704
230,8.06290479999734,0.0767109804588266,-0.02384859668872562,-0.029853271483850696,0.05243220604407633,0.22540704122116514,-0.029450668439804834,-0.04711388830433228,0.282313134924034,-0.06399099160555391,-0.2786230894283451,-0.4300746988405837,-0.06247996117610327
231,8.066949200001545,0.07693093618481735,-0.022898720281495557,-0.029977617450346574,0.052231725924248705,0.22658980084959296,-0.029720173585697323,-0.048284811541727424,0.28048814174823095,-0.06425437276500899,-0.2785348920466581,-0.43833936321429584,-0.06284934481405567
232,8.070742100011557,0.07715003895277872,-0.02194388887090973,-0.030103098469722398,0.0520263252070728,0.22776481705392265,-0.029990788982192384,-0.04945524517223443,0.27862846593699114,-0.0645193015204887,-0.27838974450276255,-0.4465775760817708,-0.06321627491828169
233,8.075750100018922,0.07736826808582344,-0.020984135308829557,-0.030229719222017958,0.051816006453388304,0.22893194429711958,-0.030262521112131967,-0.05062494830324986,0.27673422256371816,-0.06478576708460582,-0.2781869216561686,-0.454787479778345,-0.06358052855633843
234,8.079743399983272,0.07758560291995516,-0.02001949305779033,-0.03035748441442499,0.05160077324291475,0.2300910375422146,-0.03053537641104651,-0.051793677010322135,0.27480553452114337,-0.06505375774644438,-0.27792570675439077,-0.462967212745083,-0.06394188981127631
235,8.08390430000145,0.07780202280837763,-0.019049996188830357,-0.030486398781080185,0.051380630186914265,0.2312419522852061,-0.03080936126333631,-0.05296118437584556,0.2728425325308851,-0.06532326090362507,-0.2776053927882127,-0.47111491184044796,-0.06430015079188778
236,8.087848299997859,0.07801750712585666,-0.018075679379181715,-0.030616467082842373,0.051155582940689184,0.2323845445879674,-0.031084481998596546,-0.05412722053226795,0.2708453551471927,-0.06559426309770397,-0.2772252834962795,-0.47922871189135763,-0.06465511201780635
237,8.092341899988241,0.07823203527313431,-0.017096577909822757,-0.030747694107054652,0.0509256382158816,0.23351867111118016,-0.0313607448880962,-0.05529153270922924,0.2688141487702797,-0.06586675004947512,-0.27678469315416176,-0.48730674305546506,-0.06500658201696871
238,8.095899200008716,0.07844558668139429,-0.016112727662892047,-0.030880084667291977,0.050690803792574755,0.234644189147354,-0.03163815614139981,-0.05645386527499601,0.2667490676722403,-0.06614070669098555,-0.2762829457802103,-0.4953471287884243,-0.06535437653147272
239,8.100186600000598,0.07865814081677781,-0.015124165118963294,-0.031013643603094877,0.05045108853124427,0.2357609566539777,-0.03191672190311556,-0.05761395977692449,0.2646502740274697,-0.06641611719416231,-0.27571937656162165,-0.5033479865721547,-0.0656983182892636
240,8.104492000013124,0.07886967718494951,-0.014130927354180619,-0.031148375779689718,0.05020650238451941,0.2368688322867945,-0.03219644824975763,-0.05877155499488257,0.26251793793245887,-0.06669296500090825,-0.275093335311593,-0.5113074315788926,-0.06603823795589131
241,8.108792399987578,0.07908017533571216,-0.01313305203725378,-0.031284286087696046,0.04995705640868525,0.23796767543311978,-0.03247734118674727,-0.059926387010773574,0.2603522374054148,-0.06697123285972956,-0.27440418945992656,-0.519223581061175,-0.06637397603356286
242,8.113193899975158,0.0792896148676692,-0.01213057742631337,-0.03142137944282164,0.04970276277485954,0.23905734624511304,-0.03275940664558308,-0.0610781892870972,0.25815335836915343,-0.0672509028717949,-0.27365132498789263,-0.5270945571037786,-0.06670538543748941
243,8.11717059998773,0.0794979754329335,-0.011123542365626364,-0.03155966078554606,0.04944363477983447,0.2401377056729519,-0.0330426504812292,-0.062226692744331714,0.255921494627587,-0.06753195654921965,-0.2728341463349443,-0.5349184874022647,-0.0670323337493367
244,8.121241600019857,0.07970523674188099,-0.010111986282172452,-0.031699135080793764,0.04917968685660305,0.24120861549790637,-0.03332707846977557,-0.06337162583871075,0.2536568478420726,-0.06781437488006749,-0.27195207719247433,-0.5426935052131072,-0.06735470329353008
245,8.126020799973048,0.07991137856794789,-0.00909594918208156,-0.031839807317597967,0.048910934584547136,0.24226993836531405,-0.0336126963063725,-0.06451271464627782,0.2513596275083187,-0.06809813838727605,-0.2710045620463453,-0.5504177492912383,-0.06767238889514589
246,8.129862300003879,0.08011638075247,-0.008075471646933006,-0.0319816825087564,0.04863739469925721,0.2433215378174603,-0.03389950960338626,-0.06564968295362954,0.24903005093325872,-0.06838322717481142,-0.2699910666680895,-0.558089364257303,-0.0679852949289704
247,8.133822500007227,0.08032022320956247,-0.007050594829916624,-0.032124765690479694,0.048359085101957605,0.24436327832635898,-0.034187523888721635,-0.06678225234609916,0.24666834320887052,-0.06866962096178823,-0.26891107736574565,-0.5657065016330827,-0.06829333266848718
248,8.138027500011958,0.08052288593103832,-0.006021360451856362,-0.03226906192203299,0.048076024868585074,0.24539502532641264,-0.03447674460426431,-0.06791014229220241,0.24427473718034606,-0.06895729910633985,-0.2677641011486278,-0.5732673213671607,-0.06859641869108703
249,8.142060699989088,0.08072434899136449,-0.004987810797096878,-0.03241457628537127,0.04778823425850412,0.24641664524692558,-0.03476717710440409,-0.06903307023320598,0.2418494734070863,-0.06924624062633268,-0.2665496662880539,-0.5807699936005644,-0.06889447509912772
250,8.146435100003146,0.08092459255265369,-0.003949988709253822,-0.03256131388476853,0.04749573472283266,0.24742800554443625,-0.03505882665465141,-0.07015075167228689,0.23939280011602887,-0.06953642422509458,-0.2652673224333262,-0.5882127004909284,-0.06918743037388614
251,8.150330599979497,0.0811235968696904,-0.002907937586828651,-0.03270927984644149,0.0471985489124079,0.248428974734838,-0.03535169843037682,-0.0712629002650759,0.23690497314730913,-0.06982782831930748,-0.2639166408463273,-0.5955936380189908,-0.06947521957411079
252,8.155054699978791,0.08132134229498963,-0.0018617013786889074,-0.032858479318168175,0.04689670068535088,0.24941942242525458,-0.035645797515661944,-0.07236922791078883,0.2343862558924025,-0.07012043106640481,-0.26249721369978324,-0.6029110174667252,-0.06975778440545545
253,8.15933860000223,0.08151780928388662,-0.000811324579415084,-0.03300891746890196,0.04659021511426631,0.2503992193456411,-0.03594112890226931,-0.07346944483687128,0.2318369192273603,-0.07041421039304778,-0.261008653587136,-0.6101630661263554,-0.07003507289328029
254,8.16326180001488,0.08171297839965602,0.00024314777548472855,-0.033160599488381494,0.046279118493095586,0.2513682373800981,-0.03623769748873265,-0.07456325968600988,0.2292572414449922,-0.0707091440197724,-0.25945059434045925,-0.6173480273867392,-0.07030703844895253
255,8.16716399998404,0.08190683031865922,0.0013016701144912077,-0.03331353058673709,0.04596343834358522,0.2523263495979027,-0.03653550807953391,-0.07565037960765242,0.22664750818737592,-0.07100520948161705,-0.2578226914268086,-0.6244641607432048,-0.07057363932021923
256,8.171488799969666,0.08209934583551796,0.002364196335119993,-0.033467715994093754,0.04564320342137053,0.2532734302842551,-0.03683456538436695,-0.0767305103483508,0.22400801237795692,-0.07130238414814943,-0.2561246214115376,-0.6315097419158078,-0.07083483811198953
257,8.17566100001568,0.08229050586831273,0.003430679809096511,-0.03362316096017135,0.045318443721684656,0.254209354970739,-0.0371348740174829,-0.07780335633876978,0.2213390541530641,-0.0716006452400658,-0.2543560813042866,-0.6384830627946981,-0.07109060070072365
258,8.179577799979597,0.08248029146380438,0.004501073387658216,-0.03377987075388216,0.04498919048471087,0.25513400046549267,-0.03743643849709342,-0.0788686207785324,0.21864094079446875,-0.07189996984009228,-0.2525167880206545,-0.6453824309997939,-0.07134089513547741
259,8.183685299998615,0.08266868380267756,0.005575329406983034,-0.03393785066292602,0.044655476200578345,0.25604724488310215,-0.037739263244807635,-0.07992600571870352,0.21591398666460154,-0.07220033490034634,-0.2506064780326972,-0.652206169519812,-0.07158569096030863
260,8.188070599979255,0.08285566420480428,0.006653399693742881,-0.03409710599338313,0.04431733461402115,0.2569489676742279,-0.03804335258509731,-0.0809752121436973,0.21315851314214587,-0.07250171724754227,-0.2486249078827097,-0.6589526171364919,-0.07182495882953477
261,8.192059200024232,0.08304121413452652,0.007735235570781153,-0.03425764206930472,0.04397480072868551,0.25783904965495663,-0.038348710744777574,-0.0820159400580796,0.21037484855368876,-0.07280409358711852,-0.24657185469642995,-0.6656201296846905,-0.07205867069440663
262,8.196873300010338,0.08322531520595601,0.008820787862912974,-0.034419464232301494,0.04362791081105909,0.2587173730358533,-0.038655341852506714,-0.08304788857278952,0.2075633280987219,-0.07310744051001233,-0.24444711648814338,-0.6722070817579437,-0.07228680040989136
263,8.20042090001516,0.08340794918828985,0.009910006902846892,-0.03458257784113007,0.04327670239405352,0.25958382145068254,-0.038963249938323896,-0.0840707559945064,0.2047242937669557,-0.07341173450188772,-0.2422505136551977,-0.6787118684540738,-0.07250932406227399
264,8.20496840000851,0.08358909801114044,0.01100284253722656,-0.034746988271277555,0.04292121428018248,0.26043827998476576,-0.03927243893322654,-0.08508423992443422,0.20185809424864667,-0.07371695195266387,-0.239981889818898,-0.6851329069487608,-0.07272621977088255
265,8.209096100006718,0.08376874376987775,0.01209924413279081,-0.034912700914544424,0.04256148654431381,0.2612806352029486,-0.03958291266878809,-0.08608803735473718,0.19896508483868422,-0.07402306916407644,-0.2376411115212613,-0.6914686377949368,-0.07293746773424833
266,8.212880000006407,0.08394686873098246,0.013199160582650412,-0.035079721178625886,0.04219756053603697,0.26211077517715176,-0.039894674876799,-0.08708184476477501,0.19604562733599531,-0.07433006235959402,-0.23522806899589502,-0.69771752590557,-0.07314305144524505
267,8.217281599994749,0.0841234553374081,0.014302540312679751,-0.03524805448669175,0.04182947888160619,0.262928589513493,-0.040207729188967825,-0.08806535822401858,0.19310008993936995,-0.0746379077021938,-0.23274267735975207,-0.7038780614076153,-0.07334295892997174
268,8.221581899968442,0.08429848621395049,0.01540933128802157,-0.03541770627696527,0.04145728548544284,0.2637339693789623,-0.04052207913671163,-0.08903827349830297,0.1901288471396876,-0.07494658131469208,-0.2301848775475137,-0.7099487603435659,-0.07353718313202799
269,8.22529959998792,0.08447194417262255,0.016519481019702877,-0.03558868200230125,0.04108102553118544,0.26452680752763774,-0.04083772815102801,-0.09000028616059755,0.1871322796098455,-0.07525605930075012,-0.22755463675526416,-0.7159281642982942,-0.07372572225218246
270,8.229616899974644,0.08464381221803256,0.01763293657136006,-0.035760987129763826,0.04070074548226085,0.26530699832643545,-0.04115467956246205,-0.09095109170098857,0.18411077410012172,-0.07556631776805993,-0.22485194706243808,-0.7218148366564251,-0.07390858028631464
271,8.233532799989916,0.08481407355276378,0.018749644566071238,-0.03593462714020427,0.04031649308200979,0.26607443778044604,-0.04147293660117323,-0.09189038562586534,0.18106472335956397,-0.07587733285387205,-0.22207682316544147,-0.7276073552302128,-0.07408576719894226
272,8.237264900002629,0.08498271158275374,0.01986955119329437,-0.036109607527839344,0.03992831735342428,0.2668290235580237,-0.041792502397117,-0.0928178635488517,0.1779945260933226,-0.07618908074963994,-0.21922930186309394,-0.7333043080337787,-0.07425729841060327
273,8.241463700018357,0.08514970992267164,0.020992602215910493,-0.03628593379983065,0.0395362685985088,0.2675706550157638,-0.042113379980318846,-0.09373322128566686,0.17490058691956092,-0.07650153772223878,-0.21630944652013123,-0.7389043007463636,-0.07442319409681734
274,8.246297499979846,0.08531505240129232,0.02211874297737179,-0.03646361147586527,0.03914039839722031,0.2682992332232301,-0.04243557228123419,-0.09463615498257694,0.17178331626405235,-0.0768146801327169,-0.21331735610844105,-0.7444059727347226,-0.07458347862655701
275,8.249966299976222,0.08547872306686474,0.023247918408952697,-0.03664264608773813,0.03874075960574967,0.26901466098704613,-0.04275908213118013,-0.09552636128725618,0.16864313018240693,-0.07712848445279442,-0.21025317130552332,-0.7498080084695615,-0.07473818043439696
276,8.25433799996972,0.08564070619247147,0.024380073037100464,-0.03682304317893628,0.038337406354025404,0.26971684287412784,-0.043083912262834,-0.09640353752850203,0.16548045015870222,-0.07744292728253996,-0.20711707468164595,-0.7551091400889502,-0.07488733219561804
277,8.258679300022777,0.08580098628137618,0.025515150990881568,-0.03700480830422547,0.037930394042484404,0.2704056852340827,-0.043410065310813685,-0.09726738188866953,0.1622957029061618,-0.07775798536834115,-0.20390928932053604,-0.7603081485492322,-0.07503097070932874
278,8.262998100020923,0.08595954807235605,0.026653096009520563,-0.03718794702923928,0.037519779338126266,0.2710810962207667,-0.04373754381232728,-0.09811759357179196,0.15908932015611169,-0.07807363561959894,-0.20063007797946397,-0.7654038667022478,-0.07516913671150405
279,8.267170900013298,0.08611637654501604,0.02779385145002769,-0.037372464930071146,0.037105620169870755,0.2717429858129093,-0.04406635020789371,-0.09895387296895498,0.15586173843279172,-0.0783898551251265,-0.19727974180349508,-0.7703951801437836,-0.07530187503848502
280,8.271224199968856,0.08627145692508227,0.028937360294911105,-0.037558367592869596,0.036687975723222,0.27239126583377754,-0.04439648684213025,-0.09977592181560926,0.15261339883518,-0.07870662117121785,-0.19385861754465356,-0.7752810235746457,-0.07542923533981827
281,8.27532329998212,0.08642477468967148,0.030083565159969787,-0.037745660613436864,0.03626690643430361,0.27302584996996715,-0.044727955964625025,-0.10058344333356897,0.14934474684239293,-0.07902391126403892,-0.19036707345045703,-0.7800603735848866,-0.07555127270899893
282,8.279037499974947,0.08657631557253423,0.031232408302163717,-0.037934349596831445,0.035842473983329216,0.27364665378943076,-0.045060759730912725,-0.10137614235376359,0.14605623215616534,-0.07934170315299818,-0.18680550426432607,-0.7847322377857461,-0.07566804787044003
283,8.28250339999795,0.08672606556926948,0.03238383162755834,-0.03812444015697494,0.03541474128760576,0.27425359475894484,-0.0453949002035436,-0.10215372541620994,0.14274830859760707,-0.07965997485470937,-0.18317432587393997,-0.7892956426139097,-0.07577962752956996
284,8.28606579999905,0.086874010942509,0.03353777669934156,-0.038315937916263594,0.03498377249416366,0.2748465922612702,-0.04573037935326059,-0.10291590084777824,0.13942143405220014,-0.079978704679305,-0.17947397206404533,-0.7937496264394003,-0.0758860847237851
285,8.289924499986228,0.08702013822706998,0.03469418474591247,-0.03850884850518502,0.03454963297210639,0.27542556761215636,-0.04606719906028949,-0.10366237883486831,0.13607607042449035,-0.0802978712573492,-0.17570489687709567,-0.7980932450671789,-0.0759874989626892
286,8.294272599974647,0.08716443423507513,0.03585299666904125,-0.038703177561940576,0.03411238930462977,0.2759904440771215,-0.04640536111574234,-0.10439287152101911,0.13271268353683802,-0.08061745356733012,-0.17186758222870915,-0.8023255921667899,-0.07608395580662074
287,8.300175199983642,0.08730688606103819,0.03701415305209899,-0.03889893073207393,0.033672109280551005,0.27654114688760545,-0.04674486722313866,-0.1051070931436003,0.12933174291237853,-0.08093743095902979,-0.16796254655354978,-0.8064458257708237,-0.0761755453375621
288,8.304680300003383,0.08744748108691286,0.03817759416835337,-0.039096113668106176,0.03322886188517894,0.2770776032559253,-0.04708571900000531,-0.10580476020409876,0.1259337214510278,-0.0812577831681631,-0.163990349501177,-0.8104531840372966,-0.0762623603827904
289,8.308752999990247,0.08758620698710157,0.039343259989324135,-0.03929473202917787,0.032782717290411725,0.277599742388705,-0.047427917979520784,-0.10648559164428342,0.12251909507994459,-0.08157849032481569,-0.15995159002005982,-0.8143469817097003,-0.0763444956733039
290,8.313005700008944,0.0877230517334211,0.04051109019319174,-0.03949479148069796,0.032333746844126196,0.2781074954988926,-0.047771465612185954,-0.10714930900038602,0.11908834245929271,-0.0818995329610087,-0.15584690091411524,-0.8181265951449579,-0.07642204813674906
291,8.316984299977776,0.08785800360002223,0.04168102417325382,-0.03969629769399988,0.0318820230589795,0.2786007958167166,-0.048116363267532006,-0.10779563653350831,0.11564194475855802,-0.08222089202159899,-0.15167694454289823,-0.8217914488387242,-0.0764951172709762
292,8.32127750001382,0.08799105116826121,0.0428530010464259,-0.039899256346004816,0.03142761960070229,0.2790795785998229,-0.048462612235882795,-0.10842430134765876,0.11218038547557847,-0.08254254887498395,-0.14744241055606477,-0.8253410081184747,-0.07656380479307359
293,8.325691899983212,0.08812218333152098,0.04402695966178312,-0.040103673118892624,0.03097061127590814,0.27954378114271,-0.04881021373015275,-0.10903503350111574,0.10870415027428289,-0.08286448532105159,-0.14314401500514098,-0.8287747762438289,-0.07662821384550966
294,8.329650099971332,0.08825138929998019,0.04520283860914023,-0.04030955369978023,0.03051107401945061,0.27999334278550175,-0.04915916888767607,-0.10962756611699773,0.10521372682809561,-0.08318668359521213,-0.138782500343193,-0.8320922933074985,-0.07668844769959084
295,8.333820200001355,0.08837865860532813,0.04638057622766708,-0.040516903780407884,0.03004908488130321,0.28042820492206644,-0.04950947877203851,-0.11020163549462374,0.10170960466691385,-0.08350912636544941,-0.13435863528512088,-0.8352931353868316,-0.07674460864481729
296,8.338045099982992,0.08850398110542347,0.047560110614536834,-0.040725729056832985,0.029584722012980395,0.2808483110075032,-0.049861144374881816,-0.1107569812189092,0.09819227502764445,-0.08383179672701647,-0.1298732152749547,-0.8383769138116233,-0.07679679767424277
297,8.342247599968687,0.08862734698889504,0.048741379633604406,-0.040936035229131494,0.029118064653497918,0.2812536065650046,-0.05021416661769089,-0.1112933462756544,0.09466223070733598,-0.08415467819684208,-0.12532706372387262,-0.8413432749362981,-0.07684511462431293
298,8.346490199968684,0.08874874677968257,0.049924320924112385,-0.04114782800110679,0.028649193114824736,0.2816440391921086,-0.05056854635355121,-0.11181047717134716,0.09111996591563055,-0.08447775470940176,-0.120721033085097,-0.8441919004203713,-0.07688965896921507
299,8.350384999997914,0.08886817134151516,0.05110887190942198,-0.041361113080005854,0.028178188766836303,0.28201955856632094,-0.05092428436890131,-0.1123081240574868,0.08756597612553836,-0.08480101061780164,-0.11605600660633991,-0.8469225071090306,-0.07693053086101066
300,8.354791200021282,0.08898561188232552,0.05229496980576624,-0.04157589617624284,0.027705134021721402,0.2823801164501124,-0.05128138138529931,-0.11278604086511783,0.08400075792689331,-0.0851244306983928,-0.11133289952116514,-0.8495348468972258,-0.07696783174811013
301,8.358670499990694,0.08910105995859743,0.053482551631022994,-0.041792183003130125,0.027230112317804558,0.2827256666953096,-0.051639838061214145,-0.11324398543916847,0.08042480887827001,-0.085448000157054,-0.10655265918937787,-0.8520287070156354,-0.0770016641072802
302,8.36330009996891,0.08921450747964393,0.05467155421350497,-0.04200997927661694,0.026753208102823625,0.2830561652468474,-0.05199965499384494,-0.11368171967416447,0.07683862735803562,-0.0857717046315533,-0.10171626530721622,-0.854403909424963,-0.07703213007649738
303,8.3680192999891,0.08932594671181422,0.05586191420076429,-0.0422292907150357,0.02627450681661139,0.2833715701459077,-0.052360832720932116,-0.1140990096503345,0.07324271242135832,-0.08609553018633855,-0.09682472834193152,-0.856660309732589,-0.07705932985387955
304,8.371800899971277,0.0894353702826263,0.05705356806840899,-0.04245012303885587,0.02579409487322906,0.2836718415324698,-0.0527233717225329,-0.11449562575616502,0.06963756366036578,-0.0864194633014405,-0.09187908731231248,-0.8587977960015888,-0.07708335983001459
305,8.375658000004478,0.08954277118482365,0.05824645212892893,-0.04267248197044521,0.025312059642617672,0.2839569416472737,-0.05308727242273921,-0.11487134280584892,0.06602368107116496,-0.08674349085156373,-0.0868804082463457,-0.8608162870860365,-0.07710431030881792
306,8.379467999970075,0.08964814278035367,0.05944050254052879,-0.04289637323383809,0.024828489431744323,0.2842268348332526,-0.0534525351912774,-0.11522594014887547,0.06240156492799403,-0.0870676000758313,-0.08182978228874394,-0.8627157316639337,-0.07712226430379332
307,8.383837400004268,0.08975147880426586,0.06063565531596608,-0.04312180255451018,0.024343473465332353,0.28448148753643837,-0.05381916034497179,-0.11555920177157086,0.05877171565837131,-0.08739177854675706,-0.07672832518720217,-0.8644961078467547,-0.07713729752762022
308,8.388171700004023,0.08985277336852825,0.06183184633139174,-0.043348775659159074,0.023857101866154033,0.28472086830634463,-0.054187148149083625,-0.11587091640236974,0.05513463372052931,-0.08771601413990285,-0.07157717708190893,-0.8661574226303118,-0.07714947878907538
309,8.392131500004325,0.08995202096575995,0.06302901133519133,-0.043577298275490214,0.023369465634875842,0.28494494779584173,-0.05455649881851952,-0.11616087761158628,0.05149081948317976,-0.08804029500618726,-0.06637750182796928,-0.8676997114202487,-0.07715887075164969
310,8.39652379998006,0.09004921647287818,0.06422708595682458,-0.04380737613200769,0.02288065662951248,0.2851536987605294,-0.054927212518937646,-0.11642888391099006,0.04784077310693626,-0.08836460954791976,-0.061130488046928826,-0.8691230375261134,-0.07716553030757929
311,8.401275800017174,0.09014435515465807,0.06542600571566136,-0.04403901495780947,0.022390767544435114,0.28534709605761466,-0.05529928936775475,-0.11667473886241625,0.044184994428332174,-0.08868894639425356,-0.05583734971066783,-0.8704274917316301,-0.0771695082747968
312,8.404796399991028,0.09023743266720324,0.06662570602981176,-0.044272220482386646,0.021899891888912414,0.28552511664430985,-0.055672729435045976,-0.11689825118224965,0.04052398284485554,-0.08901329437467231,-0.05049932541728583,-0.8716131923881875,-0.07717084911589436
313,8.408661599969491,0.09032844506132524,0.06782612222494858,-0.04450699843542623,0.02140812396524051,0.285687739575744,-0.056047532744329,-0.117099234843948,0.036858237198181105,-0.0893376424920806,-0.04511767869482902,-0.8726802851956543,-0.07716959127710381
314,8.412943799979985,0.09041738878583028,0.06902718954311989,-0.044743354546617,0.02091555884642222,0.2858349460023792,-0.05642369927323767,-0.11727750918507913,0.0331882556610477,-0.08966197989914004,-0.03969369811794925,-0.8736289421630226,-0.07716576777248951
315,8.418462499976158,0.09050426069071102,0.07022884315154977,-0.04498129454545797,0.02042229235339726,0.2859667191669712,-0.05680122895410723,-0.1174328990108249,0.029514535629227085,-0.08998629587627059,-0.03422869688765793,-0.874459360605194,-0.07715940573999157
316,8.422641900018789,0.09058905803024193,0.07143101815142536,-0.04522082416106912,0.019928421031851412,0.2860830444010777,-0.057180121674463034,-0.1175652346974858,0.025837573616834284,-0.09031057980425468,-0.028724013555357326,-0.8751717618066617,-0.07715052509764189
317,8.427180400001816,0.09067177846597615,0.0726336495866682,-0.04546194912200401,0.01943404212857668,0.28618390912113884,-0.05756037727737546,-0.11767435230207103,0.022157865159529513,-0.09063482113094268,-0.023181013424658347,-0.8757663889922948,-0.07713913763265438
318,8.431879699986894,0.09075242006964208,0.07383667245268834,-0.04570467515606348,0.01893925356735925,0.28626930282417185,-0.05794199556166876,-0.1177600936775868,0.018475904726886046,-0.09095900933620003,-0.017601089813300795,-0.8762435053397579,-0.07712524647645304
319,8.435675800021272,0.09083098132593759,0.07504002170511954,-0.04594900799011,0.018444153924370536,0.28633921708311494,-0.05832497628198136,-0.11782230659323406,0.01479218564229967,-0.09128313389419979,-0.01198566552504385,-0.8766033925984155,-0.07710884536717716
320,8.439728299970739,0.09090746113521973,0.07624363226853421,-0.04619495334988191,0.01794884240304476,0.2863936455418486,-0.05870931914865769,-0.11786084486206942,0.011107200006966023,-0.09160718423217035,-0.006336194228098321,-0.8768463496493213,-0.07708991856837251
321,8.443890599999577,0.09098185881608781,0.07744743904513673,-0.04644251695980685,0.01745341880839688,0.28643258390990056,-0.059095023827461735,-0.11787556847279002,0.007421438631894732,-0.09193114969200454,-0.0006541604318037632,-0.8769726908633018,-0.07706844162936298
322,8.448011600004975,0.09105417410785717,0.07865137692343391,-0.04669170454281357,0.016957983520792388,0.28645602995689556,-0.05948208993914616,-0.11786634371719834,0.0037353909756886595,-0.09225501949539905,0.005058921027539746,-0.8769827457466479,-0.07704438113915278
323,8.452381499984767,0.09112440717292178,0.07985538078688165,-0.046942521820141775,0.016462637469193783,0.2864639835067373,-0.059870517058872814,-0.11783304331766503,4.954507953634511e-05,-0.09257878270339476,0.010801505453624488,-0.8768768588075639,-0.07701769359309982
324,8.456514600024093,0.09119255859900316,0.0810593855225065,-0.04719497451114904,0.015967482103858916,0.2864564464315117,-0.060260304715441776,-0.11777554655066852,-0.0036356124938861168,-0.09290242817198949,0.01657201983237728,-0.8766553894422534,-0.07698832489041971
325,8.460767399985343,0.09125862940128343,0.08226332602950107,-0.047449068333114165,0.015472619368548983,0.2864334226451553,-0.06065145239033871,-0.11769373936129375,-0.007319596724465082,-0.09322594450745438,0.022368863790191894,-0.8763187132586644,-0.07695621043984942
326,8.46574369998416,0.09132262102442065,0.08346713722779235,-0.047704809001036116,0.014978151672264406,0.2863949180968202,-0.0610439595165883,-0.11758751447871697,-0.011001924206874842,-0.09354932002283481,0.028190409429765834,-0.8758672238747383,-0.07692127487978094
327,8.470546600001398,0.09138453534444427,0.08467075406658138,-0.04796220222742771,0.014484181860482063,0.28634094076393524,-0.061437825477435995,-0.1174567715320844,-0.01468211322974366,-0.09387254269091426,0.03403500081649509,-0.8753013361511749,-0.07688343017276705
328,8.474770399974659,0.09144437467052867,0.0858741115328532,-0.048221253722103494,0.013990813185917094,0.28627150064490536,-0.06183304960480602,-0.11730141717031438,-0.0183596838750538,-0.09419560008469768,0.03990095278699474,-0.8746214898547096,-0.076842574121909
329,8.4791212999844,0.09150214174664287,0.08707714465985515,-0.048481969191960454,0.013498149278753077,0.2861866097513375,-0.06222963117748282,-0.11712136518799154,-0.02203415812810096,-0.09451847931790415,0.04578655200014742,-0.8738281486541065,-0.07679859122540808
330,8.483506700024009,0.09155783975307381,0.08827978853554154,-0.04874435434075062,0.013006294116345574,0.2860862820998154,-0.0626275694190689,-0.11691653663633393,-0.02570505996845466,-0.09484116699263358,0.051690060955907835,-0.8729217943491084,-0.07675135453264229
331,8.488270699977875,0.09161147230782139,0.08948197831098274,-0.0490084148688446,0.012515351992519515,0.28597053370336106,-0.06302686349572631,-0.1166868599153052,-0.029371915431406378,-0.0951636491554615,0.05760972133663431,-0.8719029213075667,-0.07670072783964553
332,8.49392340000486,0.09166304346786366,0.09068364920873809,-0.049274156472985206,0.012025427486498458,0.285839382562693,-0.06342751251376544,-0.11643227085649453,-0.0330342526521686,-0.09548591126356092,0.06354375676382447,-0.8707720341793297,-0.07664656699949297
333,8.498073700000532,0.09171255773029068,0.09188473653119152,-0.04954158484603072,0.011536625431505281,0.28569284865731587,-0.06382951551710173,-0.11615271279205587,-0.03669160190810595,-0.09580793815181217,0.06949037494774617,-0.8695296478695329,-0.0765887200263006
334,8.502230399986729,0.09176002003330576,0.09308517566884954,-0.04981070567668712,0.011049050883111942,0.2855309539364242,-0.06423287148456797,-0.11584813661951805,-0.04034349566270974,-0.09612971399979899,0.075447768271718,-0.868176287333557,-0.07652702714166622
335,8.506354900018778,0.0918054357570933,0.09428490210860044,-0.05008152464922879,0.010562809087295384,0.2853537223096221,-0.0646375793270936,-0.11551850086581258,-0.043989468606105524,-0.0964512222993087,0.08141411491325024,-0.8667124873389873,-0.07646132037892342
336,8.510731099988334,0.09184881072455149,0.09548385144193422,-0.05035404744320702,0.010078005448249069,0.2851611796374864,-0.06504363788474384,-0.11516377174265953,-0.047629057697026654,-0.09677244581800175,0.08738757912471513,-0.8651387926015256,-0.07639142303234556
337,8.515531999990344,0.09189015120188956,0.09668195937312249,-0.0506282797331458,0.00959474549597332,0.28495335372193376,-0.06545104592359352,-0.11478392320823595,-0.05126180220446433,-0.09709336656228183,0.093366309621184,-0.8634557575854477,-0.07631714979775163
338,8.520025899983011,0.09192946389908808,0.09787916172735742,-0.05090422718822408,0.009113134853568468,0.2847302742964336,-0.06585980213245417,-0.11437893703611361,-0.05488724374796381,-0.09741396574214738,0.09934843857550939,-0.8616639475728058,-0.07623830638796188
339,8.523792100022547,0.09196675597022123,0.09907539445884936,-0.05118189547194404,0.008633279204245704,0.28449197301603646,-0.06626990511945238,-0.11394880288537472,-0.05850492634826214,-0.09773422373082925,0.10533207984286733,-0.8597639418836303,-0.07615468773278065
340,8.5297230000142,0.09200203501363984,0.100270593658882,-0.05146129024178457,0.00815528425803084,0.28423848344716124,-0.06668135340841758,-0.11349351838447408,-0.062114396494653286,-0.09805412001451129,0.11131532566634231,-0.8577563384850704,-0.07606607551474676
341,8.534314399992581,0.09203530907201372,0.1014646955638241,-0.05174241714883921,0.007679255718070212,0.28396984105705736,-0.06709414543503776,-0.11301308922904761,-0.06571520323437019,-0.09837363313125361,0.11729624476085868,-0.8556417579406315,-0.07597223584374806
342,8.53786579996813,0.09206658663223155,0.10265763656309612,-0.052025281837437286,0.007205299246512267,0.28368608320284067,-0.06750827954273386,-0.11250752928188092,-0.06930689827314708,-0.09869274060116599,0.12327288299098042,-0.8534208437534816,-0.07587291808862223
343,8.542066299996804,0.09209587662515635,0.10384935320708974,-0.05230988994474717,0.006733520429973137,0.2833872491201102,-0.06792375397822853,-0.11197686066502023,-0.07288903606748735,-0.09901141885550971,0.12924326603433064,-0.8510942591933962,-0.07576785513503922
344,8.54616749996785,0.09212318842523505,0.10503978221503879,-0.052596247100360184,0.006264024744643938,0.28307337991120857,-0.0683405668868245,-0.11142111383735236,-0.07646117389855327,-0.09932964316903861,0.13520540248902072,-0.8486626827206133,-0.07565676415558871
345,8.550405099987984,0.09214853184996073,0.10622886048284017,-0.05288435892585417,0.005796917521104211,0.2827445185332175,-0.06875871630740465,-0.11084032766059465,-0.08002287192596687,-0.0996473875955743,0.14115728604670477,-0.8461268051513589,-0.07553934728853923
346,8.554980300017633,0.09217191715918636,0.10741652509082378,-0.053174231034335356,0.0053323039088745165,0.28240070978576615,-0.06917820016716886,-0.11023454945860832,-0.08357369323787317,-0.09996462490605287,0.14709689684759822,-0.8434873305031686,-0.07541529177708861
347,8.558691399986856,0.09219335505428909,0.108602713311471,-0.053465869029957674,0.00487028884073128,0.2820420002986056,-0.06959901627611322,-0.10960383507199815,-0.08711320391184683,-0.1002813265252706,0.15302220367680244,-0.8407449778198428,-0.07528427002710912
348,8.562607200001366,0.092212856677184,0.1097873626170802,-0.05375927850741824,0.004410976996800427,0.2816684385189053,-0.07002116232123518,-0.10894824889896358,-0.09064097308029587,-0.10059746247041607,0.15893116686147457,-0.8379004821495266,-0.07514594015824551
349,8.567199599987362,0.09223043360918658,0.11097041068737837,-0.05405446505142795,0.00395447276852884,0.2812800746982778,-0.07044463586049614,-0.10826786392554487,-0.09415657299959002,-0.10091300129244841,0.1648217400698443,-0.8349545961300626,-0.07499994622408
350,8.571669699973427,0.09224609786972363,0.11215179541707757,-0.0543514342361562,0.003500880222523737,0.28087696087949415,-0.07086943431653375,-0.10756276175135168,-0.0976595791287909,-0.10122791001648015,0.17069187276455233,-0.8319080920731942,-0.07484591814261436
351,8.575763800006825,0.09225986191489176,0.11333145492337493,-0.05465019162464866,0.003050303064307859,0.28045915088284673,-0.0712955549701234,-0.1068330325991866,-0.10114957021630018,-0.10154215408257102,0.17653951305313503,-0.8287617627148259,-0.07468347184885829
352,8.579511999967508,0.09227173863586363,0.11450932755339448,-0.054950742768216994,0.0026028446020779543,0.28002670029213617,-0.07172299495339278,-0.10607877531681256,-0.10462612838489632,-0.10185569728739345,0.18236260948705751,-0.8255164209298471,-0.07451220990113683
353,8.583873499999754,0.0922817413571418,0.11568535189156928,-0.0552530932057996,0.0021586077104451076,0.2795796664403197,-0.07215175124279308,-0.10530009737145378,-0.1080888392159856,-0.10216850173012308,0.18815911335137775,-0.8221728997077713,-0.07433172270819717
354,8.587825499998871,0.09228988383466016,0.11685946676696267,-0.05555724846329229,0.0017176947942394488,0.2791181083947895,-0.07258182065185868,-0.10449711483231632,-0.1115372918344341,-0.10248052776441922,0.19392698009004236,-0.8187320516648846,-0.07414159014185358
355,8.59213980002096,0.09229618025373354,0.11803161126052664,-0.05586321405284811,0.0012802077523974141,0.2786420869423083,-0.07301319982377469,-0.10366995235310798,-0.11497107898871785,-0.10279173395787118,0.19966416956293204,-0.8151947489028342,-0.07394138381388139
356,8.596198200015351,0.09230064522685556,0.11920172471229641,-0.05617099547214557,0.0008462479419133933,0.27815166457361373,-0.07344588522379575,-0.10281874315239824,-0.1183897971345661,-0.10310207706311829,0.20536864667662263,-0.8115618836190377,-0.07373066991576871
357,8.60054349998245,0.09230329379134525,0.12036974672851947,-0.05648059820362474,0.00041591614189208316,0.2776469054676508,-0.0738798731315708,-0.1019436289908359,-0.12179304652024255,-0.10341151200116708,0.2110383821788011,-0.8078343681514757,-0.07350901191767072
358,8.604945499973837,0.09230414140684269,0.12153561718871753,-0.05679202771369097,-1.0687482308356417e-05,0.27712787547545964,-0.07431515963342167,-0.10104476014483119,-0.12518043127056516,-0.10371999185519866,0.216671353148954,-0.8040131352080698,-0.07327597348712618
359,8.608682799967937,0.09230320395265423,0.12269927625268015,-0.05710528945188605,-0.0004334634148027218,0.27659464210370144,-0.07475174061461577,-0.10012229537964877,-0.12855155947411553,-0.10402746787842054,0.2222655428581429,-0.8000991383184213,-0.07303112166918249
360,8.612928199989256,0.09230049772494785,0.12386066436738825,-0.057420388850026996,-0.0008523128248094302,0.27604727449781324,-0.07518961175171071,-0.0991764019242685,-0.131906043271056,-0.10433388951460607,0.22781894095594077,-0.7960933514307933,-0.07277402874200513
361,8.61708950001048,0.09229603943379878,0.1250197222738661,-0.05773733132131286,-0.0012671376021656188,0.2754858434247957,-0.0756287685049996,-0.09820725544290708,-0.13524349893695128,-0.10463920442154441,0.23332954328351213,-0.7919967676975521,-0.07250427292921031
362,8.621249300020281,0.09228984620008643,0.1261763910139601,-0.058056122259399996,-0.0016778403927184217,0.27491042125566323,-0.0760692061110528,-0.09721504001145002,-0.13856354696037598,-0.10494335849756789,0.2387953514763944,-0.7878103987327918,-0.07222143883411762
363,8.625537700019777,0.09228193555224244,0.12733061193704337,-0.0583767670374462,-0.0020843246336419564,0.27432108194757937,-0.07651091957538628,-0.09619994809231236,-0.14186581212049587,-0.10524629590865228,0.24421437336172977,-0.7835352748644946,-0.07192511750770779
364,8.629785700002685,0.09227232542285074,0.12848232670664425,-0.058699271007124326,-0.0024864945886172805,0.27371790102565485,-0.07695390366523107,-0.09516218050753149,-0.1451499235667951,-0.10554795911551536,0.2495846230984451,-0.7791724446427545,-0.07161490701090935
365,8.63376050000079,0.09226103414509994,0.1296314773069979,-0.059023639497605654,-0.0028842553829231976,0.2731009555644128,-0.07739815290242945,-0.09410194641244948,-0.14841551489252353,-0.10584828890544379,0.2549041221818974,-0.7747229731829329,-0.07129041282312129
366,8.638145499979146,0.09224808044908832,0.13077800604951906,-0.059349877814513785,-0.003277513038394988,0.2724703241689692,-0.07784366155647199,-0.09301946326036097,-0.1516622242004966,-0.1061472244228257,0.2601709005887521,-0.7701879411624334,-0.07095124691833847
367,8.642550199991092,0.09223348345798243,0.1319218555791954,-0.059677991238849495,-0.0036661745082180452,0.27182608695594535,-0.0782904236376503,-0.09191495676657158,-0.1548896941681096,-0.10644470319321153,0.26538299754803296,-0.76556844419223,-0.07059702593194214
368,8.64667470002314,0.09221726268402962,0.13306296888089983,-0.060007985025887056,-0.0040501477115844845,0.27116832553410153,-0.07873843289029642,-0.09078866086656442,-0.15809757210785458,-0.10674066113843665,0.2705384631999656,-0.7608655912904315,-0.07022736933829266
369,8.650812399981078,0.09219943802442523,0.13420128928562108,-0.060339864404042265,-0.0044293415681351265,0.2704971229847407,-0.0791876827860626,-0.08964081766611437,-0.16128551001950342,-0.10703503258536312,0.2756353601847432,-0.7560805032482171,-0.0698418980020777
370,8.6547243000241,0.09218002975703568,0.1353367604766113,-0.060673634573712276,-0.004803666032196767,0.2698125638419039,-0.07963816651723422,-0.08847167738609935,-0.16445316463688892,-0.107327750268825,0.2806717652547521,-0.7512143113296684,-0.0694402324487969
371,8.658860999974422,0.09215905853597785,0.1364693264954501,-0.06100930070608742,-0.005173032126760247,0.26911473407238024,-0.08008987699003438,-0.08728149829906232,-0.16760019746915863,-0.10761874532583184,0.28564577121377865,-0.7462681552064165,-0.06902199071574186
372,8.66302119998727,0.0921365453870565,0.13759893174802415,-0.06134686794193475,-0.005537351977184466,0.2684037210555558,-0.08054280681788797,-0.08607054665772168,-0.17072627483019467,-0.10790794728044935,0.29055548934688896,-0.7412431806259576,-0.06858678630805522
373,8.6673226999701,0.09211251170306041,0.13872552101042185,-0.06168634139035325,-0.00589653884457351,0.26767961356317643,-0.08099694831459928,-0.08483909661110772,-0.17383106786026747,-0.10819528402082162,0.2953990518504055,-0.7361405385718448,-0.06813422694725275
374,8.671333400008734,0.09208697923891919,0.1398490394347428,-0.06202772612750001,-0.006250507158775707,0.26694250173901424,-0.08145229348742286,-0.0835874301126467,-0.17691425254839616,-0.10848068177353193,0.300174614051432,-0.7309613849761528,-0.06766391410535683
375,8.675469600013457,0.09205997010672202,0.14096943255482156,-0.062371027195287206,-0.006599172550988118,0.2661924770784427,-0.08190883403002562,-0.08231583681764003,-0.17997550975158533,-0.1087640650767088,0.30488035662757185,-0.7257068800265841,-0.06717544310998216
376,8.679478799982462,0.09203150677060043,0.14208664629186538,-0.06271624960004912,-0.006942451885893806,0.26542963240794143,-0.08236656131533165,-0.08102461397268947,-0.18301452521136097,-0.10904535675527023,0.3095144877331225,-0.720378187182103,-0.06666840366833225
377,8.683592899993528,0.09200161204147685,0.1432006269600057,-0.06306339831117896,-0.007280263293336831,0.2646540618645323,-0.08282546638827618,-0.07971406629530357,-0.18603098956473268,-0.10932447789843447,0.3140752443774085,-0.7149764716755601,-0.06614238034856978
378,8.687263600004371,0.09197030907168113,0.14431132127176313,-0.06341247825973498,-0.007612526199447498,0.2638658608751919,-0.08328553995846136,-0.07838450585173667,-0.1890245983481427,-0.10960134783901057,0.31856089151369005,-0.709502899580407,-0.06559695325623317
379,8.691493600024842,0.09193762134943753,0.1454186763434257,-0.06376349433701553,-0.007939161357290473,0.2630651261362547,-0.08374677239273616,-0.07703625194425391,-0.19199505200058292,-0.10987588413659514,0.3229697229972253,-0.7039586389812517,-0.06503169890919688
380,8.696146700007375,0.09190357269322352,0.1465226397003408,-0.06411645139310286,-0.00826009087704238,0.2622519555927992,-0.08420915370771093,-0.07566963098091677,-0.1949420558773836,-0.1101480025642178,0.3273000664448909,-0.6983448639937837,-0.06444619055544847
381,8.700730099983048,0.09186818724600312,0.1476231592821202,-0.06447135423537523,-0.008575238255545334,0.2614264484179349,-0.08467267356222495,-0.07428497632199828,-0.19786532028712184,-0.11041761709420914,0.3315502873706269,-0.6926627600809686,-0.06383999778638139
382,8.704576699994504,0.09183148946933732,0.14872018344775778,-0.06482820762698735,-0.008884528405193517,0.26058870499187875,-0.08513732124974228,-0.07288262811500612,-0.2007645605500979,-0.11068463988159549,0.33571879068100374,-0.6869135260272816,-0.06321268730727224
383,8.70898210001178,0.09179350413737454,0.14981366098065876,-0.06518701628531863,-0.009187887682099917,0.2597388268807503,-0.08560308569067972,-0.07146293312852613,-0.20363949705183915,-0.11094898125644358,0.33980401988083575,-0.6810983711828014,-0.06256382575387144
384,8.712863399996422,0.09175425633072432,0.15090354109357912,-0.0655477848803891,-0.00948524391358619,0.2588769168151982,-0.08606995542473823,-0.07002624459392295,-0.20648985527841038,-0.11121054973093143,0.34380445534396825,-0.675218512927261,-0.061892982915935
385,8.716565800015815,0.09171377143021668,0.15198977343347514,-0.06591051803324322,-0.009776526425018748,0.2580030786688988,-0.08653791860329044,-0.06857292205371933,-0.2093153658486005,-0.11146925201878993,0.34771861309838453,-0.6692751751868574,-0.06119973379354734
386,8.721149899996817,0.09167207511055026,0.15307230808626215,-0.06627522031430175,-0.010061666066024096,0.25711741743691213,-0.08700696298187542,-0.06710333121350907,-0.21211576453676523,-0.11172499305965918,0.35154504545722576,-0.6632695878693741,-0.06048365971798827
387,8.725385300000198,0.09162919333383127,0.15415109558148213,-0.06664189624168253,-0.010340595236080106,0.25622003921398817,-0.08747707591279094,-0.065617843785032,-0.21489079230026548,-0.11197767604795195,0.3552823439158542,-0.6572029903177038,-0.05974434935749271
388,8.729678399977274,0.09158515234300652,0.15522608689688003,-0.0670105502794901,-0.010613247909412246,0.2553110511726924,-0.08794824433783091,-0.06411683731373434,-0.21764019533134024,-0.1122272024656645,0.3589291413714754,-0.6510766329549288,-0.05898139897454535
389,8.733113800000865,0.09153997865519313,0.15629723346288754,-0.06738118683607536,-0.010879559659135332,0.2543905615412762,-0.08842045478115337,-0.06260069500318549,-0.2203637250983735,-0.11247347211340286,0.3624841105344065,-0.6448917735377383,-0.05819441363885198
390,8.737743099976797,0.09149369905490859,0.15736448716701343,-0.06775381026226528,-0.011139467680673807,0.2534586795814551,-0.08889369334227881,-0.06106980555599332,-0.22306113836627336,-0.11271638315338976,0.36594596105423416,-0.638649673794067,-0.05738301024288374
391,8.74119560001418,0.0914463405872036,0.15842780035814044,-0.06812842484956369,-0.011392910814566235,0.2525155155661082,-0.08936794568931963,-0.05952456302237837,-0.22573219720947518,-0.11295583216583956,0.3693134403141561,-0.6323515978361526,-0.0565468198145024
392,8.746096900023986,0.09139793055070046,0.15948712585072822,-0.06850503482832411,-0.011639829568612694,0.25156118075694694,-0.08984319705245236,-0.057965366634411916,-0.22837666901898082,-0.11319171421140505,0.3725853372627237,-0.6259988132332821,-0.05568548936293159
393,8.750793799990788,0.09134849649053971,0.1605424169289225,-0.06888364436589563,-0.011880166139285882,0.25059578738215543,-0.09031943221767205,-0.05639262062238065,-0.23099432652437918,-0.11342392290306953,0.3757604858719764,-0.6195925941000272,-0.05479868400559313
394,8.75467110000318,0.09129806619123854,0.16159362735057,-0.06926425756474323,-0.01211386443233488,0.24961944861387422,-0.09079663552086881,-0.054806734019955755,-0.23358494782684522,-0.1136523504864718,0.37883776651575807,-0.6131342220244049,-0.053886088461733844
395,8.758787899976596,0.09124666766946428,0.1626407113511385,-0.06964687846054393,-0.012340870082558505,0.24863227854556294,-0.0912747908422574,-0.05320812046897151,-0.2361483164289625,-0.11387688792435358,0.381816105759496,-0.6066249840143251,-0.0529474073576372
396,8.76407560001826,0.09119432916672655,0.1636836236475413,-0.07003151102026023,-0.012561130472768058,0.24763439216923366,-0.09175388160116364,-0.051597198026361465,-0.23868422125046013,-0.11409742497945005,0.3846944757761554,-0.6000661684352252,-0.05198236485246826
397,8.76748919999227,0.09114107914199138,0.1647223194418659,-0.07041815914019242,-0.01277459475193778,0.24662590535268114,-0.09223389075115081,-0.04997438897384652,-0.24119245662388714,-0.11431385029579225,0.3874718936918504,-0.593459062296197,-0.05099070424018169
398,8.771605100017041,0.09108694626422073,0.16575675442500726,-0.07080682664401113,-0.012981213852567845,0.24560693481675255,-0.09271480077548941,-0.04834011963037187,-0.2436728222875367,-0.1145260514782512,0.3901474213758196,-0.5868049501768433,-0.04997218774015237
399,8.776687400008086,0.09103195940484073,0.16678688478020517,-0.07119751728077148,-0.01318094050725817,0.2445775981126372,-0.09319659368295226,-0.04669482016356055,-0.2461251233720997,-0.11473391517208036,0.39272016597760767,-0.580105112918466,-0.048926596708106576
400,8.780658899981063,0.09097614763014185,0.16781266718648674,-0.07159023472291032,-0.013373729264486486,0.2435380135992485,-0.0936792510039529,-0.045038924397634864,-0.24854917038258714,-0.11493732714423281,0.39518928107188955,-0.5733608272956899,-0.047853731751612054
401,8.784212299971841,0.09091954019361449,0.16883405882201366,-0.07198498256422793,-0.013559536503567542,0.24248830042066558,-0.0941627537870242,-0.043372869615246536,-0.2509447791822233,-0.11513617236387454,0.39755396757001604,-0.566573365178213,-0.04675341235592966
402,8.787891099986155,0.09086216652822346,0.16985101736733496,-0.07238176431785563,-0.013738320448765369,0.24142857848365062,-0.09464708259563358,-0.04169709635773571,-0.2533117709673219,-0.11533033508055657,0.39981347362620767,-0.5597439918009013,-0.04562547639556848
403,8.792279399989638,0.09080405623862486,0.1708635010085454,-0.07278058341421073,-0.013910041182573461,0.2403589684353018,-0.09513221750531872,-0.04001204822774968,-0.2556499722366377,-0.11551969890062232,0.40196709445068074,-0.5528739654801896,-0.044469780365639124
404,8.796262699994259,0.090745239093329,0.17187146844035026,-0.07318144319894004,-0.014074660658167861,0.23927959164082815,-0.09561813810114508,-0.0383181716910727,-0.25795921476385886,-0.11570414686732455,0.4040141729640784,-0.5459645379911807,-0.04328620027076971
405,8.800634099985473,0.09068574501681258,0.17287487886903702,-0.07358434693085349,-0.014232142711021531,0.23819057016143372,-0.09610482347551505,-0.03661591587374358,-0.26023933557012824,-0.1158835615447049,0.4059541004981579,-0.5390169535408436,-0.04207463202262493
406,8.804650100006256,0.09062560408158393,0.17387369201535421,-0.07398929777984917,-0.014382453069652006,0.23709202673232346,-0.09659225222633054,-0.03490573235799559,-0.2624901768879045,-0.11605782510105236,0.4077863167258234,-0.5320324477365405,-0.040834990947324
407,8.808728999982122,0.09056484650020494,0.17486786811729815,-0.07439629882483154,-0.014525559365520448,0.23598408474089116,-0.09708040245550373,-0.033188074979962165,-0.26471158612481305,-0.11622681938864218,0.4095103103386593,-0.5250122487545718,-0.039567210783605075
408,8.813130899972748,0.09050350261727301,0.1758573679328085,-0.07480535305162396,-0.014661431142078815,0.23486686820502922,-0.09756925176778991,-0.031463399619921444,-0.26690341583732974,-0.11639042601877296,0.4111256208460158,-0.5179575772027308,-0.03827124284046107
409,8.817183099978138,0.09044160290136695,0.1768421527423727,-0.07521646335087706,-0.014790039862905719,0.23374050175153774,-0.098058777269929,-0.02973216398487898,-0.2690655236934765,-0.11654852643442463,0.41263183948626136,-0.5108696442973,-0.036947055739255635
410,8.821677699976135,0.09037917793696057,0.17782218435153993,-0.07562963251597407,-0.01491135891892599,0.23260511059474792,-0.09854895557008914,-0.02799482739115228,-0.271197772431181,-0.11670100198312783,0.4140286105818287,-0.5037496519062448,-0.03559463489994783
411,8.825727800023742,0.09031625841630785,0.17879742509334595,-0.0760448632409345,-0.015025363634718946,0.2314608205152812,-0.09903976277762075,-0.026251850535563035,-0.2733000298213351,-0.11684773398530304,0.4153156336654308,-0.49659879255278094,-0.03421398130356137
412,8.829812599986326,0.09025287513130352,0.17976783783064854,-0.07646215811831741,-0.015132031273814602,0.2303077578389831,-0.09953117450307461,-0.024503695260148745,-0.2753721686261848,-0.11698860379672736,0.41649266378372035,-0.4894182497892797,-0.03280511067574675
413,8.833860500017181,0.09018905896532373,0.1807333859583751,-0.07688151963712526,-0.015231341043024114,0.22914604941603225,-0.10002316585848096,-0.022750824320802398,-0.2774140665655317,-0.11712349287001068,0.41755951175455097,-0.48220919856808947,-0.03136805317941352
414,8.837924499996006,0.0901248408850502,0.18169403340568263,-0.07730295018070951,-0.015323274095791185,0.22797582260015828,-0.10051571145788439,-0.02099370114982157,-0.27942560627823976,-0.1172522828144787,0.41851604489106004,-0.47497280332861386,-0.02990285280902883
415,8.84211480000522,0.09006025193228272,0.1826497446380306,-0.07772645202467894,-0.015407813534526494,0.22679720522807434,-0.10100878541812629,-0.01923278961846147,-0.2814066752723572,-0.11737485545255764,0.41936218646409484,-0.4677102172486091,-0.028409566247958054
416,8.846646899997722,0.0899953232157437,0.183600484659168,-0.07815202733481187,-0.01548494441196313,0.22561032559911443,-0.1015023613598537,-0.017468553804002886,-0.2833571658803294,-0.11749109287005205,0.42009791465131696,-0.4604225834115726,-0.026888261837153364
417,8.850336499977857,0.08993008590287926,0.18454621901303508,-0.07857967816497295,-0.015554653731533011,0.2244153124550423,-0.10199641240872445,-0.015701457761139025,-0.2852769752189339,-0.11760087746386036,0.42072326199957877,-0.4531110343884532,-0.025339019015416152
418,8.854516699968372,0.08986457121166062,0.18548691378558066,-0.0790094064550355,-0.01561693044680059,0.22321229496002554,-0.10249091119681705,-0.0139319652935627,-0.28716600514097734,-0.11770409198754757,0.42123831488722674,-0.4457766898988586,-0.023761927923259728
419,8.858555399987381,0.08979881040238993,0.18642253560649552,-0.07944121402881014,-0.015671765459919246,0.2220014026808506,-0.10298582986421892,-0.01216053972987304,-0.28902416217557036,-0.11780061959573086,0.42164321170211133,-0.43842065634403654,-0.022157089354782663
420,8.86335409997264,0.08973283476951467,0.18735305165086344,-0.07987510259198052,-0.01571915161918127,0.22078276556739893,-0.1034811400608094,-0.010387643710478284,-0.2908513574758989,-0.11789034388924774,0.4219381414162536,-0.4310440279762774,-0.02052461492245441
421,8.867047899984755,0.08966667563345405,0.18827842964073044,-0.08031107373004691,-0.01575908371568296,0.21955651393330086,-0.10397681294822765,-0.008613738975483797,-0.2926475067693292,-0.11797314896092682,0.4221233420903236,-0.42364788596358904,-0.01886462747701796
422,8.871196200023405,0.08960036433244147,0.1891986378465932,-0.08074912890627844,-0.015791558479091614,0.21832277843683134,-0.10447281920204043,-0.006839286164166177,-0.2944125302973166,-0.11804891944428568,0.4221990980001685,-0.4162332971763718,-0.01717726105957121
423,8.875552300014533,0.08953393221438645,0.19011364508880768,-0.081189269459675,-0.015816574572624992,0.21708169006206895,-0.10496912901411934,-0.005064744627015607,-0.2961463527553115,-0.11811754055889882,0.42216573786068057,-0.4088013155857811,-0.015462659759297219
424,8.879567799973302,0.08946741062875935,0.19102342073891926,-0.08163149660293939,-0.01583413258723835,0.21583338010029665,-0.10546571209518993,-0.0032905722401400756,-0.29784890324442254,-0.11817889814949364,0.42202363377443824,-0.40135298338715486,-0.013720976520716934
425,8.88401999999769,0.08940083091850215,0.19192793472091493,-0.08207581142046065,-0.01584423503504379,0.2145779801315672,-0.10596253767753762,-0.0015172252261454224,-0.2995201152207663,-0.11823287872129222,0.421773200204331,-0.3938893292732454,-0.011952372511671635
426,8.888516000006348,0.08933422441196845,0.19282715751239846,-0.08252221486630901,-0.015846886341991613,0.21331562200652968,-0.1064595745178539,0.0002548420228243504,-0.3011599264326154,-0.11827936947379451,0.42141489301482626,-0.3864113671697816,-0.010157016961094615
427,8.892101700010244,0.08926762241489582,0.19372106014568988,-0.08297070776224308,-0.01584209283980216,0.2120464378285232,-0.1069567909002262,0.002025177116147948,-0.30276827885911894,-0.1183182583347565,0.42094920811685016,-0.3789200971220321,-0.008335087158421801
428,8.89640710002277,0.08920105620241357,0.1946096142088501,-0.08342129079572998,-0.01582986275720922,0.21077055993591856,-0.1074541546392697,0.003793329830295376,-0.3043451186549033,-0.1183494339939684,0.42037668095454217,-0.37141650688683014,-0.006486768851307365
429,8.900379099999554,0.08913455701108877,0.19549279184663196,-0.08387396451797884,-0.015810206210500104,0.20948812088467766,-0.1079516330834012,0.005558852275574485,-0.3058903961021753,-0.11837278594057601,0.419697885499926,-0.36390157305482546,-0.004612257017083248
430,8.90463429997908,0.08906815603101349,0.19637056576135825,-0.08432872934198843,-0.0157831351933574,0.20819925343109774,-0.10844919311828458,0.00732129905324879,-0.30740406556475613,-0.11838820450334382,0.4189134318930012,-0.3563762613258156,-0.0027117565385795317
431,8.908834500005469,0.08900188439793622,0.19724290921372772,-0.08478558554060966,-0.015748663566078312,0.2069040905147572,-0.10894680117044314,0.009080227402446692,-0.30888608544249935,-0.11839558089365722,0.418023964689894,-0.34884152623144676,-0.0007854835135323758
432,8.912284899968654,0.08893577318543973,0.1981097960235497,-0.08524453324462357,-0.015706807044181495,0.20560276524164298,-0.10944442321106661,0.010835197342553301,-0.3103364181229938,-0.11839480725679248,0.41703016118031144,-0.3412983113716552,0.0011663332026950381
433,8.916971599974204,0.08886985339716828,0.1989712005704083,-0.08570557244083578,-0.015657583186429458,0.2042954108675024,-0.10994202476005434,0.012585771805976215,-0.3117550299379688,-0.11838577672788708,0.41593273129410374,-0.33374755151225743,0.0031434517174211995
434,8.921038199972827,0.08880415595910618,0.19982709779425709,-0.08616870297018851,-0.01560101138231937,0.20298216078133705,-0.11043957089029287,0.014331516779751917,-0.3131418911326297,-0.11836838348556072,0.41473242138650596,-0.3261901755777143,0.005145617544522265
435,8.925357399974018,0.08873871171191007,0.2006774631959446,-0.08663392452589103,-0.015537112838915129,0.2016631484890122,-0.11093702623214986,0.016072001470130187,-0.3144969758472201,-0.11834252280415444,0.4134300180929787,-0.3186271093630242,0.007172563791992461
436,8.929538599972147,0.08867355140329825,0.20152227283767113,-0.08710123665156935,-0.015465910566954668,0.20033850759690586,-0.11143435497819076,0.017806798476584194,-0.31582026210915337,-0.11830809110577502,0.4120263491704181,-0.31105927688652574,0.00922401134754481
437,8.933585499995388,0.08860870568049971,0.20236150334337685,-0.08757063873943641,-0.015387429366219306,0.1990083717955843,-0.11193152088811023,0.019535483963466094,-0.3171117318259466,-0.11826498601097392,0.4105222821890021,-0.3034876002984093,0.011299669369618272
438,8.938012800004799,0.08854420508276645,0.2031951318990614,-0.08804213002848318,-0.01530169581019812,0.19767287484351045,-0.1124284872938748,0.021257637823020814,-0.31837137077658306,-0.11821310638666432,0.40891872329356144,-0.2959129991304291,0.013399236152909678
439,8.942056100000627,0.08848008003395143,0.20402313625303503,-0.08851570960269209,-0.015208738230087001,0.1963321505507921,-0.11292521710505708,0.02297284383662977,-0.3195991685981392,-0.11815235238952443,0.40721661643262946,-0.28833638992512095,0.015522399244448289
440,8.946321600000374,0.08841636083515536,0.20484549471610156,-0.08899137638927297,-0.015108586698097627,0.19498633276300256,-0.11342167281434333,0.024680689831344062,-0.3207951187740304,-0.11808262551293874,0.4054169420969111,-0.2807586864683346,0.01766883464857068
441,8.95042090001516,0.088353077657445,0.20566218616167353,-0.08946912915692276,-0.015001273010140696,0.1936355553450279,-0.11391781650326219,0.026380767830523802,-0.3219592186225925,-0.11800382863708436,0.4035207162676481,-0.2731807984780409,0.01983820668766532
442,8.954629399988335,0.08829026053464549,0.20647319002581946,-0.08994896651410965,-0.01488683066786863,0.19227995216498348,-0.11441360984811325,0.028072674201531294,-0.323091469274306,-0.11791586607704284,0.40152898901490724,-0.2656036303477922,0.02203016788511735
443,8.959311600017827,0.08822793935620958,0.2072784863072437,-0.09043088690738256,-0.014765294860117307,0.1909196570782525,-0.11490901412610029,0.029756009794587597,-0.3241918756498147,-0.11781864363387042,0.39944284267514685,-0.25802808170369124,0.024244358287929736
444,8.963021699979436,0.088166143860166,0.2080780555671995,-0.0909148886197069,-0.014636702443781536,0.18955480391158755,-0.1154039902216891,0.0314303800751464,-0.3252604464418321,-0.11771206864840393,0.3972633897483224,-0.2504550467036381,0.02648040548968789
445,8.967535300005693,0.08810490362614942,0.20887187892933534,-0.09140096976882744,-0.014501091924144059,0.18818552644730113,-0.115898498633193,0.03309539524507368,-0.32629719408726954,-0.11759605005213801,0.39499177035128025,-0.24288541212437542,0.02873792549434328
