,time,x,y,z,vx,vy,vz,ax,ay,az,jx,jy,jz
0,19.497615200001743,-0.027024949835468322,-0.04260434985607878,-0.005429944176075125,-0.0034362897908130994,-0.02344374678304494,0.005901117058072773,0.008658176382992705,0.02709712619796859,0.012314374888263936,0.08661488571613081,0.11783761588904416,-0.040111382404269195
1,19.501554500006023,-0.02704150923553743,-0.04271770049704574,-0.0054011873129574985,-0.003393291702524427,-0.023310978770421015,0.00596035293937157,0.009079322966314283,0.027669197859365825,0.012118237628629173,0.0871005543565757,0.1181353274499346,-0.04079272480148428
2,19.505548400004045,-0.02705785520500881,-0.042830400675765316,-0.005372145544759153,-0.0033482459373590174,-0.023175433516674712,0.006018629822169311,0.009502806370491952,0.02824270604971984,0.011918800383673694,0.08757872751710326,0.11843017241531645,-0.04147254596700014
3,19.509649400002672,-0.027073977788063957,-0.042942436909644714,-0.005342823560062765,-0.0033011412531362663,-0.023037104090357984,0.006075931724069721,0.009928589886305893,0.028817636876609928,0.011716070774004272,0.08804925448483873,0.11872215328092442,-0.04215074538374968
4,19.51391710000462,-0.027089866974807142,-0.04305379568264668,-0.005313226124853534,-0.0032519665874340465,-0.022895983627352495,0.006132242700806982,0.010356636076447582,0.02939397645875806,0.011510056905408189,0.08851198557421568,0.1190112720862848,-0.04282722336689073
5,19.5179644000018,-0.027105512702145534,-0.04316446344561582,-0.005283358082328594,-0.0032007110611081743,-0.022752065330819485,0.006187546848588118,0.010786906780168914,0.029971710923521196,0.011300767365154344,0.08896677220684457,0.11929753004875228,-0.04350188088700462
6,19.526708800010965,-0.027120904854686358,-0.043274426616604696,-0.005253224352695129,-0.0031473639817882677,-0.022605342471166173,0.0062418283064196245,0.011219363119369581,0.03055082640142621,0.011088211219336381,0.08941346715878823,0.11958092730524493,-0.044174619388351155
7,19.530529200012097,-0.02713603326565091,-0.043383671581199816,-0.005222829932957227,-0.0030919148473381843,-0.022455808386048614,0.006295071258424093,0.011653965505644065,0.031131309021157783,0.010872398010936219,0.08985192468617195,0.11986146312549673,-0.04484534065569486
8,19.53534120001132,-0.027150887717805286,-0.043492184692847775,-0.005192179896691524,-0.0030343533492835427,-0.022303456480386705,0.006347259936148059,0.012090673647587077,0.03171314490616127,0.010653337758458581,0.09028200054800296,0.12013913578960458,-0.04551394666405046
9,19.53934900001332,-0.027165457944407622,-0.04359995227318139,-0.005161279393811681,-0.002974669376201318,-0.02214828022639999,0.006398378620865384,0.012529446558061843,0.03229632016844313,0.010431040955451576,0.0907035518805648,0.12041394210916533,-0.04618033942075261
10,19.543019600008847,-0.027179733630171694,-0.04370696061234618,-0.005130133650321693,-0.002912853017076882,-0.02199027316368277,0.006448411645880456,0.012970242560287516,0.0328808209005302,0.010205518570672706,0.0911164370642916,0.12068587728271869,-0.04684442083041998
11,19.54723960001138,-0.027193704412246722,-0.043813195969327215,-0.00509874796805803,-0.0028488945646345672,-0.0218294288993179,0.006497343398833182,0.01341301929381652,0.03346663316786829,0.00997678204891891,0.09152051573521432,0.12095493494876947,-0.047506092547522305
12,19.551340600010008,-0.027207359881213256,-0.04391864457227673,-0.005067127724420597,-0.002782784518636744,-0.0216657411080256,0.006545158324010237,0.013857733720732958,0.03405374300129566,0.009744843312622266,0.09191564875064294,0.12122110712494501,-0.048165255849875806
13,19.55589050000708,-0.027220689582094976,-0.04402329261884242,-0.0050352783720924565,-0.0027145135891542783,-0.021499203532350238,0.006591840924665529,0.01430434213129717,0.03464213638885161,0.009509714763906765,0.0923016981663806,0.12148438409391499,-0.04882181156249216
14,19.55991820000054,-0.02723368301538629,-0.044127126276496814,-0.0050032054387482905,-0.0026440726998108706,-0.021329809982888578,0.006637375765351396,0.014752800149923183,0.03523179926714365,0.009271409286922461,0.09267852728240303,0.12174475459377124,-0.04947566003097706
15,19.563785000005737,-0.027246329638095604,-0.04423013168286783,-0.004970914526751519,-0.0025714529909955505,-0.02115755433856027,0.006681747474261703,0.015203062741266227,0.0358227175150023,0.009029940250160214,0.0930460006428038,0.12200220622874501,-0.050126701113993845
16,19.568699900002684,-0.027258618864804057,-0.04433229494607077,-0.004938411312840035,-0.0024966458230479844,-0.020982430546897638,0.006724940745585485,0.01565508421619966,0.036414876948831054,0.008785321508858914,0.09340398418040925,0.12225672540829292,-0.05077483413086384
17,19.57266660001187,-0.027270540068739687,-0.04443360214504167,-0.004905701547800505,-0.0024196427794130095,-0.020804432624361262,0.006766940341873391,0.016108818239304833,0.03700826331567044,0.008537567407828354,0.09375234544505805,0.12250829726352849,-0.05141995781303964
18,19.57633790001273,-0.027282082582866764,-0.04453403932987235,-0.0048727910561311505,-0.0023404356697533115,-0.02062355465669702,0.006807731096418696,0.016564217837061697,0.03760286228773764,0.008286692784327029,0.09409095372535546,0.12275690593636748,-0.05206197027564069
19,19.58052580000367,-0.02729323570099013,-0.04463359252214724,-0.004839685735692964,-0.002259016533024533,-0.02043979079930461,0.006847297915651655,0.01702123540651933,0.03819865945829445,0.008032712971161031,0.09441968021225683,0.12300253448054414,-0.052700768920400376
20,19.58476320000773,-0.02730398867887435,-0.04473224771528202,-0.004806391557349271,-0.002175377640503871,-0.02025313527763469,0.006885625781550566,0.017479822725072845,0.038795640335227005,0.00777564380050299,0.09473839810561524,0.12324516462580985,-0.05333625031198459
21,19.588876699999677,-0.02731433073537743,-0.044829990874864244,-0.004772914564593563,-0.002089511498770377,-0.020063582387619638,0.006922699754073153,0.01793993096016713,0.03939379033462717,0.007515501608190329,0.095046982602791,0.12348477680822201,-0.05396831010007873
22,19.594404000003124,-0.027324251053598866,-0.044926807938996206,-0.0047392608731654864,-0.0020014108526394563,-0.019871126496132922,0.006958504973609315,0.018401510678963298,0.03999309477466596,0.007252303238299741,0.09534531094804631,0.12372135016258913,-0.054596842982196254
23,19.599144200008595,-0.02733373878204181,-0.04502268481864002,-0.004705436670654885,-0.0019110686880494296,-0.019675762041479302,0.0069930266634568635,0.018864511858521428,0.040593538869101664,0.0069860660478060985,0.09563326250869669,0.12395486248467942,-0.05522174273316841
24,19.60352220000641,-0.02734278303578912,-0.045117607397965186,-0.004671448216093786,-0.0018184782348972888,-0.019477483533917136,0.007026250132319454,0.01932888389620545,0.0411951077207868,0.006716807910870962,0.095910718923504,0.12418529013179469,-0.055842902304179515
25,19.610344200002142,-0.027351372897693026,-0.045211561534698796,-0.004637301839536218,-0.001723632969824361,-0.019276285556211543,0.00705816077682391,0.019794575621304898,0.04179778631421209,0.006444547222541125,0.09617756442983166,0.12441260803074246,-0.05646021399004896
26,19.613909900013823,-0.027359497419578185,-0.04530453306047844,-0.004603003941625786,-0.0016265266189393654,-0.019072162764229017,0.007088744084054014,0.020261535308612265,0.04240155950909073,0.0061693029014149615,0.09643368605391282,0.12463678987576918,-0.057073569688005386
27,19.618381300009787,-0.027367145623457753,-0.04539650778120817,-0.0045685609931509176,-0.0015271531604724158,-0.018865109887552804,0.007117985634093694,0.020729710691889825,0.04300641203482175,0.005891094390831587,0.09667897356899917,0.1248578080825599,-0.057682861161209714
28,19.622681700013345,-0.027374306502762187,-0.04548747147741738,-0.004533979534587778,-0.001425506827367487,-0.018655121730131206,0.0071458711025723445,0.02119904897704116,0.0436123284836282,0.0056099416589817765,0.09691331932794481,0.12507563385697196,-0.05828798022221593
29,19.626513800001703,-0.027380969023580448,-0.04557740990462305,-0.004499266175630835,-0.0013215821098086903,-0.018442193170959496,0.0071723862632090876,0.021669496853954508,0.04421929330568704,0.005325865198318075,0.09713661808058016,0.12529023736984196,-0.058888818905207266
30,19.634999600006267,-0.0273871221259133,-0.045666308793695265,-0.004464427594711098,-0.0012153737576978932,-0.01822631916477545,0.007197516990352374,0.022141000507903325,0.04482729080396248,0.005038886023995505,0.09734876719819847,0.12550158760505453,-0.05948526969528104
31,19.63916340000287,-0.027392754724938545,-0.04575415385122618,-0.004429470538502058,-0.0011068767830704413,-0.01800749474279137,0.007221249261509122,0.022613505633566528,0.04543630512786254,0.004749025671058264,0.09754966696270564,0.12570965229862593,-0.06007722575571304
32,19.64377830000012,-0.02739785571228774,-0.04584093075990263,-0.0043944018214134,-0.0009960864624368215,-0.017785715013451112,0.007243569159857042,0.023086957449233003,0.0460463202674817,0.004456306190676608,0.09773922048671879,0.1259143979003711,-0.060664581043033475
33,19.64940480000223,-0.02740241395733415,-0.045926625178882456,-0.004359228325072585,-0.0008829983390606397,-0.017560975163217956,0.007264462876737277,0.023561300710047015,0.04665732004688569,0.004160750146217634,0.09791733358421781,0.12611578952855934,-0.06124723028709497
34,19.653506500006188,-0.027406418308491543,-0.046011222744174754,-0.004323956997794386,-0.0007676082251718413,-0.017333270457396754,0.007283916714128629,0.024036479720958404,0.047269288117914476,0.0038623806096754463,0.0980839146563996,0.1263137910154826,-0.06182506891782596
35,19.65708400000585,-0.02740985759452361,-0.04609470906902416,-0.004288594854038476,-0.0006499122041191082,-0.017102596240981875,0.0073019170871055855,0.024512438348861108,0.04788220795390893,0.0035612211584522295,0.09823887453187571,0.1265083648846118,-0.06239799302717332
36,19.660959500004537,-0.02741272062586364,-0.046177069744299325,-0.004253148973855134,-0.00052990663246537,-0.016868947939540205,0.007318450526281324,0.024989120033993725,0.04849606284329225,0.0032572958721574625,0.09838212640959604,0.1266994723810398,-0.06296589941097877
37,19.66468739999982,-0.027414996195944247,-0.046258290338885774,-0.004217626502319137,-0.0004075881420296475,-0.016632321060121327,0.007333503680234703,0.02546646780152455,0.0491108358835919,0.0029506293289829058,0.09851358593495321,0.1268870734864592,-0.06352868565072887
38,19.668233700009296,-0.027416673082536855,-0.0463383564000832,-0.004182034648951934,-0.0002829536418702216,-0.01639271119219849,0.0073470633179181155,0.025944424273690148,0.04972650997516625,0.0026412466017090735,0.09863317126065986,0.1270711270337576,-0.06408625017542834
39,19.672331000008853,-0.02741774004910065,-0.04641725345400744,-0.004146380687132189,-0.00015600032020876724,-0.016150114008639627,0.007359116331045754,0.026422931681970713,0.050343067816337746,0.002329173253480223,0.09874080300488738,0.12725159103416994,-0.06463849234338744
40,19.67736820000573,-0.027418185846140728,-0.0464949670059972,-0.004110671953494791,-2.672564629545521e-05,-0.015904525266695516,0.007369649736460491,0.026901931878822713,0.05096049190029203,0.002014435333017719,0.09883640419420092,0.12742842283658937,-0.0651853125630164
41,19.682241500006057,-0.027417999212575133,-0.046571482541025604,-0.004074915847318451,0.00010487262778068718,-0.015655940809000863,0.007378650678475729,0.027381366349300888,0.051578764511755984,0.001697059369223659,0.09891990021409502,0.12760157915071785,-0.06572661241365704
42,19.686491500004195,-0.027417168877110557,-0.04664678552411662,-0.004039119829902,0.00023879646533937518,-0.015404356564594688,0.007386106431189951,0.027861176222311212,0.052197867724121313,0.0013770723652225102,0.0989912186491974,0.12777101610054822,-0.0662622947386971
43,19.69097920000786,-0.027415683559626373,-0.04672086140076653,-0.004003291423929542,0.000375047543407828,-0.015149768549949294,0.007392004400770789,0.028341302280683333,0.05281778339664124,0.0010545017920617877,0.0990502891272756,0.1279366893382204,-0.06679226366141648
44,19.695028200003435,-0.027413531972566834,-0.046793695597370295,-0.003967438212824599,0.0005136272510660419,-0.014892172870017834,0.0073963321277084925,0.02882168497091083,0.053438493172658176,0.0007293755826000292,0.09909704334586615,0.12809855442443085,-0.06731642449264791
45,19.699041100000613,-0.027410702822341152,-0.04686527352165322,-0.003931567840093418,0.0006545366878400047,-0.014631565719280475,0.007399077289040727,0.029302264413481886,0.054059978480489296,0.0004017221261029026,0.09913141509130258,0.12825656690480586,-0.06783468356423249
46,19.70320000000356,-0.027407184810731275,-0.046935580563107454,-0.003895688008657539,0.0007977766621471477,-0.01436794338278337,0.0074002277005536365,0.02978298041280406,0.054682220532394826,7.15702637461943e-05,0.09915334019305753,0.1284106819596493,-0.06834694809746998
47,19.70744550001109,-0.027402966636307043,-0.047004602093433705,-0.003859806480175755,0.000943347689785802,-0.014101302237194831,0.007399771318963037,0.030263772467092203,0.05530520032206716,-0.0002610507155124223,0.0991627567634378,0.12856085454094499,-0.06885312622436117
48,19.71506760000193,-0.027398036995848613,-0.04707232346698802,-0.003823931074355534,0.0010912499924765355,-0.01383163875186865,0.007397696244075446,0.030744579780617613,0.05592889862492769,-0.0005961110796363896,0.09915960546391844,0.128707039760616,-0.06935312714077803
49,19.71932500001276,-0.02739238458577576,-0.047138730021233775,-0.0037880696682540183,0.0012414834964703917,-0.013558949489897386,0.007393990720923669,0.031225341276178625,0.05655329599938092,-0.0009335806591238164,0.09914382950133677,0.1288491928902085,-0.06984686123781972
50,19.722934700010228,-0.0273859981035838,-0.047203807077198706,-0.003752230195568741,0.0013940478312111561,-0.013283231109163535,0.007388643141873396,0.03170599560731286,0.05717837278710825,-0.0012734288529842634,0.09911537467735415,0.12898726921654713,-0.0703342401145412
51,19.72954480000772,-0.027378866249285858,-0.04726753993993707,-0.0037164206459181946,0.0015489423280620196,-0.013004480363389966,0.007381642048700826,0.032186481171247464,0.057804109112922365,-0.0016156246344757258,0.09907418920963784,0.1291212238439365,-0.07081517652856009
52,19.73474560001341,-0.027370977726861142,-0.04732991389899685,-0.0036806490641124014,0.0017061660190934253,-0.012722694103192496,0.007372976134643635,0.032666736119377315,0.0584304848831429,-0.0019601365566024446,0.09902022327528001,0.12925101157978408,-0.07128958441027967
53,19.738932500011288,-0.02736232124570897,-0.047390914228892154,-0.003644923549413594,0.0018657176359113414,-0.012437869277146081,0.007362634246425284,0.03314669836578772,0.059057479784341706,-0.0023069327579898122,0.0989534287863341,0.12937658705653993,-0.07175737895802287
54,19.742968800012022,-0.027352885522108395,-0.04745052618958074,-0.0036092522547871548,0.0020275956085277543,-0.012150002932849563,0.0073506053862490185,0.03362630559555596,0.059685073282901006,-0.0026559809693047147,0.09887375924903889,0.12949790460225294,-0.07221847670942438
55,19.751358000008626,-0.027342659280683197,-0.04750873502694674,-0.0035736433861429605,0.0021917980642694426,-0.011859092217996142,0.00733687871375992,0.03410549527190884,0.060313244622503405,-0.0030072485198227414,0.09878116960400722,0.12961491792858354,-0.07267279554560932
56,19.75607500001206,-0.027331631255872086,-0.04756552597328857,-0.0035381052015672956,0.0023583228267178786,-0.01156513438146246,0.007321443547975216,0.034584204642974535,0.06094197282066463,-0.0033607023438890463,0.09867561607785157,0.12972758009283594,-0.07312025462896928
57,19.759640500007663,-0.027319790193403966,-0.047620884247812224,-0.003502646010545478,0.002527167414683476,-0.0112681267744127,0.007304289369183683,0.03506237074750131,0.06157123666585539,-0.0037163089868821626,0.09855705602719383,0.12983584334566056,-0.07356077424763083
58,19.76379330000782,-0.027307124851778098,-0.04767479505712987,-0.0034672741731753536,0.0026983290412009465,-0.01096806685141558,0.007285405820818125,0.03553993042009672,0.062201014712557255,-0.004074034610166645,0.09842544801094177,0.12993965860612425,-0.07399427561612987
59,19.767960100012715,-0.027293624003749097,-0.04772724359576398,-0.0034319980993717646,0.0028718046125543544,-0.010664952171596393,0.007264782711306749,0.03601682029764718,0.06283128527329415,-0.0044338449951239894,0.09828075182835085,0.13003897504304393,-0.07442068072664088
60,19.77226340000925,-0.027279276437816552,-0.04777821504665713,-0.0033968262480620903,0.003047590727334724,-0.010358780399831274,0.0072424100159065525,0.03649297682492628,0.06346202640962838,-0.004795705546662615,0.09812292845434285,0.13013374004462133,-0.07483991227948518
61,19.7763483000017,-0.027264070959719163,-0.04782769458168766,-0.003361767126372937,0.0032256836755194776,-0.010049549307986553,0.0072182778785206654,0.03696833626038714,0.06409321592389765,-0.005159581296574912,0.097951940168833,0.1302238992794119,-0.07525189369165373
62,19.78197280000313,-0.027247996393933285,-0.047875667362191524,-0.0033268292888080564,0.0034060794375862153,-0.009737256776193151,0.007192376613499184,0.03744283468302478,0.06472483135080231,-0.005525436907129871,0.0977677506747289,0.13030939638414285,-0.0756565491377975
63,19.786416500006453,-0.027231041585175662,-0.04792211853949031,-0.003292021336417571,0.003588773683658697,-0.009421900794167515,0.007164696707421671,0.03791640799931278,0.06535684994611514,-0.00589323667482762,0.0975703252044578,0.13039017268232292,-0.07605380355923892
64,19.790614100013045,-0.02721319539991025,-0.04796703325542589,-0.003257351915958608,0.0037737617726878877,-0.009103479462595493,0.007135228820861582,0.03838899195109866,0.06598924867553982,-0.006262944534079441,0.09735963061501628,0.13046616745051634,-0.07644358265200901
65,19.794910100012203,-0.027194446727858892,-0.04801039664290185,-0.0032228297190474158,0.003961038751674504,-0.008781990994561308,0.0071039637901330836,0.038860522123462256,0.06662200420600287,-0.0066345240608463,0.09713563528529846,0.13053731791071507,-0.07682581288927036
66,19.798906400013948,-0.027174784483515683,-0.048052193826432,-0.003188463481303057,0.0041505993549262625,-0.008457433717015886,0.007070892629020192,0.03933093395161544,0.06725509289443816,-0.007007938476536307,0.09689830900962672,0.13060355871294482,-0.07720042161313022
67,19.803859300009208,-0.027154197607664847,-0.04809240992269608,-0.0031542619814827586,0.004342438003347334,-0.008129806072314583,0.007036006530485798,0.03980016272772806,0.06788849077406159,-0.007383150652533567,0.0966476229101116,0.130664821881933,-0.07756733720386048
68,19.807648300004075,-0.02713267506890199,-0.04813103004110314,-0.0031202340406090304,0.004536548803761786,-0.007799106619818606,0.0069992968683568885,0.04026814360697783,0.06852217354263838,-0.007760123115736602,0.09638354910186173,0.1307210369617258,-0.07792648939621818
69,19.818020000006072,-0.02711020586515854,-0.04816803928436277,-0.0030863885210886746,0.004732925548261701,-0.007465334037546523,0.006960755198979865,0.04073481161112971,0.06915611655016017,-0.00813881805615462,0.09610606037730257,0.13077213055914816,-0.07827780977030706
70,19.822491200000517,-0.02708677902522932,-0.04820342274906453,-0.0030527343258238532,0.004931561713565329,-0.007128487123895175,0.006920373262832103,0.0412001016315246,0.06979029478268517,-0.00851919733720591,0.09581513018325576,0.13081802590243477,-0.07862123214763836
71,19.82727330000489,-0.027062383610303213,-0.04823716552626584,-0.003019280397315468,0.0051324504603941935,-0.006788564799447892,0.006878142986077403,0.04166394843243643,0.07042468284573516,-0.008901222507154785,0.09551073254484378,0.1308586429857685,-0.07895669250890947
72,19.830912400007943,-0.027037008715496774,-0.04826925270208896,-0.0029860357167591453,0.005335584632863791,-0.006445566108856411,0.006834056482066648,0.04212628665332297,0.07105925494953735,-0.009284854808612662,0.0951928420769053,0.130893898751958,-0.07928412844900717
73,19.834975800011307,-0.027010643471390806,-0.048299669358327135,-0.0029530093031340642,0.005540956757882525,-0.0060994902227921996,0.006788106052801114,0.04258705081229361,0.07169398489419276,-0.009670055184690069,0.0948614342047182,0.130923707206552,-0.0796034786081315
74,19.839077800003,-0.026983277045569798,-0.04832840057306046,-0.0029202102122847513,0.005748559044576037,-0.005750336439972201,0.006740284190373476,0.043046175310500534,0.07232884605602469,-0.010056784282981233,0.09451648516398671,0.13094797957765325,-0.07991468236793638
75,19.843279000007897,-0.026954898644164085,-0.048355431421281715,-0.0028876475359959344,0.005958383383728719,-0.005398104189242541,0.006690583578392479,0.043503594435606426,0.07296381137429685,-0.010445002458769509,0.09415797205402028,0.1309666242931153,-0.0802176797749632
76,19.84740700000839,-0.0269254975133947,-0.048380746975532414,-0.0028553304010605226,0.006170421347241674,-0.005042793031733064,0.0066389970933928575,0.04395924236669129,0.0735988533373407,-0.01083466977826948,0.09378587308894293,0.130979547117433,-0.080512411564419
77,19.85227200000372,-0.026895062941120797,-0.04840433230654953,-0.0028232679683407877,0.006384664187621809,-0.0046844026630755735,0.006585517806228569,0.04441305318015619,0.07423394397060107,-0.011225746022062978,0.09340016763194199,0.13098665121267636,-0.08079881917392982
78,19.856381400008104,-0.026863584258389445,-0.048426172483923065,-0.002791469431822834,0.006601102837497042,-0.004322932915674285,0.0065301389834493935,0.04486496085496219,0.0748690548233543,-0.011618190688474549,0.09300083615336226,0.1309878369330655,-0.08107684476687661
79,19.86025530000916,-0.026831050840987757,-0.048446252576764784,-0.00275994401766443,0.006819727909156206,-0.003958383761052867,0.006472854088661434,0.04531489927812771,0.0755041569547619,-0.012011962997233762,0.09258786025732606,0.13098300196949472,-0.0813464313251681
80,19.864777500013588,-0.02679745211099716,-0.04846455765438855,-0.002728700983236286,0.0070405296941175605,-0.003590755312260133,0.006413656783868203,0.04576280225022563,0.07613922092199012,-0.012407021893750316,0.09216122256002557,0.13097204144843533,-0.08160752273714376
81,19.86830890001147,-0.026762777538349682,-0.04848107278700238,-0.00269774961615688,0.0072634981627219975,-0.003220047826332288,0.006352540930789666,0.04620860348970042,0.07677421676722268,-0.012803326053628758,0.09172090655658967,0.1309548478559193,-0.08186006382236648
82,19.873911300004693,-0.02672701664238619,-0.048495783046412666,-0.002667099233320945,0.007488622963743425,-0.0028462617068245643,0.006289500592159547,0.046652236637074206,0.07740911400504327,-0.013200833887184007,0.09126689663619869,0.1309313111288156,-0.08210400032688253
83,19.87802380000357,-0.02669015899341644,-0.048508673506740776,-0.0026367591799217154,0.007715893424022755,-0.0024693975063958176,0.006224530033000586,0.04709363525941048,0.07804388161033332,-0.01359950354391011,0.09079917804789074,0.13090131853303374,-0.0823392789236085
84,19.881496300004077,-0.026652194214280875,-0.048519729245152333,-0.0026067388284670458,0.007945298548121574,-0.0020894559294575227,0.006157623721878508,0.0475327328541886,0.07867848800447344,-0.013999292916999516,0.0903177367865312,0.13086475446575235,-0.08256584724426377
85,19.886018500008504,-0.026613111981914028,-0.04852893534259951,-0.0025770475777894992,0.008176827017993703,-0.0017064378348921763,0.006088776332133458,0.047969462852661716,0.07931290104132338,-0.014400159648121488,0.08982255952797812,0.13082150021949104,-0.08278365394409418
86,19.89401300001191,-0.026572902028909495,-0.04853627688457668,-0.0025476948520505244,0.008410467192671429,-0.001320344238838248,0.006017982743087633,0.04840375862310254,0.07994708799113563,-0.014802061132569013,0.08931363367088228,0.13077143341899797,-0.0829926487869063
87,19.89778180001304,-0.026531554145086407,-0.04854173896188969,-0.0025186900997388323,0.00864620710796854,-0.0009311763175645751,0.005945238041226805,0.04883555347456663,0.08058101552107477,-0.01520495452486181,0.08879094736356716,0.13071442761796737,-0.0831927826655345
88,19.90197010000702,-0.026489058179057258,-0.048545306671439394,-0.0024900427926631166,0.008884034476203052,-0.000538935410444222,0.005870537521353621,0.04926478066039884,0.08121464967522037,-0.01560879674409171,0.0882544894620141,0.1306503522609975,-0.0833840074559019
89,19.90547440000228,-0.026445404039797074,-0.0485469651170198,-0.0024617624249392467,0.009123936685934244,-0.00014362302302278933,0.005793876687717289,0.04969137338158914,0.08184795585471741,-0.016013544478110465,0.08770424954122626,0.1305790728433734,-0.08356627577727789
90,19.909614600008357,-0.026400581698213795,-0.048546699410131317,-0.002433858511972033,0.00936590080171793,0.0002547591698152408,0.00571525125512627,0.050115264790389275,0.08248089879932867,-0.016419154186550308,0.08714021789156697,0.13050045133719845,-0.08373954083483426
91,19.91375530000369,-0.026354581188719813,-0.0485444946708096,-0.00240634058943163,0.009609913563878561,0.0006562093205993056,0.005634657150048673,0.0505363879936331,0.08311344257171742,-0.016825582103484994,0.08656238546920744,0.13041434645773525,-0.08390375643869391
92,19.917957800003933,-0.026307392610804562,-0.04854033602847033,-0.0023792182122246313,0.009855961388296699,0.001060725405954004,0.00555209051169914,0.05095467605587271,0.08374555054158252,-0.017232784240635075,0.08597074377057712,0.1303206137014488,-0.08405887715139258
93,19.922226599999703,-0.026259006130608123,-0.04853420862277019,-0.002352500953459932,0.010104030366211528,0.0014683052231980506,0.005467547693108162,0.05137006200148127,0.08437718537031005,-0.017640716391458918,0.08536528466112857,0.13021910554385102,-0.08420485845193164
94,19.926391600005445,-0.026209411982495726,-0.04852609760448467,-0.0023261984034094554,0.01035410626402872,0.0018789463868766844,0.005381025262169292,0.05178247881612868,0.08500830899702698,-0.01804933413594882,0.08474600033359114,0.13010967162211406,-0.08434165684892554
95,19.930575900012627,-0.026158600470633214,-0.04851598813640265,-0.00230032016846386,0.010606174523137262,0.002292646325225381,0.00529252000266195,0.05219185944847959,0.08563888262502357,-0.01845859284581923,0.08411288330790301,0.12999215885685098,-0.08446922994296563
96,19.934643000000506,-0.026106561970563328,-0.048503865394238475,-0.002274875870083347,0.010860220259733775,0.0027094022765705977,0.005202028915248327,0.05259813681166836,0.086268866708988,-0.018868447689907638,0.08346592639691085,0.12986641145970643,-0.08458753642662831
97,19.93903350000619,-0.026053286930782873,-0.048489714567561494,-0.002249875143743702,0.011116228264653652,0.003129211285669697,0.005109549218443816,0.05300124378466451,0.08689822094150242,-0.019278853639362863,0.08280512275206328,0.12973227099422058,-0.084696536016413
98,19.943985400008387,-0.025998765874320637,-0.04847352086074357,-0.002225327637877691,0.011374183003208622,0.0035520701999807412,0.005015078349563603,0.05340111321419075,0.08752690424086768,-0.019689765472385927,0.08213046604994169,0.12958957663458184,-0.0847961893652463
99,19.94842120000976,-0.025942989400316134,-0.048455269493924834,-0.0022012430128119215,0.011634068615036481,0.003977975665884352,0.004918613965647128,0.05379767791789724,0.08815487474010865,-0.02010113777856989,0.08144195056065899,0.1294381650895188,-0.08488645797975052
100,19.954073200002316,-0.025885948185598983,-0.048434945703997805,-0.0021776309396992766,0.011895868913969437,0.004406924124846885,0.004820153944362589,0.054190870686942935,0.08878208977406092,-0.02051292496283846,0.08073957107928771,0.1292778702446488,-0.08496730414698318
101,19.959618600012615,-0.025827632986268924,-0.04841253474561036,-0.0021545010994470032,0.012159567387908876,0.004838911809517068,0.004719696384893209,0.05458062428850487,0.08940850586490784,-0.020925081249075404,0.08002332294128667,0.12910852291893912,-0.08503869083888647
102,19.96379770000931,-0.025768034639276412,-0.048388021892187716,-0.0021318631816405515,0.012425147198718041,0.005273934739748927,0.004617239608806549,0.05496687146850908,0.09003407870690561,-0.021337560683136587,0.07929320197283993,0.12892995063650714,-0.08510058153912824
103,19.967892500004385,-0.025707144064003675,-0.04836139243697395,-0.0021097268834632346,0.012692591182123276,0.005711988718550298,0.004512782160911563,0.05534954495365835,0.09065876314970743,-0.021750317134800235,0.07854920454800329,0.1287419775276874,-0.08515294004664538
104,19.97292680000828,-0.025644952263846266,-0.04833263169409329,-0.002088101908611756,0.01296188184762637,0.006153069327944044,0.004406322810108998,0.05572857745471727,0.09128251318212924,-0.02216330429887389,0.07779132771057241,0.1285444247930935,-0.08519573033829214
105,19.976576400003974,-0.02558145032779497,-0.048301724999631736,-0.002066997966207623,0.013233001378437659,0.006597171924759145,0.00429786055023772,0.056103901669721776,0.09190528191997392,-0.02257647569581275,0.0770195691624607,0.12833711118312638,-0.0852289165207564
106,19.980524000013247,-0.025516629432018004,-0.04826865771273919,-0.002046424769704468,0.013505931631419492,0.00704429163637384,0.004187394600919113,0.056475450287151494,0.09252702159444694,-0.022989784672360354,0.07623392737038036,0.12811985302841258,-0.08525246291948776
107,19.984874400004628,-0.02545048084144347,-0.048233415216752354,-0.002026392035791272,0.013780654137050095,0.007494423356394381,0.0040749244083971925,0.056843155990173776,0.09314768354027571,-0.02340318440302927,0.07543440164570084,0.12789246449083344,-0.08526633425466686
108,19.988807000001543,-0.025382995911341917,-0.04819598292033877,-0.00200690948329154,0.014057150099408193,0.00794756174028297,0.00396044964636865,0.05720695146059048,0.0937672181865595,-0.02381662789244818,0.0746209921633431,0.12765475800496406,-0.08527049577011762
109,19.992986700002803,-0.025314166088908928,-0.0481563462586621,-0.001987986832058476,0.014335400396175146,0.008403701200947775,0.0038439702168002014,0.0575667693832652,0.09438557504916956,-0.024230067978092667,0.07379370000009125,0.1274065444226016,-0.08526491327301579
110,19.997542299999623,-0.025243982914847665,-0.04811449069456893,-0.001969633801866232,0.014615385578662505,0.008862835904297182,0.003725486250732153,0.057922542450441566,0.09500270272300046,-0.024643457333017347,0.0729525270469683,0.12714763304318233,-0.08524955311669619
111,20.00164510001196,-0.0251724380249512,-0.048070401719797186,-0.00195186011129729,0.01489708587185602,0.009324959764754661,0.003604998109069256,0.05827420336532076,0.09561854887466524,-0.025056748468419942,0.07209747592155662,0.12687783177368286,-0.08522438217270448
112,20.005883400008315,-0.02509952315168462,-0.04802406485620639,-0.0019346754766260425,0.01518048117447789,0.009790066440742182,0.0034825063833594083,0.0586216848455296,0.09623306023629735,-0.025469893736102398,0.07122854983880338,0.12659694728068632,-0.08518936779221678
113,20.00997890000872,-0.025025230125766757,-0.047975465657029905,-0.0019180896106986238,0.0154655510590644,0.010258149330134985,0.003358011896560642,0.058964919625445186,0.09684618259972036,-0.025882845330660827,0.07034575240185152,0.1263047849523747,-0.08514447771348733
114,20.014117900005655,-0.02494955087775155,-0.04792458970814927,-0.0019021122218090517,0.015752274772050715,0.010729201565688446,0.003231515703798589,0.05930384045763467,0.09745786080988136,-0.02629555529104913,0.06944908761336277,0.12600114892142392,-0.08508967992403808
115,20.01868290000129,-0.02487247743960894,-0.04787142262939078,-0.0018867530125717146,0.01604063123386248,0.011203216010429184,0.0031030190931183085,0.059638380115289706,0.0980680387592427,-0.026707975501432574,0.06853856008450838,0.12568584228557006,-0.08502494252742512
116,20.0224991000141,-0.024794001946305346,-0.0478159500758445,-0.0018720216787902221,0.01633059903902422,0.011680185253027532,0.0029725235862334714,0.05996847139569281,0.09867665938335426,-0.027120057691459417,0.06761417516089523,0.12535866722940892,-0.08495023364311138
117,20.026891000001346,-0.02471411663738352,-0.04775815773920574,-0.0018579279083226273,0.016622156456284547,0.01216010160314571,0.0028400309392755552,0.06029404712387296,0.09928366465642627,-0.02753175343614353,0.06667593904061196,0.12501942516144807,-0.08486552134753653
118,20.030990400002334,-0.02463281385854179,-0.047698031349139185,-0.0018444813799430118,0.01691528142876002,0.01264295708676737,0.0027055431435441687,0.060615040157216665,0.09988899558823061,-0.027943014155564577,0.06572385902487321,0.12466791684338814,-0.08477077365126279
119,20.034915600001117,-0.024550086063212538,-0.04763555667466563,-0.0018316917621994326,0.01720995157410507,0.01312874344151571,0.0025690624262591512,0.06093138339155413,0.10049259222092734,-0.028353791114529008,0.06475794371231068,0.12430394240522687,-0.08466595852230313
120,20.03888380000717,-0.02446592581413979,-0.04757071952557154,-0.0018195687122682137,0.017506144184714856,0.013617452111952255,0.0024305912513141867,0.06124300976765436,0.10109439362611242,-0.028764035422496455,0.0637782030712523,0.12392730150522194,-0.0845510439686055
121,20.042935200006468,-0.024380325784955716,-0.047503505753841366,-0.001808121874804585,0.017803836227958194,0.014109074244866342,0.002290132320029616,0.06154985227801225,0.10169433790319542,-0.029173698034040595,0.06278464853874614,0.12353779350497657,-0.08442599818002866
122,20.04743910000252,-0.024293278761755976,-0.047433901255112765,-0.0017973608807896739,0.01810300434644623,0.01460360068455816,0.0021476885719015817,0.061851843974303954,0.10229236217814512,-0.02958272975015231,0.06177729311951634,0.12313521749203679,-0.08429078972620509
123,20.05151710000064,-0.024204777644673606,-0.04736189197015468,-0.0017872953463738787,0.018403624858337648,0.015101021968116078,0.002003263185342204,0.062148917975133555,0.10288840260208633,-0.029991081220619262,0.06075615148063349,0.12271937244743217,-0.08414538776672276
124,20.055561600005603,-0.024114815449451408,-0.04728746388636836,-0.001777934871716684,0.018705673757682482,0.01560132832068608,0.0018568595784056506,0.06244100747440647,0.10348239435167014,-0.030398702947367223,0.05972124000903336,0.12229005757291601,-0.08398976221047913
125,20.059728200008976,-0.0240233853090125,-0.047210603039311294,-0.0017692890398229926,0.019009126714808516,0.016104509650752677,0.0017084814094959096,0.06272804574963389,0.10407427163084408,-0.030805545288384934,0.05867257685332332,0.12184707235165909,-0.08382388377914436
126,20.063930700009223,-0.02393048047502896,-0.04713129551424399,-0.001761367415376077,0.019313959076745615,0.016610555545425513,0.0015581325780548003,0.0630099661707116,0.10466396767181092,-0.031211558461680857,0.05761018198063413,0.12139021650292899,-0.08364772397482487
127,20.06801830000768,-0.023836094319488264,-0.04704952744769964,-0.0017541795435672407,0.019620145867697274,0.017119455265729572,0.0014058172252313776,0.06328670220877569,0.10525141473635934,-0.03161669254889445,0.05653407721878849,0.12091928998185826,-0.08346125499139605
128,20.07209100000909,-0.023740220336257348,-0.04696528502907656,-0.001747734948922277,0.01992766178955081,0.017631197741904688,0.0012515397345349221,0.06355818744539034,0.10583654411682047,-0.03202089749839311,0.055444286472884574,0.1204340929411364,-0.08326444960389748
129,20.07628900000418,-0.023642852142644107,-0.04687855450225343,-0.0017420431341247991,0.02023648122243801,0.01814577156870503,0.001095304732474314,0.06382435558350374,0.10641928613702713,-0.03242412312781088,0.05434083584707757,0.11993442585331719,-0.0830572810691366
130,20.080987700013797,-0.023543983480956023,-0.04678932216722731,-0.0017371135788364987,0.02054657822535157,0.018663165000707905,0.0009371170891864038,0.06408514045781684,0.10699957015445635,-0.03282631912618152,0.053223753530687895,0.11942008953344614,-0.08283972307718564
131,20.084635500010336,-0.023443608220055676,-0.04669757438177439,-0.001732955738514382,0.020857926536806286,0.019183365947634035,0.0007769819190547023,0.06434047604463482,0.10757732456140805,-0.033227435056006914,0.052093069889151446,0.11889088525293279,-0.08261174977397114
132,20.08891980000772,-0.023341720356912968,-0.04660329756313338,-0.0017295790432250296,0.021170499575551022,0.01970636196966778,0.0006149045813176937,0.06459029647311779,0.10815247678825182,-0.033627420355609144,0.050948817654502515,0.11834661515073466,-0.0823733358250068
133,20.093035000012605,-0.023238314018153728,-0.04650647818971164,-0.0017269928964559333,0.021484270441339007,0.020232140272808893,0.0004508906806647162,0.06483453603697946,0.1087249533085929,-0.034026224341816944,0.04979103208911772,0.117787082301763,-0.08212445647102964
134,20.09811140000238,-0.023133383461604463,-0.046407102802813634,-0.001725206673923977,0.021799211915753243,0.020760687704242855,0.00028494606781822473,0.06507312920732565,0.10929467964318233,-0.03442379621285731,0.04861975122114305,0.11721209076263853,-0.08186508757794153
135,20.10394250000536,-0.023026923077832967,-0.04630515800839196,-0.0017242297223811279,0.0221152964631013,0.021291990747730537,0.00011707684010163103,0.06530601064663595,0.1098615803655266,-0.03482008505152621,0.04743501592474514,0.11662144574653067,-0.0815952057088616
136,20.1100323000137,-0.022918927391684385,-0.04620063047882053,-0.0017240713584174112,0.02243249623137631,0.021826035519032932,-5.2710658009180585e-05,0.06553311522238044,0.11042557910749326,-0.035215039828778924,0.04623686992006545,0.11601495363083707,-0.08131478821210833
137,20.113905000005616,-0.02280939106381251,-0.046093506954689945,-0.0017247408672612524,0.0227507830532838,0.02236280776135518,-0.00022440983435282965,0.0657543780210009,0.11098659856499506,-0.035608609407753934,0.04502535987583553,0.11539242229211599,-0.08102381329848557
138,20.117947700011428,-0.022698308892205886,-0.04598377424662486,-0.0017262475015772834,0.023070128447338273,0.022902292840826413,-0.00039801384856994376,0.06596973436252263,0.11154456050684344,-0.0360007425481127,0.0438005354628664,0.11475366147868593,-0.0807222600745688
139,20.12445400000433,-0.022585675813708475,-0.045871419237123186,-0.0017286004802617152,0.02339050361903172,0.02344447574202965,-0.0005735156116122188,0.06617911981505434,0.11209938578404584,-0.036391387910386354,0.04256244925864324,0.11409848282620319,-0.08041010852749739
140,20.128297200004454,-0.022471486905534428,-0.04575642888241683,-0.0017318089872353833,0.023711879462070828,0.02398934106357178,-0.0007509077852720739,0.0663824702084748,0.11265099433881025,-0.036780494060167986,0.041311156663794056,0.1134267001389062,-0.08008733951283588
141,20.132548000008683,-0.022355737386776747,-0.045638790214353825,-0.0017358821702345593,0.0240342265596782,0.024536873013700788,-0.0009301827817323648,0.06657972164812276,0.11319930521656978,-0.03716800947234163,0.04004671589448469,0.11273812968647891,-0.07975393475908844
142,20.13759870000649,-0.022238422619909447,-0.04551849034230158,-0.0017408291395996295,0.02435751518596231,0.02508705540599234,-0.0011113327631370484,0.06677081052840976,0.11374423657786599,-0.03755388253531836,0.03876918797848188,0.11203259007488119,-0.07940987683324122
143,20.143660600006115,-0.022119538112282934,-0.04539551645507084,-0.0017466589670617437,0.024681715307350763,0.02563987165508224,-0.0012943496411819738,0.06695567354647194,0.11428570570912085,-0.03793806155493109,0.03747863678952432,0.11130990223069667,-0.07905514905108785
144,20.147714500009897,-0.02199907951761226,-0.04526985582286032,-0.0017533806845275253,0.025006796584092595,0.02619530477245748,-0.001479225076723316,0.06713424771611619,0.11482362903436828,-0.03832049475780108,0.03617512913864928,0.11056988932539823,-0.07868973537022574
145,20.15179880001233,-0.021877042637457936,-0.045141495799221484,-0.0017610032828619228,0.025332728371826783,0.026753337362302447,-0.0016659504794010126,0.06730647038235746,0.11535792212529172,-0.03870113029419515,0.034858734926384624,0.10981237662315013,-0.07831362028806906
146,20.156493400005274,-0.021753423422698984,-0.04501042382304345,-0.001769535710669269,0.025659479723225534,0.02731395161738733,-0.0018545170072749035,0.06747227923684082,0.11588849971147978,-0.03907991624040315,0.033529527100681154,0.10903719158725028,-0.07792678875001757
147,20.160447000002023,-0.021628217974997806,-0.04487662742055763,-0.0017789868730726031,0.02598701938971232,0.027877129315013755,-0.0020449155664712232,0.06763161233197085,0.11641527569149597,-0.03945680060070468,0.03218758155818993,0.10824416393326022,-0.07752922609550585
148,20.164366600001813,-0.021501422548256578,-0.04474009420736199,-0.0017893656304913028,0.026315315823242202,0.028442851813010553,-0.0022371368108378125,0.0677844080953763,0.11693816314364959,-0.03983173130922343,0.03083297730799483,0.10743312566719171,-0.07712091805587007
149,20.168349200001103,-0.021373033550064858,-0.044600811890464484,-0.0018006807974170628,0.02664433717816012,0.02901110004578384,-0.0024311711416085914,0.06793060534562725,0.11745707433743575,-0.040204656231873144,0.029465796490361528,0.10660391101721522,-0.07670185078306911
150,20.1739152000082,-0.021243047543137956,-0.04445876827034561,-0.001812941141188272,0.026974051313133626,0.02958185452042371,-0.0026270087070776422,0.06807014330688164,0.11797192074364406,-0.04057552316849053,0.0280861242283051,0.10575635641041013,-0.07627201093345855
151,20.17857350000122,-0.021111461246745802,-0.04431395124303964,-0.0018261553807628333,0.02730442579315322,0.03015509531285235,-0.0028246394022843654,0.06820296162316299,0.11848261304557312,-0.04094427985559358,0.02669404860888391,0.10489030082309173,-0.07583138584016769
152,20.183410800003912,-0.02097827153813192,-0.044166348802234495,-0.0018403321854894867,0.027635427891603528,0.03073080206403949,-0.0030240528687143107,0.0683290003728255,0.11898906115253644,-0.04131087397018604,0.02528966071740612,0.10400558580371902,-0.0753799637679648
153,20.18918320001103,-0.02084347545392221,-0.04401594904138968,-0.001855480173877728,0.0279670245924039,0.03130895397628147,-0.003225238494021225,0.06844820008316356,0.1194911742112991,-0.04167525313498722,0.023873054694167693,0.10310205537357257,-0.07491773421177139
154,20.19403890000831,-0.020707070191523156,-0.04386274015587225,-0.0018716079123664371,0.02829918259222127,0.031889529809527604,-0.003428185411778599,0.06856050174542705,0.11998886061862046,-0.04203736492513119,0.022444327841230793,0.10217955629347138,-0.07444468811396698
155,20.198859700001776,-0.020569053110509165,-0.04370671044511036,-0.0018887239140913867,0.028631868302756363,0.03247250787778087,-0.003632882501266677,0.06866584683046623,0.12048202803527729,-0.04239715687550386,0.021003580782250744,0.10123793811697325,-0.07396081790883964
156,20.20592530000431,-0.020429421733998598,-0.04354784831476414,-0.0019068366376518056,0.02896504785310825,0.03305786604556027,-0.0038393183872951543,0.06876417730529692,0.1209705833991223,-0.04275457648787322,0.019550917667839663,0.1002770532357611,-0.07346611742393981
157,20.210326200001877,-0.020288173750018172,-0.04338614227891355,-0.001925954485876168,0.02929868709222121,0.033645581724428136,-0.004047481440059329,0.06885543565073692,0.12145443293954743,-0.043109571237269814,0.01808644628964354,0.09929675713122312,-0.07296058169908368
158,20.216034299999592,-0.020145307012855277,-0.04322158096226292,-0.001946085804587362,0.029632751591420297,0.03423563186959275,-0.004257359775024671,0.06893956487907732,0.12193348219298203,-0.04346208857736181,0.01661027809196146,0.09829690839692554,-0.0724442067880613
159,20.219908000013675,-0.02000081954439778,-0.04305415310236177,-0.0019672388813673594,0.02996720664702956,0.034827992976585946,-0.0044689412528351,0.06901650855183164,0.12240763601757401,-0.043812075944912626,0.015122528285859886,0.09727736882199939,-0.07191698960548153
160,20.22683070000494,-0.019854709535460955,-0.042883847551841554,-0.0019894219443214946,0.030302017283079748,0.035422641078008084,-0.004682213479240778,0.06908621079851375,0.12287679860949668,-0.04415948076367084,0.013623315981971584,0.09623800392471482,-0.07137892789108574
161,20.23488800000632,-0.019706975347101034,-0.042710653280668046,-0.0020126431608424346,0.030637148254108595,0.036019551740363795,-0.004897163805044111,0.06914861633567472,0.12334087352280405,-0.04450425044848174,0.012112764247966364,0.09517868320328829,-0.07083002031657197
162,20.23887480000849,-0.019557615511914976,-0.04253455937840876,-0.002036910636373934,0.030972564048053142,0.03661870006099947,-0.005113779326067408,0.0692036704862381,0.12379976368816979,-0.0448463324102131,0.010591000230411977,0.09409928004365435,-0.07027026665103334
163,20.243159400008157,-0.019406628735325976,-0.04235555505651506,-0.002062232413174491,0.03130822888923753,0.03722006066512076,-0.005332046883146652,0.06925131919971846,0.12425337143184818,-0.045185674061471066,0.00905815526462798,0.09299967205520962,-0.0696996679167306
164,20.24768960000074,-0.019254013896854258,-0.04217362965061847,-0.002088616469081043,0.03164410674146137,0.0378236077029139,-0.005551953062154589,0.06929150907262192,0.12470159849766886,-0.045522222823036466,0.007514364806339941,0.09187974130693542,-0.06911822655178644
165,20.251409300006344,-0.019099770051372634,-0.041988772622840724,-0.0021160707162728456,0.03198016131118536,0.0384293148467765,-0.0057734841940569066,0.06932418736800199,0.12514434606828748,-0.04585592613115836,0.005959768276062829,0.09073937428098951,-0.06852594657399949
166,20.255626400001347,-0.01894389643034641,-0.04180097356411692,-0.0021446030000357133,0.03231635605080931,0.03903715528864496,-0.0059966263550060555,0.06934930203435098,0.1255815147867304,-0.04618673144557891,0.004394508978998604,0.08957846200212759,-0.06792283370570268
167,20.259652400010964,-0.018786392443057152,-0.04161022219653147,-0.0021742210975268087,0.032652654162040946,0.03964710173743416,-0.0062213653664752455,0.06936680172437912,0.12601300477890046,-0.04651458625803768,0.002818734180783732,0.08839690007645794,-0.06730889545407823
168,20.263868600013662,-0.01862725767780993,-0.041416508375666114,-0.0022049327165401815,0.03298901859935602,0.040259126416583135,-0.006447686795434733,0.06937663581464051,0.12643871567549736,-0.04683943810107535,0.0012325952029030845,0.08719458867563473,-0.066684141149251
169,20.267996400012635,-0.01846649190312353,-0.04121982209295966,-0.002236745494273268,0.03332541207355745,0.04087320106170733,-0.00667557595457119,0.06937875442523746,0.1268585466343702,-0.047161234556907405,-0.0003637526188210007,0.08597143255176738,-0.06604858193051692
170,20.27222410000104,-0.01830409506890317,-0.04102015347807874,-0.002269666996094558,0.03366179705542652,0.04148929691836102,-0.00690501790255004,0.06937310843904392,0.12727239636258256,-0.04747992326609432,-0.0019701498891457176,0.0847273408937523,-0.06540223070638551
171,20.276498400009583,-0.01814006730759533,-0.040817492801299274,-0.0023037047143126366,0.0339981357794684,0.04210738473990354,-0.007135997444318905,0.06935964952184696,0.12768016313737163,-0.04779545193602776,-0.0035864330164457527,0.08346222722042869,-0.06474510213362404
172,20.280534800011083,-0.017974408935324135,-0.04061183047589792,-0.0023388660669467942,0.034334390247758674,0.042727434785464945,-0.007368499131452233,0.06933833014289845,0.12808174482717735,-0.048107768349397534,-0.005212434158851825,0.0821760095778206,-0.06407721258918127
173,20.28469720001158,-0.017807120453008873,-0.04040315706055324,-0.002375158396499412,0.034670522233888175,0.04334941681801618,-0.00760250726253685,0.06930910359557871,0.12847703891451429,-0.04841682037240558,-0.00684798117901742,0.0808686106535689,-0.06339858013836216
174,20.28883840001072,-0.017638202547462144,-0.040191463261755885,-0.002412588968730308,0.03500649328700986,0.04397330010255651,-0.007838005883596238,0.06927192401838689,0.1288659425181103,-0.04872255596292427,-0.008492897579691404,0.0795399576712148,-0.06270922456386752
175,20.293041900004027,-0.017467656092468125,-0.039976739936227336,-0.0024511649714332386,0.03534226473598721,0.044599053404398396,-0.008074978788555206,0.06922674641622942,0.1292483524147533,-0.049024923178992,-0.010147002400202582,0.0781899826250516,-0.06200916745278278
176,20.298008500001743,-0.01729548214984049,-0.03975897809334672,-0.0024908935132147503,0.03567779769364753,0.04522664498756676,-0.008313409519746545,0.06917352668241412,0.1296241650637074,-0.04932387018781506,-0.011810110217045023,0.07681862247044302,-0.06129843232875306
177,20.301803600013955,-0.017121681970459438,-0.03953816889758506,-0.0025317816222755938,0.03601305306114366,0.04585604261332062,-0.008553281368462994,0.06911222161993305,0.12999327663040522,-0.04961934527554493,-0.013482031262234174,0.07542581920079147,-0.06057704479761127
178,20.305699000004097,-0.016946256995287304,-0.039314303670946446,-0.002573836245194929,0.03634799153241364,0.04648721353878214,-0.008794577375558709,0.06904278896230884,0.13035558301161024,-0.049911296857692335,-0.015162571410911962,0.07401152028045042,-0.059845032642444264
179,20.30991130000621,-0.016769208856362346,-0.03908737389541557,-0.002617064245717571,0.03668257359874453,0.04712012451570224,-0.00903728033210221,0.06896518739499774,0.1307109798633073,-0.05019967348982642,-0.01685153221964631,0.07257567873615267,-0.059102425850178664
180,20.31382380001014,-0.01659053937777011,-0.038857371215410864,-0.0026614724035445275,0.0370167595534397,0.04775474178936009,-0.009281372780081612,0.06887937657586461,0.13105936262675155,-0.05048442387824663,-0.018548711025975228,0.07111825307349047,-0.05834925656599554
181,20.31799310000497,-0.01641025057659195,-0.03862428744024272,-0.002707067413127083,0.03735050949658117,0.04839103109758136,-0.009526837013161048,0.06878531715562063,0.131400626555549,-0.05076549689023979,-0.020253900986032282,0.06963920758129942,-0.05758555899395376
182,20.322241700007,-0.016228344663830198,-0.038388114546576126,-0.0027538558824646716,0.037683783339895055,0.04902895766990032,-0.009773655077485373,0.0686829707979334,0.1317346667446571,-0.051042841563788355,-0.02196689124929006,0.06813851236972329,-0.05681136929986308
183,20.326441100012744,-0.016044824045309523,-0.038148844680897034,-0.0028018443319067646,0.03801654081170896,0.04966848622685927,-0.010021808772530727,0.06857230019817018,0.13206137815783442,-0.05131640711688562,-0.023687467031315242,0.06661614327119235,-0.05602672555048097
184,20.33059690000664,-0.015859691322554027,-0.03790647016198179,-0.0028510391929589913,0.03834874146199916,0.05030958097943686,-0.010271279651999567,0.06845326910280247,0.13238065565568113,-0.051586142956654334,-0.025415409560340746,0.06507208204578259,-0.0552316676821534
185,20.3346193000034,-0.015672949293639646,-0.03766098348336901,-0.002901446807093706,0.03868034466753617,0.050952205628619414,-0.01052204902475966,0.06832584232866733,0.13269239402507993,-0.05185199868835784,-0.0271504961590311,0.0635063164879255,-0.05442623749881907
186,20.339176100009357,-0.01548460095402136,-0.037412377315833203,-0.002953073424565214,0.03901130963711871,0.051596323365114764,-0.010774097955826496,0.06818998578157905,0.13299648800827132,-0.05211392412449931,-0.028892500172161002,0.06191884041864279,-0.05361047869924216
187,20.34296200000972,-0.015294649497334833,-0.03716064450985943,-0.0030059252032298652,0.03934159541689975,0.05224189686920552,-0.011027407267390517,0.0680456664762918,0.13329283233221934,-0.052371869294097,-0.03064119075344496,0.06030965376185639,-0.05278443687069892
188,20.349657000013394,-0.015103098316171985,-0.03690577809811832,-0.003060008207371243,0.03967116089581405,0.05288888831074765,-0.011281957539889474,0.0678928525571785,0.13358132173842674,-0.05262578445172222,-0.03239633280715924,0.05867876264341296,-0.05194815945618226
189,20.35381750001397,-0.014909951002829989,-0.03664777129794074,-0.0031153284065306543,0.039999964811104745,0.05353725934931289,-0.011537729113123299,0.0677315133187595,0.133861851013261,-0.05287562008645658,-0.03415768692837418,0.05702617956537379,-0.05110169581158769
190,20.35993090001284,-0.014715211350033255,-0.03638661751379145,-0.0031718916743431304,0.04032796575394995,0.05418697113448138,-0.011794702087413322,0.06756161922696104,0.1341343150194597,-0.05312132693148455,-0.03592500922815346,0.05535192360473948,-0.050245097352109254
191,20.363840300007723,-0.014518883351627867,-0.03612231033974095,-0.0032297037873791593,0.04065512217519549,0.05483798430628962,-0.012052856324810166,0.06738314194133904,0.1343986087283834,-0.05336285597447027,-0.03769805120101707,0.053656020633858825,-0.04937841769591495
192,20.36798060000001,-0.014320971203247974,-0.03585484356193475,-0.003288770423992398,0.040981392391197025,0.05549025899583585,-0.012312171450353585,0.0671960543376228,0.13465462725365862,-0.05360015846854336,-0.03947655969940736,0.05193850355566135,-0.04850171273151505
193,20.3721729000099,-0.014121479302953575,-0.03558421116105938,-0.0033490971631736227,0.04130673458977136,0.05614375482605425,-0.012572626853386894,0.06700033053018634,0.13490226588571166,-0.05383318594332906,-0.041260276918723846,0.050199412434049025,-0.04761504058656736
194,20.376257500000065,-0.013920412251839195,-0.03531040731480413,-0.0034106894834111876,0.041631106836256516,0.05679843091265519,-0.01283420168892377,0.06679594589473725,0.13514142012667596,-0.054061890215631514,-0.04304894038985852,0.048438794531405864,-0.04671846159367357
195,20.380692700011423,-0.013717774854612914,-0.035033426400317945,-0.0034735527615582283,0.04195446707968304,0.057454245865237945,-0.013096874879066276,0.06658287709086047,0.13537198572528983,-0.05428622340013222,-0.04484228304760033,0.046656704399842916,-0.04581203830202209
196,20.385839000009582,-0.013513572120145189,-0.03475326299666041,-0.003537692271706872,0.04227677315905268,0.05811115778856936,-0.013360625114475406,0.06636110208404372,0.13559385871268848,-0.05450613792018623,-0.04664003322304021,0.044853204178283576,-0.04489583546423393
197,20.389292700012447,-0.013307809261987,-0.034469911887246185,-0.0036031131840697016,0.04259798280972329,0.05876912428404363,-0.013625430855893805,0.06613060016829497,0.1358069354401827,-0.05472158651839303,-0.04844191454085135,0.04302836366052455,-0.043969919991664726
198,20.393127800009097,-0.013100491698856763,-0.03418336806228189,-0.00366982056386873,0.04291805366990683,0.059428102451327326,-0.013891270335718821,0.06589135198916399,0.13601111261571094,-0.05493252226695932,-0.050247645873464905,0.041182260227174854,-0.04303436093304313
199,20.397159300002382,-0.012891625055095455,-0.03389362672119455,-0.0037378193702321213,0.04323694328727752,0.060088048890172656,-0.014158121559625717,0.06564333956680413,0.13620628734095788,-0.05513889857806272,-0.05205694125185852,0.03931497908126894,-0.042089229491013846
200,20.40138690000458,-0.012681215161089448,-0.03360068327505092,-0.0038071144550989033,0.043554609125693464,0.06074891970242243,-0.014425962308241214,0.065386546319859,0.13639235715009132,-0.05534066921437498,-0.053869509783947,0.03742661327868367,-0.041134599090050454
201,20.40700090001337,-0.01246926805366046,-0.03330453334896648,-0.0038777105621319178,0.043871008572036435,0.06141067049419896,-0.014694770138868756,0.06512095708931567,0.1365692200471758,-0.055537788300084254,-0.055685055653912525,0.035517263599294906,-0.040170545466566336
202,20.4106763000018,-0.012255789976422056,-0.03300517278450351,-0.003949612325639265,0.04418609894316482,0.06207325637827184,-0.014964522387268938,0.06484655816239777,0.13673677454366,-0.05573021033229213,-0.0575032781054606,0.033587038530954814,-0.039197146714555084
203,20.414097800006857,-0.012040787380102173,-0.03270259764205718,-0.004022824269504515,0.04449983749298509,0.06273663197661035,-0.015235196169495284,0.06456333729658109,0.136894919695635,-0.05591789019247848,-0.059323871486087344,0.031636054262264714,-0.03821448329306306
204,20.41824570001336,-0.011824266922831055,-0.03239680420322882,-0.004097350806125961,0.044812181419637644,0.06340075142311256,-0.015506768383785856,0.06427128374305743,0.13704355514125152,-0.05610078315797097,-0.06114652525601392,0.029664434751589166,-0.037222638003901944
205,20.422893500013743,-0.011606235470394091,-0.03208778897318556,-0.004173196235365166,0.0451230878727958,0.06406556836652058,-0.015779215712510255,0.06397038827066355,0.13718258113864756,-0.05627884491319377,-0.06297092393845241,0.027672311634640283,-0.03622169596117883
206,20.426449400009005,-0.011386700096448972,-0.031775548683005354,-0.004250364743505101,0.04543251396108367,0.06473103597351741,-0.01605251462417031,0.0636606431898273,0.13731189860246942,-0.05645203156084158,-0.06479674722482287,0.02565982416457124,-0.03521174464596914
207,20.43508190001012,-0.011165668082706593,-0.031460080292006566,-0.004328860402218093,0.0457404167596074,0.06539710693199638,-0.01632664137545543,0.06334204237547623,0.13743140914121835,-0.05662029963365855,-0.06662367018587288,0.023627119344589137,-0.034192874075296316
208,20.43926009999996,-0.010943146919075183,-0.031141380990061286,-0.0044086871675438925,0.04604675331759514,0.06606373345452016,-0.016601572013357525,0.06301458128893654,0.1375410150950576,-0.05678360610725089,-0.06845136346331684,0.021574351923807647,-0.03316517699511768
209,20.444731600000523,-0.010719144303767119,-0.030819448199891387,-0.004489848878878132,0.04635148066614069,0.06673086728195679,-0.0168772823773506,0.06267825699898324,0.13764061957311882,-0.056941908413737245,-0.07027949336545732,0.019501684475176962,-0.032128748974476144
210,20.449257000000216,-0.010493668143367961,-0.03049427957934658,-0.004572349257971526,0.04665455582604759,0.0673984596873005,-0.017153748101638038,0.06233306820281187,0.1377301264920649,-0.0570951644554743,-0.07210772182542008,0.017409287382197318,-0.031083688355174298
211,20.453144600003725,-0.010266726552867207,-0.030165873023663414,-0.004656191907940127,0.0469559358157761,0.06806646147968166,-0.01743094461746531,0.061979015247493684,0.13780944061326741,-0.05724333261821912,-0.07393570633195046,0.01529733865592513,-0.03003009619730328
212,20.457554000007804,-0.01003832785565026,-0.02983422666770445,-0.004741380312286949,0.04725557765949536,0.06873482300854812,-0.01770884715549488,0.06161610015161842,0.13787846757959496,-0.05738637178432656,-0.07576309984055955,0.013166023982188364,-0.028968076338491706
213,20.461388300012917,-0.009808480583451101,-0.02949933888817671,-0.004827917833935253,0.047553438395240274,0.0694034941680319,-0.017987430748246904,0.06124432662761115,0.13793711395304853,-0.057524241346486135,-0.07758955061974744,0.011015536766907074,-0.0278977354872165
214,20.46563510000124,-0.009577193476265157,-0.02916120830582851,-0.004915807714273838,0.047849475083180056,0.07007242440149551,-0.018266670232607342,0.06086370010486623,0.13798528725198925,-0.05765690122182429,-0.07941470212076436,0.008846078124724642,-0.026819183337508982
215,20.47034510000958,-0.009344475482221792,-0.028819833787623823,-0.005005053072214654,0.04814364481399942,0.07074156270625963,-0.018546540252405395,0.06047422775332708,0.13802289598866355,-0.05778431186675361,-0.08123819285246196,0.006657856858634417,-0.02573253273280468
216,20.476395100005902,-0.009110335757415901,-0.028475214448893265,-0.005095656903263079,0.048435904717395846,0.07141085763851329,-0.018827015261065637,0.06007591850783376,0.13804984970623332,-0.05790643429266395,-0.0830596562715696,0.004451089339116281,-0.02463789980002383
217,20.48084790000576,-0.008874783665698006,-0.02812734965546084,-0.005187622078601253,0.04872621197069682,0.0720802573184007,-0.019108069524337593,0.05966878309276676,0.13806605901512908,-0.058023230082071844,-0.0848787207303706,0.0022259994257745022,-0.023535404017048463
218,20.484939300004044,-0.00863782877842228,-0.027776239025745605,-0.005280951344184827,0.04901452380759609,0.07274970943528392,-0.01938967712310448,0.05925283404690194,0.1380714356293202,-0.058134661404966,-0.08669500945221166,-1.718155036802856e-05,-0.02242516820918254
219,20.48874480000813,-0.008399480874151927,-0.027421882432837375,-0.00537564731985353,0.049300797527011955,0.07341916125318136,-0.019671811956271292,0.05882808574829182,0.13806589240249637,-0.058240691034922375,-0.08850814055880127,-0.0022782147709472073,-0.021307318510745847
220,20.49307460000273,-0.008159749938321312,-0.027064280006545652,-0.005471712498455926,0.04958499050206476,0.0740885596163814,-0.019954447743729814,0.058394554438855814,0.13804934336449226,-0.058341282365077206,-0.09031772710643778,-0.004556853845238012,-0.020181984377430198
221,20.498915000003763,-0.007918646162854278,-0.026703432135420903,-0.005569149244988734,0.04986706018917366,0.07475785095523407,-0.020237558029401595,0.05795225824891022,0.13802170375829345,-0.05843639942436194,-0.09212337711391036,-0.006852844822699657,-0.019049298730301895
222,20.50499120001041,-0.007676179945738066,-0.026339339468747308,-0.005667959795751093,0.050146964137271995,0.07542698129212348,-0.020521116184360394,0.05750121722148785,0.1379828900763394,-0.05852600689487269,-0.09392469360373949,-0.009165926292160486,-0.01790939823133793
223,20.5094703000068,-0.007432361890552267,-0.025972002918506137,-0.0057681462575141585,0.05042465999713987,0.0760958962476116,-0.020805095410043595,0.057041453336468144,0.13793282009656757,-0.05861007013077705,-0.09572127458845614,-0.011495829267277208,-0.016762423448086566
224,20.51297790001263,-0.007187202805952243,-0.025601423661308916,-0.0058697106067065125,0.05070010553085352,0.07676454104676016,-0.021089468741557992,0.05657299053502984,0.13787141291982713,-0.058688555177280326,-0.09751271297651948,-0.013842277067892577,-0.015608518779580628
225,20.518181900013587,-0.006940713705106448,-0.025227603140299495,-0.005972654688615815,0.05097325862135505,0.07743286052563729,-0.02137420905107512,0.056095854744693426,0.13779858900707356,-0.05876142878881392,-0.09929859650191752,-0.016204985362983152,-0.014447832289498783
226,20.522180800006023,-0.006692905805087051,-0.02485054306702413,-0.00607698021660714,0.0512440772821446,0.0781007991380001,-0.021659289051313424,0.055610073904456464,0.13771427021636592,-0.05882865844638368,-0.1010785077279352,-0.018583662113546357,-0.013280515579062457
227,20.52659649999987,-0.0064437905262132635,-0.02447024542326873,-0.006182688771358393,0.05151251966709382,0.07876830096216002,-0.02194468129910181,0.05511567798979952,0.13761837984061526,-0.05889021237452574,-0.1028520240608766,-0.02097800757878289,-0.012106723743279481
228,20.53531540000404,-0.006193379491346805,-0.024086712462862384,-0.006289781800113204,0.051778544080380566,0.0794353097080315,-0.022230358199026242,0.05461269903768844,0.1375108426445219,-0.058946059558230575,-0.10461871778002185,-0.023387714359642705,-0.010926615294752931
229,20.53943640000944,-0.005941684525138893,-0.023699946713446246,-0.006398260615951708,0.05204210898654481,0.08010176872435555,-0.022516292007157417,0.05410117117128975,0.13739158490190165,-0.05899616975915999,-0.10637815608869429,-0.025812467235174105,-0.009740352012374307
230,20.54355790000409,-0.0056887176532281905,-0.023309950978207008,-0.006508126397079584,0.05230317302066298,0.08076762100611033,-0.02280245483485461,0.053581130624477724,0.13726053443421,-0.05904051353110393,-0.10812990111160287,-0.028251943000604466,-0.0085480987861806
231,20.547688900012872,-0.005434491101389135,-0.02291672833757394,-0.0066193801861357225,0.052561694998641544,0.08143280920210831,-0.023088818652643235,0.05305261576657558,0.13711762064943844,-0.059079062234693,-0.10987350993306226,-0.030705810294681907,-0.007350023457119454
232,20.55167559999973,-0.005179017294630069,-0.02252028215087867,-0.006732022889518867,0.05281763392763127,0.08209727562278406,-0.023375355294161373,0.05251566712649191,0.1369627745823131,-0.05911178805130148,-0.11160853479814903,-0.0331737294169619,-0.006146296666332671
233,20.55719210000825,-0.004922308856240577,-0.022120616057976727,-0.006846055276733552,0.05307094901655486,0.08276096224818118,-0.023662036460172144,0.05197032741551122,0.13679592893496273,-0.059138663996298316,-0.11333452337908297,-0.03565535233298791,-0.0049370917360909905
234,20.563618800006225,-0.004664378606787529,-0.021717733980829858,-0.0069614779797556505,0.05332159968674221,0.08342381073613449,-0.02394883372263873,0.051416641548847224,0.13661701811706714,-0.05915966393179549,-0.11505101911148845,-0.03815032269582684,-0.003722584567528007
235,20.567968900009877,-0.004405239563059289,-0.02131164012504822,-0.00707829149241783,0.05356954558266704,0.08408576243064628,-0.024235718528860375,0.05085465666517258,0.13642597828631642,-0.05917476257890738,-0.11675756162916733,-0.04065827573553537,-0.0025029535186969747
236,20.57582050000201,-0.004144904936957637,-0.020902338981391492,-0.007196496169815209,0.053814746582771585,0.08474675837046082,-0.02452266220566629,0.050284422143956134,0.13622274738963114,-0.0591839355293166,-0.11845368711785273,-0.04317883825738826,-0.0012783792475065997
237,20.580223800003296,-0.003883388134337011,-0.020489835327227895,-0.007316092227731479,0.05405716281037129,0.08540673929784036,-0.02480963596366381,0.04970598962156222,0.13600726520363882,-0.059187159256010265,-0.12013892848661807,-0.045711628761259115,-4.904457016225999e-05
238,20.587474900006782,-0.003620702753790686,-0.020074134227950215,-0.007437079742085759,0.05429675464463564,0.08606564566753212,-0.025096610901536396,0.04911941300692572,0.13577947337473645,-0.059184411123473134,-0.1218128153800551,-0.048256257308532405,0.001184865594037127
239,20.59183830000984,-0.003356862585383533,-0.01965524103834787,-0.007559458648400395,0.05453348273164488,0.0867234176559328,-0.02538355801039066,0.04852474849753329,0.13553931546085754,-0.05917566939788855,-0.12347487412595885,-0.05081232535397886,0.0024231642941640002
240,20.597723000013502,-0.0030918816093309753,-0.019233161403934055,-0.0076832287412899655,0.05476730799552578,0.0873799951704606,-0.02567044817815328,0.04792205459560573,0.13528673697316498,-0.05916091325663856,-0.12512462776631544,-0.05337942584508918,0.00366566272541671
241,20.601948100011214,-0.002825773994623765,-0.018807901262226933,-0.007808389673971724,0.054998191649665316,0.08803531785912401,-0.025957252194010128,0.04731139212377868,0.13502168541685483,-0.059140122796781165,-0.1267615961440085,-0.05595714324864705,0.0049121704031238325
242,20.60554720000073,-0.0025585540975981984,-0.018379466843983984,-0.007934940957797648,0.05522609520799847,0.08868932512028951,-0.026243940752885418,0.046692824240444214,0.13474411033259148,-0.05911327904286307,-0.12838529590060513,-0.058545053459060394,0.006162495285602572
243,20.609960700006923,-0.00229023646045143,-0.017947864674388483,-0.008062881961808318,0.05545098049637067,0.08934195611265221,-0.02653048445995659,0.046066416455453,0.1344539633382004,-0.05908036395420556,-0.12999524042337385,-0.06114272371898316,0.007416443827322547
244,20.616007700009504,-0.0020208358097015076,-0.01751310157418716,-0.008192211912308747,0.0556728096639779,0.0899931497654078,-0.0268168538352041,0.04543223664596966,0.134151198170873,-0.0590413604322017,-0.1315909398876393,-0.06374971250168911,0.008673821016949138
245,20.619723600000725,-0.0017503670545917466,-0.017075184660778033,-0.00832292989246638,0.05589154519488285,0.09064284478863248,-0.02710301931799707,0.04479035507176423,0.1338357707300001,-0.05899625232723331,-0.13317190144487648,-0.06636556949114206,0.009934430499277381
246,20.62620500000776,-0.001478845285439092,-0.01663412134924742,-0.008455034841931393,0.05610714991960332,0.09129097968387029,-0.027388951271710156,0.04414084438924351,0.13350763911957,-0.058945024444785755,-0.13473762963032465,-0.06898983572455787,0.011198074827007385
247,20.630755200007115,-0.001206285771926119,-0.016189919353355106,-0.00858852555647946,0.05631958702676446,0.09193749275492413,-0.027674619988368503,0.04348377966278984,0.13316676368961944,-0.05888766254992339,-0.1362876270364725,-0.07162204382337795,0.012464555932667543
248,20.63539100000344,-0.0009327039613363993,-0.0157425866864667,-0.008723400687677097,0.056528820074797106,0.09258232211884512,-0.027959995693307992,0.042819238372261516,0.132813107076392,-0.05882415336882804,-0.13782139502137422,-0.07426171827706225,0.013733675675624038
249,20.63915330001328,-0.0006581154767330615,-0.015292131662432243,-0.008859658742569622,0.05673481300366274,0.09322540571711299,-0.028245048549835127,0.042147300417462924,0.13244663424103698,-0.05875448458796998,-0.13933843413375038,-0.07690837565530083,0.015005236145323491
250,20.643039400005364,-0.00038253611508045834,-0.014838562896410157,-0.008997298083391683,0.05693753014659519,0.09386668132700071,-0.028529748663879244,0.04146804812152267,0.13206731250771,-0.058678644852705825,-0.14083824423437435,-0.07956152465126783,0.01627903968235324
251,20.647185200010423,-0.00010598184530886586,-0.014381889305635637,-0.009136316927300334,0.05713693624185836,0.09450608657312438,-0.028814066088638794,0.04078156623418657,0.13167511160185244,-0.05859662376624528,-0.14232032454942353,-0.08222066608855672,0.017554888838601953
252,20.65151900000637,0.00017153119367786657,-0.013922120110132592,-0.009276713346130618,0.05733299644451985,0.09514355893917906,-0.029097970829223538,0.04008794193467848,0.1312700036882247,-0.05850841188863538,-0.14378417385613654,-0.08488529304263043,0.018832586390317135
253,20.65554270001303,0.00044998669505178786,-0.013459264833368248,-0.009418485266173657,0.05752567633823642,0.09577903577985743,-0.02938143284729098,0.03938726483319291,0.13085196340800798,-0.058414000735600574,-0.14522929089308403,-0.08755489112964056,0.020111935437057443
254,20.66021920001367,0.0007293681861674807,-0.012993333302849505,-0.0095616304679772,0.0577149419470421,0.09641245433294544,-0.02966442206567731,0.03867962696977735,0.13042096791403684,-0.058313382776567446,-0.14665517506007344,-0.0902289389459228,0.021392739677855755
255,20.66863720001129,0.0010096590307258455,-0.012524335650660244,-0.009706146586168618,0.05790075974712281,0.09704375173158267,-0.029946908373014686,0.037965122809037834,0.1299769969036391,-0.0582065514308268,-0.14806132732096908,-0.09290690863308443,0.022674803796990647
256,20.673844200005988,0.001290842430994915,-0.012052282313938794,-0.009852031109300224,0.05808309667855311,0.09767286501667632,-0.03022886162832496,0.03724384923026643,0.12952003264838854,-0.05809350106181744,-0.14944725094299754,-0.0955882664394022,0.023957933755201926
257,20.67829760001041,0.0015729014300874535,-0.011577184035294862,-0.009999281379716818,0.058261920156975115,0.09829973114945019,-0.030510251665581526,0.036515905514977624,0.12905006002150096,-0.057974226970464324,-0.15081245182688977,-0.09827247301969835,0.025241936797511667
258,20.68214720000105,0.0018558189142950227,-0.011099051863165305,-0.010147894593445242,0.05843719808521437,0.0989242870241243,-0.030791048298238446,0.03578139333383436,0.1285670665246789,-0.05784872538938649,-0.1521564388068327,-0.10095898369154449,0.02652662128361987
259,20.688841200011662,0.0021395776154782224,-0.010617897152108107,-0.010297867800105845,0.05860889886483199,0.09954646948072415,-0.03107122132373613,0.035040416731275725,0.1280710423130231,-0.057716993477879903,-0.15347872458627937,-0.10364724906204162,0.02781179668221936
260,20.695724100005464,0.0024241601135127798,-0.010133731563033937,-0.010449197902845733,0.05877699140759145,0.100166215318002,-0.03135074052798182,0.034293082103368316,0.12756198021579945,-0.05757902931618049,-0.15477882728975872,-0.1063367160011045,0.029097273816606664
261,20.701269900004263,0.002709548838790986,-0.009646567063374823,-0.010601881658293675,0.058941445146795945,0.10078346130644743,-0.03162957568979962,0.033539498167385697,0.1270398757519122,-0.05743483189806526,-0.15605627175479875,-0.10902682866891956,0.030382865239318702
262,20.705490500011365,0.002995726074777725,-0.009156415927189548,-0.010755915676536516,0.05910223004846023,0.10139814420135868,-0.03190769658533924,0.03277977592713175,0.1265047271407074,-0.05728440112148244,-0.1573105897862006,-0.11171702910140274,0.03166838542988503
263,20.709853400010616,0.0032826739606202464,-0.008663290735205567,-0.010911296421116826,0.05925931662231166,0.102010200755958,-0.03218507299243518,0.03201402864005442,0.12595653531176898,-0.05712773777923494,-0.1585413194335628,-0.11440675698026793,0.0329536505781856
264,20.7144435000082,0.003570374493810873,-0.008167204374797222,-0.01106802020905159,0.05941267593264315,0.10261956773455799,-0.03246167469492509,0.03124237178957502,0.12539530391795178,-0.05696484355171129,-0.1597480041286751,-0.11709544891961735,0.03423847811248604
265,20.71875940001337,0.0038588095329020167,-0.0076681700398999785,-0.011226083210871733,0.05956227960904589,0.10322618192580331,-0.032737471486938514,0.03046492306056684,0.1248210393520957,-0.05679572100214586,-0.16093019264234587,-0.1197825380934465,0.03552268624293188
266,20.725920100012445,0.004147960800272963,-0.00716620123086024,-0.011385481450682394,0.059708099857024514,0.10382998015599908,-0.03301243317716926,0.0296818023121031,0.12423375076367088,-0.05662037357377662,-0.16208744009142093,-0.12246745461390375,0.0368060937617262
267,20.7309060000116,0.004437809884947825,-0.006661311754220333,-0.011546210806243887,0.05985010946846554,0.10443089930251404,-0.03328652959313656,0.028893131543170303,0.12363345007182383,-0.05643880558704304,-0.16321930919469352,-0.1251496262457175,0.0380885200489607
268,20.734783600011724,0.004728338245463841,-0.006153515722438348,-0.011708267009073294,0.05998828183192006,0.10502887630723545,-0.03355973058543033,0.028099034853237417,0.12302015197509468,-0.05625102223668734,-0.1643253706670911,-0.12782847869058878,0.039369784987090095
269,20.73886860000493,0.005019527212789043,-0.005642827553542649,-0.011871645644566591,0.06012259094268981,0.1056238481900665,-0.03383200603194417,0.027299638404146717,0.12239387396170544,-0.05605702958978174,-0.1654052026162202,-0.13050343525912098,0.04064970867706109
270,20.74298290000297,0.005311357993288359,-0.0051292619707208305,-0.012036342152141291,0.060253011412740316,0.10621575206248092,-0.03410332584210148,0.026495070386534786,0.12175463632245867,-0.05585683458558243,-0.16645838974092944,-0.13317391647278945,0.0419281110107022
271,20.74720250000246,0.0056038116717374116,-0.004612834001842786,-0.012202351825399553,0.060379518480461344,0.10680452514114551,-0.034373659961087114,0.02568546098949503,0.1211024621648855,-0.05565044503770348,-0.16748452282525483,-0.13583933993570066,0.04320481132242822
272,20.751288200001,0.005896869214383273,-0.004093558978917561,-0.012369669812311855,0.06050208802028583,0.10739010476161197,-0.03464297837409452,0.024870942371905996,0.12043737742738787,-0.055437869637348265,-0.16848319854324548,-0.1384991204402543,0.04447962816860729
273,20.755713700011256,0.006190511472051534,-0.0035714525374836523,-0.012538291115421294,0.06062069655217234,0.1079724283920765,-0.034911251110588716,0.024051648633986514,0.11975941089236192,-0.055219117957622896,-0.16945401971376195,-0.14115267035410115,0.04575237907476005
274,20.76012740000442,0.006484719183299016,-0.00304653061593243,-0.012708210592068597,0.06073532125094812,0.10855143364719898,-0.035178448248595326,0.023227715786153198,0.11906859419658782,-0.054994200459219114,-0.17039659633250662,-0.14379940041959277,0.047022880424503
275,20.76833290001377,0.006779472977611438,-0.0025188094547644304,-0.012879422954638007,0.06084593995548959,0.10912705830196323,-0.03544453991901861,0.022399281710567803,0.11836496183660077,-0.05476312849580464,-0.17131054728735065,-0.1464387208603287,0.04829094758764614
276,20.773086500004865,0.007074753378645158,-0.001988305595778374,-0.013051922770824174,0.060952531177692525,0.10969924030554833,-0.03570949630998277,0.021566486113360876,0.11764855116835045,-0.0545259143184639,-0.17219550184853133,-0.14907004221632217,0.049556395182890005
277,20.776733300008345,0.007370540807511825,-0.0014550358811929425,-0.013225704463920136,0.061055074111189205,0.11026791779518558,-0.03597328767119307,0.02072947047172841,0.11691940240447324,-0.054282571078540946,-0.17305109996727933,-0.1516927753053389,0.05081903734929822
278,20.78196800001024,0.007666815586104646,-0.0009190174527014262,-0.013400762313126499,0.06115354863980561,0.11083302911000333,-0.03623588431830471,0.019888377983259643,0.11617755861432658,-0.05403311282944765,-0.17387699163804848,-0.15430633054652304,0.052078687835952577
279,20.787594400011585,0.007963557940465056,-0.00038026775045924384,-0.013577090453881786,0.06124793534578722,0.11139451280488431,-0.03649725663730145,0.01904335351921829,0.1154230657278201,-0.05377755452863724,-0.174672836844726,-0.1569101176206749,0.05333516015211571
280,20.793153600010555,0.00826074800418875,0.00016119548799578732,-0.013754682878214079,0.06133821551780312,0.1119523076643476,-0.036757375088883645,0.018194543574391948,0.11465597253874438,-0.05351591203795635,-0.1754383068864199,-0.1595035460213175,0.05458826802598587
281,20.797357300005388,0.008558365821869968,0.0007053542288905471,-0.013933533435113915,0.0614243711586855,0.11250635271643825,-0.03701621021285028,0.017342096207516932,0.11387633070325823,-0.053248202121169895,-0.17617308615735294,-0.16208602606753716,0.0558378259220423
282,20.80141870000807,0.008856391352582581,0.0012521901434310318,-0.014113635830928424,0.061506384992856065,0.11305658724659451,-0.037273732632462996,0.01648616097386772,0.11308419473339576,-0.05297444243929634,-0.17687687335171343,-0.16465696976216762,0.057083649366236854
283,20.809491800013348,0.00915480447339639,0.001801684609083925,-0.014294983629776548,0.06158424047341182,0.11360295081147459,-0.03752991305878291,0.01562688885399812,0.11227962198723174,-0.05269465154497915,-0.17754938203228066,-0.16721579144984833,0.05832555509423755
284,20.81372220000776,0.009453584982926927,0.002353818710925096,-0.014477570253985222,0.06165792178886049,0.1141453832527285,-0.037784722294980026,0.014764432180816672,0.11146267265600729,-0.052408848876384494,-0.17819034084035862,-0.16976190826316465,0.05956336114108722
285,20.8183740000095,0.009752712604917061,0.002908573243054717,-0.014661388984546395,0.06172741386949911,0.11468382471069988,-0.038038131240610916,0.013898944566292032,0.11063340974996898,-0.05211705475070327,-0.17879949315471813,-0.17229473991027902,0.06079688674069772
286,20.824184500001135,0.010052166991848662,0.0034659287100786357,-0.014846432961594687,0.06179270239343874,0.11521821563806062,-0.0382901108958651,0.013030580831835677,0.10979189908755389,-0.05181929035902344,-0.17937659602444034,-0.17481370768185556,0.06202595193306524
287,20.828016400002525,0.010351927728582627,0.004025865328655705,-0.015032695184905586,0.06185377379230792,0.11574849681340778,-0.03854063236579299,0.01215949694535571,0.10893820929085875,-0.05151557776364092,-0.1799214190885553,-0.17731823335189043,0.06325037723192169
288,20.832463600003397,0.010651974336025848,0.0045883630291110086,-0.015220168514414108,0.061910615256667,0.11627460935485424,-0.03878966686452623,0.011285849962116012,0.10807241178548382,-0.0512059398961548,-0.18043374415359234,-0.179807738655857,0.06446998361941807
289,20.83663430000888,0.010952286274823746,0.005153401457114984,-0.015408845670753915,0.061963214741138126,0.11679649473362418,-0.03903718571948713,0.010409797965886636,0.10719458080106259,-0.050890400554829796,-0.18091336524493631,-0.18228164534339672,0.06568459255306328
290,20.840845400001854,0.011252842949076983,0.005720959975428483,-0.0155987192358168,0.06201156096924883,0.11731409478764877,-0.03928316037558346,0.009531500009304935,0.10630479337059469,-0.05056898440262414,-0.18136008881595148,-0.18473937552011524,0.06689402588779982
291,20.84486190001189,0.011553623710080967,0.006291017665713737,-0.01578978165333248,0.06205564343798373,0.11782735173515527,-0.03952756239939874,0.008651116052998044,0.1054031293276611,-0.050241716965307714,-0.18177373385505005,-0.18718035214670248,0.06809810595429519
292,20.84950370001025,0.011854607860086701,0.006863553330411191,-0.015982025229468715,0.0620954524220378,0.11833620818823568,-0.039770363483368786,0.007768806904905751,0.10448967130091709,-0.04990862462873073,-0.18215413208300718,-0.18960399974023223,0.06929665570512307
293,20.853412300013588,0.012155774656081534,0.007438545494682049,-0.0161754421334516,0.06213097897777963,0.1188406071663824,-0.04001153544994554,0.006884734157489576,0.10356450470450669,-0.04956973463552431,-0.18250112907331953,-0.192009745641578,0.07048949894351149
294,20.859216100012414,0.01245710331358844,0.008015972408416365,-0.01637002439820606,0.0621622149468958,0.119340492109964,-0.040251050255741584,0.005999060116191323,0.10262771772026533,-0.04922507508015095,-0.18281458636629536,-0.19439702188763533,0.07167646068262572
295,20.86399860000529,0.012758573010482114,0.008595812048306263,-0.01656576392101634,0.06218915295966042,0.11983580689358826,-0.040488879995645995,0.0051119477161414364,0.10167940126997903,-0.048874674902121065,-0.18309438342641624,-0.19676526673138697,0.07285736743431227
296,20.8682642000058,0.013060162890819951,0.009178042119983616,-0.016762652464206412,0.062211786437771796,0.12032649583930892,-0.04072499690690307,0.004223560431636662,0.10071964898284666,-0.04851856387824348,-0.183340417997784,-0.19911392467422584,0.07403204712977292
297,20.872586000012237,0.013361852068685651,0.009762640060221333,-0.016960681655840006,0.06223010959674417,0.12081250372967318,-0.04095937337315305,0.0033340621894015696,0.09974855716742573,-0.04815677261661118,-0.18355260478792407,-0.20144244508859532,0.07520032877319538
298,20.8779121000116,0.013663619632043397,0.010349583039197557,-0.017159842990440204,0.06224411744790323,0.12129377582065648,-0.0411919819284525,0.002443617290829612,0.0987662247924511,-0.047789332552210614,-0.18373087411897318,-0.20375028098641698,0.07636204224760892
299,20.88277900000685,0.013965444646600801,0.010938847962822393,-0.017360127829728466,0.06225380580002385,0.12177025785452392,-0.04142279526127245,0.0015523903383243291,0.09777275347072362,-0.04741627594279012,-0.18387517188768476,-0.206036889202242,0.07751701835679531
300,20.888560900013545,0.01426730615967897,0.011530411475126815,-0.01756152740338299,0.0622591712606113,0.12224189607260881,-0.041651786218478766,0.0006605461579282391,0.09676824743815272,-0.047037635864062774,-0.18398546074872998,-0.20830173182596934,0.07866508912215288
301,20.893837100011297,0.014569183204087876,0.012124249960713316,-0.017764032809816335,0.06226021123678869,0.12270863722797093,-0.041878927809283706,-0.00023175028581064224,0.09575281352375177,-0.046653446202696104,-0.18406172130552503,-0.21054427763540234,0.07980608812094724
302,20.89768500000355,0.014871054802005025,0.012720339547267565,-0.017967635016972097,0.062256923935752655,0.12317042859788405,-0.04210419320915833,-0.0011243339787575801,0.0947265611147889,-0.04626374164823485,-0.18410395191852388,-0.21276400203500556,0.08093985041067382
303,20.90294050000375,0.015172899968855246,0.013318656108130145,-0.018172324863140476,0.062249308364798514,0.12362721799615625,-0.042327555763705754,-0.0020170399404655813,0.0936896021273762,-0.04586855768682414,-0.18411216706272088,-0.2149603854877158,0.08206621184037947
304,20.90777910000179,0.015474697717189607,0.01391917526492769,-0.018378093057792515,0.06223736433096844,0.1240789537853323,-0.04254898899251267,-0.0029097032971665752,0.09264205098682764,-0.04546793059981048,-0.18408639553772005,-0.21713291184727876,0.08318500820546565
305,20.911535200008075,0.01577642706056179,0.014521872390262945,-0.01858493018243301,0.06222109244036879,0.12452558488882347,-0.04276846659300905,-0.0038021593476885904,0.0915840246144198,-0.045061897465661,-0.18402667955908175,-0.21928106768321792,0.08429607492861628
306,20.91620080001303,0.016078067017400388,0.015126722610463533,-0.018792826691472173,0.06220049409717909,0.12496706080298148,-0.04298596244433824,-0.004694243627635557,0.0905156424142958,-0.04465049616165851,-0.18393307522002833,-0.2214043428884231,0.08539924715491823
307,20.92160030000377,0.016379596614875667,0.015733700808389095,-0.019001772913116083,0.06217557150234701,0.1254033316091014,-0.04320145061123315,-0.0055857919797817285,0.08943702625433406,-0.044233765364898335,-0.1838056542965019,-0.2235022324287161,0.0864943600216366
308,20.9275450000132,0.01668099489275921,0.016342781626296453,-0.01921175905027593,0.06214632765191467,0.12583434798531,-0.043414905347895986,-0.0064766406357554575,0.08834830043608635,-0.043811744551367354,-0.18364450610262054,-0.22557423842550894,0.08758124908095984
309,20.931534400006058,0.016982240907274456,0.016953939468762034,-0.01942277518149609,0.06211276633492155,0.12626006121827726,-0.04362630110186551,-0.007366626304426317,0.08724959165545075,-0.04338447399284136,-0.18344973836369086,-0.2276198717694521,0.08865975070680276
310,20.93878150000819,0.017283313734935992,0.017567148505660598,-0.019634811261900864,0.0620748921308737,0.12668042321472323,-0.0438356125178667,-0.008255586262054637,0.08614102895696174,-0.04295199475201927,-0.18322147793485136,-0.2296386538791466,0.089729702425833
311,20.94710560000385,0.017584192476375562,0.01818238267519925,-0.019847857124159894,0.06203271040677243,0.12709538651268623,-0.0440428144416308,-0.009143358447647444,0.08502274367740864,-0.042514348676210456,-0.18295987193345825,-0.23163011894554816,0.09079094302800812
312,20.95138200001384,0.01788485626015255,0.01879961568700544,-0.020061902479471948,0.061986227313658854,0.1275049042924832,-0.044247881923683806,-0.010029781564088947,0.08389486937836134,-0.04207157839139708,-0.1826650878246819,-0.23359381519570652,0.09184331230749652
313,20.955741100013256,0.018185284246546467,0.019418821025267253,-0.020276936918567055,0.06193544978266187,0.12790893038732343,-0.044450790223108896,-0.010914695174326522,0.08275754177753399,-0.04162372729843373,-0.1823373112565005,-0.23552930380391246,0.09288665028330557
314,20.9596193000034,0.01848545563132912,0.02003997195192433,-0.020492949912726793,0.061880385520609996,0.1283074192936033,-0.044651514811298074,-0.011797939781506738,0.08161089869186954,-0.04117083957466747,-0.18197674270357042,-0.23743615606021481,0.09392079597753694
315,20.96381480000855,0.018785349649514543,0.020663041509908005,-0.0207099308148228,0.061821043005302265,0.12870032618096813,-0.04485003137573033,-0.012679356892616338,0.08045507999636085,-0.040712960181984975,-0.18158359493762308,-0.23931395082761,0.09494558639553007
316,20.968238200002816,0.01908494557908531,0.02128800252642978,-0.020927868860373698,0.061757431480502896,0.12908760690220772,-0.04504631582380129,-0.013558789074088239,0.07929022759179336,-0.04025013487832232,-0.18115809196606525,-0.24116227329971088,0.09596085611912916
317,20.97392930000205,0.019384222744693928,0.02191482761631742,-0.021146753168620736,0.06168956095067298,0.12946921800300523,-0.04524034428671301,-0.014436080005149931,0.07811648537561322,-0.03978241022965625,-0.18070046856311528,-0.24298071462765775,0.09696643737125439
318,20.978432300005807,0.019683160521338054,0.02254348918539798,-0.021366572743622442,0.06161744217544783,0.12984511673155025,-0.045432093123419906,-0.015311074528882817,0.07693399921328795,-0.03930983362088783,-0.18021096982543885,-0.2447688718572581,0.09796216019100032
319,20.982681900000895,0.019981738338008346,0.023173959433927117,-0.021587316475368528,0.06154108666387352,0.13021526104801004,-0.045621538924624075,-0.01618361870126153,0.07574291690978413,-0.03883245326613576,-0.1796898508983859,-0.24652634798387837,0.09894785257819283
320,20.986969000005047,0.020279935681307783,0.023806210360063945,-0.021808973140913283,0.061460506668408695,0.13057960963386595,-0.045808658516821046,-0.017053559839558537,0.07454338818039573,-0.038350318218218216,-0.17913737705494728,-0.2482527524934759,0.0999233407822076
321,20.991745100007392,0.020577732099041353,0.02444021376339089,-0.022031531405528715,0.06137571517869173,0.1309381219011018,-0.04599342896638706,-0.017920746572149128,0.07333556461697535,-0.03786347837614544,-0.17855382427855115,-0.24994770266160643,0.1008884496904721
322,20.99718680001388,0.02087510720377493,0.025075941248477666,-0.02225497982387757,0.06128672591505958,0.13129075800121282,-0.046175827583697454,-0.018785028892567494,0.07211959964616581,-0.03737198449083421,-0.17793948027125664,-0.2516108254392037,0.10184300332684725
323,21.00156390000484,0.02117204067636212,0.025713364228488467,-0.022479306841206425,0.06119355332179071,0.13163747883398902,-0.046355831927269386,-0.019646258219088348,0.07089564847734466,-0.036875888167767545,-0.1772946451233286,-0.253241758843383,0.1027868254675516
324,21.00595390000672,0.0214685122694376,0.026352453928831125,-0.022704500794558866,0.06109621256004621,0.13197824605601932,-0.046533419807906,-0.020504287455276,0.06966386804736886,-0.03637524186673642,-0.17661963060197383,-0.2548401514736671,0.10371973991972373
325,21.01043270000082,0.02176450181087552,0.026993181390846773,-0.02293054991400877,0.06099471950052556,0.1323130220889391,-0.046708569292836614,-0.021358971042668724,0.06842441697321061,-0.03587009890179822,-0.17591475844988413,-0.25640566054769304,0.1046415703648373
326,21.01418530000956,0.022059989207211642,0.027635517475538978,-0.023157442323913643,0.06088909071589684,0.13264177012747505,-0.046881258709860534,-0.02221016500482849,0.06717745551575006,-0.035360513442536885,-0.17518035897429166,-0.2579379498938191,0.10555214007291037
327,21.018728800001558,0.0223549544470283,0.028279432867341414,-0.023385166044188072,0.06077934347302536,0.13296445414734157,-0.04705146665149943,-0.02305772698634314,0.06592314555187723,-0.034846540516792715,-0.174416770187461,-0.25943668888972987,0.10645127156491653
328,21.022342399999616,0.022649377604301198,0.028924898077923568,-0.023613708991597336,0.06066549572502563,0.1332810389130151,-0.047219171979167626,-0.023901516288541327,0.06466165054857725,-0.03432823601519619,-0.17362433742157932,-0.2609015523564676,0.10733878642978473
329,21.02702690000297,0.022943238841707306,0.029571883450033806,-0.023843058981071294,0.06054756610314368,0.13359148998537929,-0.04738435382736845,-0.0247413939047602,0.06339313553605991,-0.03380565669567236,-0.17280341322640583,-0.2623322210847086,0.10821450550658734
330,21.03210080000281,0.023236518413892925,0.03022035916137921,-0.02407320372703869,0.06042557390846702,0.13389577372923867,-0.047546991607908186,-0.025577222555067832,0.06211776707674147,-0.03327886018620796,-0.17195435776892143,-0.26372838344545635,0.1090782492237525
331,21.03908610000508,0.023529196670701195,0.030870295228541515,-0.02430413084478191,0.060299539103470266,0.13419385732066305,-0.04770706501411928,-0.02640886672540638,0.060835713222755015,-0.03274790498606637,-0.1710775401113041,-0.26508973817222725,0.10992983792957443
332,21.04358020001382,0.02382125406035818,0.03152166151092815,-0.024535827851812235,0.060169482303345505,0.13448570875408922,-0.04786455402508607,-0.02723619271470728,0.05954714345795295,-0.032212850465349725,-0.1701733392235501,-0.26641599682446987,0.11076909214737711
333,21.047775300001376,0.024112671132616306,0.032174427714757065,-0.02476828216926557,0.060035424767091033,0.13477129684910286,-0.04801943890986372,-0.028059068683853973,0.05825222863152907,-0.031673756863739536,-0.16924214371664917,-0.2677068841759914,0.11159583238542914
334,21.05192720000923,0.024403428541854025,0.03282856339707351,-0.025001481123318618,0.05989738838836694,0.13505059125689658,-0.048171700231691754,-0.028877364700209657,0.05695114089625445,-0.031130685291902042,-0.16828435048071272,-0.2689621365939389,0.11240987842524082
335,21.05574180000985,0.024693507050130584,0.0334840379697975,-0.02523541194662547,0.059755395686152034,0.13532356246645297,-0.048321318852226645,-0.02969095277337369,0.055644053657818826,-0.03058369773713037,-0.1673003631820856,-0.2701815000175312,0.1132110486101505
336,21.060055500012822,0.024982887530195088,0.03414082070380057,-0.02547006177977482,0.0596094697952527,0.13559018181051127,-0.048468275935810025,-0.03049970688513556,0.054331141532667084,-0.030032857071648596,-0.1662905915858788,-0.27136472886271656,0.11399915941136214
337,21.064120700000785,0.025271550968449227,0.03479888073301106,-0.025705417672767933,0.059459634456669366,0.13585042147134163,-0.0486125529537818,-0.03130350301866176,0.05301258030796237,-0.029478227062462108,-0.16525545149966708,-0.2725115860531676,0.114774025341097
338,21.068289300004835,0.025559478467862926,0.0354581870585469,-0.0259414665865177,0.0593059140078223,0.13610425448632354,-0.048754131688843905,-0.0321022191879038,0.05168854689912202,-0.028919872380503857,-0.16419536514162736,-0.27362184414986357,0.1155354593549696
339,21.077161100009107,0.025846651250842283,0.036118708552874974,-0.02617819539436892,0.05914833337263292,0.13635165475330827,-0.0488929942394621,-0.03289573547035496,0.050359219298826925,-0.028357858606582808,-0.1631107622552907,-0.2746952880491523,0.11628327376566014
340,21.085194500003126,0.026133050662049042,0.03678041396399591,-0.02641559088364004,0.05898691805143196,0.13659259703570284,-0.0490291230242874,-0.03368393404726827,0.04902477650839383,-0.02779225223167014,-0.162002081522035,-0.27573171843643224,0.11701728143802176
341,21.08994150000217,0.02641865817117067,0.037443271919652736,-0.026653639757186303,0.05882169411065075,0.136827056967167,-0.04916250078656066,-0.03446669925011049,0.047685398453293726,-0.027223120651258526,-0.1608697710590942,-0.2767309529963163,0.11773729658313684
342,21.093773100001272,0.026703455375639853,0.038107250931561226,-0.026892328634984208,0.05865268817227892,0.13705501105587792,-0.04929311059847931,-0.035243917605609326,0.046341265902788975,-0.026650532157948218,-0.15971428723574066,-0.2776928240171015,0.11844313481255297
343,21.097349700008635,0.026987424003302358,0.038772319399659916,-0.02713164405573701,0.05847992740311885,0.1372764366884479,-0.049420935865530015,-0.03601547787072774,0.04499256040868158,-0.026074555935280394,-0.15853609238320854,-0.27861717445509027,0.11913461278800175
344,21.10137110001233,0.027270545915032317,0.03943844561637842,-0.027371572478501173,0.05830343950390422,0.13749131213359517,-0.04954596033079564,-0.03678127105550387,0.043639464263115345,-0.02549526205371999,-0.1573356528509041,-0.2795038546845736,0.1198115479585572
345,21.10546190000605,0.02755280310729457,0.040105597770923075,-0.02761210028433366,0.05812325269833299,0.1376996165456522,-0.04966816807924896,-0.03754119043917607,0.0422821604688401,-0.024912721467037865,-0.15611343810801234,-0.28035272068141015,0.12047375861818994
346,21.111271300003864,0.027834177714653605,0.040773743953579245,-0.027853213777960014,0.05793939572202955,0.13790132996794827,-0.04978754354202451,-0.03829513158431094,0.04092083271462805,-0.024327006007735515,-0.15486992054161094,-0.2811636334598578,0.12112106391669196
347,21.11511870000686,0.02811465201222886,0.041442852160029776,-0.02809489918946306,0.05775189781144074,0.1380964333360795,-0.04990407150066796,-0.03904299235097062,0.039555665350999164,-0.023738188383321302,-0.1536055755714049,-0.2819364593293638,0.12175328390940919
348,21.119923500009463,0.028394208418095992,0.042112890295689036,-0.028337142675992206,0.05756078869266058,0.13828490848105582,-0.05001773709137183,-0.03978467291195343,0.038186843363147364,-0.023146342171252908,-0.15232088226219384,-0.28267107103654265,0.12237024001400224
349,21.12651350001397,0.0286728294956338,0.04278382618005185,-0.028579930323493225,0.05736609857017853,0.13846673813230856,-0.050128525809175845,-0.04052007577290039,0.036814552335591944,-0.022551541810784264,-0.15101632474263413,-0.28336735032274896,0.12297175560741307
350,21.130957600005782,0.028950497955816397,0.04345562755105673,-0.028823248148458276,0.057167858115509215,0.13864190592049466,-0.05023642351212357,-0.04124910580129386,0.03543897840030251,-0.021953862592119112,-0.14969239365875983,-0.2840251912186634,0.12355765664245232
351,21.138632200003485,0.02922719665944986,0.04412826206946199,-0.029067082099695996,0.05696609845565949,0.13881039638000114,-0.050341416425357575,-0.04197167026065907,0.034060308169402205,-0.021353380642278773,-0.1483495868858374,-0.28464450226656063,0.12412777202811706
352,21.14414280001074,0.02950290861935257,0.04480169732323327,-0.029311418060121233,0.05676085116142653,0.1389721949510968,-0.050443491145139074,-0.0426876788464658,0.03267872866174291,-0.020750172910567702,-0.14698840959285886,-0.28522520663424095,0.12468193345832423
353,21.147728400013875,0.0297776170024784,0.0454759008319405,-0.029556241848564122,0.056552148235516714,0.13912728798172463,-0.0505426346428021,-0.043397043720955285,0.03129442723450364,-0.020144317156102053,-0.145609373412623,-0.2857672401885154,0.12521997482254407
354,21.1520096000022,0.030051305131981815,0.046150840051162836,-0.02980153922159816,0.05634002210050601,0.13927566272899022,-0.05063883426865221,-0.04409967954099401,0.029907591528447523,-0.019535891938990434,-0.14421299504244933,-0.2862705486510347,0.1257417314828069
355,21.15667470000335,0.03032395648922433,0.04682648237690004,-0.030047295875387077,0.056124505586688744,0.13941730736042332,-0.05073207775583517,-0.04479550347933152,0.02851840942710065,-0.018924976614873468,-0.14279979514049693,-0.2867350852700549,0.12624703966840017
356,21.160299000010127,0.030595554715721777,0.04750279514998963,-0.030293497447550447,0.055905631919831875,0.1395522109550704,-0.05082235322418269,-0.04548443524175158,0.02712706902458635,-0.01831165133197428,-0.14137029745371194,-0.2871608096462891,0.12673573596612428
357,21.16417130001355,0.030866083615032,0.0481797456605289,-0.030540129519047842,0.05568343470885741,0.13968036350444427,-0.050909649184052476,-0.04616639707987356,0.02573375859618998,-0.017695997030581143,-0.13992502818338143,-0.28754768730935093,0.12720765703915332
358,21.168131400001585,0.031135527154582687,0.048857301152301226,-0.03078717761608167,0.05545794793347255,0.13980175591333124,-0.05099395454016901,-0.04684131380215122,0.024338666570300493,-0.017078095442824223,-0.13846451570745383,-0.28789568947277105,0.1276626396076269
359,21.17410070000915,0.03140386946743911,0.049535428827205956,-0.031034627212018592,0.05522920593174547,0.13991638000046866,-0.0510752585954614,-0.047509112783981435,0.022941981501350905,-0.016458029092346428,-0.136989290321246,-0.2882047930942102,0.12810052063519317
360,21.17858380000689,0.031671094854011476,0.050214095849691276,-0.031282463729329565,0.054997243387637416,0.1400242284990896,-0.051153551054900964,-0.04816972397618853,0.021543892041175947,-0.01583588129227121,-0.13549988427175338,-0.2884749815251076,0.12852113821545078
361,21.184714800008805,0.03193718778370177,0.05089326935118936,-0.031530672541548475,0.05476209531849621,0.1401252950573227,-0.051228822029319394,-0.048823079915465716,0.020144586905652764,-0.01521173613627743,-0.13399683214969718,-0.28870624597615724,0.1289243331394003
362,21.18965430000389,0.032202132896489814,0.05157291643455314,-0.03177923897524921,0.05452379706248712,0.1402195742384134,-0.05130106203915977,-0.04946911573666121,0.018744254831847593,-0.014585678481367293,-0.1324806710912698,-0.28889858730745777,0.12930995018212763
363,21.1959407000104,0.03246591500445824,0.05225300417849359,-0.03202814831204066,0.05428238426596718,0.14030706152070815,-0.05137026201812763,-0.05010776918517601,0.017343084527297048,-0.013957793926464008,-0.1309519407019045,-0.2890520171238576,0.12967783865748406
364,21.20155780001369,0.0327285190932561,0.05293349964201633,-0.03227738579057919,0.054037892870795884,0.14038775329738382,-0.05143641331673446,-0.050738980628510795,0.01594126461653303,-0.013328168789800891,-0.12941118264165197,-0.28916655803912267,0.13002785233411354
365,21.205938200000677,0.03298993032350081,0.05361436986885632,-0.03252693660859803,0.05379035910159751,0.1404616468759134,-0.051499507705729475,-0.05136269306464302,0.014538983587802333,-0.012696890088333327,-0.12785894014185464,-0.2892422435133023,0.13035984906760753
366,21.21135620000132,0.033250134032118225,0.054295581891909264,-0.032776785924953006,0.05353981945299057,0.14052874047727873,-0.051559537379443465,-0.05197885212888694,0.013136429741168647,-0.01206404551869493,-0.12629575759036793,-0.28927911773466636,0.13067369076943924
367,21.215329600003315,0.03350911573362073,0.05497710273765864,-0.03302691886168433,0.05328631067678364,0.14058903323493294,-0.05161649495903593,-0.052587406098248496,0.011733791136377042,-0.011429723436910753,-0.12472218025802188,-0.2892772362359999,0.1309692437640356
368,21.2259219000116,0.0337668611213232,0.0556588994305971,-0.03327732050609387,0.053029869769162546,0.14064252519350756,-0.05167037349564218,-0.05318830589563279,0.010331255534979645,-0.010794012835890864,-0.123138754518663,-0.2892366680283239,0.13124637977896852
369,21.230630500009283,0.034023356068496775,0.056340938997640914,-0.033527975912837425,0.05277053395784542,0.1406892173072138,-0.05172116647340221,-0.05378150509633276,0.008929010327509049,-0.010157003315541485,-0.12154602791814907,-0.28915749823815823,0.13150497732173333
370,21.234908000013093,0.03427858662946032,0.057023188472535895,-0.03377887010603138,0.05250834068920696,0.1407291114378434,-0.051768867812317994,-0.05436695993290573,0.0075272424500299655,-0.009518785046907695,-0.11994454845932238,-0.289039828314726,0.13174492186983236
371,21.23896310001146,0.034532539040609316,0.05770561490025246,-0.03402998808137269,0.052243327615386186,0.14076221035236072,-0.05181347187093463,-0.05494462929472831,0.006126138309303339,-0.008879448740441298,-0.1183348631018508,-0.28888377322975967,0.13196610461582517
372,21.243145000000368,0.03478519972138229,0.058388185341368165,-0.03428131480827151,0.05197553258141501,0.14078851772017797,-0.0518549734488899,-0.05551447471832564,0.004725883726491987,-0.008239085622313002,-0.11671751619558723,-0.2886894584624307,0.13216842135582432
373,21.24753750000673,0.03503655527516492,0.059070866876436395,-0.03453283523199594,0.0517049936124198,0.14080803811020126,-0.05189336778936576,-0.056076460371734305,0.0033266638915624065,-0.007597787413458742,-0.11509304868179245,-0.2884570194459225,0.13235177254292
374,21.256739700009348,0.03528659249013233,0.05975362661034023,-0.0347845342758284,0.05143174890090157,0.1408207769876637,-0.051928650581434664,-0.05663055303708566,0.0019286633123570935,-0.006955646305373796,-0.11346199768108761,-0.2881866036675019,0.1325160642537588
375,21.260892400008743,0.03553529834002985,0.0604364316766304,-0.035036396843233134,0.051155836794106416,0.1408267407106777,-0.05196081796227633,-0.05717672209097308,0.0005320657486315737,-0.006312754929786017,-0.11182489616715433,-0.28787837330696364,0.13266120960347222
376,21.26885750000656,0.035782659984892856,0.06111924924184578,-0.03528840782003409,0.05087729578149613,0.14082593652642825,-0.051989866519229995,-0.05771493948387109,-0.0008629458644587534,-0.005669206320729123,-0.11018227279199966,-0.28753250646331996,0.1327871299863124
377,21.273411300004227,0.03602866477170603,0.06180204650981438,-0.03554055207660232,0.05059616448231818,0.14081837256698337,-0.05201579329164341,-0.05824517971880814,-0.0022561894942170193,-0.005025093872185266,-0.10853465177069554,-0.2871491967061556,0.1328937553877846
378,21.2792014000006,0.03627330023500263,0.0624847907259332,-0.03579281447005178,0.05031248163328314,0.14080405784473243,-0.052038595772514316,-0.05876741982966807,-0.00364748408256745,-0.0043805112971315105,-0.10688255252460388,-0.28672865207768844,0.132981024270199
379,21.284919500001703,0.036516554097404307,0.06316744918142506,-0.03604517984644267,0.050026286076345114,0.14078300224749665,-0.05205827190994232,-0.05928163935640318,-0.00503664961423657,-0.0037355525862922266,-0.1052264888061478,-0.2862710955042237,0.1330488841664608
380,21.28930040000705,0.03675841427010185,0.06384998921757096,-0.036297633042991294,0.049737616746619494,0.1407552165333064,-0.05207482010837039,-0.05978782031484841,-0.006423507192905712,-0.003090311961427483,-0.10356696812767711,-0.28577676569551,0.13309729247132324
381,21.29403480001201,0.03699886885327782,0.0645323782299163,-0.036550158890285435,0.04944651266045611,0.14072071232477315,-0.05208823922958375,-0.06028594716639602,-0.007807879118113443,-0.0024448838264125106,-0.10190449160244999,-0.2852459151633234,0.133126216174562
382,21.298313999999664,0.03723790613647169,0.06521458367244867,-0.03680274221450393,0.04915301290365108,0.14067950210312113,-0.052098528593476995,-0.06077600678626777,-0.009189588942193915,-0.0017993627231135544,-0.10023955334264986,-0.2846788061966498,0.13313563071309367
383,21.30383860001166,0.03747551459888813,0.06589657306174619,-0.03705536783963945,0.048857156619827605,0.1406315992020071,-0.052105687978625095,-0.06125798842735202,-0.010568461508149909,-0.001153843293598552,-0.09857263991193738,-0.2840757081639142,0.13312551898882755
384,21.308074600005057,0.03771168290964946,0.06657831398109536,-0.03730802058972363,0.0485589829989985,0.14057701780118464,-0.05210971762268407,-0.06173188368316724,-0.011944322980430404,-0.0005084202455370576,-0.09690423001361458,-0.2834368970752558,0.13309587148178587
385,21.314050400003907,0.037946399927993084,0.06725977408457794,-0.03756068529105374,0.048258531266306165,0.14051577292002562,-0.05211061822262646,-0.06219768644867517,-0.013317000878558923,0.0001368116866860277,-0.09523479389653457,-0.28276265670148404,0.13304668763654934
386,21.31837350000569,0.03817965470341469,0.06794092110112603,-0.03781334677442009,0.04795584067096508,0.14044788041085832,-0.05210839093476493,-0.0626553928774833,-0.014686324118761824,0.000781757790015147,-0.09356479296778154,-0.28205328037219957,0.1329779774523634
387,21.322309400013182,0.03841143647575847,0.06862172283854431,-0.038065989877332916,0.047650950475416815,0.1403733569520852,-0.052103037374521814,-0.06310500133890216,-0.016052123065033355,0.0014263234270299097,-0.09189467973119796,-0.2813090722532518,0.13288976253974136
388,21.330938000013703,0.03864173467525519,0.06930214718749841,-0.038318599446247575,0.04734389994468895,0.14029222004102587,-0.05209455961592613,-0.06354651237455168,-0.017414229583151683,0.002070414094235854,-0.09022489748293046,-0.2805303474211199,0.13278207689762342
389,21.334858600006555,0.03887053892250919,0.06998216212546772,-0.03857116033878655,0.04703472833597085,0.14020448798651108,-0.052082960190817866,-0.0639799286524661,-0.018772477092465233,0.002713935483906523,-0.08855587992395823,-0.2797174323053568,0.13265496775067478
390,21.343094200012278,0.039097839028435374,0.07066173572066192,-0.0388236574259569,0.0467234748884177,0.14011017990122346,-0.05206824208774529,-0.06440525491994296,-0.02012670062419918,0.0033567935504936613,-0.08688805124339469,-0.27887066551297757,0.1325084965145362
391,21.34725250001065,0.039323624994147335,0.07134083613589959,-0.03907607559436161,0.046410178813183454,0.14000931569372607,-0.05205040875052526,-0.06482249795845585,-0.021476736881236032,0.0039988945818295,-0.0852218265368139,-0.2779903969116877,0.1323427391390223
392,21.351495200011414,0.0395478870107977,0.07201943163244738,-0.03932839974840307,0.04609487928366209,0.13990191606022354,-0.052029464076450045,-0.06523166654055991,-0.02282242428753202,0.00464014526886501,-0.08355761198924308,-0.27707698511776574,0.13215778495942915
393,21.35570710001048,0.03977061545937162,0.07269749057381875,-0.03958061481247701,0.04577761542593851,0.13978800247611134,-0.0520054124141714,-0.06563277138657914,-0.02416360302353722,0.0052804527657331094,-0.08189580500459408,-0.27613079462503304,0.13195373451942538
394,21.36010940000415,0.03999180091043451,0.07337498142953118,-0.03983270573315549,0.04545842630944974,0.13966759718739347,-0.05197825856132493,-0.06602582512276702,-0.025500115047771034,0.005919724738375092,-0.08023679445647781,-0.27515219333671675,0.13173069774511223
395,21.364317300001854,0.040211434123835,0.07405187277882169,-0.0400846574813578,0.045137350937841596,0.13954072320202252,-0.051948007761942624,-0.06641084224042598,-0.026831804108308342,0.0065578694068973604,-0.07858096071860401,-0.27414155105540605,0.1314887931308958
396,21.368080900007044,0.04042950604836398,0.0747281333143201,-0.04033645505450832,0.04481442824002631,0.13940740428120593,-0.051914665703666485,-0.06678783905436288,-0.028158515749711812,0.007194795586303112,-0.07692867590075932,-0.2730992389553026,0.13122814764820817
397,21.372312000006787,0.04064600782137085,0.07540373184568018,-0.04058808347868045,0.04448969706144202,0.1392676649306789,-0.05187823851476607,-0.06715683366429671,-0.029480097319400364,0.007830412727963922,-0.07528030437412675,-0.2720256294744884,0.13094889681368965
398,21.376359600006253,0.040860930768337814,0.07607863730316834,-0.040839527810725536,0.04416319615548468,0.13912153039194886,-0.051838732760949975,-0.06751784591840826,-0.030796397973536786,0.008464630961012605,-0.07363620269498299,-0.2709210963890103,0.13065118433949713
399,21.380678800007445,0.041074266402413025,0.07675281874120987,-0.04109077314038583,0.043834964175121005,0.1389690266335112,-0.051796155441981975,-0.06787089737400788,-0.03210726868411461,0.009097361130423776,-0.07199671928503865,-0.26978601499647137,0.13033516173778745
400,21.385495200011064,0.04128600642390357,0.07742624534189242,-0.041341804592390674,0.04350503966470176,0.1388101803420252,-0.051750513988123234,-0.06821601125798532,-0.03341256224662603,0.009728514834571314,-0.07036219448471737,-0.26862076223881626,0.1300009884035841
401,21.39105550000386,0.04149614271972922,0.07809888641842669,-0.041592607328534925,0.04317346105195827,0.13864501891345524,-0.051701816256384245,-0.06855321242799421,-0.03471213328833949,0.010358004464112494,-0.06873296040099235,-0.2674257167483766,0.12964883203383282
402,21.39751610001258,0.04170466736283779,0.078770711418564,-0.04184316654973878,0.04284026664019209,0.1384735704441665,-0.05165007052658997,-0.06888252733142629,-0.03600583827641408,0.010985743243609115,-0.06710934068676426,-0.26620125931688354,0.1292788696931539
403,21.40169000001333,0.04191157261158315,0.07944168992797063,-0.04209346749808809,0.04250549460066935,0.1382958637219876,-0.05159528549722819,-0.06920398396445648,-0.0372935355307252,0.011611645280746421,-0.06549165060181095,-0.2649477743429358,0.12889128883295958
404,21.405812400000286,0.042116850909066875,0.08011179167355874,-0.04234349545885386,0.0421691829652076,0.13811192821718174,-0.05153747028103732,-0.06951761183160819,-0.0385750852460154,0.0122356256178368,-0.06388019689847572,-0.2636656503960531,0.12848628698684794
405,21.41066020001017,0.04232049488244431,0.08078098652677314,-0.04259323576248983,0.04183136961896221,0.13792179407329466,-0.05147663440035536,-0.06982344190368986,-0.03985034951018969,0.012857600278084885,-0.0622752779357544,-0.26235527889199467,0.1280640704242992
406,21.4142678000062,0.0425224973421963,0.08144924450683345,-0.04284267378660687,0.04149209229342113,0.13772549209794835,-0.051412787782259065,-0.07012150657846657,-0.04111919231362073,0.013477486304035894,-0.06067718415141169,-0.2610170526913323,0.1276248524917233
407,21.41796010000689,0.042722851281367324,0.08211653578393163,-0.04309179495792338,0.04115138855957269,0.13752305375359875,-0.051345940753540015,-0.07041183964317482,-0.04238147955385429,0.01409520178775357,-0.059086198183203875,-0.2596513649890545,0.1271688524327008
408,21.422372500004712,0.04292154987477096,0.08278283068238448,-0.04334058475419103,0.040809295821263844,0.13731451114828383,-0.05127610403555119,-0.07069447623636967,-0.043637079034146646,0.014710665897828188,-0.05750259496850732,-0.25825860823605057,0.12669629502294252
409,21.426420000003414,0.043118586478163634,0.08344809968374146,-0.043589028706095136,0.04046585130873793,0.13709989702639552,-0.05120328873892112,-0.07096945281140557,-0.044885860457711535,0.01532379890601462,-0.05592664180482458,-0.2568391737710414,0.12620741034936195
410,21.43063460000849,0.04331395462738739,0.08411231342984773,-0.04383711239912915,0.040121092072347056,0.13687924475948354,-0.05112750635814214,-0.07123680709887029,-0.04612769542268831,0.015934522212097974,-0.05435859812080885,-0.2553934521263679,0.12570243385604474
411,21.4347989000089,0.04350764803748268,0.08477544272586277,-0.04408482147544259,0.039775054976454165,0.1366525883370761,-0.05104876876604342,-0.07149657806784533,-0.04736245741935416,0.016542758370977434,-0.05279871499058051,-0.25392183368236443,0.12518160716620116
412,21.442541399999755,0.043699660601772015,0.08543745854323438,-0.044332141635661904,0.039427776693521065,0.13641996235751083,-0.05096708820811659,-0.07174880588363007,-0.04859002183143785,0.017148431125502517,-0.05124723444828876,-0.2524247100519557,0.12464517894160049
413,21.44709590000275,0.04388998639091542,0.08609833202262845,-0.04457905864068337,0.03907929369842045,0.13618140201874268,-0.050882477296670336,-0.07199353186235538,-0.04981026594675865,0.01775146544189101,-0.049704389000574875,-0.2509024754201022,0.12409340519448026
414,21.45233840000583,0.04407861965193889,0.08675803447681381,-0.044825558313437305,0.038729642262964055,0.1359369431090717,-0.05079494900481259,-0.07223079842398,-0.0510230689715289,0.01835178754558987,-0.04817040149035868,-0.24935552604143407,0.12352654887727477
415,21.45612470000924,0.044265554807236845,0.087416537393502,-0.045071626540622585,0.03837885845067049,0.13568662199781228,-0.05070451666025735,-0.07246064904558332,-0.05222831203612139,0.018949324952714675,-0.0466454856824467,-0.24778425821662284,0.12294487848975058
416,21.45996170000581,0.044450786453549815,0.08807381243814173,-0.0453172492744108,0.03802697811174631,0.13543047562596497,-0.05061119393900201,-0.07268312822004044,-0.053425878189748484,0.019544006492403666,-0.045129846674455444,-0.2461890665866538,0.12234866662511447
417,21.464079800003677,0.04463430936091821,0.0887298314566682,-0.04556241253411947,0.03767403687825458,0.1351685414969373,-0.050514994858917424,-0.07289828141329982,-0.054615652389688706,0.02013576232415855,-0.04362368069138199,-0.24457034352567272,0.12173818939245817
418,21.467888200000743,0.04481611847161319,0.0893845664782075,-0.04580710240785404,0.037320070159510256,0.1349008576673201,-0.05041593377325706,-0.07310615502106621,-0.05579752149007818,0.020724523954597868,-0.04212717539759858,-0.2429284791099971,0.12111372644701326
419,21.472048800002085,0.04499620889904576,0.09003798971773654,-0.046051305054118155,0.03696511313766877,0.13462746273771703,-0.0503140253640846,-0.07330679632910375,-0.05697137423083675,0.021310224255091197,-0.04064051033826157,-0.2412638612237839,0.12047556098978011
420,21.47923690000607,0.045174575926654865,0.09069007357869852,-0.046295006703391914,0.03660920076350639,0.13434839584362823,-0.050209284635612104,-0.07350025347419939,-0.05813710122748407,0.02189279747850892,-0.039163857022615205,-0.2395768762588538,0.11982397966872478
421,21.48523770000611,0.04535121500677558,0.09134079065557443,-0.04653819365967755,0.036252367752387334,0.13406369664637866,-0.050101726907465186,-0.07368657540527374,-0.05929459496685205,0.0224721792758983,-0.03769737886385906,-0.23786791056334472,0.11915927287600449
422,21.489174900008948,0.04552612175948808,0.09199011373641061,-0.04678085230201236,0.03589464858042123,0.13377340532404328,-0.04999136780785945,-0.07386581184376138,-0.06044374981094882,0.02304830671611552,-0.03624123112542679,-0.23613735191604068,0.11848173498343442
423,21.49312120000832,0.045699291971448563,0.09263801580530218,-0.04702296908594824,0.03553607748081448,0.13347756256233795,-0.049878223266675306,-0.07403801324420083,-0.061584462006968,0.023621118304785114,-0.03479556098156527,-0.23438559058895203,0.11779166416730813
424,21.501456199999662,0.045870721594702867,0.09328447004483227,-0.047264530544997456,0.035176688440409824,0.13317620954544757,-0.04976230950845056,-0.07420323075520222,-0.06271662970145671,0.024190554002233255,-0.03336050764735569,-0.2326130199757089,0.11708936218820677
425,21.505764200002886,0.04604040674548381,0.09392944983846659,-0.04750552329204421,0.034816515196416244,0.13286938794677952,-0.0496436430452813,-0.07436151618129812,-0.06384015295641846,0.02475655524031196,-0.03193620245427937,-0.23082003727545702,0.1163751339950421
426,21.514746200002264,0.046208343702993114,0.09457292877290291,-0.047745934020721574,0.034455591233318476,0.13255713991963572,-0.049522240669651364,-0.07451292194464405,-0.06495493377011304,0.02531906493649271,-0.030522768705948375,-0.22900704444976655,0.11564928733699259
427,21.518328400008613,0.04637452890816876,0.0952148806403752,-0.047985749506753536,0.034093949779978275,0.13223950808776433,-0.049398119447196555,-0.07465750104547024,-0.06606087610243874,0.025878027506927522,-0.029120321708509627,-0.22717444854346883,0.11491213231456408
428,21.522484600005555,0.04653895896243881,0.09585527944091152,-0.04822495660926176,0.033731623806927465,0.13191653553578567,-0.04927129670940743,-0.07479530702407697,-0.06715788589884346,0.026433388876189134,-0.027728969067289333,-0.22532266045236082,0.1141639804358854
429,21.52687290000904,0.046701630626462515,0.09649409938454526,-0.04846354227203686,0.033368646023837725,0.13158826579951208,-0.04914179004629909,-0.07492639392416296,-0.06824587110375709,0.0269850964811808,-0.026348810816067086,-0.22345209324758072,0.11340514389408046
430,21.535166200003005,0.0468625408188596,0.0971313148934792,-0.048701493524774084,0.03300504887716926,0.13125474285624356,-0.04900961729907604,-0.07505081625607435,-0.0693247416682538,0.02753309927386901,-0.024979939440093926,-0.2215631620241846,0.11263593545296666
431,21.539346000005025,0.04702168661492857,0.09776690060420266,-0.048938797484273475,0.03264086454799697,0.13091601111501333,-0.0488747965527755,-0.07516862896035623,-0.07039440956201608,0.028077347724084892,-0.02362243977729672,-0.2196562837963643,0.11185666821100052
432,21.543173500002013,0.047179065245354916,0.09840083136956093,-0.04917544135560419,0.03227612495001256,0.13057211540676747,-0.04873734612890506,-0.0752798873700436,-0.0714547887799809,0.028617793819967867,-0.02227638891135522,-0.21773187676486086,0.11106765515285379
433,21.54769960000704,0.04733467409491004,0.09903308226077719,-0.04941141243323328,0.031910861727716365,0.130223100974546,-0.048597284578081726,-0.07538464717317608,-0.07250579534719975,0.029154391066418605,-0.020941856202536906,-0.2157903599967125,0.11026920845645022
434,21.5514000000112,0.04748851070114192,0.09966362856942675,-0.049646698102118615,0.031545106254783004,0.12986901346361543,-0.048454630672684566,-0.07548296437538787,-0.07354734732237922,0.02968709447882288,-0.01961890332552133,-0.21383215227088104,0.10946163871676318
435,21.55569020000985,0.047640572753058226,0.10029244580936328,-0.049881285838766436,0.031178889632615954,0.12950989891161546,-0.0483094033995546,-0.07557489526278922,-0.07457936479154688,0.030215860573977564,-0.018307584725834377,-0.21185767049470838,0.10864525455030226
436,21.559837700013304,0.04779085808980293,0.1009195097185975,-0.05011516321225349,0.030812242689073132,0.12914580373875298,-0.04816162195273546,-0.07566049636898253,-0.07560176985623598,0.0307406473599791,-0.01700794828970759,-0.2098673288193283,0.1078203623898284
437,21.56384530001378,0.04793936469932706,0.10154479626112832,-0.050348317885214156,0.030445195977341348,0.12877677473806337,-0.04801130572627133,-0.0757398244444396,-0.07661448661857331,0.031261414325158825,-0.015720035671487328,-0.20786153835335036,0.10698726645402414
438,21.56821080000373,0.04808609071705443,0.10216828162872706,-0.05058073761479277,0.030077779774958825,0.12840285906574905,-0.0478584743070549,-0.07581293642669261,-0.07761744116668741,0.03177812242767732,-0.014443882574634291,-0.20584070728417408,0.10614626853365146
439,21.572305400011828,0.048231034424542886,0.10278994224267492,-0.050812410253561396,0.029710024082978723,0.12802410423158234,-0.04770314746772619,-0.07587988941243635,-0.07861056156097283,0.03229073408238608,-0.013179518949880046,-0.20380524073867576,0.10529766758105558
