,time,x,y,z,vx,vy,vz,ax,ay,az,jx,jy,jz
0,13.395521999977063,-0.04011233067770146,0.044762353602330794,0.029951299022444467,0.010259256859038486,-0.02810464859433244,0.00989659238720055,0.011650797867403544,0.009690674744332876,-0.0030142187089301545,0.0284229316228822,0.13620368776920092,-0.023723083805398518
1,13.399569500004873,-0.04006885805037212,0.04464363457331906,0.029993107548756726,0.010308761751495334,-0.028062466629226877,0.009883638563248323,0.011770540169489483,0.010268368523695996,-0.0031160616850729054,0.028227930779963935,0.137110028530983,-0.024465098373952374
2,13.403694299980998,-0.04002517508317153,0.044525099020063255,0.030034860406038758,0.010358771083068494,-0.028017834505006403,0.009870247592810955,0.011889451369034874,0.010849873719020617,-0.003221059282552468,0.028029766231974187,0.1380068675679252,-0.025215566213162847
3,13.407804100017527,-0.03998127965113195,0.04440675733407441,0.03007655571817283,0.010409281312203256,-0.027970736194733253,0.009856406064956635,0.012007518285714579,0.011435149838663452,-0.0033292471012940396,0.027828529962605732,0.13889405221325807,-0.025974422758725114
4,13.41205230000196,-0.0399371696443745,0.04428861997425174,0.03011819155203164,0.010460288842451057,-0.02792115584400398,0.009842100418839431,0.01212472812993519,0.012024155751056307,-0.003440660463827229,0.02762431466738615,0.13977143238355505,-0.026741601414117574
5,13.416136000014376,-0.039892842968337686,0.044170697466147595,0.03015976591684706,0.010511790024127362,-0.027869077773628334,0.009827316944892629,0.012241068505067421,0.012616849695673117,-0.0035553344070358545,0.027417213753727063,0.1406388605673261,-0.027517033820254545
6,13.424278599966785,-0.03984829754399894,0.04405300040122115,0.030201276763584032,0.010563781155976103,-0.027814486482267916,0.009812041786050388,0.012356527411232351,0.013213189293807388,-0.003673303675506519,0.02720732186916441,0.14149619206625152,-0.028300650067889187
7,13.428818599961232,-0.0398035313080891,0.04393553943608107,0.030242721984319636,0.010616258486859573,-0.02775736664902394,0.009796260938997322,0.01247109325199983,0.013813131561578746,-0.0037946027150741715,0.02699473522284932,0.14234328559220188,-0.02909237894464843
8,13.432832899969071,-0.03975854221329965,0.04381832529171733,0.030284099411627557,0.010669218217479497,-0.02769770313596593,0.009779960255444716,0.012584754840892777,0.014416632925757901,-0.003919265668259245,0.026779551815086802,0.14318000314118334,-0.02989214817024829
9,13.437070699990729,-0.039713328228482656,0.04370136875272247,0.03032540681796794,0.010722656502121914,-0.027635480990585676,0.009763125443418686,0.012697501410026221,0.01502364923570746,-0.004047326369801847,0.026561872045856357,0.14400620905121353,-0.03069988426459145
10,13.441318799974397,-0.03966788733884326,0.043584680666502694,0.03036664191508274,0.010776569450451289,-0.027570685448224986,0.009745742068574157,0.012809322621756348,0.01563413577124169,-0.004178818340983727,0.026341798864357596,0.1448217696582349,-0.03151551256485283
11,13.445360000012442,-0.039622217546124425,0.043468271942478584,0.030407802353396695,0.010830953129353883,-0.02750330193446319,0.009727795555531018,0.012920208578583873,0.016248047251658237,-0.004313774785306921,0.02611943740140797,0.1456265529864421,-0.03233895747236889
12,13.449655100004748,-0.03957631686878387,0.043352153551276015,0.030448885721423975,0.010885803564815591,-0.027433316067468537,0.009709271189224645,0.013030149831695195,0.01686533784097977,-0.0044522285849030434,0.02589489447554317,0.1464204281964526,-0.033170142607837926
13,13.45363979996182,-0.03953018334216293,0.04323633652390701,0.030489889545180563,0.010941116743837527,-0.027360713660341374,0.00969015411627241,0.013139137386690085,0.01748596115232024,-0.004594212297524075,0.025668277904334343,0.14720326541328685,-0.034008990960356054
14,13.459341000008862,-0.03948381501864729,0.04312083195094081,0.03053081128760246,0.010996888616362282,-0.02728548072342863,0.009670429346349641,0.013247162706300357,0.01810987025167218,-0.004739758154211687,0.025439696251697792,0.14797493494602176,-0.03485542478980735
15,13.462925900006669,-0.039437209967819555,0.04300565098166519,0.03057164834796971,0.011053115097212496,-0.02720760346663499,0.009650081753575844,0.013354217713981183,0.018737017655675516,-0.004888898055462781,0.02520925908051306,0.14873530578315816,-0.03570936528835948
16,13.466260200017132,-0.039390366276603604,0.04289080482323799,0.030612398061336303,0.01110979206804748,-0.02712706830175623,0.009629096077923074,0.013460294798765532,0.019367355322683917,-0.005041663566036923,0.024977077285569162,0.14948424430645854,-0.03657073250573863
17,13.46964929997921,-0.03934328204940063,0.042776304739828665,0.03065305769796613,0.011166915379342827,-0.02704386184486591,0.009607456926646062,0.013565386821670381,0.020000834639659744,-0.00519808591049012,0.024743263300263954,0.15022161387817962,-0.03743944538347362
18,13.473148599965498,-0.03929595540821673,0.04266216205174968,0.03069362446277497,0.011224480852401204,-0.026957970918759525,0.009585148775728346,0.013669487122298696,0.020637406409750633,-0.005358195968271769,0.024507930912887926,0.15094727534601335,-0.038315421605908284
19,13.47667940001702,-0.039248384492781965,0.04254838813457738,0.03073409549477866,0.011282484281387766,-0.026869382555446235,0.009562155971353846,0.013772589523692414,0.021277020843453485,-0.005522024267998818,0.0242711950369897,0.15166108760559477,-0.03919857773792791
20,13.480120299966076,-0.03920056746066073,0.04243499441826233,0.03077446786654753,0.011340921435381986,-0.0267780839986677,0.00953846273140141,0.013874688336992973,0.02191962755094678,-0.0056896009837171255,0.024033171608063696,0.15236290810573566,-0.040088829483109406
21,13.483551700017417,-0.03915250248735347,0.04232199238622887,0.030814738583667223,0.011399788060452474,-0.026684062706454643,0.009514053146947993,0.01397577836542084,0.022565175537526065,-0.005860955931358154,0.023793976814099324,0.15305259470855037,-0.04098609162656735
22,13.491184899990913,-0.03910418776638951,0.042209393574463835,0.03085490458420582,0.011459079881742443,-0.026587306353684288,0.009488911183793167,0.014075854902430709,0.02321361321166275,-0.0060361185645171215,0.023553725339084557,0.15373000927219677,-0.04189027821855001
23,13.495658100000584,-0.03905562150941115,0.042097209570594527,0.03089496273818755,0.011518792605528941,-0.026487802834568783,0.009463020683997986,0.014174913720840693,0.023864888410729927,-0.006215117972461911,0.023312528525645047,0.15439502140520106,-0.04280130289585792
24,13.499465700006112,-0.039006801946249066,0.04198545201295636,0.03093490984707294,0.011578921921216402,-0.02638554026499513,0.009436365367426328,0.014272951055453533,0.024518948440802154,-0.006397982878628662,0.02307049389269673,0.1550475094309105,-0.04371907895093813
25,13.5037905999925,-0.03895772732498955,0.04187413258965106,0.030974742643245536,0.011639463503248952,-0.026280506984677127,0.009408928833296488,0.014369963588107774,0.025175740110535277,-0.006584741639214835,0.022827726410274595,0.1556873574712272,-0.044643519142294426
26,13.50783269997919,-0.03890839591203376,0.04176326303759612,0.031014457789505193,0.011700413012977575,-0.026172691559208865,0.009380694561734411,0.014465948441077028,0.025835209746310588,-0.006775422240071913,0.022584330026517076,0.15631445202506064,-0.045574535229370834
27,13.512824499979615,-0.03885880599214917,0.04165285514156565,0.031054051878567912,0.011761766100516612,-0.02606208278208863,0.009351645915351554,0.014560903175031076,0.026497303197187107,-0.006970052291366139,0.022340408333535337,0.15692868050966152,-0.04651203787516053
28,13.516386999981478,-0.03880895586851313,0.04154292073322269,0.031093521432572473,0.011823518406593691,-0.025948669676730526,0.00932176614084326,0.014654825788064726,0.027161965837713433,-0.007168659023647812,0.022096064762658282,0.15752993113456776,-0.04745593674949398
29,13.520448099996427,-0.03875884386274864,0.04143347169014306,0.031132862902593792,0.011885665564398011,-0.02583244149846461,0.009291038370599853,0.014747714715309616,0.027829142571814302,-0.00737126928338528,0.021851402550067667,0.15811809325777562,-0.0484061405232152
30,13.524566999985836,-0.03870846831495232,0.0413245199348308,0.031172072668163166,0.011948203201426996,-0.025713387736515655,0.009259445624342772,0.014839568827672537,0.028498777838613685,-0.007577909528985005,0.021606524461246713,0.15869305756887755,-0.049362557224111106
31,13.528856499993708,-0.03865782758371457,0.041216077433725254,0.031211147036795468,0.012011126941323908,-0.02559149811595405,0.009226970810769312,0.014930387429117585,0.029170815617869692,-0.007788605829334756,0.02136153248082191,0.15925471589432463,-0.05032509462157614
32,13.533327599987388,-0.03860692004613199,0.041108156196200014,0.0312500822435233,0.012074432405701524,-0.025466762599628615,0.009193596729201075,0.01502017025278224,0.02984519943415126,-0.008003383863075834,0.021116527651829774,0.15980296108263348,-0.05129366033019269
33,13.537065999989863,-0.03855574409781213,0.04100076827355369,0.03128887445043811,0.012138115215946913,-0.025339171390082196,0.009159306071234862,0.0151089174569006,0.03052187236130253,-0.008222268918021988,0.020871609995434092,0.16033768702710421,-0.052268161763497925
34,13.54115180001827,-0.03850429815287064,0.040893925757992625,0.03132751974623833,0.012202170995010643,-0.02520871493144673,0.009124081422396043,0.015196629620240707,0.031200777026811618,-0.008445285890040757,0.020626878315730113,0.16085878863130867,-0.05324850593876412
35,13.5452457999927,-0.0384525806439209,0.040787640781605676,0.03136601414578446,0.012266595369172989,-0.025075383911321896,0.0090879052637989,0.015283307736377495,0.031881855615983196,-0.0086724592808219,0.020382430073424454,0.16136616161416203,-0.05423459914434324
36,13.549522499961313,-0.03840059002205626,0.040681925515331036,0.031404353589661205,0.012331383969784714,-0.024939169262634918,0.009050759973818864,0.015368953208062142,0.03256504987465924,-0.008903813193946297,0.020138361569430205,0.16185970215404005,-0.05522634654327948
37,13.553132899978664,-0.038348324756824904,0.040576792167915265,0.031442533943746756,0.012396532434985674,-0.024800062165496208,0.009012627829786103,0.015453567843047222,0.03325030111038281,-0.009139371329303116,0.01989476830089381,0.1623393066702621,-0.05622365184036281
38,13.557522099989,-0.0382957833361976,0.04047225298486446,0.03148055099878923,0.012462036411410308,-0.024658054049049322,0.008973491009704947,0.015537153851466099,0.033937550193271326,-0.009379156976343814,0.019651745041646712,0.16280487175440903,-0.057226417138554184
39,13.561188499967102,-0.03824296426652814,0.04036832024738763,0.03151840046999045,0.01252789155588408,-0.024513136593319232,0.008933331594004515,0.015619713842338252,0.03462673755659968,-0.009623193007285443,0.01940938544035969,0.16325629448019047,-0.058234542967790785
40,13.565559800015762,-0.03818986607250672,0.040265006271332233,0.03155607799659724,0.012594093537099425,-0.024365301731057342,0.008892131567315605,0.01570125081755126,0.03531780320029329,-0.00987150187060819,0.019167781687351428,0.16369347310414312,-0.059247928273653966
41,13.56998480000766,-0.03813648729710625,0.04016232340611196,0.03159357914150018,0.012660638037261316,-0.024214541649560235,0.008849872820276295,0.015781768165549156,0.036010686697435276,-0.010124105584162872,0.018927024330945782,0.1641163074101001,-0.060266470520294615
42,13.574553399987051,-0.0380828265015218,0.04006028403362691,0.031630899390840204,0.012727520753709844,-0.02406084879245967,0.008806537151367103,0.015861269653761802,0.036705327200671836,-0.010381025729538668,0.018687201692004506,0.16452469866274327,-0.061290066207362506
43,13.579715200001374,-0.03802888226510319,0.0399589005671762,0.031668034153622855,0.012794737400501778,-0.023904215861487176,0.008762106268764207,0.0159397594173434,0.03740166344832673,-0.010642283449540995,0.018448399393012047,0.16491854951606383,-0.06231861127204814
44,13.583506099996155,-0.03797465318528105,0.03985818545036326,0.03170497876134053,0.012862283709937939,-0.023744635818212356,0.008716561792195935,0.016017241947620504,0.03809963377003274,-0.010907899445958309,0.01821070065682554,0.16529776386448944,-0.06335200103137048
45,13.586925000010524,-0.03792013787748654,0.03975815115599374,0.03174172846760247,0.012930155434047089,-0.023582101885759862,0.008669885254814855,0.01609372208335632,0.03879917609158749,-0.011177893976552056,0.017974187098745018,0.16566224655544434,-0.06439013026275114
46,13.590770000009798,-0.03786533497506484,0.03965881018496626,0.031778278447772805,0.01299834834603945,-0.023416607550506657,0.00862205810507972,0.016169205005895287,0.03950022793815476,-0.011452286853504683,0.017738939346467024,0.1660119031133658,-0.06543289319250996
47,13.595715100003872,-0.03781024312918257,0.039560175065156016,0.03181462379861648,0.013066858241749548,-0.023248146563771915,0.008573061708640677,0.01624369623566879,0.04020272643678699,-0.011731097440312331,0.017505037258429754,0.16634664005043726,-0.06648018318560932
48,13.599797200004105,-0.03775486100872909,0.0394622583502912,0.0318507595379532,0.013135680941060181,-0.02307671294349296,0.008522877350247485,0.016317201629185735,0.04090660832225368,-0.012014344647609781,0.017272560119086164,0.16666636536022533,-0.06753189256230238
49,13.603655999992045,-0.037699187300211885,0.039365072618822446,0.031886680604319526,0.013204812289319825,-0.022902300975865892,0.008471486235670024,0.01638972737718921,0.04161180994373738,-0.012302046928512998,0.01704158638618823,0.16697098862053464,-0.06858791228799854
50,13.609120399982205,-0.0376432207076459,0.0392686304727854,0.03192238185663904,0.013274248158751016,-0.022724905216964908,0.008418869493645878,0.01646127999951047,0.042318267271531665,-0.012594222271822034,0.016812193104955676,0.16726042121201726,-0.06964813167448708
51,13.612791899999138,-0.03758695995243697,0.03917294453665646,0.03195785807390089,0.01334398444982425,-0.022544520494326308,0.008365008177858325,0.016531866338272666,0.04302591590558536,-0.01289088819483757,0.01658445563286638,0.16753457624905807,-0.07071243826545978
52,13.616289199970195,-0.037530403773259585,0.03907802745620194,0.03199310395484673,0.013414017092608907,-0.02236114190849557,0.008309883268944647,0.01660149355041808,0.04373469108161619,-0.013192061735595964,0.016358447203298952,0.16779336781049425,-0.0717807179970274
53,13.620461200014688,-0.03747355092592888,0.03898389189732076,0.0320281141176662,0.013484342048083965,-0.02217476483455968,0.008253475676539761,0.016670169097222663,0.04444452767315111,-0.013497759447042883,0.016134238420031012,0.16803671035439047,-0.07285285549632466
54,13.624772500013933,-0.03741640018326729,0.038890550544880644,0.03206288309970114,0.013554955309400285,-0.021985384923676948,0.008195766241333802,0.016737900732549483,0.045155360192692146,-0.013807997391792915,0.015911897073791186,0.1682645187633261,-0.07392873382899195
55,13.632146099989768,-0.037358950334965946,0.03879801610154786,0.032097405357158486,0.013625852903092008,-0.021792998104599472,0.00813673573716005,0.016804696490812312,0.04586712279413963,-0.014122791134168271,0.01569148811927696,0.16847670864324357,-0.07500823423490949
56,13.636654099973384,-0.037301200187441014,0.03870630128661056,0.03213167526483215,0.013697030890237076,-0.02159760058518249,0.008076364873119824,0.016870564675034772,0.046579749276484665,-0.014442155732724168,0.015473073560140962,0.16867319661084323,-0.07609123626616611
57,13.640916400006972,-0.03724314856368529,0.038615418834795766,0.03216568711583385,0.013768485367567678,-0.021399188853875616,0.008014634295733602,0.016935513843841527,0.047293173088662106,-0.014766105733453987,0.015256712460642495,0.16885390033882058,-0.0771776178213523
58,13.645096499996724,-0.03718479430311519,0.03852538149508009,0.03219943512133318,0.01384021246852079,-0.02119775968119115,0.007951524591123364,0.016999552799615944,0.04800732733362551,-0.015094655162604583,0.015042461416465484,0.16901873821187358,-0.07826725536376243
59,13.649305999977514,-0.03712613626141344,0.03843620202949431,0.032232913410306915,0.013912208364248493,-0.020993310121160874,0.007887016287224456,0.01706269057947182,0.04872214477029184,-0.015427817521726244,0.014830374818621638,0.16916762895932222,-0.07936002438079638
60,13.65368709998438,-0.0370671733103675,0.03834789321192178,0.03226611602929776,0.01398446926459219,-0.020785837512787928,0.00782108985600978,0.017124936445642218,0.049437557814510355,-0.015765605784372014,0.014620504865025655,0.16930049152847315,-0.08045579939531804
61,13.657816499995532,-0.037007904337704046,0.03826046782689071,0.032299036942182474,0.014056991419011663,-0.0205753394814954,0.007753725715729568,0.017186299876549058,0.0501534985399367,-0.016108032391243685,0.014412901640899069,0.16941724502748493,-0.08155445374752211
62,13.66193000000203,-0.036948328246919564,0.03817393866836035,0.03233167002994953,0.014129771117483788,-0.020361813940570815,0.007684904233176603,0.017246790557871726,0.05086989867851874,-0.01645510924504691,0.01420761273985706,0.16951780886302795,-0.0826558594685931
63,13.66627869999502,-0.03688844395710717,0.038088318538501066,0.03236400909048641,0.014202804691356081,-0.020145259092610623,0.007614605725969499,0.017306418370413138,0.051586689622534494,-0.01680684770456904,0.014004682884995687,0.16960210301578368,-0.08375988687891865
64,13.671871299971826,-0.03682825040278003,0.038003620246468285,0.03239604783837658,0.014276088514142827,-0.019925673430947453,0.007542810464867986,0.017365193377964827,0.0523038024274072,-0.017163258576137326,0.013804153986145337,0.1696700479832659,-0.08486640418620173
65,13.675577300018633,-0.03676774653369145,0.03791985660717051,0.03242777990470634,0.014349619002276033,-0.019703055741070806,0.0074694986761284065,0.017423125815657053,0.053021167813259815,-0.017524352104298997,0.013606065174522043,0.16972156463037277,-0.08597527737052905
66,13.679458800004795,-0.03670693131465192,0.03783704044003127,0.03245919883688172,0.014423392615803058,-0.019477405102041163,0.0073946505438978,0.017480226078116855,0.053738716166466555,-0.017890137962307758,0.013410452710921615,0.1697565740515899,-0.08708636996632231
67,13.683175899961498,-0.03664580372534334,0.03775518456774517,0.03249029809845556,0.014497405859037455,-0.01924872088789756,0.007318246212649828,0.017536504707041982,0.054456377540042414,-0.018260625240960376,0.013217349859154922,0.1697749973759624,-0.0881995429704297
68,13.687560499995016,-0.03658436276013054,0.03767430181502793,0.03252107106896501,0.014571655281151539,-0.019017002769068408,0.007240265789673239,0.017591972378288905,0.05517408165354584,-0.01863582243830614,0.013026787161720782,0.1697767557094276,-0.0893146552555168
69,13.69126489997143,-0.03652260742787049,0.03759440500736052,0.03255151104377968,0.014646137476718064,-0.01878225071377988,0.007160689347594799,0.01764663989177743,0.05589175789298069,-0.019015737451978466,0.012838792795929447,0.16976177011205704,-0.09043156378821804
70,13.695485599979293,-0.036460536751719265,0.0375155069697273,0.03258161123396041,0.014720849086217444,-0.018544464989467567,0.007079496926932586,0.017700518161589553,0.05660933531050649,-0.01940037757074872,0.012653392332569591,0.1697299619426261,-0.09155012359463846
71,13.699539799999911,-0.036398149768936953,0.03743762052534821,0.03261136476612903,0.014795786796495718,-0.018303646164187323,0.006996668538690328,0.017753618203833733,0.05732674262725358,-0.01978974946656615,0.012470608667061596,0.16968125354712468,-0.09267018797860693
72,13.703799800015986,-0.03633544553069074,0.037360758494404955,0.032640764682349103,0.014870947341169168,-0.018059795108003106,0.006912184166978,0.017805951126161675,0.0580439082388544,-0.02018385918795695,0.01229046216880455,0.169615568741277,-0.0937916086364071
73,13.7083016000106,-0.03627242310185641,0.03728493369276151,0.03266980394001778,0.014946327500993657,-0.017812912994351063,0.0068260237716619675,0.01785752811689525,0.058760760222338074,-0.020582712153034182,0.012112970371043702,0.16953283327005086,-0.0949142356568373
74,13.712304999993648,-0.0362090815608183,0.03721015893067875,0.03269847541176899,0.015021924104177315,-0.017563001301369084,0.0067381672910446794,0.017908360431921275,0.05947722634554666,-0.020986313142897336,0.01193814769539375,0.1694329751976137,-0.0960379175441702
75,13.716159500007052,-0.03614541999926815,0.0371364470115237,0.03272677188538794,0.015097734026639085,-0.017310061813181274,0.006648594644570617,0.017958459381489395,0.06019323407732662,-0.02139466629483637,0.011766005026934277,0.16931592510264715,-0.09716250103438703
76,13.720480100018904,-0.03608143752200291,0.037063810730473344,0.03275468606373716,0.015173754192209787,-0.017054096621141344,0.006557285735563445,0.01800783631351451,0.060908710598596344,-0.02180777509417763,0.011596549105689762,0.16918161625085432,-0.09828783090006712
77,13.724475099996198,-0.03601713324672183,0.03699226287321331,0.032782210564694186,0.015249981572749496,-0.016795108125023515,0.006464220454000895,0.018056502595229913,0.06162358281399608,-0.022225642365838308,0.011429782446321741,0.16902998475557135,-0.09941374974361458
78,13.728600699978417,-0.035952506303823316,0.036921816214631656,0.032809337921101044,0.015326413188193493,-0.01653309903416741,0.006369378679323323,0.01810446959581075,0.06233777736431338,-0.022648270264424206,0.011265703303545625,0.16886097002523792,-0.10054009740024088
79,13.733064899977762,-0.03588755583620164,0.036852483517507854,0.03283606058072566,0.015403046106522727,-0.01626807236856391,0.006272740283292311,0.01815174866773478,0.06305122064191616,-0.0230756602607367,0.011104305339087819,0.16867451513127335,-0.1016667103638918
80,13.73759410000639,-0.03582228099904399,0.036784277531197396,0.03286237090623555,0.015479877443652187,-0.016000031459869564,0.006174285132913302,0.018198351126590108,0.06376383880628836,-0.023507813127016986,0.010945577748246735,0.16847056653241962,-0.10279342170677219
81,13.741080500010868,-0.035756680959628195,0.036717210990312214,0.0328882611751839,0.01555690436323065,-0.0157289799523611,0.006073993093418951,0.01824428823350597,0.06447555779713245,-0.02394472892277267,0.010789506006215786,0.16824907362662497,-0.10392006135496838
82,13.74555369996233,-0.035690754897121424,0.0366512966133972,0.0329137235800085,0.015634124076380505,-0.015454921803839065,0.005971844031311593,0.018289571181270253,0.06518630334611648,-0.024386406982352265,0.010636072372978138,0.16800998859073757,-0.10504645645594288
83,13.749521399964578,-0.035624502002380105,0.036586547101603,0.032938750228043566,0.015711533841380135,-0.01517786128648301,0.005867817817451645,0.018334211081028933,0.06589600098862133,-0.02483284590387878,0.010485256100172686,0.16775326677062827,-0.10617243164251021
84,13.753798599995209,-0.035557921477751345,0.03652297513735529,0.032963333141544746,0.015789130963291296,-0.01489780298765582,0.005761894330193632,0.01837821895015254,0.06660457607878599,-0.025284043539055997,0.010337033706791949,0.16747886733562126,-0.10729780935437351
85,13.757834299991371,-0.03549101253687597,0.03646059338302079,0.03298746425772747,0.01586691279353891,-0.014614751810631698,0.005654053458560779,0.01842160570126649,0.0673119538067877,-0.025739996984820494,0.010191379392461777,0.16718675353131057,-0.10842241007932668
86,13.762190599984024,-0.035423774404493506,0.036399414479570354,0.03301113542881881,0.0159448767294457,-0.014328712975254395,0.005544275105451607,0.018464382133611627,0.06801805921602473,-0.026200702575187175,0.010048265473674482,0.1668768930009886,-0.10954605251391389
87,13.766102099965792,-0.03535620631624916,0.036339451045239446,0.03303433842212292,0.016023020213738946,-0.014039692018519928,0.0054325391908834715,0.018506558925762695,0.06872281722311402,-0.026666155874259592,0.009907662429705923,0.16654925803819173,-0.11066855378162005
88,13.77030759997433,-0.03528830751850296,0.03628071567418631,0.03305706492010033,0.01610134073402356,-0.013747694795065737,0.005318825655258253,0.0185481466273771,0.06942615263720908,-0.027136351669920167,0.009769538673179003,0.16620382526515076,-0.11178972938697834
89,13.774608400010038,-0.0352200772681412,0.03622322093514827,0.033079306520461,0.01617983582221907,-0.013452727477590076,0.00520311446265924,0.01858915564997359,0.07012799017727912,-0.027611283966452516,0.009633860239756304,0.16584057565590427,-0.11290939346807666
90,13.77867279999191,-0.03515151483239033,0.0361669793700964,0.03310105473627147,0.016258503053954744,-0.01315479655719509,0.005085385604179195,0.01862959625605752,0.07082825449162236,-0.02809094598036649,0.009500590535792022,0.1654594946970785,-0.11402735909519009
91,13.783340399968438,-0.03508261948863353,0.03611200349288889,0.03312230099607607,0.01633734004791463,-0.012853908843641227,0.004965619101252534,0.01866947854776607,0.07152687017650444,-0.02857533013554529,0.00936969041866358,0.16506057219249387,-0.11514343781152536
92,13.787667599972336,-0.03501339052423013,0.036058305787923586,0.033143036644032224,0.016416344465136675,-0.012550071465532733,0.004843795009024424,0.01870881245667265,0.07222376179401982,-0.029064428055187736,0.009241118288262773,0.16464380248136995,-0.11625743958714341
93,13.791190299962182,-0.03494382723633809,0.03600589870878978,0.033163252940060166,0.01649551400827158,-0.012243291870421062,0.004719893419751083,0.01874760773320564,0.07291885389257498,-0.02955823055656581,0.009114830087726608,0.16420918469109105,-0.11736917319798447
94,13.795436899992636,-0.034873928931739726,0.03595479467691986,0.03318294106000698,0.01657484642079245,-0.011933577824817188,0.004593894466213201,0.018785873936458995,0.07361207102688683,-0.03005672764617139,0.008990779429101686,0.16375672263376304,-0.11847844616847028
95,13.799489800003355,-0.03480369492667084,0.03590500608024103,0.03320209209582516,0.0166543394861675,-0.011620937414125941,0.0044657783251572745,0.01882362042467338,0.07430333777759136,-0.03055990851398854,0.00886891775405463,0.16328642482913286,-0.11958506479441351
96,13.8036900999723,-0.03473312454665345,0.0358565452718275,0.03322069705576578,0.01673399102698923,-0.011305379042492543,0.0043355252207574494,0.01886085634640552,0.07499257877143584,-0.031067761528833927,0.008749194782362447,0.16279830458503686,-0.12068883447597858
97,13.808220400009304,-0.03466221712633229,0.03580942456855349,0.03323874686458629,0.01681379890407248,-0.01098691143256622,0.0042031154280962515,0.018897590634801124,0.07567971870156756,-0.03158027423544413,0.008631558993409444,0.16229238007775212,-0.12178955986703158
98,13.81266820000019,-0.034590972009315143,0.035763656249747415,0.03325623236377312,0.01689376101553518,-0.010665543625175205,0.004068529276651055,0.01893383200283503,0.07636468234840542,-0.03209743335107873,0.008515957982655023,0.1617686743520505,-0.12288704462251224
99,13.8160892999731,-0.03451938854801715,0.03571925255584767,0.03327314431177897,0.016973875295856155,-0.010341284978913902,0.003931747153803531,0.018969588940597894,0.07704739459992913,-0.03261922476047179,0.008402339001132155,0.16122721514876293,-0.12398109142129181
100,13.819634899962692,-0.03444746610350908,0.035676225687060296,0.03328947338427506,0.017054139714932942,-0.01001414516964635,0.0037927495083688,0.019004869715097558,0.07772778047109287,-0.0331456335126282,0.008290649506159114,0.1606680346523582,-0.1250715021729836
101,13.823338699992746,-0.034375204045369596,0.035634587802018926,0.033305210174418294,0.01713455227713792,-0.009684134189929243,0.0036515168541319657,0.01903968237220172,0.07840576512198048,-0.0336766438175236,0.00818083755255994,0.16009116926147948,-0.1261580777423571
102,13.826814299973194,-0.03430260175154154,0.03559435101644736,0.033320345193133365,0.01721511102039255,-0.009351262348361913,0.0035080297734051673,0.01907403473974688,0.07908127387527908,-0.034212239040570816,0.008072851654327577,0.15949665954259246,-0.12724061757035507
103,13.83064130001003,-0.034229658608192,0.03555552740182502,0.033334868869410006,0.01729581401524978,-0.009015540268861618,0.0033622689206108973,0.019107934428311445,0.07975423223404234,-0.03475240169611568,0.007966640233475913,0.15888455059755865,-0.12831891978896146
104,13.834566299978178,-0.03415637400957636,0.035518128984055625,0.03334877155061542,0.01737665936397483,-0.008676978889863336,0.0032142150258940433,0.019141388829664995,0.08042456590227179,-0.03529711344287458,0.007862151023215226,0.15825489279870447,-0.12939278153120035
105,13.83873620000668,-0.03408274735790613,0.035482167742139414,0.033362043502822035,0.017457645199614482,-0.008335589463421058,0.0030638488987437796,0.01917440511249551,0.08109220080889477,-0.035846355080051184,0.0077593306887706135,0.15760774206418338,-0.1304619989541073
106,13.843855799990706,-0.03400877806322089,0.03544765560684943,0.033374674911150565,0.017538769685041748,-0.007991383554204855,0.00291115143163844,0.019206990217652844,0.08175706313067377,-0.03640010654296821,0.00765812465556047,0.15694315959399072,-0.1315263674224798
107,13.848871599999256,-0.033934465543264174,0.03541460445941223,0.03338665588012858,0.017620031011984942,-0.007644373038408485,0.0027561036037043406,0.019239150852423285,0.08241907931395247,-0.036958346900737654,0.00755847671831662,0.1562612120077154,-0.1325856818188466
108,13.85336239996832,-0.03385980922336361,0.03538302613019338,0.033397976434064516,0.017701427400023933,-0.007294570102562608,0.0025986864843803494,0.019270893482468326,0.08307817609872975,-0.037521054354513236,0.007460328742623403,0.15556197145922404,-0.1336397368764592
109,13.857850299973506,-0.03378480853631533,0.03535293239738821,0.0334086265174372,0.017782957095551076,-0.006941987242238856,0.002438881237091484,0.019302224323575895,0.08373428054137536,-0.03808820623797588,0.007363620975515573,0.1548455149249582,-0.1346883273515462
110,13.862264199997298,-0.03370946292227287,0.03532433498571827,0.033418595995300934,0.01786461837069772,-0.006586637260671002,0.0022766691229093774,0.019333149336225063,0.08438732003268674,-0.038659779017042484,0.007268292676276664,0.1541119233542877,-0.13573124760993377
111,13.866328799980693,-0.033633771828640656,0.03529724556513374,0.033427874653705975,0.017946409522249192,-0.006228533267306368,0.002112031504228337,0.019363674222670376,0.08503722231342142,-0.03923574828685649,0.007174282380681115,0.1533612808655755,-0.13676829155816617
112,13.870335999992676,-0.03355773470997207,0.03527167574952215,0.03343645220013468,0.01802832887054664,-0.005867688676295671,0.0019449498484512538,0.01939380442374061,0.08568391548555693,-0.03981608877091431,0.00708152790148096,0.15259367393100023,-0.1377992528846314
113,13.874506999971343,-0.03348135102787225,0.03524763709542351,0.03344431826395316,0.01811037475837497,-0.005504117204949237,0.0017754057316730475,0.019423545115927206,0.08632732802093121,-0.0404007743200945,0.006989966454165809,0.15180919097477175,-0.1388239248528621
114,13.881891199969688,-0.033404620250905535,0.035225141100752116,0.033451462396878566,0.01819254554984006,-0.005137832872153798,0.0016033808423747836,0.01945290120924627,0.08696738876910573,-0.04098977791003663,0.006899534565179542,0.1510079219596871,-0.1398421001522986
115,13.885563499992712,-0.033327541854507745,0.03520419920352509,0.03345787407346198,0.018274839629238624,-0.004768849996762224,0.001428856985129278,0.019481877343551033,0.08760402696251038,-0.04158307163890874,0.006810167704873676,0.15018995810010088,-0.1408535711508733
116,13.889106899965554,-0.03325011532090321,0.03518482278059775,0.03346354269158701,0.018357255399904262,-0.004397183195966825,0.0012518160843140898,0.01951047788329063,0.08823717222187986,-0.042180626726921695,0.006721800470787542,0.14935539208007756,-0.1418581302624361
117,13.893056500004604,-0.0331723401390268,0.03516702314640592,0.03346845757298409,0.01843979128303299,-0.004022847383643117,0.0010722401878212322,0.019538706915372118,0.08886675456324301,-0.04278241351720305,0.00663436712729531,0.14850431808783413,-0.1428555701879176
118,13.897474700002933,-0.03309421580445086,0.035150811551715316,0.03347260796376045,0.01852244571651123,-0.0036458577686640362,0.0008901114707627768,0.019566568248481714,0.08949270440365036,-0.0433884014773503,0.006547801904697631,0.14763683160910293,-0.1438456841908603
119,13.901644799974749,-0.033015741819317185,0.0351361991823781,0.03347598303494571,0.0186052171537356,-0.003266229853195282,0.000705412239167432,0.019594065413475477,0.0901149525664164,-0.043998559202634235,0.006462039366314227,0.14675302941562654,-0.1448282665567061
120,13.906024299969433,-0.0329369176922739,0.03512319715809667,0.03347857188305312,0.018688104062444203,-0.002883979430965208,0.0005181249336590653,0.019621201665804142,0.09073343028674995,-0.04461285442143527,0.006377014649088927,0.14585300947325863,-0.14580311296025789
121,13.910691299999598,-0.032857742938417325,0.035111816531194856,0.03348036353065629,0.018771104923556915,-0.0024991225855125624,0.0003282321331073198,0.019647979987938,0.09134806921621942,-0.04523125400155348,0.006292663774280311,0.14493687054013538,-0.1467700208790182
122,13.915585100010505,-0.03277821707923868,0.03510206828539652,0.03348134692698123,0.018854218230027184,-0.0021116756884186298,0.000135716558252788,0.019674403094418477,0.0919588014249859,-0.04585372395913951,0.006208924083966084,0.14400471163848966,-0.14772879021321977
123,13.919976799981669,-0.03269833964257564,0.035093963334611684,0.03348151094851376,0.01893744248572502,-0.0017216553975360905,-5.94389247178778e-05,0.01970047343797343,0.09256555940180289,-0.046480229470246694,0.0061257343207907515,0.1430566317560936,-0.14867922335472827
124,13.924502699985169,-0.03261811016256847,0.035087512521730126,0.0334808443996218,0.019020776204340503,-0.0013290786552211651,-0.00025725130064445915,0.019726193215242976,0.0931682760537252,-0.04711073488034448,0.006043034662426936,0.1420927296625784,-0.14962112506073671
125,13.92867190000834,-0.03253752817962088,0.03508272661742244,0.03347933601319255,0.01910421790831517,-0.0009339626865649341,-0.0004577374018984934,0.01975156437318613,0.0937668847045558,-0.047745203714802696,0.005960766653186225,0.14111310351900247,-0.15055430247673102
126,13.932945500011556,-0.03245659324036518,0.03507961631894859,0.03347697445128438,0.019187766127799693,-0.0005363249976386145,-0.0006609139049444057,0.019776588614228433,0.09436131909125377,-0.04838359868859916,0.005878872790522379,0.14011785052192421,-0.15147856458534217
127,13.937078899994958,-0.032375304897631935,0.03507819224897381,0.03347374830579305,0.0192714193996288,-0.00013618337375524814,-0.0008667973269269047,0.01980126739917269,0.09495151335937196,-0.049025881712144226,0.005797295766819624,0.13910706662784633,-0.15239372206856255
128,13.945207400014624,-0.032293662710423825,0.03507846495439183,0.03346964609913245,0.019355176266303543,0.0002664441222464497,-0.001075404022281358,0.01982560194593626,0.09553740205713529,-0.04967201389982353,0.005715977734910778,0.13808084625463987,-0.15329958772110763
129,13.949520299967844,-0.032211666243893856,0.035080444905155335,0.03346465628492951,0.01943903527495555,0.0006715391516903357,-0.0012867501793934128,0.019849593226252137,0.09611892012835403,-0.0503219555793173,0.005634860422824229,0.13703928207489216,-0.15419597642744118
130,13.953645600005984,-0.03212931506932801,0.03508414249311342,0.03345876724873315,0.01952299497630141,0.0010790831017190767,-0.0015008518172881615,0.019873241965376345,0.096696002904755,-0.05097566629994883,0.00555388561596001,0.13598246487811885,-0.15508270532253143
131,13.958118600014132,-0.032046608764132276,0.03508956803085604,0.03345196730873719,0.019607053923604435,0.001489057086917558,-0.0017177247823603446,0.019896548642865584,0.09726858609772991,-0.05163310484336297,0.00547299523746944,0.13491048334110683,-0.15595959415929028
132,13.962132799963,-0.0319635469118241,0.03509673175056526,0.033444244716516934,0.019691210671635633,0.001901441950899358,-0.001937384745153798,0.019919513492964218,0.09783660578872493,-0.05229422923498106,0.005392131612351564,0.13382342384421617,-0.15682646541189285
133,13.96801479998976,-0.031880129102028185,0.03510564380287306,0.03343558765777934,0.019775463775638744,0.002316218267848905,-0.0021598471971885015,0.01994213650761471,0.09839999841943593,-0.052958996755552955,0.005311237720285867,0.13272137039101073,-0.15768314421838453
134,13.972169500018936,-0.03179635493047669,0.03511631425572561,0.033425984253126415,0.01985981179031665,0.0027333663440250577,-0.0023851274478376935,0.019964417438982193,0.09895870078151858,-0.05362736395212676,0.005230256667151725,0.13160440432116938,-0.15852945805918367
135,13.975976899964737,-0.031712223999013606,0.03512875309325384,0.03341542255883176,0.01994425326881777,0.003152866219216265,-0.0026132406212476624,0.019986355797996857,0.09951265000435641,-0.054299286646882695,0.005149130973118714,0.13047260404641048,-0.15936523649296105
136,13.980464399966875,-0.03162773591560352,0.035142970214649995,0.03340389056763004,0.020028786761710132,0.003574697668140733,-0.002844201653289548,0.02000795085085967,0.10006178354253822,-0.054974719945869874,0.005067802354614173,0.12932604492423855,-0.1601903112485118
137,13.98505269997986,-0.03154289029434468,0.03515897543305002,0.03339137620951929,0.020113410815938242,0.0039988402017957095,-0.003078025288552998,0.02002920161574141,0.10060603916255881,-0.05565361824861687,0.00498621180489777,0.1281647989478521,-0.16100451602959248
138,13.989270499965642,-0.03145768675548654,0.035176778474421556,0.03337786735257581,0.02019812397376924,0.004425273068745215,-0.0033147260773792224,0.02005010685996959,0.10114535492767464,-0.05633593525521849,0.004904299743021933,0.1269889346657708,-0.16180768612448265
139,13.993325699993877,-0.03137212492545178,0.035196388976457195,0.03336335180378153,0.02028292477172598,0.004853975256341288,-0.003554318372914564,0.020070665097986894,0.10167966918392508,-0.057021623972645374,0.004822006312245574,0.1257985172278344,-0.16259965840600435
140,13.997351599973626,-0.03128620443686285,0.0352178164874728,0.03334781730986383,0.02036781173951593,0.005284925491893533,-0.003796816328196899,0.020090874591061045,0.102208920545377,-0.05771063672183094,0.004739271472500239,0.12459360800628035,-0.163380271285594
141,14.00190749997273,-0.031199924928573035,0.03524107046531065,0.03333125155814757,0.020452783398961807,0.0057181022437656145,-0.004042233893269124,0.020110733346024985,0.10273304787694235,-0.05840292514359268,0.004656034885014037,0.12337426443488861,-0.164149364552534
142,14.007164700014982,-0.031113286045702064,0.035266160276247044,0.03331364217741926,0.020537838262919817,0.0061534837223995355,-0.004290584812315616,0.020130239114011305,0.1032519902782628,-0.059098440204359885,0.004572236118937538,0.12214053991719916,-0.16490677947731355
143,14.012357599975076,-0.031026287439676302,0.03529309519390409,0.033294976738803314,0.020622974834199587,0.006591047881275888,-0.004541882620824148,0.020149389390939344,0.10376568706575143,-0.05979713220296881,0.004487814881511973,0.12089248352803951,-0.16565235876569273
144,14.016560899966862,-0.030938928768273498,0.03532188439816542,0.03327524275665025,0.020708191604486535,0.007030772417786299,-0.004796140642779797,0.02016818141819558,0.10427407775395384,-0.06049895077600202,0.004402711029137622,0.11963014011675487,-0.16638594611092766
145,14.024876300012693,-0.030851209695672087,0.035352536974095385,0.03325442768943664,0.020793487053267543,0.007472634774036098,-0.005053371987872001,0.020186612183214304,0.1047771020384626,-0.06120384490079786,0.004316864509998891,0.11835355042207282,-0.16710738613629295
146,14.028708699974231,-0.03076312989250502,0.03538506191086152,0.033232518940676914,0.020878859646758244,0.007916612137572315,-0.005313589548713912,0.020204678419672942,0.10527469977824959,-0.06191176290030383,0.004230215151905444,0.11706275094584027,-0.16781652473956588
147,14.032950799970422,-0.03067468903591814,0.03541946810065992,0.03320950385984683,0.020964307836830343,0.008362681442036975,-0.005576805998090482,0.02022237660627902,0.10576681097751282,-0.0626226524489985,0.004142702443824777,0.11575777375774338,-0.16851320903566552
148,14.036949999979695,-0.030585886809633075,0.03545576433764323,0.033185369743318545,0.021049830059928647,0.008810819367741621,-0.0058430337862278876,0.02023970296511845,0.10625337576635785,-0.06333646057725999,0.004054265891807518,0.11443864674793046,-0.16919728728776298
149,14.04182599997148,-0.030496722904014766,0.03549395931685084,0.03316010383530719,0.021135424735984426,0.009261002342157279,-0.00611228513807855,0.020256653463451672,0.10673433438478042,-0.06405313367670536,0.003964845725413391,0.1131053943045742,-0.16986860887276126
150,14.04560529999435,-0.03040719701614356,0.03553406163314108,0.03313369332882886,0.021221090267347625,0.009713206540353559,-0.006384572050635696,0.02027322381803444,0.10720962716907627,-0.06477261750426727,0.0038743832307323407,0.11175803738263901,-0.17052702381053483
151,14.049488799995745,-0.030317308849891755,0.03557607978012508,0.0331061253666699,0.021306825037736753,0.010167407885373726,-0.006659906290252848,0.02028940949972948,0.10767919453640525,-0.0654948571835534,0.0037828208017340543,0.11039659350386308,-0.17117238262620424
152,14.05366779997712,-0.03022705811600458,0.03562002214910213,0.033077387042367595,0.02139262741121009,0.010623582048543294,-0.006938299389969879,0.020305205738261424,0.10814297697120091,-0.06621979720775859,0.0036901017565072487,0.10902107706690317,-0.17180453628119619
153,14.057815800013486,-0.030136444532185426,0.03566589702799619,0.03304746540120201,0.02147849573115578,0.0110817044497302,-0.007219762646857119,0.020320607525274856,0.10860091501235679,-0.06694738144044145,0.0035961697807671187,0.10763149927842924,-0.17242333578292793
154,14.062033599999268,-0.030045467823185373,0.03571371260029343,0.03301634744119915,0.021564428319288873,0.011541750257545065,-0.007504307119347983,0.02033560961438436,0.10905294923905341,-0.06767755311513661,0.0035009683938873673,0.10622786827922669,-0.17302863228805204
155,14.065614599967375,-0.029954127720896905,0.03576347694398042,0.03298402011414538,0.021650423474641863,0.012003694389481536,-0.007791943624579792,0.02035020651971815,0.1094990202590107,-0.06841025483700418,0.0034044410346712375,0.10481018995963642,-0.17362027717131276
156,14.069220800010951,-0.029862423964451955,0.03581519803048286,0.03295047032661306,0.021736479472549412,0.012467511512017231,-0.00808268273574035,0.020364392516693246,0.10993906870120919,-0.06914542858302412,0.0033065315494951266,0.10337846859108211,-0.17419812160083323
157,14.073166200018022,-0.029770356300324218,0.03586888372360465,0.03291568494099735,0.02182259456364543,0.012933176040692546,-0.008376534779410407,0.020378161644686133,0.11037303520948161,-0.06988301570005502,0.003207184094796163,0.10193270676848266,-0.17476201605584024
158,14.07836290000705,-0.029677924482435673,0.03592454177846727,0.03287965077656436,0.02190876697287039,0.013400662140157412,-0.008673509832893826,0.02039150770698352,0.11080086043474727,-0.07062295690095102,0.0031063425170475907,0.10047290523823327,-0.17531181007396412
159,14.081872200011276,-0.029585128272267284,0.03598217984044921,0.03284235461051053,0.02199499489846799,0.013869943724184455,-0.008973617721527216,0.020404424268210982,0.11122248502714932,-0.07136519226048414,0.0030039501346282556,0.09899906289801014,-0.17584735222837145
160,14.085356700001284,-0.029491967438974007,0.036041805444125524,0.03280378317903349,0.022081276510970728,0.014340994455649271,-0.009276868015975619,0.020416904652439536,0.11163784962828746,-0.0721096612112679,0.002899949944207212,0.0975111768313282,-0.17636849010475322
161,14.08962069998961,-0.02939844175950407,0.03610342601220706,0.03276392317841435,0.022167609952180544,0.014813787746477921,-0.009583270029507688,0.020428941942359165,0.11204689486364737,-0.07285630253948504,0.002794284523422526,0.09600924208941519,-0.17687507054241852
162,14.094905400008429,-0.029304551018722598,0.03616704885447956,0.03272276126611156,0.022253993334147428,0.015288296757563203,-0.009892832815255246,0.02044052897656259,0.11244956133298926,-0.07360505438284952,0.0026868953764454125,0.09449325099065252,-0.17736694010519094
163,14.099174999981187,-0.02921029500953952,0.0362326811667422,0.03268028406186636,0.02234042473812709,0.01576449439863088,-0.01020556516347124,0.020451658343185856,0.11284578959685446,-0.07435585423031543,0.002577722428599603,0.0929631925236438,-0.1778439451960504
164,14.10372999997344,-0.02911567353304201,0.03630033002974555,0.03263647814881988,0.022426902213505788,0.016242353328041872,-0.010521475598786835,0.02046232237291935,0.11323552016190713,-0.07510863892100822,0.002466704215804394,0.0914190525423733,-0.17830593182762333
165,14.108430699969176,-0.029020686398631503,0.036370002408128474,0.03259133007464172,0.022513423776698932,0.016721845952534568,-0.010840572377460332,0.020472513134250043,0.11361869346909088,-0.07586334464199321,0.0023537785275141066,0.08986081459293457,-0.17875274527769527
166,14.112022599962074,-0.02892533342416542,0.03644170514935385,0.03254482635267033,0.022599987410035677,0.017202944426926874,-0.011162863484615398,0.02048222243190825,0.11399524988596008,-0.07661990692429435,0.002238882780263681,0.0882884608205675,-0.1791842295380202
167,14.116190599976107,-0.02882961443610362,0.03651544498264298,0.03249695346306497,0.022686591060644388,0.01768562065379369,-0.011488356631456325,0.020491441805268015,0.11436512970250494,-0.07737826063600271,0.0021219536614967525,0.08670197249777158,-0.17960022709624046
168,14.120347000018228,-0.028733529269659563,0.03659122851790862,0.03244769785396958,0.02277323263932372,0.01816984628313367,-0.011817059252447991,0.02050016252378261,0.11472827312794788,-0.07813833997645145,0.0020029265667189855,0.08510133025405844,-0.18000057902759375
169,14.124044800002594,-0.0286370777689563,0.03666906224468653,0.032397045942688614,0.022859910019389487,0.01865559271201961,-0.012148978502481875,0.020508375580626327,0.11508462028851102,-0.07890007847009962,0.0018817354217036777,0.08348651429428468,-0.18038512465060616
170,14.13091579999309,-0.028540259787187373,0.03674895253106553,0.032344984116874864,0.02294662103549199,0.01914283108424633,-0.012484121254004311,0.02051607168662681,0.1154341112260584,-0.07966340895779625,0.0017583126710831697,0.08185750443286811,-0.18075370145818676
171,14.13492129999213,-0.028443075186782817,0.036830905622616136,0.032291498735729576,0.023033363482411588,0.01963153228996959,-0.01282249409410864,0.020523241263810395,0.11577668589615281,-0.08042826359008154,0.0016325888535920206,0.08021428021992619,-0.18110614528974486
172,14.139573199965524,-0.028345523839580243,0.03691492764131751,0.032236576131214854,0.023120135113821442,0.020121666965337535,-0.013164103321606828,0.02052987443574332,0.11611228416776442,-0.08119457381990611,0.0015044920679078092,0.07855682096464388,-0.18144229010160354
173,14.14517390000401,-0.02824760562700129,0.037001024584483004,0.032180202609278535,0.02320693364100144,0.020613205492127147,-0.013508954944060068,0.020535961016561015,0.1164408458215252,-0.08196227039399119,0.0013739479439148364,0.07688510542505486,-0.18176196804743455
174,14.15012890001526,-0.02814932044023359,0.03708920232368403,0.0321223644510917,0.023293756731508186,0.021106117997360944,-0.013857054674777353,0.020541490501066365,0.11676231054681475,-0.08273128334622788,0.001240879918497644,0.0751991118653107,-0.18206501002930442
175,14.153708899975754,-0.028050668180418466,0.03717946660367236,0.03206304791429892,0.023380602007805208,0.021600374352918783,-0.014208407929790263,0.020546452056090687,0.11707661794049896,-0.08350154199369618,0.0011052097580051894,0.07349881838890787,-0.1823512464096336
176,14.158007799996994,-0.02795164875884447,0.037271823041300736,0.032002239234281346,0.023467467045859912,0.0220959441751439,-0.014563019824817891,0.02055083451500919,0.11738370750683311,-0.08427297493608349,0.0009668585397386485,0.0717842033520332,-0.18262050767721058
177,14.162105900002643,-0.027852262097146942,0.037366277124441794,0.031939924625432624,0.02355434937372741,0.022592796824453885,-0.01492089517223671,0.02055462637739994,0.11768351865969508,-0.0850455100573345,0.0008257476049503701,0.0700552458801983,-0.1828726248374354
178,14.166218500002287,-0.02775250812751354,0.037462834210905425,0.03187609028244759,0.0236412464701446,0.02309090140496562,-0.015282038478059442,0.020557815811616482,0.11797599072685645,-0.08581907452836902,0.0006817990816474241,0.06831192614355264,-0.1831074295847145
179,14.170770399970934,-0.027652386792895663,0.037561499527354526,0.031810722381623725,0.023728155763135753,0.023590226764142352,-0.015646453938927916,0.02056039065886685,0.11826106295454333,-0.08659359481018936,0.0005349361772257247,0.06655422542609746,-0.18332475433679016
180,14.17448729998432,-0.027551898047225777,0.037662278168219356,0.03174380708217529,0.02381507462864106,0.024090741492457185,-0.016014145439118197,0.02056233843826026,0.11853867451229258,-0.08736899665688837,0.0003850830058212117,0.0647821263783794,-0.18352443226908008
181,14.179469599970616,-0.02745104185564044,0.03776517509461045,0.0316753305275601,0.023902000389164894,0.024592413923081223,-0.01638511654755888,0.020563646349426472,0.11880876449964906,-0.0881452051190472,0.00023216405492583375,0.06299561304019856,-0.18370629732650404
182,14.183075300010389,-0.027349818194709045,0.037870195133230346,0.031605278846818845,0.02398893031242651,0.025095212131603678,-0.01675937051486494,0.020564301273052966,0.11907127195121385,-0.08892214454684336,7.610372616735571e-05,0.061194670542200014,-0.18387018402823663
183,14.187045999977272,-0.027248227052668265,0.03797734297528413,0.031533638155926955,0.024075861610012836,0.025599103935762695,-0.01713691027038232,0.02056428976962183,0.11932613584081862,-0.08969973859179763,-8.317416473077043e-05,0.05937928526639107,-0.184015927306486
184,14.191215300001204,-0.02714626842966218,0.03808662317538888,0.03146039455915892,0.024162791436018505,0.026104056895200747,-0.01751773841923653,0.02056359807571934,0.11957329508793092,-0.09047791020851915,-0.00024574672062746365,0.057549444949816134,-0.1841433624780504
185,14.195591199968476,-0.027043942337988208,0.03819804015048214,0.031385534150465105,0.02424971688566744,0.026610038311249622,-0.01790185723939199,0.0205622120999602,0.11981268856270505,-0.09125658165621194,-0.0004116919628679882,0.05570513852380151,-0.18425232508975647
186,14.199627899972256,-0.02694124880234891,0.03831159817872958,0.031309043014860906,0.024336634993918426,0.027117015226728516,-0.01828926867871339,0.020560117419297946,0.12004425509102827,-0.09203567449911307,-0.0005810888657460888,0.05384635649249846,-0.18434265098115638
187,14.203668600006496,-0.026838187860109698,0.03842730139843172,0.031230907229828426,0.024423542734055503,0.02762495442577168,-0.018679974352028707,0.020557299274657832,0.12026793346277208,-0.09281510960852936,-0.0007540175805076651,0.05197309140390141,-0.1844141766804163
188,14.207838199974503,-0.026734759561562547,0.03854515380693014,0.03115111286673048,0.02451043701625662,0.028133822433696276,-0.019073975538207805,0.020553742565353375,0.12048366244082064,-0.09359480716662262,-0.000930559349388921,0.050085338022303506,-0.18446673986974224
189,14.212480599991975,-0.02663096397019582,0.03866515925951311,0.031069645992236945,0.024597314686136816,0.028643585516906364,-0.019471273177257446,0.020549431845446015,0.12069138077078007,-0.09437468667238122,-0.0011107959884442708,0.04818309360345856,-0.18450018001710744
190,14.21616539999377,-0.026526801162970293,0.03878732146832097,0.030986492669763332,0.0246841725232861,0.029154209682842835,-0.019871867867450373,0.020544351322534102,0.12089102719233326,-0.09515466695074633,-0.001294809652523104,0.04626635835389726,-0.18451433905903583
191,14.220327899965923,-0.026422271230601337,0.038911644001251355,0.03090163896092141,0.02477100723980239,0.029665660679983392,-0.02027575986249749,0.020538484856099562,0.12108254045283245,-0.09593466616435607,-0.001482682542730867,0.04433513561503055,-0.18450906189418062
192,14.22463070001686,-0.02631737427784735,0.039038130280864544,0.03081507092698169,0.024857815478815427,0.03017790399790742,-0.02068294906877623,0.020531815958770155,0.12126585932021056,-0.09671460182684476,-0.0016744960962338199,0.042389431759471484,-0.18448419668820332
193,14.229136999987531,-0.02621211042380442,0.039166783583289254,0.03072677463034747,0.02494459381303037,0.030690904867405108,-0.02109343504261517,0.020524327801515956,0.12144092259569716,-0.09749439081716461,-0.0018703306306661358,0.040429256432223726,-0.18443959541302105
194,14.232916600012686,-0.02610647980220706,0.039297607037128916,0.03063673613604029,0.025031338743295647,0.031204628260649837,-0.021507216987643483,0.020516003217917977,0.12160766912876902,-0.0982739493974441,-0.0020702654421290187,0.03845462275740765,-0.1843751144150487
195,14.237008899974173,-0.026000482561734994,0.039430603622368915,0.030544941513196384,0.025118046697182653,0.0317190388914337,-0.02192429375222655,0.020506824708536108,0.12176603783161383,-0.09905319323211388,-0.0022743786035158715,0.03646554746455295,-0.18429061447883194
196,14.241516500012947,-0.025894118866325894,0.03956577616928486,0.0304513768365738,0.025204714027590513,0.03223410121546218,-0.022344663826977095,0.02049677444688281,0.1219159676951484,-0.09983203740630307,-0.002482746752447812,0.0344620510722112,-0.18418596060274775
197,14.244953299988993,-0.025787388895493955,0.03970312735735232,0.030356028188069907,0.02529133701137629,0.032749779430725066,-0.022768325342346334,0.020485834285583957,0.12205739780503486,-0.1006103964430689,-0.0026954448848911213,0.03244415791112513,-0.18406102168919097
198,14.24839909997536,-0.025680292844654222,0.03984265971415822,0.03025888165824889,0.025377911848011837,0.03326603747792658,-0.023195276066280787,0.020473985764097386,0.12219026735789469,-0.10138818431917367,-0.002912545918313902,0.030411896537613375,-0.18391567044671855
199,14.251829400018323,-0.025572830925452518,0.03998437561431423,0.030159923347879054,0.025464434658279265,0.033782839040993363,-0.0236255134019468,0.020461210118567046,0.12231451568081989,-0.102165314481487,-0.0031341204508397494,0.028365300169545103,-0.1837497834592192
200,14.255945799988694,-0.0254650033661008,0.04012827727837243,0.03005913936947955,0.0255509014830111,0.03430014754766954,-0.024059034385526038,0.020447488291577786,0.12243008225127294,-0.10294169986334765,-0.003360236985105748,0.026304406686343266,-0.1835632412090136
201,14.260012299986556,-0.025356810411717733,0.040274366771743765,0.029956515848876333,0.025637308281868224,0.03481792617019297,-0.02449583568407834,0.02043280094011689,0.12253690671659805,-0.10371725290116111,-0.0035909626457999158,0.02422925856067998,-0.1833559280704512
202,14.263948199979495,-0.02524825232467439,0.0404226460036194,0.029852038926766956,0.025723650932147346,0.03533613782605526,-0.02493591359347753,0.020417128439262442,0.1226349289133436,-0.10449188555070718,-0.003826364178773004,0.022139902869846982,-0.18312773229903379
203,14.267976999981329,-0.0251393293849449,0.0405731167258956,0.029745694760293966,0.025809925227590125,0.0358547451788414,-0.025379264036412153,0.020400450881697837,0.12272408888686952,-0.10526550930364564,-0.004066508404525461,0.02003639143233856,-0.18287854630697142
204,14.272056699963288,-0.025030041890462214,0.040725780532102206,0.029637469524626613,0.025896126877186537,0.0363737106391555,-0.025825882560460825,0.020382748077566144,0.12280432691182451,-0.10603803520615358,-0.004311462172291982,0.017918780797850153,-0.18260826709342015
205,14.2761518000043,-0.024920390157478874,0.04088063885633531,0.029527349414550513,0.025982251503982767,0.0368929963656336,-0.026275764336250538,0.020363999554372816,0.12287558351166881,-0.10680937387906847,-0.004561292497794431,0.015787132178256363,-0.18231679662360933
206,14.279563599964604,-0.02481037452093286,0.04103769297219434,0.02941532064606493,0.02606829464388375,0.037412564266034426,-0.026728904155702324,0.020344184555675406,0.12293779947856794,-0.10757943553973082,-0.004816066413936294,0.013641511928625748,-0.18200404204698573
207,14.28362780000316,-0.024699995334818477,0.041196943991723904,0.029301369457987267,0.02615425174444999,0.03793237599842041,-0.027185296430374213,0.02032328204224859,0.12299091589698212,-0.10834813002397158,-0.005075850212880683,0.01148199215714956,-0.18166991547324224
208,14.28755639999872,-0.02458925297256238,0.04135839286436089,0.02918548211356436,0.02624011816370995,0.03845239297244791,-0.0276449351898928,0.02030127069718175,0.12303487416871675,-0.10911536680606122,-0.005340708734386055,0.009308650896678091,-0.181314333691145
209,14.291116799984591,-0.0244781478274045,0.04152204037588722,0.02906764490209024,0.026325889168999965,0.038972576350759944,-0.028107814080464852,0.02027812893306076,0.12306961603796208,-0.10988105501831998,-0.0056107048722703785,0.00712157233430408,-0.18093721815110905
210,14.295476700004656,-0.024366680312783873,0.04168788714738871,0.028947844140529984,0.02641155993583735,0.039492887050488173,-0.028573926363474684,0.02025383490123819,0.12309508361828465,-0.11064510347091956,-0.005885899217946618,0.004920847018615658,-0.18053849489078921
211,14.299529600015376,-0.024254850862729098,0.04185593363422054,0.028826066175149358,0.026497125546838692,0.04001328574487383,-0.029043264914163175,0.02022836650202883,0.12311121941941923,-0.11140742067086434,-0.006166349928399749,0.002706571813106665,-0.18011809449488395
212,14.30297670001164,-0.024142659932253306,0.0420261801249798,0.028702297383149836,0.02658258099067916,0.04053373286499619,-0.02951582222038561,0.020201701395096066,0.12311796637386634,-0.11216791484145325,-0.006452112778267964,0.0004788499883974013,-0.1796759521749876
213,14.307474899978844,-0.024030107997753427,0.04219862674048558,0.028576524174308733,0.026667921161098604,0.04105418860161837,-0.02999159038145525,0.0201738170092071,0.12311526786446389,-0.112926493941936,-0.006743241584648328,-0.0017622088006769316,-0.17921200793680642
214,14.312487499963026,-0.02391719555741355,0.042373273432767124,0.028448732992624008,0.026753140855943332,0.04157461290714893,-0.03047056110706736,0.020144690549027795,0.12310306775079101,-0.1136830656883888,-0.007039788666072806,-0.004016488561565635,-0.17872620686128063
215,14.316108400002122,-0.023803923131612302,0.04255011998406051,0.02831891031796349,0.026838234776229666,0.042094965497710884,-0.030952725716319254,0.020114299000997468,0.12308131039634652,-0.11443753757574729,-0.0073418049515248905,-0.006283866354462755,-0.17821849898946043
216,14.320353399962189,-0.023690291263334114,0.04272916600581429,0.028187042667717977,0.026923197525235396,0.04261520585533308,-0.03143807513682062,0.02008261913920206,0.12304994070010615,-0.1151898168977089,-0.00764933991767862,-0.008564211902441223,-0.17768883909879402
217,14.323853600013535,-0.023576300518584285,0.042910410937704695,0.028053116598457967,0.027008023607612973,0.043135293230286025,-0.03192659990388183,0.020049627531779537,0.12300890412699712,-0.11593981076687446,-0.007962441290294862,-0.010857388085873432,-0.17713718675452178
218,14.3285655999789,-0.023461951486807756,0.043093854046661016,0.027917118707593627,0.027092707428535125,0.0436551866435309,-0.032418290159794534,0.02001530054931762,0.12295814673527529,-0.11668742613508508,-0.008281154848708531,-0.013163250791859708,-0.17656350609825583
219,14.332954599987715,-0.023347244781311383,0.04327949442590153,0.027779035635037617,0.02717724329287905,0.044174844889286864,-0.03291313565319193,0.01997961437291214,0.12289761520827275,-0.11743256981177627,-0.008605524552365806,-0.015481648329340058,-0.1759677655426182
220,14.33716449997155,-0.023232181039689617,0.04346733099398059,0.02763885406487045,0.027261625404440167,0.044694226537748453,-0.03341112573848451,0.019942545001494956,0.12282725688671989,-0.11817514848173313,-0.008935592518013926,-0.01781242156704941,-0.17534993758737896
221,14.341184399963822,-0.02311676092425342,0.0436573624938475,0.027496560727008096,0.027345847865178248,0.04521328993792617,-0.03391224937537047,0.01990406826008518,0.12274701979932669,-0.11891506872189003,-0.009271398875734499,-0.02015540386429377,-0.17470999844741814
222,14.345495499961544,-0.02300098512246232,0.04384958749191765,0.02735214239887148,0.02742990467450094,0.045731993220622436,-0.03441649512841347,0.01986415980833424,0.12265685269569,-0.11965223701594038,-0.00961298175200688,-0.022510420807004397,-0.17404792759267584
223,14.34953140001744,-0.022884854347359384,0.04404400437715652,0.027205585907057656,0.027513789728582143,0.04625029430155038,-0.03492385116667657,0.0198227951489203,0.1225567050791064,-0.12038655976724683,-0.009960377223982705,-0.024877290000675255,-0.17336370738663942
224,14.353846899990458,-0.022768369338009038,0.04424061136017721,0.027056878129012397,0.027597496819716495,0.04676815088458722,-0.03543430526340912,0.019779949636479926,0.12244652724123008,-0.12111794331039459,-0.010313619163873432,-0.027255820577308142,-0.17265732264960232
225,14.357934699975884,-0.022651530859937496,0.04443940647235194,0.02690600599470402,0.02768101963571327,0.04728552046518606,-0.0359478447957784,0.019735598487318116,0.1223262702990542,-0.12184629392040924,-0.010672738895059434,-0.029645813378797112,-0.171928760148336
226,14.361978699977044,-0.022534339705575702,0.04464038756493843,0.026752956488298247,0.027764351759332954,0.047802360333941946,-0.03646445674463445,0.019689716791247404,0.12219588622801841,-0.12257151781999547,-0.011037764887752648,-0.03204706174896129,-0.17117800836668717
227,14.36651909997454,-0.02241679669470453,0.04484355230822155,0.026597716649834006,0.02784748666778123,0.04831862758028355,-0.036984127694302864,0.019642279523870917,0.12205532789229395,-0.12329352118681532,-0.011408722752786916,-0.03445935184390972,-0.17040505772255965
228,14.370579599984922,-0.02229890267490199,0.045048898190670865,0.02644027357690006,0.027930417732249413,0.048834279096295286,-0.037506843832411194,0.019593261558473976,0.12190454907526713,-0.12401221016256149,-0.011785635236375963,-0.03688246266611321,-0.16960990072924564
229,14.374776599986944,-0.02218065852199233,0.04525642251811468,0.026280614426312264,0.02801313821750897,0.04934927158066671,-0.038032590949758444,0.019542637678351474,0.12174350450953639,-0.12472749086159955,-0.012168522265785098,-0.039316166214471975,-0.1687925318410707
230,14.379321599961258,-0.02206206514049666,0.04546612241293094,0.026118726415791303,0.028095641281556165,0.04986356154276824,-0.03856135444021454,0.01949038258831334,0.12157214990612707,-0.1254392693787362,-0.012557401270947033,-0.04176022769013061,-0.16795294734943486
231,14.382813600008376,-0.02194312346408506,0.04567799481325569,0.0259545968256408,0.02817791997530387,0.05037710530684759,-0.03909311930065549,0.019436470924292817,0.12139044198274837,-0.12614745179698258,-0.012952287729931995,-0.044214405668595504,-0.1670911452450511
232,14.387126899964642,-0.02182383445602981,0.045892036472209526,0.02578821300042559,0.02825996724230744,0.05088985901634433,-0.03962787013092851,0.019380877260240237,0.12119833849155295,-0.12685194419415785,-0.013353195553320025,-0.04667845221563044,-0.16620712494216602
233,14.39114999998128,-0.021704199109659816,0.04610824395714249,0.025619562350650146,0.028341775918514785,0.051401778638321065,-0.04016559113384299,0.019323576114481617,0.12099579824641407,-0.12755265264832089,-0.013760136940870759,-0.049152113242464573,-0.16530088704906212
234,14.395314799970947,-0.021584218448815955,0.04632661364889798,0.02544863235443691,0.02842333873204603,0.05191281996800859,-0.04070626611518157,0.019264541957824222,0.12078278114768204,-0.12824948324243357,-0.014173122042870025,-0.05163512865471921,-0.16437243332281212
235,14.399543299979996,-0.021463893528307357,0.0465471417410961,0.025275410559204622,0.02850464830301212,0.05242293863344635,-0.04124987848373051,0.019203749222778312,0.12055924820820228,-0.12894234206941,-0.014592158747583192,-0.05412723187079229,-0.1634217667488984
236,14.403616399969906,-0.021343225434368295,0.046769824239436784,0.025099884583346416,0.02858569714337241,0.052932090100247624,-0.041796411251333446,0.019141172313459683,0.12032516158214362,-0.12963113523745284,-0.015017252399879428,-0.05662814992554641,-0.16244889173622876
237,14.407780100009404,-0.02122221528511566,0.04699465696102344,0.02492204211790768,0.02866647765683703,0.05344022967648365,-0.04234584703296691,0.01907678561719031,0.1200804845901397,-0.1303157688767514,-0.015448405370941512,-0.05913760388250192,-0.16145381427848582
238,14.41246510000201,-0.02110086423100668,0.04722163553370735,0.024741870928263507,0.028746982138822527,0.053947312517661404,-0.0428981680468507,0.01901056351803879,0.11982518174463236,-0.13099614914618202,-0.01588561659865906,-0.0616553085585124,-0.16043654192538162
239,14.416896899987478,-0.020979173455296773,0.047450755395453424,0.02455935885579564,0.02882720277646872,0.05445329363182199,-0.043453356114580025,0.018942480412306725,0.1195592187773408,-0.13167218223976315,-0.016328881248881173,-0.06418097232991266,-0.15939708416106133
240,14.420505099988077,-0.020857144174497123,0.047682011793727705,0.024374493819568792,0.028907131648725274,0.054958127884750636,-0.04401139266129048,0.018872510724933116,0.1192825626662439,-0.13234377439655504,-0.016778190543589967,-0.06671429724600629,-0.15833545304190386
241,14.425201100006234,-0.020734777638831796,0.047915399784907144,0.024187263818006198,0.028986760726507233,0.05546177000530324,-0.044572258715873884,0.018800628926433464,0.1189951816620899,-0.13301083191250695,-0.017233531749204757,-0.06925497913214639,-0.1572516633855235
242,14.429889299964998,-0.020612075132694006,0.04815091423371215,0.023997656930564118,0.029066081872924823,0.05596417459084045,-0.0451359349112434,0.018726809549403037,0.1186970453145072,-0.1336732611519549,-0.0176948884288349,-0.07180270763711967,-0.1561457326620393
243,14.43361070001265,-0.020489037975101286,0.04838854981266232,0.023805661319405137,0.029145086843578496,0.05646529611277501,-0.04570240148464661,0.018651027203323296,0.11838812449811342,-0.1343309685585496,-0.0181622408674708,-0.0743571665306849,-0.1550176809195263
244,14.43720599997323,-0.02036566752014926,0.048628301001555886,0.023611265231070027,0.029223767286913924,0.05696508892222655,-0.04627163827802298,0.018573256587470378,0.11806839143611071,-0.13498386066612378,-0.01863556658333496,-0.07691803410497493,-0.15386753076596602
245,14.44153179996647,-0.020241965157463817,0.048870162086973236,0.023414456998148026,0.029302114744626177,0.05746350725576841,-0.04684362473840886,0.018493472501398298,0.11773781972300111,-0.13563184410946771,-0.01911484075758986,-0.07948498301500549,-0.15269530720993238
246,14.445903000014368,-0.020117932312651455,0.04911412716180496,0.023215225040945274,0.029380120652103346,0.05796050524127452,-0.04741833991838603,0.018411649854214462,0.11739638434953027,-0.13627482563384957,-0.019600036378252556,-0.08205767987610438,-0.15150103744692903
247,14.44991339999251,-0.019993570447747713,0.04936019012480481,0.023013557869151297,0.02945777633890914,0.05845603690387706,-0.04799576247656718,0.018327763673846136,0.1170440617288064,-0.13691271210398442,-0.020091124234903803,-0.0846357851948846,-0.15028475093413818
248,14.453751099994406,-0.019868881061663436,0.04960834468016811,0.02280944408350334,0.02953507302930485,0.0589500561720342,-0.0485758706781203,0.01824178911636069,0.11668082972182751,-0.13754541051418667,-0.020588072831951038,-0.08721895355330013,-0.14904647965545154
249,14.45810370001709,-0.01974386569062879,0.049858584337136004,0.022602872377448426,0.02961200184281075,0.059442516883703576,-0.049158642395340006,0.018153701475965393,0.11630666766204434,-0.13817282799957972,-0.021090848273981118,-0.08980683359671245,-0.14778625821222027
250,14.462536100007128,-0.01961852590863478,0.050110902409626075,0.022393831538802846,0.02968855379481261,0.05993337279261767,-0.04974405510826667,0.01806347619529694,0.11592155638098843,-0.13879487184701567,-0.021599414208340245,-0.09239906773624383,-0.14650412369181318
251,14.466212600003928,-0.01949286332787214,0.05036529201588965,0.022182310451408983,0.029764719797210074,0.060422577574673994,-0.05033208590535007,0.017971088875906704,0.1155254782353515,-0.13941144950517367,-0.0221137316702975,-0.09499529217092069,-0.14520011550114909
252,14.470649599970784,-0.019366879599167365,0.050621746078196424,0.02196829809678921,0.029840490659111825,0.06091008483443939,-0.05092271148415394,0.017876515289859334,0.11511841713242639,-0.14002246859407227,-0.022633758715706862,-0.09759513725481336,-0.1438742754698729
253,14.47477999998955,-0.019240576412415732,0.05088025732254678,0.021751783555796735,0.029915857087582032,0.06139584811175531,-0.0515159081521,0.01777973139332367,0.11470035855408235,-0.14062783691604006,-0.023159450012900984,-0.10019822747538353,-0.14252664803382842
254,14.479264799971132,-0.019113955497011018,0.05114081827841224,0.02153275601026322,0.02999080968845042,0.06187982088844483,-0.05211165182726525,0.01768071334162168,0.11427128958238911,-0.1412274624667791,-0.023690756699358093,-0.10280418118847472,-0.14115728032719732
255,14.483040099963546,-0.01898701862227166,0.05140342127850451,0.02131120474464289,0.030065338967185933,0.06236195659513454,-0.05270991803921958,0.017579437504031195,0.11383119892583267,-0.14182125344711474,-0.02422762632457044,-0.10541261057170623,-0.13976622273960534
256,14.48840490001021,-0.018859767597863102,0.05166805845857358,0.02108711914765305,0.03013943532983197,0.06284220861818324,-0.053310681929922374,0.01747588047931786,0.1133800769453334,-0.14240911827876895,-0.024770002855531686,-0.10802312181008664,-0.1383535293578274
257,14.492720099980945,-0.018732204274216048,0.051934721757235354,0.02086048871391064,0.030213089084011362,0.06332053030672376,-0.053913918254693466,0.017370019110491467,0.1129179156788926,-0.14299096561984456,-0.025317827096008386,-0.11063531546209314,-0.1369192577191181
258,14.49719769996591,-0.018604330542940303,0.05220340291582932,0.020631303045564525,0.030286290439986353,0.06379687497980004,-0.05451960138324068,0.017261830496793185,0.1124447088645155,-0.14356670437851324,-0.025871036916025728,-0.11324878633297848,-0.13546346858141978
259,14.501794899988454,-0.018476148337234065,0.05247409347830647,0.020399551853923364,0.030359029511764935,0.06427119593360278,-0.05512770530074651,0.017151292006511696,0.111960451965929,-0.1441362437265568,-0.026429566964671598,-0.11586312297114339,-0.13398622604938124
260,14.506196699978318,-0.018347659632288422,0.05274678479114817,0.02016522496107873,0.03043129631826918,0.06474344644882393,-0.05573820360901012,0.017038381291398518,0.11146514219976261,-0.14469949311412075,-0.026993348670530316,-0.1184779078040514,-0.1324875980170243
261,14.510711600014474,-0.01821886644568676,0.05302146800331627,0.019928312301523296,0.030503080784563444,0.06521357979812215,-0.056351069527658774,0.016923076299480488,0.11095877856011704,-0.145256362286998,-0.0275623106087773,-0.12109271744982816,-0.13096765646070935
262,14.515627200016752,-0.01808977083779887,0.05329813406623506,0.019688803923763733,0.030574372743131035,0.06568154925368497,-0.05696627589543598,0.01680535528637147,0.11044136184311078,-0.14580676130385936,-0.02813637874226791,-0.12370712276279555,-0.12942647703637225
263,14.525258400011808,-0.017960374912169577,0.05357677373380534,0.019446689991928005,0.030645161935198045,0.06614730809490185,-0.05758379517155856,0.016685196826046546,0.10991289467106367,-0.1463506005501321,-0.028715476892599578,-0.12632068976250285,-0.12786413821856663
264,14.528932599991094,-0.017830680815901646,0.05385737756245122,0.01920196078736678,0.0307154380121011,0.06661080961613079,-0.05820359943712215,0.016562579818171132,0.10937338150918902,-0.1468877907479514,-0.029299527388726217,-0.12893298063398104,-0.1262807207387546
265,14.533276900008786,-0.017700690740032842,0.0541399359111999,0.018954606710248855,0.030785190536673168,0.06707200713451246,-0.05882566039654242,0.016437483493391438,0.10882282868132047,-0.14741824296529005,-0.029888450906006073,-0.13154355337090304,-0.12467630774511983
266,14.537040399969555,-0.01757040691990713,0.0544244389417945,0.01870461828115038,0.030854408984656037,0.0675308539978698,-0.05944994937903772,0.016309887422024355,0.10826124438962102,-0.14794186862726086,-0.03048216580618036,-0.1341519612824338,-0.12305098549704149
267,14.5411793999956,-0.017439831635539787,0.054710876618840616,0.018451986142637742,0.030923082746159587,0.06798730359268881,-0.060076437340165885,0.016179771524928086,0.1076886387344793,-0.14845857953111793,-0.031080587879149985,-0.13675775276393415,-0.1214048441413068
268,14.54537959996378,-0.017308967211976268,0.05499923870998666,0.0181967010608438,0.03099120112716617,0.06844130935218634,-0.06070509486343372,0.01604711608437518,0.10710502373615709,-0.1489682878641216,-0.03168363027371518,-0.13936047085915249,-0.11973797827973587
269,14.54887499997858,-0.017177816019644597,0.05528951478613859,0.017938753927037168,0.031058753351081818,0.06889282476447388,-0.06133589216198482,0.015911901755508728,0.1065104133583871,-0.1494709062233386,-0.032291203371419934,-0.1419596529738419,-0.11805048739348063
270,14.553745799988974,-0.01704638047470112,0.055581694221709305,0.017678135759184165,0.031125728560337476,0.06934180338082488,-0.061968799080376454,0.015774109578281976,0.10590482353244172,-0.1499663476370943,-0.03290321492464594,-0.14455483094624144,-0.11634247600465984
271,14.55783689999953,-0.01691466303936935,0.05587576619490325,0.017414837703503085,0.03119211581804115,0.06978819882404204,-0.06260378509644877,0.01563372098774701,0.10528827218013494,-0.15045452558613934,-0.03351957047544744,-0.1471455312058975,-0.11461405348134651
272,14.561973800009582,-0.016782666222271772,0.05617171968803654,0.01714885103601035,0.03125790410966613,0.07023196479691908,-0.06324081932328066,0.015490717822453322,0.10466077923654826,-0.15093535402345326,-0.03414017368240613,-0.14973127522156862,-0.11286533380681739
273,14.56624010001542,-0.016650392578754395,0.05646954348789314,0.016880167164058234,0.03132308234477415,0.07067305509080017,-0.0638798705112263,0.01534508233197309,0.10402236666924586,-0.15140874739346022,-0.034764926459208784,-0.1523115801337721,-0.11109643563185337
274,14.570410699991044,-0.01651784471120399,0.056769226186117336,0.016608777627863797,0.031387639358767205,0.07111142359420417,-0.06452090705003358,0.015196797184128146,0.10337305849565263,-0.1518746206522747,-0.035393728756174685,-0.1548859585470418,-0.10930748255666749
275,14.57461070001591,-0.016385025269357843,0.057070756179642815,0.016334674102028705,0.03145156391467185,0.07154702430153094,-0.06516389697105177,0.015045845474362326,0.10271288080402567,-0.15233288928930086,-0.036026478215249104,-0.15745391827831298,-0.10749860335370753
276,14.57930599997053,-0.0162519369506059,0.05737412167115877,0.0160578483970495,0.031514844704970235,0.07197981132186294,-0.06580880794953252,0.014892210735885304,0.10204186177295964,-0.15278346934936196,-0.03666307028552427,-0.1600149629764554,-0.10566993207974502
277,14.58295090001775,-0.01611858250028505,0.05767931066961337,0.01577829246081796,0.031577470353470166,0.07240973888783644,-0.06645560730702471,0.014735876948068273,0.10136003168712035,-0.15322627745524733,-0.03730339849859399,-0.1625685929031556,-0.10382160816588985
278,14.587213299993891,-0.015984964711965432,0.05798631099075489,0.015495998380111124,0.031639429417207134,0.07283676136457609,-0.067104262013866,0.014576828544259788,0.1006674229501482,-0.15366123083060282,-0.037947354437247234,-0.16511430547246791,-0.10195377654049007
279,14.59125519997906,-0.015851086427728665,0.0582951102577107,0.015210958382070589,0.031700710388380425,0.07326083325867526,-0.06775473869177123,0.014415050420446123,0.0999640700958301,-0.15408824732351684,-0.03859482754238493,-0.1676515954109886,-0.1000665877114348
280,14.595490099978631,-0.015716950538437784,0.05860569590160432,0.014923164835670653,0.0317613016963284,0.07368190922722506,-0.06840700361652338,0.014250527944699538,0.09925000979964867,-0.15450724543010663,-0.03924570496410403,-0.17017995475941192,-0.09816019767530255
281,14.599501599965151,-0.015582559983998752,0.05891805516221076,0.014632610253174857,0.031821191709544484,0.07409994408689234,-0.06906102272076138,0.014083246967097656,0.09852528088994106,-0.15491814431733625,-0.039899871344246204,-0.17269887295154704,-0.09623476798938868
282,14.603916099993512,-0.015447917753613365,0.05923217508865032,0.014339287291580557,0.03188036873773628,0.07451489282304302,-0.06971676159686399,0.013913193831010171,0.0977899243587801,-0.15532086384721172,-0.04055720858856128,-0.17520783725135777,-0.09429046585131633
283,14.6080409999704,-0.015313026886023354,0.05954804254012105,0.01404318875405109,0.031938821033937005,0.0749267105989121,-0.07037418549994216,0.013740355384944471,0.09704398336943813,-0.15571532460027213,-0.04121759612570598,-0.1777063341069772,-0.09232746362840241
284,14.61204599996563,-0.01517789046974544,0.05986564418667007,0.013744307591335046,0.03199653679666476,0.07533535276479007,-0.07103325935092153,0.013564718991642641,0.09628750325582063,-0.1561014478958058,-0.04188091160735759,-0.18019385079343261,-0.09034593843012502
285,14.61661530000856,-0.015042511643297174,0.06018496651000375,0.013442636903172366,0.03205350417211086,0.0757407748671882,-0.07169394773970568,0.01338627253400796,0.09552053151604156,-0.15647915581172678,-0.04254703143659931,-0.18266987609082322,-0.08834607220289173
286,14.620235299982596,-0.014906893595413495,0.06050599580433646,0.013138169939686879,0.032109711256349205,0.07614293265797055,-0.0723562149284267,0.013205004419734665,0.09474311780612342,-0.15684837120559228,-0.04321583104361614,-0.1851339000870587,-0.08632805204921581
287,14.624674099963158,-0.014771039565253894,0.060828718177277974,0.012830900102764914,0.032165146097563775,0.07654178210346603,-0.07302002485478613,0.013020903584903569,0.09395531393524027,-0.1572090177371776,-0.04388718505713327,-0.1875854139726369,-0.0842920706311488
288,14.628846700012218,-0.014634952842600132,0.061153119550759284,0.012520820947419591,0.032219796698288394,0.07693727939356024,-0.0736853411354964,0.012833959497162397,0.09315717386115284,-0.1575610198929044,-0.04456096726791347,-0.19002390961565369,-0.08223832656055831
289,14.6333050999674,-0.014498636768044472,0.06147918566199683,0.012207926183140339,0.03227365101766109,0.07732938095076883,-0.07435212706982824,0.012644162159630021,0.09234875368904467,-0.1579043030117153,-0.04523705046829093,-0.1924488786778122,-0.0801670246458763
290,14.63712550001219,-0.014362094733168343,0.06180690206449505,0.011892209675227191,0.03232669697369689,0.0777180434393196,-0.07502034564327097,0.012451502115433454,0.09153011167443093,-0.15823879331158813,-0.0459153063537364,-0.19485981215449102,-0.07807837584336072
291,14.641279299976304,-0.014225330180711345,0.062136254129087395,0.011573665446109362,0.032378922445580535,0.0781032237742504,-0.07568995953130402,0.012255970452444304,0.09070130822588303,-0.15856441791499865,-0.046595605396171816,-0.19725620060461477,-0.07597259711654669
292,14.64478869998129,-0.014088346604730536,0.06246722704501578,0.011252287676647653,0.032430315275979324,0.07848487913051429,-0.07636093110327245,0.012057558808886834,0.08986240590599402,-0.15888110487424648,-0.0472778165440058,-0.1996375342545195,-0.07384991141798036
293,14.649629599996842,-0.013951147550749887,0.0627998058210486,0.010928070707420265,0.032480863273383224,0.07886296695208558,-0.07703322242637273,0.011856259380610471,0.0890134694332251,-0.15918878319676327,-0.047961807017885216,-0.20200330353673543,-0.07171054725685715
294,14.653744900017044,-0.013813736615899776,0.06313397528663717,0.010601009039991506,0.032530554214479215,0.07923744496108062,-0.07770679526974207,0.011652064928424688,0.08815456567831581,-0.1594873828667834,-0.048647442513389365,-0.2043530015364962,-0.0695547377732949
295,14.657872200012209,-0.013676117449046371,0.0634697200931108,0.010271097338163032,0.03257937584655341,0.07960827116683349,-0.0783816111086275,0.01144496878365783,0.0872857636454465,-0.15977683486282546,-0.04933458748352251,-0.20668612616197302,-0.06738272004539625
296,14.661984600010328,-0.013538293750910821,0.06380702471491005,0.009938330429207304,0.0326273158899124,0.07997540387485748,-0.079057631128623,0.011234964853103655,0.08640713445030028,-0.16005707117350448,-0.050023104977761954,-0.20900217976393112,-0.06519473500305199
297,14.666211800009478,-0.013400269274178164,0.06414587345085752,0.009602703305083005,0.03267436204032718,0.08033880169573539,-0.07973481622997224,0.011022047625940942,0.08551875130444109,-0.16032802481428476,-0.050712856061541384,-0.211300667920148,-0.06299102780518911
298,14.670476600003894,-0.013262047823595852,0.06448625042546625,0.009264211123632125,0.03272050197151301,0.08069842355394888,-0.08041312703194733,0.010806212183588007,0.08462068950365277,-0.1605896298464815,-0.05140369920292408,-0.21358109832155037,-0.060771848206513226
299,14.67447029997129,-0.013123633256061699,0.06482813959028522,0.008922849209758355,0.03276572333765666,0.08105422869667017,-0.08109252387731226,0.010587454211807696,0.08371302642173438,-0.16084182139711423,-0.05209549000243981,-0.21584297946207906,-0.05853745071748903
300,14.678001699969172,-0.012985029480701037,0.065171524725282,0.008578613056586434,0.03281001377599861,0.08140617670253898,-0.08177296683686949,0.010365770012846007,0.08279584150991576,-0.161084535679261,-0.05278808145917074,-0.2180858193079704,-0.056288094704528724
301,14.682319200015629,-0.012846240458932831,0.06551638944026252,0.008231498326602105,0.032853360909462906,0.08175422749044925,-0.08245441571409541,0.010141156515287445,0.08186921630190344,-0.16131771001275894,-0.05348132465814768,-0.22030912573362574,-0.054024044055458284
302,14.686701499973424,-0.012707270204524605,0.065862717176328,0.007881500852772273,0.03289575234932268,0.08209834132836874,-0.08313683004986203,0.009913611280382045,0.08093323440961118,-0.16154128284173003,-0.0541750696827698,-0.22251240925353183,-0.05174556614664237
303,14.691113199980464,-0.012568122783636018,0.06621049120736924,0.007528616639645038,0.03293717569788354,0.08243847884208969,-0.08382016912722055,0.009683132504186662,0.07998798150510879,-0.1617551937465492,-0.054869166397431675,-0.2246951846084834,-0.04945293054118487
304,14.69525639998028,-0.012428802314851103,0.0665596946415976,0.007172841864429413,0.032977618551167154,0.08277460102389576,-0.0845043919762243,0.009449719017275258,0.07903354530294188,-0.16195938345036415,-0.05556346469565094,-0.22685697060463106,-0.0471464078430291
305,14.699809600017034,-0.012289312969199155,0.06691031042311249,0.0068141728780545825,0.03301706850159219,0.08310666924116326,-0.08518945737876735,0.009213370284782394,0.0780700155434415,-0.16215379382137524,-0.056257814282132716,-0.22899728960558266,-0.04482626890367423
306,14.703628699993716,-0.012149658970164307,0.06726232133350511,0.006452606206208709,0.033055513140658285,0.08343464524488696,-0.08587532387342676,0.008974086407956057,0.07709748397933798,-0.16233836787264858,-0.056952064438911584,-0.23111566663987665,-0.0424927843053306
307,14.70794069999829,-0.012009844593683724,0.06761570999349806,0.006088138550357253,0.03309294006164012,0.0837584911781681,-0.08656194976029968,0.008731868126178306,0.07611604436661633,-0.16251304976002626,-0.057646064034380703,-0.23321162884998523,-0.04014622407355843
308,14.71229429997038,-0.0118698741681344,0.06797045886462075,0.005720766788740886,0.033129336862288444,0.08407816958466295,-0.08724929310582781,0.008486716818441766,0.07512579245578854,-0.1626777847795099,-0.058339661659295924,-0.23528470587925826,-0.03778685764526254
309,14.716148999985307,-0.011729752074308517,0.0683265502509205,0.005350487977353024,0.03316469114753665,0.08439364341699704,-0.08793731174761243,0.008238634504220422,0.07412682597947763,-0.16283251936490029,-0.0590327058523795,-0.2373344310921684,-0.0354149538950772
310,14.720467099978125,-0.011589482745377364,0.06868396630070912,0.004977299350897026,0.03319899053220918,0.08470487604510869,-0.08862596329921896,0.007987623843038746,0.07311924463337327,-0.16297720108540403,-0.05972504523234429,-0.23936034279203627,-0.033030781151491974
311,14.72448939998867,-0.011449070666843792,0.06904268900834447,0.00460119832372311,0.0332322226437244,0.08501183126450226,-0.08931520515497167,0.007733688134226285,0.07210315005352058,-0.16311177864340953,-0.06041652803979234,-0.24136198518169763,-0.03063460721198264
312,14.72865579999052,-0.011308520376483283,0.06940270021604683,0.004222182490745016,0.03326437512480099,0.08531447330439969,-0.09000499449473948,0.007476831320359819,0.07107864578915381,-0.16323620187222151,-0.06110700120877676,-0.24333890919272674,-0.028226699353303245
313,14.733247699972708,-0.011167836464273525,0.06976398161574945,0.003840249628336461,0.033295435636189905,0.085612766835764,-0.09069528828871153,0.0072170579948674434,0.0700458372729744,-0.16335042173392406,-0.06179630951418197,-0.24529067244175226,-0.02580732442703242
314,14.73763330001384,-0.01102702357231238,0.07012651475098271,0.0034553976952074227,0.03332539185944503,0.08590667697919965,-0.09138604330216486,0.00695437341267921,0.06900483179435406,-0.16345439031792292,-0.062484295145462616,-0.24721683865188515,-0.0233767490533056
315,14.741704699990803,-0.010886086394724043,0.07049028101879141,0.003067624833260288,0.03335423149974522,0.08619616931274941,-0.09207721610022773,0.006688783501435047,0.0679557384745043,-0.16354806084044646,-0.06317079810756754,-0.24911697774571107,-0.02093523993263416
316,14.7454031999805,-0.010745029677553142,0.07085526167168495,0.0026769293684258686,0.03338194228875969,0.08648120987958478,-0.09276876305264302,0.006420294868745779,0.06689866823889333,-0.16363138764572427,-0.06385565737401111,-0.25099066658366204,-0.0184830642647021
317,14.749520700017456,-0.010603858218646673,0.07122143781961957,0.0022833098114792717,0.033408511987531433,0.08676176519556973,-0.09346064033854151,0.006148914803652386,0.06583373378617308,-0.1637043262090288,-0.06453871208236692,-0.2528374900394187,-0.016020490079777704
318,14.75382039998658,-0.010462576867523726,0.07158879043201247,0.001886764858835563,0.03343392838935499,0.08703780225668835,-0.09415280395123106,0.005874651273779702,0.06476104955150398,-0.16376683314065593,-0.06521980208274744,-0.254657041688959,-0.013547786457136638
319,14.757849799992982,-0.010321190525233089,0.07195730033978692,0.0014872933933251474,0.03345817932263577,0.08730928854629853,-0.09484520970300349,0.0055975129221585455,0.0636807316696565,-0.16381886619081323,-0.06589876760920113,-0.25644892305608413,-0.011065223804048542
320,14.761494199978188,-0.010179704144198796,0.07232694823744765,0.0010848944849487906,0.03348125265374095,0.08757619204224769,-0.09553781322996509,0.005317509067157597,0.0625928979447146,-0.16386038425595925,-0.06657544862008079,-0.25821274252982074,-0.008573074052854516
321,14.765947200008668,-0.010038122728053633,0.0726977146851861,0.0006795673916121612,0.03350313628985826,0.08783848122387027,-0.09623056999689712,0.005034649704882394,0.06149766782233012,-0.163891347385358,-0.0672496847239733,-0.25994811557178066,-0.006071610284310141
322,14.770373400009705,-0.009896451331460512,0.07306958011101501,0.0002713115598397587,0.033523818181867095,0.08809612507886888,-0.09692343530214173,0.004748945509733438,0.060395162357673095,-0.1639117167842337,-0.06792131594854334,-0.2616546665320653,-0.003561105643818433
323,14.774841699982062,-0.009754695059921705,0.07344252481293187,-0.00013987337453185209,0.033543286327202076,0.0883490931100409,-0.09761636428248911,0.004460407830304987,0.05928550417233355,-0.16392145481116263,-0.06859018346103321,-0.2633320306903892,-0.0010418323102947171
324,14.778810899995731,-0.009612859069576011,0.07381652896111031,-0.0005539875856814319,0.03356152877268949,0.08859735534179516,-0.09830931191804138,0.004169048683851684,0.05816881740501516,-0.16392052497251014,-0.06925612927247134,-0.2649798550159922,0.0014859386892564766
325,14.78299259999767,-0.009470948566984003,0.07419157260011869,-0.0009710310571509543,0.03357853361736402,0.08884088232646174,-0.09900223303705269,0.003874880754688129,0.057045227662012254,-0.16390889191825472,-0.0699189951152775,-0.26659779745568524,0.004021937026966429
326,14.786942399980036,-0.009328968808901385,0.07456763565116484,-0.0013910035812139173,0.033594289015291705,0.08907964515038995,-0.09969508232075783,0.0035779173981448057,0.05591486197392278,-0.1638865214402531,-0.07057862140163526,-0.2681855251870599,0.006565892642896093
327,14.791148899996188,-0.009186925102040373,0.07494469791436618,-0.001813904758264054,0.03360878317842009,0.08931361543989211,-0.10038781430819765,0.0032781726477741115,0.05477784876089356,-0.16385338047170991,-0.0712348468246061,-0.26974271351706147,0.009117535566809174
328,14.795928000006825,-0.009044822802818953,0.07532273907104475,-0.0022397339962244413,0.0336220043794621,0.08954276536704776,-0.10108038340104318,0.002975661222678677,0.05363431779864527,-0.16380943708694967,-0.07188750856703711,-0.2712690457443335,0.011676595842842032
329,14.799514800019097,-0.00890266731709788,0.07570173868604636,-0.0026684905099769955,0.03363394095480818,0.08976706765536019,-0.10177274386841913,0.0026703985329511763,0.05248440018488152,-0.1637546605015233,-0.07253644274083101,-0.2727642129990451,0.014242803428724348
330,14.803777699999046,-0.00876046409990532,0.07608167621008345,-0.0031001733208123614,0.03364458130745614,0.0899864955852766,-0.10246484985172888,0.0023624006832888345,0.051328228306668014,-0.16368902107283204,-0.07318148455673215,-0.2742279142184293,0.016815888111910125
331,14.807788799982518,-0.008618218655149069,0.07646253098210094,-0.003534781255900202,0.03365391390995384,0.09020102299956889,-0.10315665536948332,0.0020516844769977783,0.050165935807048444,-0.16361249030094321,-0.07382246813473689,-0.275659856101928,0.019395579571332876
332,14.8121356999618,-0.008475936535316326,0.07684428223166456,-0.003972312947779911,0.03366192730736293,0.09041062430857157,-0.10384811432213269,0.001738267421210431,0.048997657552802866,-0.16352504082869196,-0.07445922636643952,-0.2770597525832943,0.02198160762843477
333,14.816314600000624,-0.008333623341160853,0.07722690908137099,-0.004412766833871757,0.0336686101202456,0.0906152744952899,-0.10453918049689627,0.001422167732053664,0.04782352960552673,-0.1634266464403746,-0.0750915909632791,-0.27842732434637857,0.024573702582655694
334,14.820321200008038,-0.008191284721377489,0.07761039054927936,-0.004856141156008423,0.033673951047672034,0.0908149491203934,-0.10522980757258321,0.0011034043394582867,0.04664368919348304,-0.16331728205901408,-0.07571939263933392,-0.27976229905752714,0.027171595466937058
335,14.824855700018816,-0.008048926372263893,0.07799470555136363,-0.0053024339599869125,0.033677938870247844,0.09100962432708591,-0.10591994912439909,0.0007819968907817589,0.04545827468071656,-0.1631969237428931,-0.07634246161068145,-0.2810644115020708,0.029775018129473273
336,14.828696799988393,-0.007906554037369456,0.07837983290398527,-0.0057516430951407285,0.03368056245315211,0.09119927684583802,-0.1066095586287374,0.00045796575139583516,0.04426742553775205,-0.16306554868212841,-0.07696062810601909,-0.2823334028482944,0.032383703216430415
337,14.832824699988125,-0.007764173507131363,0.07876575132638562,-0.006203766213932283,0.033681810749169816,0.09138388399900942,-0.1072985894679572,0.00013133200399222504,0.04307128231693124,-0.1629231351953501,-0.07757372204320621,-0.283569019937421,0.034997384070195134
338,14.837109400017653,-0.007621790618497865,0.07915243944319766,-0.0066588007715654715,0.033681672801724,0.09156342370537274,-0.10798699493514649,-0.00019788254809508253,0.0418699866291139,-0.16276966272713603,-0.07818157174086915,-0.28477101452505804,0.03761579429759729
339,14.841969400004018,-0.007479411254538704,0.07953987578697665,-0.007116744025618357,0.033680137747936295,0.091737874484539,-0.10867472823887817,-0.0005296553706914012,0.04066368112542802,-0.1626051118483417,-0.0787840024601226,-0.2859391419262088,0.04023866660245774
340,14.845705999992788,-0.007337041344042516,0.07992803880074925,-0.00757759303569595,0.033677194821745284,0.09190721546132714,-0.10936174250797621,-0.0008639631831299833,0.03945250948542668,-0.1624294642634049,-0.07938083553845586,-0.28707315966047636,0.04286573091959462
341,14.849789100000637,-0.007194686861100884,0.08031690684058117,-0.008041344663103191,0.03367283335709937,0.0920714263700893,-0.1100479907963334,-0.0012007819407310293,0.03823661641029235,-0.16224270282645162,-0.07997188826761109,-0.28817282703871455,0.04549671307441
342,14.85370569996303,-0.00705235382467875,0.08070645817816283,-0.008507995570538461,0.03366704279122328,0.09223048755902293,-0.11073342608781364,-0.0015400868181178425,0.03701614761448841,-0.16204481155993325,-0.08055697423296157,-0.28923790695388907,0.048131335134471875
343,14.858106400002724,-0.0069100482981708546,0.08109667100341343,-0.00897754222180801,0.033659812667951976,0.09238437999442546,-0.11141800130122725,-0.0018818521945651182,0.03579124980382263,-0.16183577566776006,-0.08113590367570299,-0.2902681681778968,0.05076931682180065
344,14.862021200009622,-0.006767776388943957,0.08148752342710266,-0.00944998088156153,0.03365113264112102,0.092533085264821,-0.11210166929534437,-0.002226051640377251,0.03456207064768017,-0.1616155815419982,-0.08170848344179138,-0.29126338492550413,0.05341037610463673
345,14.866321699984836,-0.006625544247864616,0.0818789934834896,-0.009925307615048977,0.033640992478015656,0.09267658558498022,-0.11278438287392682,-0.0025726579018049175,0.03332875876077373,-0.16138421677100007,-0.0822745165628652,-0.2922233340525329,0.05605422820105193
346,14.8705855999724,-0.006483358068812242,0.08227105913297843,-0.010403518287898676,0.03362938206288873,0.09281486379989273,-0.11346609479081025,-0.0029216428838802844,0.03209146369906457,-0.16114167015452527,-0.08283380182513003,-0.2931477924835345,0.05870058476001956
347,14.87451890000375,-0.006341224088177144,0.08266369826479089,-0.010884608565917112,0.033616291400554846,0.09294790338875253,-0.11414675775506387,-0.003272977631688718,0.030850335963260426,-0.16088793171879465,-0.0833861335835546,-0.29403653693589865,0.061349155058153665
348,14.878845200000796,-0.006199148584343192,0.08305688869965575,-0.011368573914910668,0.033601710620066644,0.0930756884689599,-0.11482632443619986,-0.003626632311633111,0.02960552699706902,-0.16062299272149344,-0.08393130207882481,-0.29488934571149245,0.06399964840974318
349,14.882868200016674,-0.006057137877154778,0.08345060819251506,-0.011855409600529445,0.03358562997846737,0.09319820380009215,-0.11550474746937538,-0.003982576195385284,0.028357189175548574,-0.16034684564644958,-0.08446909433791916,-0.2957060001213527,0.06665177560832534
350,14.887490799999796,-0.005915198327367761,0.08384483443524716,-0.012345110688132988,0.03356803986460281,0.09331543478780699,-0.116181979460557,-0.0043407776487642425,0.02710547579131622,-0.16005948419644905,-0.08499929531009458,-0.29648628420920986,0.0693052486236058
351,14.89132779999636,-0.005773336336084194,0.08423954505940603,-0.012837672042677769,0.033548930802967905,0.09342736748769664,-0.11685797299166199,-0.004701204125291789,0.025850541045235986,-0.15976090329047662,-0.08552168857796967,-0.29722998355647995,0.07195977962547007
352,14.89542790001724,-0.005631558344170746,0.08463471763897679,-0.01333308832862638,0.03352829345757318,0.09353398860911255,-0.11753268062569941,-0.005063822161082644,0.024592540042730426,-0.1594510990647827,-0.08603605627889242,-0.297936884663698,0.07461508046091443
353,14.899884400016164,-0.0054898708316607455,0.08503032969314737,-0.013831354009878477,0.033506118635834546,0.09363528551898827,-0.11820605491192038,-0.005428597367735262,0.023331628789698276,-0.15913006887454628,-0.08654217841434071,-0.29860677504235034,0.07727086240846982
354,14.90438439999707,-0.005348280317139715,0.08542635868909645,-0.014332463349723521,0.03348239729249982,0.09373124624562965,-0.11887804839097327,-0.005795494421383267,0.0220679641880497,-0.15879781129701817,-0.0870398319575977,-0.29923944247864737,0.07992683539885742
355,14.908009200007657,-0.005206793357114215,0.0858227820447971,-0.014836410410815307,0.03345712053363112,0.0938218594825,-0.11954861360008055,-0.006164477048042094,0.02080170403784838,-0.15845432613977284,-0.08752879023081411,-0.2998346741386789,0.08258270654777886
356,14.911473400017712,-0.005065416545363711,0.08621957713183666,-0.015343189055168465,0.03343027962065526,0.09390711459202841,-0.12021770307826374,-0.006535508007393791,0.019533007040412255,-0.15809961445625614,-0.08800882277929468,-0.3003922561102108,0.08523817839322304
357,14.915151999972297,-0.0049241565122751735,0.08661672127825269,-0.015852792944177175,0.033401865974483226,0.09398700160942107,-0.12088526937165167,-0.006908549077070809,0.01826203280432948,-0.15773367856894,-0.0884796957773732,-0.3009119732636743,0.08789294788584406
358,14.92029390000971,-0.004783019924160115,0.08701419177138504,-0.01636521553865654,0.03337187117969347,0.09406151124652046,-0.12155126503890124,-0.007283561039872282,0.01698894184973444,-0.1573565220934059,-0.0889411729667514,-0.3013936113410508,0.09054670729742642
359,14.924846799985971,-0.004642013482553825,0.08741196586074439,-0.016880450098907124,0.03334028698875945,0.09413063489565288,-0.12221564265670927,-0.007660503675981022,0.01571389559666321,-0.15696814995381897,-0.08939301673938398,-0.30183696040227026,0.09319914637481463
360,14.92912049998995,-0.004501143923496665,0.08781002076089685,-0.017398489684802943,0.033307105326298714,0.09419436463338914,-0.12287835482536409,-0.008039335759335065,0.014437056340191929,-0.1565685683888011,-0.08983498870682961,-0.3022418164327928,0.0958499535892548
361,14.933158200001344,-0.004360418016797377,0.08820833365436434,-0.017919327155902928,0.033272318293331125,0.09425269322418191,-0.12353935417430707,-0.008420015054658255,0.013158587225200925,-0.15615778495634233,-0.09026684953638743,-0.3026079803773128,0.09849881560599147
362,14.936995500000194,-0.0042198425652783785,0.08860688169453994,-0.01844295517158593,0.03323591817155307,0.09430561412391306,-0.12419859336772568,-0.0088024983124464,0.011878652229682669,-0.15573580854415836,-0.09068835852308721,-0.30293525713074954,0.10114541607159643
363,14.9412121999776,-0.004079424404002935,0.0890056420086182,-0.01896936619120948,0.03319789742763805,0.09435312148338987,-0.12485602511020262,-0.009186741262379242,0.01059741614803658,-0.15530264938485447,-0.09109927347970245,-0.3032234554466062,0.10378943470842526
364,14.945337900018783,-0.0039391703994840965,0.0894045917005401,-0.019498552474292552,0.03315824871756659,0.09439521015175115,-0.1255116021524371,-0.00957269860737673,0.009315044575151758,-0.1548583190739389,-0.09149935111981351,-0.303472387567886,0.10643054694418812
365,14.949928699992595,-0.003799087448875261,0.08980370785395217,-0.020030506080722692,0.03311696489097711,0.09443187567982887,-0.1261652772970462,-0.0099603240202496,0.008031703892822217,-0.15440283058811868,-0.09188834765647497,-0.3036818702621201,0.10906842403871671
366,14.953771899978165,-0.0036591824791423273,0.09020296753517981,-0.02056521887098783,0.03307403899552411,0.09446311432343944,-0.12681700340444096,-0.01034957014281709,0.006747561245078956,-0.15393619830224117,-0.09226601921265555,-0.3038517266357202,0.11170273351423148
367,14.957849700003862,-0.003519462446217412,0.09060234779621429,-0.021102682506433088,0.03302946428123651,0.09448892304653678,-0.12746673339877085,-0.010740388586027595,0.005462784509265721,-0.1534584380039522,-0.09263212181880985,-0.30398178638443507,0.11433313970670632
368,14.96261799999047,-0.003379934334134154,0.09100182567771271,-0.021642888449542846,0.03298323420487484,0.09450929952425902,-0.12811442027392375,-0.011132729929055845,0.0041775422692535815,-0.15296956690597613,-0.0929864110610751,-0.30407188526739254,0.11695930404137846
369,14.966268399963155,-0.0032406051541445957,0.09140137821201076,-0.022185827964248287,0.0329353424342972,0.09452424214585517,-0.12876001709957444,-0.011526543716449244,0.0028920037909634182,-0.15246960365844464,-0.093328641947791,-0.3041218646931664,0.11958088502092665
370,14.97040950000519,-0.0031014819438175724,0.09180098242614743,-0.02273149211626059,0.03288578285284057,0.09453375001752487,-0.12940347702728863,-0.011921778456096531,0.0016063389990801048,-0.15195856836127677,-0.0936585695223413,-0.3041315724538661,0.1221975383009654
371,14.974459999997634,-0.002962571766118554,0.09220061534490173,-0.023279871773430084,0.03283454956370394,0.09453782296514815,-0.1300447532966762,-0.012318381621555397,0.00032071844636861574,-0.15143648257586945,-0.09397594995662129,-0.3041008635528088,0.12480891665550531
372,14.978815099981148,-0.002823881708470976,0.09260025399384057,-0.023830957606131468,0.032781636894309955,0.09453646153686578,-0.13068379924159404,-0.01271629965926589,-0.0009646867166093519,-0.1509033693377695,-0.09428054144918485,-0.3040296002270408,0.12741466980957944
373,14.983074799994938,-0.0026854188817992068,0.09299987540237724,-0.0243847400876754,0.03272703940062705,0.094529667005553,-0.13132056829640643,-0.013115477998471427,-0.0022497047723696825,-0.15035925316977924,-0.09457210453550152,-0.30391765213081146,0.13001444438179213
374,14.98697309999261,-0.0025471904195533356,0.09339945660684017,-0.024941209494746652,0.032670751871447225,0.09451744137113886,-0.1319550140022987,-0.013515861061055274,-0.0035341634683404032,-0.14980416009511432,-0.09485040194467169,-0.30376489594532724,0.13260788389635092
375,14.991411299968604,-0.002409203476715973,0.09379897465355108,-0.025500355907869077,0.03261276933262501,0.0944997873628108,-0.13258709001364882,-0.013917392270250153,-0.0048178900444366445,-0.14923811765040748,-0.09511519846623744,-0.3035712151500402,0.13519462881838418
376,14.99609909998253,-0.0022714652287912033,0.09419840660191238,-0.026062169211897628,0.032553087051281605,0.0944767084411008,-0.13321675010445105,-0.014320014059348673,-0.006100711262961558,-0.14866115489856777,-0.0953662611395783,-0.30333650015894226,0.13777431671899387
377,14.999860899988562,-0.0021339828707758377,0.09459772952750291,-0.026626639096537636,0.03249170053997021,0.09444820879983724,-0.1338439481747962,-0.014723667882014187,-0.0073824534373335806,-0.14807330244038897,-0.09560335963124694,-0.3030606482524188,0.14034658263132835
378,15.003758099977858,-0.0019967636161131526,0.09499692052518185,-0.02719375505689162,0.03242860556079299,0.09441429336798816,-0.1344686382573934,-0.015128294224181413,-0.008662942461411204,-0.14747459242439834,-0.09582626640106674,-0.3027435637842144,0.14291105929791512
379,15.007856299984269,-0.001859814695629336,0.09539595671220011,-0.027763506394033702,0.03236379812946577,0.09437496781136515,-0.13509077452413376,-0.015533832615771568,-0.00994200383997004,-0.14686505855637397,-0.09603475639352534,-0.30238515774458996,0.14546737744752977
380,15.0122348999721,-0.0017231433564528597,0.09579481523131855,-0.028335882215611903,0.032297274519335985,0.09433023853420895,-0.13571031129269245,-0.015940221639983865,-0.011219462714334284,-0.1462447361068527,-0.09622860636639727,-0.30198534665773147,0.14801516625730113
381,15.016156799974851,-0.0015867568609169568,0.09619347325393283,-0.028910871436478386,0.032229031265368815,0.0942801126806767,-0.13632720303315587,-0.01634739893933448,-0.012495143883531916,-0.14561366191674066,-0.0964075944038082,-0.3015440523072189,0.15055405374991288
382,15.02054140000837,-0.0014506624854452924,0.09659190798320423,-0.029488462779347774,0.03215906516811405,0.09422459813624862,-0.13694140437467128,-0.016755301220831246,-0.013768871827605136,-0.14497187440146297,-0.09657150011631004,-0.30106120249399676,0.1530836670029098
383,15.024950899998656,-0.0013148675194209036,0.09699009665719631,-0.030068644775483613,0.03208737329764851,0.09416370352901818,-0.1375528701121089,-0.01716386426370415,-0.015040470735173825,-0.14431941355480474,-0.0967201053751657,-0.30053673153922855,0.15560363220813203
384,15.028733999992255,-0.001179379264038539,0.0973880165520167,-0.03065140576541302,0.032013952997477536,0.0940974382308658,-0.1381615552127441,-0.017573022930788055,-0.01630976453099739,-0.1436563209525583,-0.09685319496266019,-0.2999705807457977,0.1581135750297021
385,15.033302399970124,-0.0010442050311406132,0.0977856449849637,-0.031236733899669637,0.03193880188838117,0.09402581235851595,-0.1387674148229503,-0.017982711181751265,-0.01757657690743998,-0.1429826397533375,-0.09697055670296237,-0.29936269915666586,0.1606131211492175
386,15.037146399961784,-0.0009093521420370286,0.09818295931767694,-0.03182461713956486,0.03186191787220381,0.09394883677444484,-0.1393704042748881,-0.018392862085584615,-0.018840731358443892,-0.14229841469761575,-0.09707198116429362,-0.2987130431393866,0.16310189647698428
387,15.042081899999175,-0.0007748279263090907,0.0985799369592917,-0.03241504325798735,0.03178329913559482,0.09386652308765026,-0.13997047909318996,-0.018803407831312017,-0.020102051207482045,-0.14160369210675436,-0.09715726132003315,-0.2980215756289127,0.16557952725686714
388,15.046024699986448,-0.0006406397205977045,0.09897655536959607,-0.03300799984023079,0.0317029441537076,0.093778883654323,-0.1405675950016412,-0.01921427973761436,-0.021360359635129684,-0.14089851988115404,-0.0972261924380549,-0.29728826711641354,0.16804564024956892
389,15.049779699998908,-0.0005067948673760158,0.09937279206219095,-0.03360347428484986,0.03162085169385884,0.0936859315783836,-0.14116170792984903,-0.019625408262604453,-0.022615479715376842,-0.14018294749773383,-0.0972785721645991,-0.29651309668177556,0.17049986280755344
390,15.053811199963093,-0.000373300713706671,0.09976862460765175,-0.03420145380454438,0.03153702081914496,0.09358768071184669,-0.14175277401990213,-0.02003672301416002,-0.02386723445192932,-0.13945702600744914,-0.09731420066959474,-0.2956960516484023,0.1729418228517762
391,15.058333199995104,-0.00024016460998388235,0.10016403063669144,-0.03480192542707161,0.031451450892014,0.09348414565505082,-0.14234074963301888,-0.020448152760927273,-0.025115446811602663,-0.13872080803296735,-0.09733288107932948,-0.2948371273546952,0.17537114886894972
392,15.062051799963228,-0.00010739390866048971,0.10055898784332423,-0.03540487599618658,0.03136414157778904,0.0933753417567406,-0.14292559135618715,-0.02085962544631192,-0.02635993975869111,-0.13797434776620904,-0.09733442079586084,-0.29393632818636245,0.17778747055923577
393,15.07059429999208,2.500403703976301e-05,0.10095347398802931,-0.03601029217261052,0.03127509284812175,0.09326128511400586,-0.1435072560087918,-0.021271068210637727,-0.02760053629708924,-0.1372177009605476,-0.09731863374660994,-0.2929936699429419,0.18019042072496363
394,15.076177400012966,0.00015702187442436476,0.10134746690091401,-0.036618160435027254,0.031184304984328535,0.09314199257200764,-0.14408570064918852,-0.021682407424156742,-0.02883705952466875,-0.13645092491238234,-0.09728534230986823,-0.2920091821113251,0.18257963727467436
395,15.08113130001584,0.00028865225264796567,0.10174094448487518,-0.03722846708110718,0.031091778580564985,0.09301748172345772,-0.1446608825811755,-0.022093568725487095,-0.03006933269462163,-0.13567407843639478,-0.09723437759141623,-0.2909829091267786,0.18495476339940742
396,15.086571499996351,0.00041988782404135287,0.10213388471875803,-0.03784119822855837,0.03099751454683701,0.09288777090782592,-0.1452327593603581,-0.022504477056961902,-0.03129717928049825,-0.1348872218456314,-0.09716557846230452,-0.2899149102143184,0.18731544596626842
397,15.091843299975151,0.0005507212454528362,0.10252626566051078,-0.038456339816204416,0.030901514111876475,0.09275287921026976,-0.14580128880045215,-0.02291505669493196,-0.03252042303620947,-0.13409041694034157,-0.09707879083685018,-0.28880525863093814,0.1896613340561043
398,15.095567099982873,0.0006811451796015365,0.10291806545033438,-0.03907387760508876,0.030803778825896116,0.09261282646033449,-0.14636642897955426,-0.02332523127901046,-0.03373888805465812,-0.13328372700042346,-0.09697386769243835,-0.2876540425363772,0.19199207834647358
399,15.099512099986896,0.0008111522964420625,0.10330926231382628,-0.039693797179605556,0.030704310563217936,0.09246763323038706,-0.14692813824638118,-0.0237349238425431,-0.034952398835103,-0.13246721677947873,-0.09685066927221866,-0.28646136632597763,0.19430733061964678
400,15.1037908999715,0.000940735274540021,0.10369983456511686,-0.04031608394865681,0.030603111524770507,0.09231732083374662,-0.14748637522648989,-0.024144056843566502,-0.03616078035305907,-0.13164095250141802,-0.09670906307486433,-0.2852273505171106,0.1966067432520062
401,15.108105399995113,0.0010698868024578072,0.10408976060999735,-0.04094072314683577,0.030500184240455627,0.09216191132252748,-0.14804109882848826,-0.024552552195191733,-0.03736385812670122,-0.13080500185883256,-0.0965489235066497,-0.283952131334072,0.19888996828677588
402,15.112094799987972,0.001198599580150124,0.10447901894903809,-0.041567699835636594,0.030395531571388745,0.0920014274852082,-0.1485922682502414,-0.02496033129362121,-0.038561458283254926,-0.12995943401743923,-0.09637013104654693,-0.28263586052519324,0.2011566556563518
403,15.116377099999228,0.0013268663203687139,0.10486758818069589,-0.04219699890469022,0.03028915671202875,0.09183589284391333,-0.1491398429851199,-0.025367315041473517,-0.039753407623853834,-0.12910431962948152,-0.09617257112038609,-0.2812787043986807,0.2034064514349302
404,15.12032270000782,0.0014546797500758846,0.10525544700440927,-0.04282860507302683,0.03018106319222119,0.09166533165143408,-0.14968378282831937,-0.025773423866281883,-0.04093953368177887,-0.1282397308529478,-0.09595613324721372,-0.2798808423744335,0.20563899664408938
405,15.124692899989896,0.0015820326118665155,0.10564257422368065,-0.043462502890365205,0.03007125487917168,0.09148976888801766,-0.1502240478832713,-0.026178577736601868,-0.04211966477507214,-0.12736574137507048,-0.09572071070831242,-0.2784424665949617,0.20785392672351927
406,15.128736899991054,0.0017089176653982672,0.10602894874914447,-0.044098676738429335,0.029959735979352916,0.09130923025794321,-0.1507605985681612,-0.02658269617771156,-0.04329363006148656,-0.12648242643601904,-0.09546620051473019,-0.2769637824994956,0.21005087198186265
407,15.133070399984716,0.0018353276888297112,0.10641454960162039,-0.04473711083229289,0.02984651104034536,0.09112374218584653,-0.15129339562253982,-0.026985698287444744,-0.04446125959595356,-0.1255898628485875,-0.09519250355308687,-0.2754450090759942,0.2122294582630316
408,15.137122899992391,0.0019612554802661015,0.10679935591515037,-0.045377789221751764,0.029731584952610406,0.09093333181281009,-0.15182240011400772,-0.027387502753123818,-0.045622384387663334,-0.12468812901625409,-0.09489952509085617,-0.2738863792974052,0.2143893074583756
409,15.141193299961742,0.002086693859212495,0.1071833469400188,-0.04602069579272502,0.029614962951187866,0.09073802699220525,-0.15234757344497907,-0.027788027871664876,-0.046776836461220904,-0.1237773049485386,-0.09458717576270946,-0.27228814120173833,0.2165300386001659
410,15.145371199992953,0.0022116356680338756,0.10756650204575441,-0.04666581426868462,0.02949665061729919,0.09053785628526521,-0.15286887735949625,-0.028187191574849686,-0.04792444892285786,-0.12285747226981712,-0.09425537278561631,-0.2706505584428714,0.21865126916084607
411,15.149680599977728,0.002336073773421828,0.107948800724113,-0.047313128212114024,0.029376653879831287,0.09033284895636742,-0.15338627395006807,-0.02858491145970386,-0.049065056026245245,-0.12192871422369493,-0.09390404086689808,-0.26897391012882127,0.22075261565841203
412,15.153703399992082,0.002460001067867207,0.10833022259203948,-0.04796262102599569,0.029254979016682895,0.09012303496805013,-0.15389972566452131,-0.028981104821445985,-0.05019849323733793,-0.12099111567670298,-0.0935331124795824,-0.2672584906856482,0.22283369363543593
413,15.157798399974126,0.002583410471138195,0.1087107473946084,-0.0486142759553276,0.02913163265596985,0.08990844497574654,-0.15440919531287026,-0.029375688686193783,-0.05132459729903689,-0.12004476312284815,-0.09314252765524131,-0.26550460987939073,0.2248941172447473
414,15.161980999982916,0.00270629493176316,0.10909035500794152,-0.049268076088668886,0.02900662177709493,0.08968911032225473,-0.15491464607420669,-0.029768579842161788,-0.052443206296219035,-0.11908974469081259,-0.09273223367082649,-0.2637125936652874,0.22693349865377688
415,15.16618279996328,0.002828647428517759,0.10946902544210162,-0.04992400435971456,0.02887995371168937,0.08946506303192193,-0.15541604150363025,-0.03015969486971985,-0.053554159727579216,-0.11812615015353996,-0.09230218490198683,-0.26188278492478145,0.22895144833072614
416,15.170399800001178,0.002950460971915757,0.1098467388439608,-0.05058204354889974,0.028751636144428577,0.08923633580450714,-0.15591334553921957,-0.03054895017135068,-0.054657298576891104,-0.11715407093301537,-0.09185234282670666,-0.2600155431645845,0.23094757581109523
417,15.174566200003028,0.003071728605703024,0.1102234755000425,-0.05124217628503334,0.028621677113720358,0.08900296200876288,-0.15640652250900294,-0.030936262001739115,-0.05575246538230492,-0.11617360010337098,-0.09138267595225616,-0.2581112431614935,0.23292148901425744
418,15.178549900010694,0.0031924434083541744,0.11059921583933548,-0.05190438504696121,0.028490085012266252,0.08876497567571191,-0.15689553713795576,-0.03132154649711207,-0.056839504296150874,-0.11518483240144395,-0.09089315960696656,-0.2561702726692545,0.23487279318339005
419,15.182884400011972,0.0033125984945713114,0.110973940436079,-0.052568652165258994,0.028356868587501707,0.08852241149172344,-0.15738035455506047,-0.03170471970356736,-0.05791826113484957,-0.11418786423884443,-0.09038377585571987,-0.25419303289831624,0.23680109151646975
420,15.187129499972798,0.003432187016784385,0.11134763001251832,-0.05323495982395496,0.0282220369419179,0.08827530479136779,-0.15786094030040598,-0.032085697605699154,-0.058988583442771504,-0.11318279370717878,-0.08985451362624883,-0.25217994138520294,0.23870598649077837
421,15.1913853000151,0.003551202166652658,0.1117202654416294,-0.05390329006228286,0.028085599533259897,0.08802369154995279,-0.15833726033229184,-0.03246439615599459,-0.06005032056640664,-0.11216972057891945,-0.0893053686643356,-0.2501314324777087,0.24058708071950605
422,15.194969600008337,0.003669637176566741,0.11209182774981132,-0.05457362477646485,0.027947566174599946,0.08776760837575134,-0.15880928103433495,-0.03284073130308049,-0.061103323722326,-0.11114874630538608,-0.08873634332441632,-0.24804795570343097,0.24244397722938368
423,15.20025729999179,0.003787485321150677,0.11246229811954526,-0.055245945721524435,0.02780794703429682,0.08750709250196319,-0.15927696922255669,-0.03321461901934961,-0.06214744605755795,-0.11011997401526812,-0.0881474470407446,-0.24592997489588694,0.24427627921994569
424,15.203819799993653,0.0039047399187636307,0.11283165789201903,-0.055920234513129274,0.02766675263583554,0.08724218177843207,-0.15974029215247715,-0.033585975333190826,-0.06318254271016155,-0.10908350851464119,-0.08753869765937015,-0.2437779684473074,0.24608359098069
425,15.207426799985114,0.004021394333000621,0.11319988856971593,-0.05659647262946413,0.02752399385751424,0.08697291466309538,-0.1601992175262024,-0.033954716367876614,-0.0642084708717401,-0.10803945627773565,-0.08691012259237464,-0.24159242963189748,0.24786552015451477
426,15.212008200003766,0.004137441974191563,0.113566971818967,-0.05727464141313359,0.027379681931955106,0.08669933021317279,-0.16065371349944063,-0.03432075838355173,-0.06522508985074749,-0.10698792542781665,-0.0862617594656634,-0.2393738671108236,0.2496216794936389
427,15.216370399983134,0.004252876300897862,0.11393288947246545,-0.057954722073094336,0.02723382844543624,0.08642146807608066,-0.16110374868842783,-0.034684017821597496,-0.06623226113927114,-0.10592902571310725,-0.08559365694852873,-0.23712280594025545,0.25135168808973823
428,15.220572399965022,0.004367690821405811,0.11429762353174207,-0.05863669568661641,0.02708644533702754,0.08613936848005606,-0.16154929217674036,-0.03504441135363399,-0.0672298484848609,-0.10486286847726824,-0.08490587554540359,-0.2348397885830958,0.2530551727136058
429,15.22465170000214,0.004481879095215877,0.11466115616960035,-0.059320543201273085,0.02693754489750825,0.08585307222446392,-0.16199031352197096,-0.03540185593257824,-0.06821771796586566,-0.10378956662399508,-0.0841984875007758,-0.2325253746806569,0.2547317681288991
430,15.228676999977324,0.004595434734526946,0.11502346973250996,-0.06000624543695857,0.026787139768071185,0.08556262066978411,-0.16242678276224215,-0.035756268840842535,-0.06919573806133189,-0.1027092345848452,-0.08347157609402467,-0.23018013960485928,0.2563811154845577
431,15.233023200009484,0.004708351405714657,0.11538454674295726,-0.06069378308793296,0.026635242938832793,0.0852680557273276,-0.16285867042261015,-0.03610756773543078,-0.07016377971409977,-0.1016219882974262,-0.08272523525640996,-0.22780467337797752,0.2580028611627102
432,15.237324899993837,0.004820622830803046,0.11574436990175177,-0.06138313672489407,0.02648186774715609,0.08496941984869011,-0.16328594752139386,-0.03645567069289862,-0.07112171639156872,-0.1005279451829636,-0.08195956965241873,-0.2253995799164142,0.25959665701358525
433,15.241275799984578,0.004932242788928707,0.11610292209028757,-0.0620742867970759,0.02632702787578062,0.08466675601495456,-0.16370858557638918,-0.03680049625513759,-0.07206942414240002,-0.0994272241225029,-0.08117469458448734,-0.222965475743851,0.2611621600301198
434,15.245405399997251,0.005043205117796621,0.11646018637275844,-0.062767213634373,0.02617073735075831,0.0843601077256653,-0.16412655661099673,-0.03714196347352965,-0.07300678164640259,-0.09831994543722844,-0.08037073532434029,-0.22050298822252956,0.2626990312009135
435,15.249035399989223,0.005153503715126865,0.11681614599832607,-0.06346189744949075,0.026013010539210117,0.08404951898760876,-0.16453983316026985,-0.03747999194907818,-0.07393367025628204,-0.09720623087436316,-0.07954782649485573,-0.21801275463626726,0.2642069337896386
436,15.253933399973905,0.0052631325400914804,0.11717078440324034,-0.06415831834012088,0.025853862146922594,0.08373503430343479,-0.16494838827692304,-0.037814501871336476,-0.07484997403977375,-0.09608620360203414,-0.07870611258190112,-0.21549542294706558,0.26568553274482265
437,15.257748399977572,0.005372085614740857,0.11752408521291131,-0.06485645629114249,0.025693307215775424,0.08341669866008106,-0.16535219553733657,-0.03814541406286602,-0.07575557982778863,-0.09495998820016249,-0.07784574944008307,-0.21295165347123068,0.2671344973111977
438,15.26201249996666,0.005480357025418852,0.11787603224393167,-0.06555629117684839,0.025531361120962107,0.0830945575169873,-0.16575122904748793,-0.038472650030895436,-0.07665037727071705,-0.09382771063325111,-0.07696690520715546,-0.21038212062499706,0.2685535042786432
439,15.266005599987691,0.00558794092416568,0.11822660950604905,-0.06625780276319623,0.025368039567980744,0.08276865679404377,-0.16614546344872633,-0.03879613201950959,-0.07753425890133299,-0.09268949821380634,-0.07606975972680172,-0.2077875124436096,0.2699422386675448
440,15.27031429996714,0.00569483153010759,0.11857580120408659,-0.06696097071008371,0.02520335858941349,0.08243904285927363,-0.16653487392339492,-0.03911578305642847,-0.07840712018703203,-0.09154547956933137,-0.07515450346818195,-0.20516852892598716,0.27130039326089644
