,time,x,y,z,vx,vy,vz,ax,ay,az,jx,jy,jz
0,12.198313499990036,0.05631985759009533,0.07319098241205069,0.020199984626585128,0.013584836340064122,0.009289821063472039,0.010770150847161469,0.013340412545185842,0.007864017245232027,-0.0035615992228495608,-0.009975602456691022,-0.09457640415807175,0.011333136460688766
1,12.20203539999784,0.056386293967370965,0.07323639910494505,0.020252487584234598,0.013649802719954253,0.009327062320295553,0.01075290946784415,0.013291033863511692,0.00740484043722345,-0.0035077548740145652,-0.010265064973516057,-0.09364523415790549,0.010731812472825782
2,12.20703130000038,0.05645304671445239,0.07328199202506494,0.020304907065809785,0.013714524746438918,0.009362074431090005,0.010735923627199802,0.013240250290584732,0.0069502658164681125,-0.003456882639368808,-0.010551510570190329,-0.0926898698960782,0.01011479286691901
3,12.210783299989998,0.05652011462246961,0.07332775035164253,0.020357244282657845,0.013778995601247212,0.009394880136943626,0.01071917863808867,0.013188076591357602,0.006500411057436024,-0.0034090589124217557,-0.010834920103652869,-0.09171046477110383,0.00948215440568537
4,12.214519200002542,0.05658749644946337,0.07337366337625963,0.02040950037356118,0.013843208538373071,0.009425502751225008,0.010702659441574369,0.013134527625525649,0.0060553930664476105,-0.003364359701988512,-0.011115274259065085,-0.0907071805915739,0.008833978262400718
5,12.21866489999229,0.056655190920738945,0.07341972050563059,0.020461676402928074,0.013907156884540346,0.00945396615574586,0.010686350608854592,0.01307961834650771,0.00561532793911163,-0.0033228606095233207,-0.01139255416966951,-0.08968018829330993,0.008170350487565361
6,12.223042600002373,0.05672319672922203,0.07346591126436605,0.020513773358993067,0.013970834039652243,0.009480294796687666,0.010670236343305262,0.013023363798093145,0.005180330913827524,-0.0032846368041961256,-0.011666741932267558,-0.08862966813345947,0.0074913624756429605
7,12.227747999990244,0.056791512535816865,0.0735122252977161,0.020565792152027525,0.014034233477223683,0.00950451368031073,0.010654300482654429,0.01296577910839279,0.004750516327329426,-0.0032497629956718286,-0.011937821017930865,-0.08755580970536372,0.006797111204342131
8,12.232055999993465,0.05686013696976642,0.07355865237429211,0.020617733612561227,0.014097348744771714,0.009526648368447058,0.010638526501292031,0.012906879482478442,0.004325997568043439,-0.0032183134068520386,-0.012205776361662455,-0.08645881225230431,0.006087699204498869
9,12.235732499990265,0.05692906862901428,0.07360518238876594,0.020669598489615477,0.014160173464176053,0.009546724973754276,0.010622897512709771,0.012846680195458945,0.003906887028570235,-0.0031903617469482043,-0.012470594399764928,-0.08533888468253396,0.005363234433120672
10,12.239969699992798,0.05699830608056834,0.07365180536454546,0.020721387448948497,0.014222701332001939,0.00956477015474486,0.010607396272073617,0.01278519658475504,0.003493296058895668,-0.003165981185462146,-0.012732263159390866,-0.08419624565884598,0.004623830060705541
11,12.244120399991516,0.0570678478608659,0.07369851145642527,0.02077310107131364,0.01428492611978529,0.009580811110583502,0.010592005178917561,0.012722444042301658,0.0030853349179993926,-0.0031452443273344423,-0.012990772139094815,-0.08303112392711476,0.00386960414619962
12,12.249933400002192,0.05713769247614007,0.07374529095321142,0.020824739850731067,0.014346841674279472,0.009594875575644158,0.010576706279958617,0.012658438007988299,0.002683112723859714,-0.0031282231900965894,-0.013246111890630224,-0.08184375845088598,0.003100679252320967
13,12.25447549999808,0.05720783840278731,0.07379213428031904,0.020876304192773427,0.014408441917676455,0.009606991813819583,0.010561481272013519,0.012593193965941971,0.002286737403748931,-0.0031149891827729,-0.013498273705095692,-0.08063439873995443,0.0023171822887225603
14,12.260293999992427,0.057278284087736005,0.07383903200234157,0.020927794412865994,0.014469720847817308,0.009617188612593376,0.010546311505019581,0.01252672744103003,0.0018963156410320612,-0.0031056130845630134,-0.013747249508443598,-0.07940330601546995,0.001519244437400244
15,12.26447829999961,0.05734902794881603,0.07388597482559048,0.02097921073460183,0.014530672538379228,0.009625495276830404,0.010531177985159408,0.012459053996162699,0.0015119528140935597,-0.003100165024471632,-0.013993031495641819,-0.07815075413616347,0.0007070009360037645
16,12.270289799998864,0.05742006837512917,0.07393295360060394,0.021030553288072396,0.01459129113905972,0.009631941622252917,0.010516061378080518,0.012390189232365604,0.001133752934098317,-0.003098714462105393,-0.014235611839157251,-0.07687702923983447,-0.00011940922838468988
17,12.274738699998125,0.05749140372742046,0.0739799593246229,0.02108182210821415,0.01465157087576433,0.009636557968623675,0.010500942012207429,0.012320148788926797,0.0007618185874165925,-0.0031013301702905866,-0.01447498295042909,-0.07558242883217481,-0.0009598437748569934
18,12.279139999998732,0.05756303233845047,0.07402698314403322,0.021133017133171464,0.014711506050792262,0.00963937513266026,0.010485799882130888,0.012248948340917939,0.00039625088227589363,-0.0031080802203156486,-0.014711137980386224,-0.07426726126380352,-0.001814157472232771
19,12.283025700002328,0.05763495251336843,0.07407401635677263,0.02118413820267629,0.014771091042999923,0.009640424420697659,0.01047061465206396,0.012176603594457483,3.71493962887865e-05,-0.0031190319679011325,-0.014944071267529077,-0.07293184558090032,-0.0026822021054258823
20,12.289545499996166,0.057707162530086106,0.07412105041470125,0.021235185056444814,0.014830320307940318,0.009639737621090577,0.010455365659368155,0.012103130279859658,-0.0003153878754377681,-0.0031342520381140195,-0.01517377894295777,-0.07157651139096148,-0.0035638261954957667
21,12.293443499991554,0.05777966063965232,0.07416807692593441,0.021286157332591513,0.01488918837795975,0.009637346996369688,0.010440031918156715,0.012028544140994041,-0.0006612645714647057,-0.0031538063086060685,-0.015400259624822167,-0.07020159899709857,-0.0044588747716802985
22,12.297954499998012,0.05785244506662774,0.07421508765713665,0.021337054566060977,0.014947689862233384,0.009633285275144728,0.010424592122984295,0.011952860921658384,-0.0010003860172219535,-0.003177759892303717,-0.015623514904027185,-0.0688074593232641,-0.005367189401258234
23,12.302106199989794,0.05792551400945974,0.07426207453577552,0.021387876187077968,0.015005819446728984,0.009627585643741634,0.010409024652619154,0.01187609635019887,-0.001332659275441104,-0.0032061771209378163,-0.01584354962055603,-0.06739445333176193,-0.006288608421233248
24,12.306804599997122,0.05799886564085687,0.07430902965233399,0.021438621519616046,0.015063571894092407,0.009620281737613534,0.010393307573893552,0.0117982661231867,-0.0016579931936728193,-0.003239121529994209,-0.01606037202761297,-0.0659629514855606,-0.007222967263194282
25,12.310568599990802,0.05807249810816257,0.07435594526248045,0.021489289779885203,0.015120942043452061,0.00961140763251423,0.010377418645622777,0.011719385888436707,-0.0019762984494729784,-0.003276655845413317,-0.016273993754490894,-0.06451333279218674,-0.00817009870720949
26,12.314589000001432,0.05814640953372773,0.07440281378919496,0.021539880074838726,0.015177924810138703,0.009600997835468287,0.010361335322585328,0.011639471229046263,-0.002287487588590791,-0.0033188419710181117,-0.01648442945538334,-0.06304598390732549,-0.009129833038644923
27,12.319318099995144,0.058220598015281705,0.07444962782485116,0.02159039140069967,0.015234515185334153,0.00958908727557188,0.010345034759564616,0.011558537649840649,-0.0025914750614082493,-0.003365740976743874,-0.016691696234256263,-0.061561298776490025,-0.01010199822380398
28,12.323835399991369,0.05829506162630141,0.0744963801332528,0.02164082264150715,0.015290708235658835,0.009575711294607329,0.010328493815443991,0.011476600567023819,-0.002888177257631799,-0.00341741308777998,-0.016895813316379345,-0.060059678156913654,-0.011086419977049629
29,12.327423399998224,0.058369798416378314,0.07454306365162398,0.021691172567682788,0.015346499102719504,0.009560905637505446,0.0103116890573544,0.011393675297828828,-0.0031775125380666147,-0.0034739176734546132,-0.01709680217520907,-0.05854152961753191,-0.012082921742146948
30,12.33210379999946,0.05844480641158315,0.07458967149255269,0.021741439834617467,0.015401883002595805,0.009544706442650017,0.010294596764877864,0.011309777048930533,-0.003459401269308094,-0.003535313236194498,-0.01729468641277622,-0.057007267957401735,-0.013091324886541989
31,12.337810199998785,0.05852008361482788,0.07463619694588643,0.021791622981278784,0.015456855225274933,0.00952715023200165,0.010277192934302867,0.011224920907263144,-0.0037337658595988955,-0.0036016574023053044,-0.01748949164032714,-0.05545731547437191,-0.01411144910830268
32,12.348004400002536,0.058595628006224865,0.07468263348057934,0.021841720428839344,0.015511411134048587,0.00950827390105238,0.010259453282917797,0.011139121829597576,-0.004000530796142008,-0.003673006914902143,-0.01768124573221691,-0.05389210265226394,-0.015143112753636544
33,12.353730199989512,0.05867143754344299,0.07472897474648987,0.021891730479326098,0.015565546164845944,0.009488114708585425,0.01024135325333531,0.011052394630881623,-0.004259622687663013,-0.003749417627788176,-0.017869978766112536,-0.05231206898267989,-0.01618613294377406
34,12.357699799991678,0.05874751016206032,0.07477521457612796,0.02194165131429083,0.01561925582551683,0.009466710266214496,0.010222868017845502,0.010964753974400776,-0.004510970309742016,-0.003830944499623187,-0.01805572261975059,-0.050717662651091885,-0.01724032565349619
35,12.361336000001756,0.05882384377591318,0.0748213469863506,0.021991480993501972,0.01567253569506869,0.009444098527701218,0.010203972482797181,0.010876214364053071,-0.004754504644312903,-0.003917641588568431,-0.01823851043319493,-0.04910933911765939,-0.018305505524453886
36,12.36580299999332,0.058900436277441424,0.07486736618000481,0.022041217453657853,0.01572538142287439,0.009420317778109016,0.010184641293003284,0.010786790139756976,-0.004990158911147469,-0.004009562044633655,-0.018418376309922328,-0.047487559937437494,-0.019381485289801905
37,12.369657599992934,0.058977285538029764,0.0749132665475174,0.022090858507121485,0.015777788727864353,0.009395406622813338,0.010164848836196824,0.010696495472642918,-0.005217868595842757,-0.004106758098707759,-0.018595355533511222,-0.045852792058091424,-0.02046807540841697
38,12.37483390000125,0.05905438940834514,0.07495904266843066,0.022140401840677296,0.01582975339768747,0.009369403976382447,0.010144569247543348,0.010605344358346813,-0.005437571474452578,-0.004209281051336674,-0.01876948476193845,-0.044205507476215315,-0.021565083926791236
39,12.3814502999885,0.059131745718669894,0.07500468931288365,0.022189845014309952,0.015881271287837798,0.0093423490513473,0.010123776414206377,0.010513350610305726,-0.005649207638121351,-0.004317181260406434,-0.018940802064655878,-0.04254618344662382,-0.022672316142765783
40,12.385509399988225,0.05920935227923059,0.0750502014430383,0.022239185460005632,0.015932338320750018,0.00931428134684197,0.010102443979980053,0.01042052785268962,-0.005852719519757799,-0.004430508126639902,-0.019109347057327482,-0.04087530242260923,-0.02378957432173801
41,12.389474099996733,0.05928720688052237,0.07509557421444986,0.022288420480576058,0.015982950484857195,0.009285240637113262,0.010080545349996094,0.010326889512382309,-0.006048051918085845,-0.004549310078510717,-0.019275160834489262,-0.03919335135385633,-0.024916657801225466
42,12.394129099993734,0.0593653072936286,0.0751408029773809,0.02233754724850569,0.01603310383360799,0.009255266959926449,0.010058053695503645,0.010232448812570289,-0.0062351520174676565,-0.004673634558760306,-0.01943828543162328,-0.03750082068544236,-0.026053363237435585
43,12.398757999995723,0.0594436512705356,0.07518588327805863,0.02238656280482241,0.01608279448446185,0.009224400604881463,0.010034941958707792,0.01013721876997254,-0.006413969402187192,-0.004803528011717757,-0.01959876327284188,-0.03579820307328166,-0.027199484683647454
44,12.40395009999338,0.05952223654444251,0.07523081085987483,0.022435464057991912,0.016132018617879187,0.009192682101679268,0.010011182857673143,0.010041212193818632,-0.006584456063739086,-0.00493903587058165,-0.019756636797089406,-0.0340859924132056,-0.028354813746939225
45,12.40749979999964,0.05960106083006617,0.07527558166452876,0.022484247782836246,0.016180772476306605,0.009160152208366915,0.00998674889128644,0.009944441686725895,-0.006746566405638362,-0.00508020254626921,-0.01991194793522978,-0.032364683601863196,-0.029519139804950183
46,12.411528999989969,0.05968012182394107,0.07532019183311237,0.022532910619476633,0.016229052363175643,0.009126851899556993,0.009961612344268947,0.009846919648779885,-0.006900257248376286,-0.005227071416813213,-0.020064737722109385,-0.030634772208071648,-0.030692250009560926
47,12.415308099996764,0.05975941720471446,0.0753646377071382,0.0225814490723009,0.016276854641927806,0.009092822354624325,0.009935745292242518,0.00974865828219689,-0.007045487831023248,-0.0053796848162470465,-0.020215046146827453,-0.028896753920225143,-0.03187392918229308
48,12.41914449998876,0.0598389446334368,0.0754089158295095,0.02262985950895575,0.01632417573505881,0.009058104945909777,0.009909119606850442,0.009649669596865388,-0.007182219810792666,-0.005538084022980971,-0.020362912078032924,-0.027151124531281618,-0.03306395963513523
49,12.422794300000533,0.05991870175384754,0.07545302294543299,0.02267813815936415,0.016371012123197675,0.00902274122692121,0.009881706960936938,0.009549965415737483,-0.0073104172644973715,-0.005702309246938875,-0.020508373421017113,-0.025398380073134684,-0.03426212082686113
50,12.426546599992434,0.05999868619265656,0.07549695600327386,0.02272628111476814,0.01641736034420359,0.00898677292052308,0.009853478833793502,0.009449557378837512,-0.007430046689424658,-0.00587239961458103,-0.02065146719966642,-0.02363901684662136,-0.035468188967202996
51,12.431244299994432,0.06007889555982118,0.07554071215535325,0.02277428432679742,0.016463216992284122,0.00895024190712885,0.009824406516484549,0.009348456947853821,-0.007541077005085473,-0.006048393152178534,-0.020792229601355842,-0.021873531705242387,-0.03668193662109733
52,12.435440599991123,0.06015932744881898,0.0755842887586881,0.022822143606564125,0.016508578717136863,0.008913190212873522,0.009794461117256964,0.009246675409709323,-0.007643479556857888,-0.006230326766974459,-0.020930696342841833,-0.020102422324142076,-0.03790313214463403
53,12.439913800000795,0.060239979436916405,0.07562768337567317,0.022869854623784186,0.0165534422231025,0.008875659997770497,0.009763613567049563,0.00914422387758304,-0.007737228120360887,-0.006418236224954523,-0.02106690290190801,-0.018326187543626048,-0.03913153915478512
54,12.44373449998966,0.06032084908543335,0.07567089377470536,0.02291741290592587,0.01659780426831643,0.00883769354384143,0.009731834625119548,0.009041113292220357,-0.00782229890844974,-0.006612156126834065,-0.02120088412155764,-0.016545327727637185,-0.04036691633906138
55,12.448382399990804,0.0604019339400035,0.0757139179307499,0.02296481383738605,0.0166416616638746,0.008799333243204836,0.009699094884786279,0.008937354426816696,-0.00789867057908765,-0.006812119883971428,-0.021332673716874386,-0.014760344554664406,-0.04160901748900112
56,12.45284269998956,0.06048323153083073,0.07575675402584842,0.023012052658694774,0.01668501127303279,0.008760621586129128,0.009665364779292755,0.008832957893139615,-0.007966324240300903,-0.007018159694681707,-0.021462304043593287,-0.012971740733913476,-0.04285759143672799
57,12.457861399991089,0.060564739372941684,0.07579940044956861,0.02305912446574874,0.016727850010432185,0.008721601149072878,0.009630614587780504,0.008727934148670664,-0.008025243455281028,-0.00723030651953108,-0.021589805806873873,-0.011180020304185533,-0.04411238180839941
58,12.46641880000243,0.06064645496643459,0.07584185579939555,0.02310602420907416,0.01677017484136834,0.008682314582688075,0.009594814441392138,0.008622293505569166,-0.008075414250256275,-0.007448590055244818,-0.021715207672779773,-0.009385688603796728,-0.04537312696083856
59,12.472760399992694,0.06072837579672468,0.07588411888106435,0.02315274669311979,0.016811982781104216,0.00864280459978357,0.009557934329500835,0.00851604614160509,-0.008116825119300269,-0.007673038709383293,-0.02183853552880696,-0.0075892516431944924,-0.04663956004503005
60,12.477631000001566,0.06081049933478637,0.07592618870883398,0.02319928657558057,0.016853270894245837,0.008603113963281419,0.009519944106059991,0.008409202116338289,-0.008149467026081733,-0.007903679574869548,-0.021959811767076558,-0.005791216000611763,-0.047911409091845054
61,12.482022099997266,0.06089282303739253,0.07596806450570245,0.023245638366752606,0.01689403629421319,0.008563285474163252,0.009480813496081257,0.008301771389045684,-0.00817333340765498,-0.008140538405501784,-0.022079055612876573,-0.003992088612776097,-0.04918839756113279
62,12.486467800001265,0.06097534434735152,0.076009745703563,0.023291796428920042,0.016934276142790795,0.008523361959389632,0.009440512102223127,0.008193763831694727,-0.008188420174167469,-0.008383639595838733,-0.022196283699717424,-0.002192376012991174,-0.05047024512229737
63,12.490555799988217,0.06105806069374209,0.07605123194330138,0.023337754975774307,0.01697398764972521,0.008483386259849278,0.009399009411465247,0.008085189241259429,-0.008194725705215799,-0.008633006164328686,-0.022311510024437372,-0.00039258445080348555,-0.05175666801271938
64,12.49431929999264,0.061140969492146445,0.07609252307483448,0.02338350807186612,0.017013168072395776,0.008443401218313978,0.009356274801861622,0.007976057353131888,-0.008192250850720931,-0.008888659736692206,-0.022424746298483088,0.0014067798690250172,-0.05304737899655998
65,12.50007939999341,0.06122406814488198,0.07613361915709009,0.023429049632090644,0.017051814715542974,0.008403449667379274,0.009312277549377067,0.007866377850010669,-0.008180998929615982,-0.009150620528649175,-0.022536002679764956,0.00320521133927095,-0.054342087084922705
66,12.50590759998886,0.061307354041231686,0.07617452045792784,0.023474373421206177,0.01708992493102591,0.008363574417432178,0.009266986834808963,0.0077561603681711834,-0.00816097572532789,-0.009418907326570962,-0.022645288332626294,0.005002205069754398,-0.05564049708764328
67,12.512712399999144,0.06139082455767349,0.07621522745400156,0.02351947305338686,0.01712749611761185,0.008323818244635947,0.00922037175081249,0.007645414500890128,-0.008132189483299142,-0.009693537465834028,-0.022752611921202807,0.006797256723068498,-0.05694230929196489
68,12.516425699999672,0.06147447705810862,0.07625574083056295,0.023564341991809918,0.017164525720767123,0.008284223878921979,0.009172401309033601,0.007534149799901866,-0.008094650908072312,-0.009974526808336732,-0.022857981751098856,0.008589862813166675,-0.05824721931322624
69,12.520404900002177,0.061558308894088934,0.07629606148120684,0.02360897354827796,0.01720101123246087,0.008244833992003035,0.009123044447353639,0.007422375777440443,-0.0080483731578983,-0.010261889719396015,-0.022961405993346885,0.010379521213369282,-0.05955491821824542
70,12.527085699999589,0.061642317405043334,0.07633619050755784,0.023653360882876916,0.017236950190975854,0.008205691185417748,0.00907227003724774,0.007310101905510672,-0.007993371836863957,-0.010555639046468135,-0.02306289301313072,0.012165731634434957,-0.06086509298458979
71,12.532588199988822,0.06172649991850325,0.07637612921889894,0.023697497003670135,0.01727234018070512,0.00816683797862066,0.009020046891237088,0.007197337614722597,-0.007929664984835497,-0.010855786100526718,-0.023162451422367045,0.01394799608749099,-0.06217742690370861
72,12.538880699998115,0.0618108537503271,0.07641587913174201,0.02374137476642904,0.017307178831951427,0.008128316797124856,0.00896634377042902,0.007084092293049514,-0.00785727306506904,-0.011162340638717091,-0.023260090280999964,0.015725819377209575,-0.06349159995465828
73,12.545912799992948,0.06189537620492378,0.07645544196934062,0.0237849868744008,0.01734146382071177,0.008090169960712896,0.008911129392138537,0.0069703752826982815,-0.007776218949341811,-0.01147531084938099,-0.023355819179099253,0.01749870959454625,-0.06480728932309662
74,12.549787600000856,0.06198006457547506,0.07649481966114556,0.023828325878113343,0.017375192868446295,0.008052439671724532,0.008854372437574526,0.0068561958780662645,-0.007686527900754753,-0.011794703339775026,-0.023449648229790218,0.019266178594756073,-0.06612416988296213
75,12.557211099992855,0.06206491614415678,0.07653401434220336,0.02387138417521804,0.017408363741842882,0.008015168003435443,0.008796041559581112,0.006741563322680633,-0.007588227554199436,-0.012120523125795419,-0.02354158837513046,0.0210277423412029,-0.0674419145700164
76,12.561291599995457,0.062149928182358975,0.07657302835249842,0.023914154010370253,0.017440974252556186,0.007978396888535548,0.008736105390424144,0.006626486804170682,-0.007481347895805921,-0.012452773623341335,-0.023631651386291367,0.02278292092008126,-0.06876019464692627
77,12.565245399993728,0.062235097950904525,0.0766118642362391,0.023956627475147985,0.01747302225692317,0.007942168107708283,0.008674532549616816,0.006510975451205365,-0.007365921243266024,-0.012791456640626185,-0.023719849646959706,0.024531238301389546,-0.07007867983410068
78,12.569037499997648,0.06232042270026648,0.07665052474108841,0.023998796508008798,0.017504505655672267,0.007906523278300909,0.008611291651781181,0.006395038330579088,-0.0072419822276135,-0.013136572370817612,-0.02380619625770179,0.02627222201049889,-0.07139703835436534
79,12.57335449999664,0.062405899670783894,0.07668901281733956,0.02404065289428517,0.017535422393610462,0.00787150384308157,0.008546351314545583,0.0062786844431309006,-0.0071095677767520045,-0.013488119384784702,-0.02389070489421299,0.02800540269483835,-0.07271493691051653
80,12.577939499999047,0.0624915260928761,0.07672733161703693,0.024082188266218472,0.017565770459292647,0.00783715105907033,0.008479680166476941,0.006161922722213435,-0.006968717101463383,-0.01384609462351896,-0.023973389628252025,0.02973031394448383,-0.07403204071908207
81,12.58400659999461,0.06257729918725531,0.07676548449304266,0.024123394103031725,0.01759554788469377,0.007803505986432758,0.00841124685505214,0.006044762031359345,-0.00681947168068625,-0.014210493391210942,-0.024054265420270345,0.031446492874985396,-0.07534801377545726
82,12.594281699988642,0.06266321616513768,0.07680347499804922,0.02416426173104136,0.0176247527448554,0.007770609477454604,0.008341020054657861,0.005927211157943371,-0.006661875241837295,-0.014581309350258313,-0.024133348694468204,0.03315348096380453,-0.07666251922728397
83,12.60008019999077,0.06274927422845246,0.07684130688353845,0.024204782323808027,0.017653383157496053,0.007738502165627405,0.008268968474610689,0.005809278805237619,-0.00649597373792825,-0.014958534517985764,-0.024210657742510553,0.03485082443863469,-0.07797521987108916
84,12.604217999993123,0.06283547057004929,0.07687898409868761,0.024244946902326623,0.017681437282580224,0.007707224454846449,0.00819506086718895,0.005690973582134335,-0.006321815324098124,-0.015342159266499065,-0.024286212984727065,0.03653807472564725,-0.07928577875742188
85,12.608228699988103,0.06292180237390313,0.07691651078922301,0.02428474633525547,0.017708913321828435,0.00767681650872536,0.008119266035654231,0.005572303992652502,-0.006139450330356373,-0.01573217232530965,-0.024360036701113953,0.03821478894240234,-0.08059385974719581
86,12.612415399999009,0.06300826681531674,0.07695389129622185,0.0243241713391846,0.01773580951818388,0.007647318240060028,0.008041552842257622,0.005453278428285385,-0.005948931233305515,-0.016128560786617233,-0.024432152508715086,0.039880529658804266,-0.08189912801581674
87,12.617301999998745,0.06309486106112044,0.07699113015486296,0.02436321247894307,0.017762124155247794,0.007618769300419113,0.007961890216209681,0.005333905162606631,-0.005750312631216798,-0.016531310112853467,-0.02450258505527294,0.04153486482244565,-0.08320125038943872
88,12.62088319999748,0.0631815822698691,0.07702823209312713,0.02440186016794502,0.01778785555669348,0.007591209069851178,0.007880247161613072,0.005214192346607038,-0.005543651216481276,-0.0169404041452456,-0.024571360064012893,0.043177368610122606,-0.08449989570333911
89,12.625185899989448,0.06326842759203613,0.07706520203044742,0.024440104668574367,0.01781300208565617,0.007564676646743999,0.007796592765348969,0.005094148002863666,-0.005329005742376742,-0.01735582511485701,-0.024638504528012757,0.044807622324024785,-0.08579473532474867
90,12.631038899999112,0.06335539417020454,0.0771020450763105,0.02447793609260783,0.01783756214409015,0.007539210837855975,0.007710896204901962,0.004973780018980034,-0.005106436986774156,-0.017777553656252432,-0.02470404688919542,0.04642521527312208,-0.08708544386623304
91,12.638271799994982,0.06344247913925469,0.07713876652880969,0.024515344401675986,0.01786153417209462,0.007514850148529579,0.007623126756113127,0.004853096140008695,-0.004876007710304371,-0.018205568825499358,-0.024768017606169174,0.04802974607277964,-0.08837170020514724
92,12.644826499992632,0.06352967962654871,0.07717537187315086,0.024552319407761928,0.017884916647196887,0.007491632773130955,0.007533253800829277,0.004732103956350676,-0.004637782607383452,-0.018639848123780684,-0.024830449856421796,0.04962082372028617,-0.0896531883575257
93,12.64867179999419,0.0636169927521113,0.07721186678011217,0.02458885077373697,0.01790770808356014,0.007469596585741245,0.007441246834425632,0.004610810889326338,-0.004391828253884846,-0.019080367523923177,-0.02489137977489183,0.05119806781894945,-0.09092959776938382
94,12.653268599999135,0.06370441562880642,0.07724825710445908,0.024624928013932703,0.017929907031125854,0.007448779131106779,0.007347075473196215,0.004489224176746937,-0.004138213055978069,-0.01952710149685251,-0.024950846484249944,0.05276110810003403,-0.09220062300672265
95,12.65720390000206,0.0637919453625097,0.07728454888331583,0.024660540494748816,0.01795151207468079,0.007429217615829617,0.007250709461618383,0.004367350858190009,-0.0038770072024656103,-0.019980023035096925,-0.02500889197537643,0.05430958343685627,-0.09346596303852218
96,12.660603500000434,0.06387957905227604,0.07732074833449451,0.024695677435296038,0.017972521832855703,0.007410948899782809,0.00715211867951389,0.004245197761737184,-0.0036082826232416688,-0.020439103672246023,-0.02506556104734518,0.0558431408140858,-0.09472532066539371
97,12.664948599995114,0.06396731379050222,0.07735686185478274,0.024730327908073824,0.01799293495706295,0.007394009487706283,0.007051273149123543,0.004122771489835178,-0.0033321129516861894,-0.020904313500879443,-0.025120901352426454,0.05736143525308961,-0.0959784024037928
98,12.671256699992227,0.06405514666308418,0.07739289601819076,0.02476448083968234,0.018012750130357226,0.007378435520989052,0.00694814304209332,0.004000078405594496,-0.003048573483852063,-0.02137562119089585,-0.025174963276528378,0.05886413020023399,-0.09722491886686113
99,12.677224699989893,0.06414307474956851,0.07742885757415889,0.02479812501156831,0.018031966066239486,0.0073642627696633295,0.006842698686370188,0.0038771246198170215,-0.00275774113707027,-0.021852994011157714,-0.025227799954246292,0.060350897691246186,-0.09846458566454978
100,12.68126779999875,0.06423109512329803,0.07746475344572654,0.02483124906080429,0.018050581507391104,0.007351526624590652,0.006734910572977016,0.003753915977147872,-0.002459694407533307,-0.022336397856603334,-0.02527946714930395,0.061821418978652315,-0.09969712424387572
101,12.686142599995948,0.06431920485155092,0.07750059072766341,0.02486384148090062,0.01806859522434266,0.007340262089869883,0.006624749362643845,0.0036304580442696006,-0.0021545133227780537,-0.022825797278090487,-0.02533002271655725,0.06327538524871132,-0.10092226243031789
102,12.6970610999997,0.06440740099567334,0.07753637668456441,0.024895890622649405,0.01808600601409291,0.007330503775486984,0.0065121858922915984,0.0035067561013035907,-0.0018422793922736535,-0.02332115551479116,-0.025379526004673168,0.0647124979949499,-0.10213973519351414
103,12.704387699996005,0.0644956806112051,0.07757211874890917,0.024927384694999735,0.018102812698693672,0.007322285890205159,0.006397191181347259,0.003382815135832671,-0.0015230755562595792,-0.023822434531506575,-0.025428037318607436,0.06613246958578453,-0.1033492855210972
104,12.710906699998304,0.06458404074799842,0.07760782451908753,0.02495831176596328,0.018119014123810475,0.007315642234713848,0.006279736437863476,0.003258639839547432,-0.0011969861307948968,-0.024329595059588434,-0.025475617680122267,0.06753502369768993,-0.10455066481074143
105,12.71568280000065,0.0646724784503296,0.07764350175739226,0.024988659763549224,0.01813460915727471,0.007310606195055055,0.006159793064434444,0.003134234604605607,-0.0008640967523696493,-0.024842596638079376,-0.025522328887766024,0.06891989470275617,-0.10574363245948526
106,12.719748699993945,0.06476099075700362,0.0776791583879804,0.02501841647672759,0.018149596687608762,0.007307210736312801,0.0060373326639140855,0.0030096035196931345,-0.0005244943289300862,-0.025361397650627008,-0.02556823318836909,0.07028682605540036,-0.10692795457155092
107,12.72374879999552,0.06484957470145143,0.07771480249480434,0.025047569556419968,0.018163975622539727,0.007305488396517328,0.005912327044971735,0.0028847503695889455,-0.0001782670002318469,-0.025885955354015795,-0.025613393097432137,0.07163556854464305,-0.10810340240098164
108,12.727548499999102,0.06493822731182008,0.07775044231951374,0.025076106516517045,0.018177744887520296,0.007305471280721408,0.005784748227531916,0.002759678632978602,0.00017449589408124715,-0.02641622589988499,-0.025657871952208755,0.07296587908405315,-0.1092697513172909
109,12.731634299998404,0.06502694561105554,0.07778608625932883,0.02510401473492242,0.01819090342422114,0.007307191055216022,0.005654568448118117,0.0026343914766223343,0.0005337038423167921,-0.026952164353167763,-0.0257017340759031,0.07427751996487873,-0.11042678018176855
110,12.735504700001911,0.0651157266169781,0.07782174286488582,0.025131281454622265,0.018203450188994882,0.007310678941878317,0.005521760165112641,0.0025088917515665057,0.0008992651853673691,-0.027493724707723377,-0.025745044433933592,0.07557025837805761,-0.11157427083205722
111,12.74008319999848,0.06520456734235026,0.07785742083805508,0.025157893784780477,0.018215384151331525,0.007315965712627648,0.005386296063947853,0.0023831819906656873,0.0012710871398861209,-0.028040859899747028,-0.02578786867879029,0.07684386647396944,-0.11271200780213256
112,12.743795199989108,0.06529346479493703,0.07789312902973249,0.025183838701858988,0.01822670429229824,0.0073230816839996715,0.00524814906223518,0.0022572644043564226,0.0016490758235033558,-0.028593521820669713,-0.0258302731204093,0.07809812133251866,-0.11383977829243118
113,12.748225699993782,0.06538241597755856,0.07792887643760461,0.025209103050762953,0.018237409602953555,0.007332056711848445,0.005107292314830488,0.0021311408784683763,0.002033136277710206,-0.02915166133027658,-0.025872324188285587,0.0793328045299386,-0.11495737214741276
114,12.753186499990989,0.06547141788813504,0.07796467220388839,0.025233673546010502,0.018247499082765784,0.0073429201861438045,0.00496369921883508,0.0020048129752465796,0.002423172488848285,-0.02971522826938786,-0.025914088072687125,0.08054770225835052,-0.11606458188165142
115,12.757870000001276,0.06556046751972386,0.07800052561304556,0.02525753677292672,0.018256971738037194,0.007355701025878275,0.004817343418537331,0.001878281934663463,0.0028190874121599542,-0.030284171473231807,-0.02595563059052018,0.08174260566928092,-0.11716120294883334
116,12.76266159999068,0.0656495618605491,0.0780364460894726,0.02528067918886161,0.01826582658033524,0.007370427674099123,0.004668198810283206,0.0017515486767499327,0.0032207829961298793,-0.0308584387867504,-0.02599701672217988,0.0829173108587215,-0.11824703399193423
117,12.769648999994388,0.06573869789402344,0.07807244319516675,0.02530308712443161,0.01827406262493947,0.0073871280930527744,0.004516239547268548,0.0016246138074266232,0.003628160206389518,-0.031437977080413404,-0.02603830999910728,0.08407161903148155,-0.1193218770970774
118,12.77393869998923,0.06582787259876247,0.0781085266273685,0.025324746784784306,0.018281678889329658,0.007405829759450125,0.004361440044255284,0.0014974776268109388,0.00404111905166236,-0.03202273226800112,-0.02607957256355068,0.08520533706883697,-0.12038553820443681
119,12.78140139998868,0.06591708294859183,0.07814470621618146,0.025345644250885972,0.018288674391713774,0.00742655965986412,0.004203774982190197,0.00137014013446518,0.004459558613207299,-0.032612649326427864,-0.02612086525795216,0.08631827782724577,-0.12143782720528404
120,12.7853749999922,0.06600632591254721,0.07818099192216993,0.02536576548083136,0.018295048149567325,0.007449344286282355,0.004043219312727706,0.0012426010368313883,0.004883377073678613,-0.033207672314471665,-0.026162246848416428,0.0874102595856843,-0.12247855751252225
121,12.789427299998351,0.06609559845486718,0.07821739383393536,0.025385096311175352,0.01830079917823386,0.007474209631786264,0.0038797482626658827,0.0011148597600565417,0.005312471741176673,-0.03380774438840719,-0.02620377399501249,0.08848110546305714,-0.12350754531381013
122,12.793741599991336,0.06618489753497954,0.0782539221656718,0.025403622458286052,0.01830592648958947,0.007501181186338398,0.003713337338316685,0.0009869154577171837,0.005746739072423252,-0.03441280781344773,-0.026245501938590127,0.08953064295505733,-0.12452460879848481
123,12.797887799999444,0.06627422010748117,0.07829058725470119,0.025421329519719076,0.01831042909071865,0.007530283932687746,0.003543962329830332,0.0008587670169429482,0.0061860746922931045,-0.03502280397183477,-0.026287484231781556,0.09055870306785672,-0.12552956754138367
124,12.802325700002257,0.06636356312211142,0.07832739955898889,0.025438202975612834,0.018314305982638564,0.007561542342347595,0.003371599315486605,0.0007304130687659625,0.006630373408536187,-0.03563767336826756,-0.026329772455573105,0.09156511991477233,-0.12652224210700463
125,12.806748299990431,0.0664529235237195,0.07836436965463975,0.025454228190104698,0.018317556159075887,0.007594980371644504,0.0031962246659662376,0.0006018519970099489,0.007079529227373672,-0.036257355634130226,-0.026372416353731432,0.09254973089540397,-0.12750245384781625
126,12.81240070000058,0.06654229825222595,0.07840150823337505,0.025469390412767964,0.0183201786052778,0.007630621457848343,0.003017815048600974,0.00047308194732795196,0.007533435369968124,-0.03688178953095336,-0.026415463593430746,0.09351237681523909,-0.12847002478102112
127,12.820761900002251,0.06663168424257845,0.07843882609999081,0.025483674780069486,0.01832217229687703,0.00766848851538198,0.002836347431611182,0.00034410083842714077,0.007991984289186562,-0.03751091295343865,-0.026458959257574098,0.09445290218445872,-0.12942477777156272
128,12.829480899992632,0.06672107842470221,0.07847633416979777,0.025497066316847988,0.018323536198812367,0.007708603932114883,0.0026517990883263972,0.00021490637606025472,0.008455067688986266,-0.038144662934706114,-0.02650294511286449,0.09537115596471525,-0.13036653683461713
129,12.83371539998916,0.06681047772344519,0.0785140434660435,0.025509549937812882,0.01832426926433022,0.007750989565761965,0.0024641476013717357,8.549607139226521e-05,0.008922576548464584,-0.03878297565227038,-0.026547459086930722,0.09626699222645141,-0.13129512701607818
130,12.838034399988828,0.0668998790585188,0.07855196511731728,0.02552111044906343,0.01832437043408436,0.0077956667404118565,0.002273370866830125,-4.413273990618952e-05,0.009394401147658585,-0.03942578643212174,-0.0265925356418714,0.09714027010417017,-0.13221037400416605
131,12.843723500001945,0.06698927934443435,0.07859011035493832,0.025531732549628167,0.018323838635323768,0.007842656243177494,0.0020794470983888946,-0.00017398288293702985,0.009870431091158413,-0.04007302975091262,-0.026638206461217184,0.09799085345271719,-0.13311210364023612
132,12.847848099991095,0.06707867549043581,0.07862849051032793,0.025541400833024537,0.01832267278113604,0.007891978320954798,0.0018823548314806733,-0.0003040573311843939,0.010350555330553079,-0.040724639235265356,-0.02668450061427415,0.09881861074278012,-0.13400014133989266
133,12.852080399999975,0.06716806440042883,0.07866711701236614,0.025550099788838716,0.018320871769756136,0.007943652677292282,0.0016820729274367337,-0.00043435919339645694,0.010834662187024146,-0.04138054765831012,-0.02673144489982352,0.09962341501620438,-0.13487431162245966
134,12.856112399997071,0.0672574429729068,0.07870600138473335,0.025557813804325764,0.01831843448393777,0.007997698469370188,0.0014785805776616702,-0.0005648917045487704,0.01132263937335551,-0.042040686934401446,-0.026779064608040606,0.10040514378116575,-0.135734437808499
135,12.860310899995966,0.06734680810087376,0.07874515524323743,0.0255645271660302,0.01831535979035035,0.008054134305084856,0.0012718573078382986,-0.0006956582201605709,0.011814374015504222,-0.04270498811270469,-0.026827383699559712,0.1011636788629305,-0.13658034186293538
136,12.86517439999443,0.06743615667176453,0.0787845902931269,0.02557022406142717,0.018311646539005823,0.008112978240238345,0.0010618829821649144,-0.0008266622090053606,0.012309752673154045,-0.04337338137038183,-0.026876424641057998,0.10189890607533364,-0.1374118443166461
137,12.86886579998827,0.06752548556736204,0.07882431832639068,0.02557488858058438,0.018307293562726742,0.008174247775823349,0.0008486378076266824,-0.0009579072458229111,0.012808661358080701,-0.044045796005412814,-0.026926208465271738,0.10261071510109204,-0.13822876416188676
138,12.873845699999949,0.06761479166371227,0.07886435121904475,0.025578504717844928,0.01830229967664422,0.008237959855392022,0.0006321023383029413,-0.0010893970046154584,0.013310985553537574,-0.044722160428760975,-0.026976754770887002,0.10329899986527483,-0.13903091873279957
139,12.882015999988653,0.0677040718310367,0.0789047009284062,0.025581056373531273,0.01829666367773142,0.008304130862530052,0.0004122574797150401,-0.0012211352513586396,0.013816610236265122,-0.04540240215602844,-0.02702808164783816,0.1039636590283165,-0.13981812363445578
140,12.887684199988144,0.06779332293364267,0.07894537949035522,0.0255825273556705,0.018290384344372624,0.008372776618440242,0.00018908449321506572,-0.0013531258365687814,0.014325419900687199,-0.04608644779892917,-0.027080205363743774,0.1046045966583113,-0.14059019275030749
141,12.893060799993693,0.06788254182983162,0.07898639901658568,0.0255829013817411,0.018283460435969248,0.008443912379652682,-3.743499958311786e-05,-0.0014853726849542088,0.01483729858748044,-0.046774223057017054,-0.027133139810896847,0.10522172293293416,-0.1413469384961513
142,12.897537199998624,0.06797172537180567,0.07902777169184468,0.025582162080441468,0.018275890692609896,0.008517552835887102,-0.000267319012334429,-0.0016178797825864926,0.015352129914619634,-0.04746565271163705,-0.027186896282378928,0.10581495437848593,-0.14208817239150648
143,12.905052699992666,0.06806087040557256,0.07906950977116226,0.02558029299348031,0.01826767383480155,0.00859371210806597,-0.0005005851894725056,-0.0017506511643671724,0.015869797108279616,-0.04816066062322855,-0.027241483128542566,0.10638421364591566,-0.14281370545546213
144,12.910410099997534,0.06814997377084962,0.07911162557707166,0.025577277577388945,0.01825880856326191,0.008672403746478367,-0.0007372508017139532,-0.0018836908978471026,0.016390183031695156,-0.048859169729139014,-0.02729690539851695,0.10692942931650584,-0.14352334812452489
145,12.915379899990512,0.06823903230096677,0.07915413149682103,0.02557309920535557,0.018249293558808485,0.0087536407290747,-0.0009773327415469476,-0.002017003067195135,0.016913170214166807,-0.04956110204012573,-0.027353165527243015,0.10745053596174384,-0.14421691002108697
146,12.919910399999935,0.06832804282276929,0.07919703997957708,0.025567741169081604,0.018239127482307348,0.008837435459913594,-0.001220847518701349,-0.00215059176372127,0.017438640880505,-0.050266378635910276,-0.02741026408223359,0.10794747344118112,-0.14489419969947023
147,12.924410499996156,0.06841700215652037,0.07924036353362163,0.025561186680660132,0.018228308974654692,0.00892379976774391,-0.0014678112555939267,-0.002284461077131915,0.017966476973184688,-0.05097491965920227,-0.027468199883460085,0.10842018585672193,-0.14555502442184615
148,12.92854229999648,0.06850590711580373,0.07928411472354141,0.0255534188744767,0.018216836656810932,0.009012744904667816,-0.00171823968274016,-0.0024186150872228386,0.01849656017158582,-0.05168664430906734,-0.027526970331674557,0.10886862161245842,-0.1461991899827315
149,12.93404659999942,0.06859475450742647,0.0793283061674116,0.02554442080913254,0.018204709129863304,0.009104281544910543,-0.0019721481341347497,-0.0025530578583380635,0.019028771914731842,-0.052401470833238394,-0.027586571826811207,0.1092927335938611,-0.1468265005073345
150,12.939466700001503,0.06868354113132229,0.07937295053397361,0.025534175469390425,0.018191924975114033,0.009198419783705331,-0.0022295515425883954,-0.002687793435145407,0.01956299342227863,-0.05311931651951593,-0.027646999992090755,0.10969247883913098,-0.147436758384297
151,12.944142299995292,0.06877226378045521,0.07941806053980772,0.0255226657681434,0.018178482754184162,0.009295169136267984,-0.0024904644350243954,-0.002822825839282091,0.020099105714046175,-0.05384009768742303,-0.027708249733599654,0.1100678187783342,-0.14802976441882962
152,12.94902980000188,0.06886091924072385,0.07946364894650089,0.025509874548406534,0.018164381009134447,0.0093945385368724,-0.0027549009277339966,-0.0029581590657116333,0.02063698963334091,-0.0545637296810999,-0.027770315106009403,0.11041871968146422,-0.14860531830702542
153,12.953693899995416,0.06894950429086626,0.07950972855781033,0.025495784585331947,0.01814961826260473,0.009496536338052693,-0.0030228747216036623,-0.003093797078059201,0.021176525870859383,-0.05529012686558701,-0.027833188729904593,0.11074515238946413,-0.14916321937149238
154,12.958020399993984,0.06903801570236556,0.07955631221682356,0.02548037858824713,0.01813419301798035,0.00960117030991197,-0.0032943990973341546,-0.003229743799283032,0.02171759498538602,-0.05601920262689764,-0.027896860970321985,0.11104709219483097,-0.14970326734564227
155,12.96294859999034,0.06912645023935649,0.07960341280311527,0.02546363920271662,0.01811810375962255,0.009708447639526408,-0.0035694869106685095,-0.00336600309899431,0.022260077426531785,-0.05675086937595382,-0.02796131951834905,0.111324519065682,-0.15022526306085937
156,12.966668799999752,0.06921480465853318,0.07965104322990148,0.025445549012626894,0.018101348953158604,0.009818374930475906,-0.0038481505876495257,-0.0035025787800459997,0.022803853557618284,-0.05748503855536392,-0.028026549032520012,0.11157741754117537,-0.15072900894311766
157,12.970663300002345,0.06930307570905858,0.07969921644119186,0.025426090542294305,0.01808392704584309,0.00993095820247146,-0.004130402119913871,-0.0036394745623536135,0.023348803677395988,-0.058221620648204395,-0.028092530944956562,0.11180577679125138,-0.1512143093454061
158,12.975297999990287,0.0693912601324758,0.07974794540894031,0.0254052462585959,0.018065836467005887,0.01004620289109773,-0.0044162530600352625,-0.0037766940675924457,0.02389480804351126,-0.05896052518804109,-0.02815924367031364,0.11200959048220573,-0.15168097060377764
159,12.979363999998895,0.06947935466262184,0.07979724313019468,0.025382998573122807,0.018047075628562764,0.010164113847669392,-0.004705714516916353,-0.003914240805057147,0.02444174689291291,-0.059701660768257836,-0.02822666287437644,0.11218885640320293,-0.152128800839337
160,12.983304099994712,0.06956735602554392,0.07984712262424597,0.025359329844355995,0.018027642925601356,0.010284695339172832,-0.004998797151222938,-0.0040521181589798175,0.024989500461674884,-0.06044493505014564,-0.028294762236380527,0.11234357649611738,-0.15255760975662663
161,12.987211499988916,0.06965526093941898,0.07989759692977752,0.025334222379864227,0.018007536737015495,0.010407951048315916,-0.005295511170854774,-0.004190329381827985,0.025537949005693995,-0.061190254770264046,-0.0283635143003536,0.11247375685571681,-0.15296720853532544
162,12.994341999990866,0.06974306611447617,0.07994867910201468,0.025307658438524016,0.017986755426156586,0.010533884073671639,-0.005595866326451612,-0.004328877589929736,0.02608697282051441,-0.06193752574747353,-0.028432890952877293,0.11257940763991184,-0.15335740975927611
163,12.997997599988594,0.06983076825292267,0.08000038220987539,0.025279620232761417,0.01796529734151062,0.01066249692992134,-0.005899871906932638,-0.004467765761433502,0.02663645226114963,-0.06268665288960434,-0.02850286391626297,0.11266054300986557,-0.15372802738290267
164,13.002176199996027,0.06991836404887285,0.0800527193331222,0.025250089930815515,0.017943160817369463,0.010793791548191767,-0.006207536735067574,-0.004606996736745389,0.027186267761322592,-0.06343754020016126,-0.02857340495760617,0.11271718108541146,-0.15407887683199173
165,13.006114799994975,0.0700058501882806,0.0801057035595162,0.02521904965902343,0.0179203441745036,0.010927769276486024,-0.006518869163081547,-0.0047465732185288335,0.027736299852852628,-0.06419009078597578,-0.028644485829208036,0.11274934379557669,-0.15440977525025254
166,13.010693299991544,0.07009322334887505,0.08015934798197319,0.025186481504126692,0.017896845720833426,0.011064430880209806,-0.006833877068300851,-0.0048864977715605915,0.02828642918343704,-0.06494420686631666,-0.02871607783516067,0.11275705650511017,-0.15472054170463187
167,13.014411800002565,0.0701804802000995,0.08021366569572276,0.025152367515598732,0.017872663752103394,0.011203776542775858,-0.007152567848846714,-0.005026772818501308,0.02883653653239389,-0.06569978978254558,-0.028788151248639152,0.11274034780542858,-0.15501099731229803
168,13.018570999993244,0.07026761740305365,0.0802686697954704,0.025116689707993276,0.01784779655259458,0.011345805866283813,-0.0074749484193752805,-0.005167400634065688,0.02938650282640368,-0.06645674000846669,-0.028860675222660195,0.11269924949953086,-0.1552809655842942
169,13.022654100001091,0.07035463161043952,0.08032437337256314,0.025079430063313403,0.017822242395855715,0.011490517872278255,-0.00780102520687236,-0.005308383339922283,0.02993620915510497,-0.06721495716333546,-0.02893361758088194,0.11263379679633004,-0.1555302729333408
170,13.027129900001457,0.07044151946651082,0.0803807895121591,0.02504057053340097,0.01779599954546551,0.011637911002580738,-0.008130804146520346,-0.005449722896822374,0.030485536788732264,-0.06797434002716325,-0.02900694441396045,0.11254402851979986,-0.1557587489688755
171,13.03127749999112,0.07052827760702629,0.08043793129040126,0.025000093042346006,0.017769066255840495,0.011787983120219945,-0.008464290677642301,-0.005591421095561172,0.031034367195752383,-0.06873478655660496,-0.029080619825637543,0.11242998686980249,-0.15596622675850366
172,13.035337699999218,0.07061490265920696,0.08049581177159607,0.024957979488915705,0.017741440773085544,0.011940731510435796,-0.0088014897397239,-0.0057334795466291305,0.03158258205816862,-0.06949619390281474,-0.0291546056195049,0.11229171745209744,-0.15615254329483558
173,13.03983629999857,0.07070139124169778,0.08055444400539698,0.024914211749002636,0.01771312133590269,0.01209615288175894,-0.009142405768531741,-0.00587589966811672,0.032130063289449916,-0.07025845843188885,-0.029228861328629015,0.11212926944270141,-0.15631753970825732
174,13.043651699990733,0.07078773996453376,0.08061384102399365,0.024868771678091622,0.017684106176559664,0.012254243367189815,-0.00948704269233477,-0.00601868267565481,0.03267669305143878,-0.07102147574479753,-0.02930334461842991,0.11194269528900999,-0.15646106101307794
175,13.047574899988833,0.07087394542911106,0.08067401583930696,0.02482164111374481,0.017654393521896877,0.01241499852544311,-0.009835403928217072,-0.0061618295742505635,0.03322235376936412,-0.07178514069535083,-0.02937801148145103,0.11173205065003944,-0.1565829558162059
176,13.05397809999704,0.07096000422816294,0.08073498144019034,0.02477280187810453,0.01762398159437562,0.012578413342273314,-0.010187492378474597,-0.006305341150128306,0.033766928148166085,-0.07254934740728786,-0.02945281674536609,0.11149739445629021,-0.15668307621249522
177,13.061900000000604,0.07104591294574106,0.08079675078963774,0.024722235780413528,0.017592868613164645,0.012744482231878483,-0.010543310427094704,-0.006449217967522343,0.03431029918809302,-0.07331398929122149,-0.029527715282341948,0.11123878898443705,-0.15676127784839708
178,13.065587499993851,0.07113166815720207,0.08085933682199865,0.02466992461955217,0.017561052795219682,0.012913199038377964,-0.010902859936318229,-0.006593460372318284,0.03485235020175509,-0.07407895906234865,-0.029602662845840604,0.11095630012605293,-0.15681742007125968
179,13.069245399994545,0.07121726642919941,0.08092275244020049,0.024615850186592226,0.01752853235633448,0.013084557037382566,-0.011266142243291836,-0.006738068497011032,0.03539296483234332,-0.07484414875885188,-0.029677616130599733,0.11064999746239629,-0.15685136591063428
180,13.077189799994812,0.07130270431968021,0.08098701051297892,0.02455999426736674,0.01749530551217193,0.013258548937650062,-0.01163315815680964,-0.006883042264931376,0.035932027071412985,-0.07560944975942717,-0.029752532951588005,0.11031995423464745,-0.15686298198866158
181,13.081143599993084,0.07138797837788707,0.08105212387211645,0.024502338645055608,0.01746137047927389,0.013435166882828881,-0.012003907954136583,-0.007028381396950147,0.03646942127681224,-0.0763747528008111,-0.029827372378722777,0.10996624729893692,-0.1568521386246274
182,13.085333099996204,0.07147308514436487,0.08111810530968973,0.024442865102786433,0.017426725476026878,0.013614402453288552,-0.01237839137792109,-0.007174085417019329,0.03700503219002667,-0.07713994799632895,-0.029902094213850493,0.10958895708152437,-0.15681870994701527
183,13.089603499989607,0.07155802115097198,0.08118496757532598,0.02438155542625024,0.017391368723617833,0.013796246668032633,-0.01275660763319942,-0.007320153653772812,0.037538744953670565,-0.07790492485451515,-0.029976658363144445,0.10918816774323563,-0.1567625740727775
184,13.093902900000105,0.07164278292089635,0.081252723373469,0.02431839140633156,0.017355298446984187,0.013980689986699829,-0.013138555384490014,-0.007466585239943618,0.03807044513043601,-0.07866957229941066,-0.030051024180314825,0.10876396731381473,-0.156683613495759
185,13.097834300002432,0.07172736696867602,0.08132138536065514,0.024253354841752495,0.017318512875775308,0.014167722311661822,-0.01352423275299591,-0.007613379107555967,0.038600018721895106,-0.07943377869297348,-0.030125150048061756,0.10831644778162061,-0.15658171535170498
186,13.102055899988043,0.07181176980022458,0.08139096614279971,0.0241864275417301,0.017281010245349494,0.01435733299020785,-0.013913637313917745,-0.0077605339832584955,0.039127352188324256,-0.0801974318579619,-0.030198993198791522,0.10784570515335194,-0.15645677142581169
187,13.105821199991624,0.07189598791286145,0.08146147827249431,0.024117591328646666,0.017242788797780947,0.014549510816835974,-0.014306766093879472,-0.007908048381766949,0.039652332468089184,-0.08096041910041867,-0.030272509371244427,0.10735183921492956,-0.15630867808188081
188,13.110388000000968,0.0719800177953471,0.08153293424631561,0.02404682804073222,0.017203846782920758,0.014744244035626807,-0.014703615568460747,-0.008055920597846915,0.040174846995136,-0.08172262723186294,-0.03034565309399689,0.10683495363622149,-0.15613733629576412
189,13.114572099992074,0.07206385592792372,0.0816053465021458,0.02397411953475888,0.017164182459482098,0.014941520342705456,-0.01510418165983918,-0.008204148702522812,0.04069478371939809,-0.08248394259210083,-0.030418378103935096,0.10629515621000256,-0.15594265161431692
190,13.118954899997334,0.07214749878236103,0.08167872741650546,0.023899447688746387,0.017123794096138203,0.01514132688881437,-0.015508459734545307,-0.008352730539143914,0.04121203112661883,-0.08324425107101681,-0.030490637689990944,0.1057325585382766,-0.1557245340023733
191,13.12310019999859,0.07223094282200763,0.08175308930189903,0.023822794404678334,0.01708267997264595,0.0153436502819687,-0.01591644460131747,-0.008501663722947373,0.04172647825569776,-0.08400343812989111,-0.030562385633907965,0.10514727562885118,-0.1554828976372344
192,13.12713769999391,0.07231418450184784,0.08182844440417364,0.023744141611228637,0.017040838380948102,0.015548476590198415,-0.016328130509064794,-0.008650945646303851,0.04223801471457684,-0.08476138882118583,-0.030633576718211132,0.10453942567130967,-0.15521766034863085
193,13.13123899999482,0.07239722026856375,0.08190480489989134,0.02366347126649766,0.016998267626245706,0.01575579134435866,-0.016743511144915128,-0.008800573483237095,0.04274653069540063,-0.08551798780439775,-0.030704166591999062,0.10390912985781599,-0.15492874317794983
194,13.13614360000065,0.07248004656060252,0.08198218289371532,0.02358076536075771,0.01695496602805623,0.01596557954101981,-0.017162579632332715,-0.008950544193360032,0.04325191698865406,-0.08627311936154348,-0.030774112039578153,0.1032565121291489,-0.15461607037061892
195,13.140199999994364,0.07256265980824878,0.0820605904158104,0.023496005919207537,0.016910931921247558,0.01617782564541577,-0.017585328529317226,-0.009100854529015562,0.043754064995844506,-0.08702666741293806,-0.03084337124935205,0.10258169896562806,-0.1542795692420201
196,13.143886099991503,0.07264505643370202,0.08214003941925795,0.02340917500473541,0.016866163657026454,0.016392513594457776,-0.018011749826675392,-0.009251501041836363,0.04425286674159949,-0.0877785155313717,-0.030911903500292902,0.10188481919261702,-0.1539191700317013
197,13.148227600002429,0.07272723285115865,0.08222054177748579,0.023320254720690475,0.016820659603908543,0.016609626799800752,-0.018441834946358367,-0.009402480086826401,0.04474821488445096,-0.0885285469564658,-0.030979668878076072,0.10116600398086949,-0.15353480603005398
198,13.152105999994092,0.0728091854668988,0.08230210928171311,0.023229227213662045,0.01677441814866695,0.016829148150962325,-0.018875574739873443,-0.009553787826150899,0.04524000272893635,-0.08927664461008583,-0.031046627991105875,0.10042538710051657,-0.15312641390729514
199,13.156807999999728,0.07289091067937767,0.08238475363841073,0.02313607467626647,0.016727437697265302,0.01705106001850726,-0.019312959486771804,-0.009705420230446939,0.04572812423886117,-0.0900226911139074,-0.031112741477630185,0.09966310502522645,-0.15269393413933935
200,13.160468099988066,0.07297240487932145,0.0824684864667771,0.02304077934994118,0.01667971667579358,0.017275344257295898,-0.019753978893231643,-0.00985737307780406,0.04621247405041642,-0.0907665688089846,-0.031177969781818814,0.09887929685779402,-0.15223731130608553
201,13.16466809999838,0.07305366444982779,0.08255331929623028,0.02294332352774538,0.01663125353141107,0.017501982209796572,-0.02019862209073686,-0.010009641952889928,0.046692947484715086,-0.0915081597762266,-0.03124227283998124,0.0980741044348368,-0.15175649447244235
202,13.169079599989344,0.07313468576647089,0.08263926356391624,0.02284368955716698,0.016582046733290733,0.017730954709456372,-0.020646877634859968,-0.010162222242869176,0.047169440561931175,-0.09224734585968399,-0.031305609467940206,0.09724767252072375,-0.1512514376069452
203,13.172853600000964,0.07321546519741122,0.08272633061223376,0.022741859842935166,0.016532094773601992,0.01796224208415154,-0.021098733504168028,-0.01031510913055132,0.04764185001572846,-0.09298400869110995,-0.03136793733122481,0.09640014868808874,-0.15072209959283123
204,13.17724979999184,0.0732959991035102,0.08281453168637638,0.022637816849838018,0.016481396168521963,0.018195824159699003,-0.021554177099245207,-0.010468297590018745,0.04811007330623361,-0.09371802971335472,-0.031429213303856486,0.09553168328813601,-0.15016844394770842
205,13.18127229998936,0.07337628383844977,0.08290387793189155,0.022531543105544605,0.01642994945926089,0.018431680263433368,-0.02201319524182697,-0.010621782383275524,0.048574008634175214,-0.09444929020219141,-0.03148939372204185,0.09464242939080214,-0.1495904385061649
206,13.185391399994842,0.07345631574885708,0.08299438039225748,0.022423021203431058,0.016377753213106083,0.018669789227856413,-0.02247577417403563,-0.010775558058350823,0.049033554953273016,-0.09517767128661346,-0.031548434578324513,0.09373254238136952,-0.1489880551025289
207,13.189573099996778,0.07353609117443426,0.08308605000647795,0.02231223380541012,0.016324806024465864,0.018910129394334972,-0.02294189955771258,-0.010929618947842171,0.04948861198044086,-0.09590305396756504,-0.03160629171591779,0.09280217978125553,-0.14836126914521316
208,13.1945163999917,0.07361560644809327,0.0831788976066952,0.02219916364476374,0.01627110651592771,0.019152678616849984,-0.023411556473836602,-0.011083959168915091,0.04993908020642728,-0.09662531913408506,-0.03166292123198346,0.0918515010837427,-0.14771005929899278
209,13.199079899990464,0.07369485789609602,0.0832729339158213,0.022083793528978293,0.016216653339302205,0.019397414265798198,-0.023884729422013643,-0.011238572625781389,0.050384860904415546,-0.0973443475789374,-0.03171827953739373,0.09088066741035022,-0.14703440748872726
210,13.203786400001263,0.0737738418381994,0.0833681695451882,0.021966106342582153,0.016161445176657005,0.019644313231825146,-0.024361402320047625,-0.011393453010281924,0.05082585613731127,-0.09806002001479121,-0.031772323117649104,0.08988984152573992,-0.1463342989370774
211,13.207813000000897,0.07385255458780549,0.08346461499221648,0.02184608504998511,0.016105480741355097,0.019893351929697954,-0.024841558503588098,-0.01154859380203203,0.05126196876648791,-0.09877221709021922,-0.03182500836864455,0.08887918794226055,-0.14560972230238575
212,13.21399879999808,0.07393099245211669,0.08356228063810313,0.021723712698319374,0.016048758779087353,0.02014450630222365,-0.025325180725857165,-0.01170398826740176,0.05169310246009449,-0.09948081940722339,-0.031876291193427685,0.08784887266618038,-0.14486066990271496
213,13.218582999994396,0.07400915173229605,0.08366117674552859,0.02159897242028165,0.015991278068920735,0.02039775182420303,-0.02581225115746814,-0.011859629455726642,0.0521191616993249,-0.10018570753941929,-0.03192612677791129,0.08679906294370493,-0.14408713780931387
214,13.222937400001683,0.07408702872363264,0.08376131345638312,0.021471847436975923,0.01593303742436782,0.02065306350641016,-0.026302751386329905,-0.012015510196099416,0.0525400517842474,-0.10088676205047374,-0.03197446956106652,0.08572992739510918,-0.1432891260035225
215,13.22768389999692,0.07416461971571223,0.08386270078951263,0.021342321060756463,0.015874035694466312,0.020910415899603105,-0.026796662417645476,-0.012171623093289952,0.05295567884138273,-0.10158386351382023,-0.03202127283178883,0.08464163631383743,-0.1424666384328259
216,13.231330599999636,0.07424192099259327,0.08396534863848423,0.021210376698070618,0.015814271764888387,0.021169783098577376,-0.027293964674008738,-0.012327960520603368,0.05336594983245208,-0.10227689253164353,-0.0320664884447415,0.08353436175610397,-0.14161968285750506
217,13.235355400000117,0.0743189288329884,0.08406926676937157,0.021075997852300885,0.01575374455908988,0.021431138746262034,-0.027794637995588255,-0.01248451461302727,0.05377077256282951,-0.10296572975309871,-0.032110066955109935,0.08240827757045116,-0.14074827080589705
218,13.240546999993969,0.07439563951045161,0.08417446481856035,0.0209391681266059,0.015692453039486496,0.02169445603785559,-0.028298661640401773,-0.012641277261404744,0.0541700556905783,-0.1036502558928593,-0.03215195764839033,0.08126355933846192,-0.13985241753719016
219,13.244134599997778,0.0744720492935712,0.08428095229057407,0.020799871226759838,0.015630396208659872,0.021959707725010304,-0.02880601428468102,-0.012798240105872261,0.054563708734324916,-0.1043303517489732,-0.032192108599878526,0.08010038418034801,-0.1389321419928382
220,13.2480504999985,0.07454815444616875,0.08438873855592034,0.020658090963989836,0.015567573110597801,0.0222268661200449,-0.02931667402332044,-0.01295539453061314,0.05495164208039836,-0.10500589822093681,-0.03223046697391257,0.07891893087422042,-0.13798746676286877
221,13.252369199995885,0.0746239512275042,0.08449783284895773,0.020513811257811022,0.01550398283195149,0.022495903100198528,-0.029830618370418352,-0.013112731660215335,0.05533376699186788,-0.10567677632722218,-0.03226697917285707,0.0777193800058245,-0.13701841781706098
222,13.256287299998805,0.07469943589248708,0.08460824426578359,0.020367016138858655,0.015439624503311329,0.02276679011193168,-0.030347824259896704,-0.013270242355878625,0.055709995617143425,-0.10634286722072804,-0.03230159077737857,0.0765019136696905,-0.13602502428076257
223,13.261210399999982,0.07477460469189397,0.08471998176214286,0.020217689751717102,0.015374497300501154,0.023039498175264062,-0.030868268046192998,-0.013427917211189636,0.0560802409960973,-0.10700405220411954,-0.032334246546809484,0.07526671530472151,-0.13500731848726144
224,13.264899899993909,0.07484945387259241,0.08483305415135825,0.020065816357745233,0.015308600445895245,0.023313997888135235,-0.03139192550502973,-0.013585746548332583,0.05644441706706032,-0.10766021274579025,-0.03236489058309046,0.07401397015734329,-0.1339653360302201
225,13.268696899991482,0.07492397967777126,0.08494747010228157,0.019911380337897886,0.015241933209749555,0.02359025943081076,-0.03191877183426205,-0.013743720415463968,0.05680243867746273,-0.10831123049571355,-0.032393466599642304,0.07274386534115164,-0.13289911572610663
226,13.2766544999904,0.07499817834717751,0.08506323813726689,0.019754366195542994,0.015174494911544335,0.02386825257034668,-0.03244878165480188,-0.013901828585546866,0.057154221591412355,-0.10895698730103802,-0.032419918115843466,0.07145658932909438,-0.13180869953209515
227,13.281528899999104,0.07507204611735978,0.08518036663016548,0.01959475855927403,0.015106284921326731,0.024147946665069586,-0.032981929011617776,-0.014060060555623255,0.05749968249538044,-0.10959736522113778,-0.032444188666030646,0.07015233183419946,-0.130694132370535
228,13.286883099994157,0.07514557922191825,0.08529886380434265,0.01943254218571738,0.015037302661060509,0.024429310669096597,-0.03351818737480585,-0.014218405547687643,0.05783873900461601,-0.1102322465414951,-0.03246622217280722,0.06883128373447275,-0.1295554619010571
229,13.291377799992915,0.0752187738917613,0.08541873773071679,0.019267701962334335,0.014967547605960132,0.024712313136878012,-0.034057529640725115,-0.014376852511601987,0.058171309668098865,-0.11086151378652706,-0.03248596302194307,0.06749363705810593,-0.12839273838268322
230,13.29576019999513,0.07529162635536849,0.08553999632582054,0.01910022291021739,0.014897019285812038,0.02499692222776561,-0.03459992813319358,-0.01453539012670016,0.05849731397480963,-0.11148504973212266,-0.03250335592784045,0.0661395849985601,-0.12720601476704932
231,13.299498599997603,0.07536413283906002,0.08566264734988445,0.018930090186880567,0.014825717286293064,0.025283105710616493,-0.03514535460474592,-0.01469400680339014,0.05881667235882993,-0.1121027374193791,-0.03251834578411265,0.06476932191442293,-0.12599534697475123
232,13.303759799993712,0.07543628956727265,0.085786698404943,0.01875728908904343,0.01475364125027609,0.025570830968411146,-0.035693780237963574,-0.014852690683300493,0.05912930620561103,-0.11271446016983541,-0.03253087718565703,0.06338304376267485,-0.12476079420501407
233,13.30891629999678,0.07550809276284191,0.08591215693296336,0.018581805055408438,0.01468079087914703,0.025860065002918448,-0.036245175646881095,-0.015011429636219141,0.05943513786130164,-0.11332010160223034,-0.03254089430906192,0.06198094790446426,-0.1235024192421585
234,13.316444999989471,0.0755795386472908,0.08603903021399695,0.018403623669431247,0.014607165934140354,0.02615077443940475,-0.03679951087847977,-0.015170211259072908,0.059734090637121415,-0.11391954565072633,-0.03254834131602959,0.060563232507608505,-0.12222028856439625
235,13.322863900000812,0.07565062344112508,0.08616732536435408,0.018222730662083474,0.01453276623766603,0.02644292553134156,-0.03735675541427174,-0.015329022876802724,0.0600260888128586,-0.11451267658272898,-0.032553162248721325,0.05913009651656499,-0.12091447227205453
236,13.327412300001017,0.07572134336413489,0.08629704933480152,0.018039111914607543,0.014457591674636505,0.026736484165148747,-0.03791687817196755,-0.015487851540321984,0.060311057640950495,-0.11509937901641072,-0.032555300970033486,0.05768173932410979,-0.1195850441140286
237,13.331376499991164,0.075791694635703,0.0864282089087834,0.017852753461263183,0.014381642193813576,0.027031415864942045,-0.03847984750723124,-0.015646684026809,0.06058892334677752,-0.11567953793878834,-0.03255470149231989,0.05621836072633172,-0.11823208155912919
238,13.335273199991208,0.0758616734751196,0.08656081070066508,0.01766364149206515,0.01430491780913251,0.027327685797279126,-0.03904563121552427,-0.015805506840872896,0.0608596131323045,-0.11625303872394284,-0.03255130754399583,0.05474016153497129,-0.11685566588870987
239,13.339783299990811,0.07593127610190345,0.08669486115400038,0.01747176235551173,0.01422741860103754,0.027625258775942633,-0.03961419653403841,-0.015964306210617153,0.061123055182349686,-0.11681976715200082,-0.032545062226129476,0.05324734371209983,-0.1154558823726783
240,13.344325899990508,0.07600049873612967,0.08683036653982211,0.017277102561303596,0.014149144717844397,0.027924099266747424,-0.04018551014372488,-0.016123068085454672,0.061379178669540194,-0.11737960942907175,-0.03253590823654755,0.05174011041479042,-0.11403282041525052
241,13.347994899988407,0.07606933759876422,0.08696733295495622,0.01707964878305252,0.01407009637709713,0.028224171392371957,-0.04075953817142178,-0.01628177813435805,0.06162791376101689,-0.11793245220765154,-0.03252378772024769,0.050218666054995593,-0.11258657360661864
242,13.352516499988267,0.07613778891200493,0.08710576632035948,0.01687938786097947,0.013990273866947702,0.02852543893723096,-0.0413362461920823,-0.016440421742215022,0.0618691916239741,-0.11847818260706403,-0.032508642418913394,0.04868321582134425,-0.11111723973134505
243,13.356404599995583,0.07620584889962942,0.08724567237948114,0.01667630680460157,0.013909677547548375,0.028827865352360867,-0.041915599231101636,-0.016598984009537653,0.06210294442769839,-0.1190166882339464,-0.0324904140294626,0.0471339655149059,-0.10962492089450084
244,13.364491999993334,0.07627351378734974,0.08738705669664831,0.016470392795407504,0.013828307852434149,0.029131413760312384,-0.04249756176674507,-0.01675744975231634,0.062329105347505735,-0.1195478572039215,-0.032469044054660355,0.04557112175846857,-0.10810972372348113
245,13.368671699994591,0.07634077980317377,0.08752992465547538,0.01626163318952078,0.013746165289916566,0.029436046960074343,-0.04308209773268636,-0.01691580350027134,0.06254760856882233,-0.1200715781640525,-0.03244447387767738,0.0439948919365217,-0.10657175948620887
246,13.373090099994442,0.07640764317777346,0.08767428145729737,0.016050015520350357,0.01366325044448321,0.029741727432006083,-0.043669170520654936,-0.017074029497434296,0.06275838929053613,-0.12058774031566859,-0.03241664500117062,0.04240548425515948,-0.10501114421539581
247,13.377163099998144,0.07647410014485986,0.08782013211962755,0.0158355275012281,0.013579563978185842,0.03004841734279401,-0.04425874298319698,-0.017232111702732613,0.06296138372966223,-0.1210962334380321,-0.032385498883121824,0.040803107742264984,-0.10342799884957073
248,13.38314389999141,0.07654014694156495,0.08796748147463915,0.015618157028032443,0.013495106632034192,0.0303560785504295,-0.04485077743655359,-0.017390033788969153,0.06315652912469613,-0.12159694791254029,-0.03235097678717921,0.03918797203798628,-0.1018224492526723
249,13.389373199999682,0.07660577980883027,0.08811633416767148,0.015397892181797768,0.01340987922739405,0.03066467260919818,-0.04544523566365802,-0.017547779141946312,0.06334376373823469,-0.12208977474658374,-0.032313019827642335,0.03756028745459915,-0.10019462609103827
250,13.39537399999972,0.07667099499180231,0.08826669465576041,0.015174721231308828,0.013323882667389608,0.0309741607746834,-0.04604207891724659,-0.017705330859884665,0.06352302686091356,-0.12257460559654773,-0.03227156934295232,0.035920264902062654,-0.09854466481554612
251,13.4033347999939,0.07673578874023494,0.08841856720619329,0.014948632635679762,0.013237117938307223,0.03128450400879395,-0.04664126792308041,-0.0178626717561914,0.06369425881330165,-0.12305133279149642,-0.03222656720925558,0.034268115155988106,-0.09687270581917629
252,13.407231599994702,0.07680015730889844,0.08857195589508844,0.01471961504691709,0.013149586110970748,0.03159566298478599,-0.047242762883287395,-0.018019784361938594,0.06385740094269578,-0.1235198493577117,-0.03217795548196328,0.03260404857369273,-0.09517889457206398
253,13.414547199994558,0.07686409695799531,0.08872686460599913,0.01448765731246611,0.013061288342121105,0.031907598092259515,-0.047846523479823384,-0.01817665092513412,0.06401239562224448,-0.12398004904369506,-0.032125676455458343,0.030928275511978878,-0.0934633818007077
254,13.424714799999492,0.07692760395358285,0.0888832970285418,0.014252748477740126,0.012972225875798736,0.032220269442171726,-0.04845250887805816,-0.018333253413782533,0.06415918625181916,-0.12443182634645517,-0.03206967306653905,0.029241006163928728,-0.09172632365040943
255,13.428943699997037,0.07699067456800238,0.08904125665704893,0.014014877788631855,0.012882400044693312,0.032533636871841985,-0.049060677730493045,-0.018489573519092608,0.06429771725554544,-0.12487507653809475,-0.03200988874496058,0.027542450588275286,-0.08996788161445193
256,13.432932099996831,0.07705330508031502,0.08920074678924617,0.013774034694006376,0.01279181227149488,0.03284765994994113,-0.049670988180606356,-0.018645592657079865,0.06442793408296088,-0.12530969569140707,-0.03194626762245292,0.025832819261345903,-0.08818822243627736
257,13.437037999989116,0.07711549177674414,0.08936177052495382,0.013530208848175016,0.012700464070227938,0.03316229798150768,-0.050283397866820755,-0.01880129197381363,0.06454978321193199,-0.12573558070550833,-0.03187875474205039,0.02411232318295922,-0.08638751820380425
258,13.442252599998028,0.07717723095112407,0.08952433076481295,0.013283390113349593,0.012608357047551384,0.03347751001296566,-0.05089786392659881,-0.018956652349062107,0.0646632121508452,-0.12615262933235447,-0.03180729560988244,0.022381174024814838,-0.08456594641844671
259,13.447689399996309,0.07723851890535528,0.08968843020903582,0.013033568562076327,0.012515492904057022,0.033793254837162154,-0.05151434300066911,-0.019111654397165986,0.06476816944297183,-0.126560740203047,-0.031731836404190285,0.020639584294906154,-0.08272369001470321
260,13.4563441999926,0.0772993519498658,0.08985407135618113,0.012780734479648857,0.012421873435560988,0.03410949099842772,-0.05213279123737846,-0.01926627847272303,0.06486460467026335,-0.12695981285454097,-0.03165232476729247,0.018887766875457748,-0.08086093743924963
261,13.460665399994468,0.07735972640407891,0.09002125650195392,0.012524878366499684,0.01232750053434679,0.03442617679765101,-0.05275316429717865,-0.01942050467918935,0.0649524684532077,-0.12734974775672256,-0.03156870974558631,0.017125934319427646,-0.07897788265501118
262,13.468911999996635,0.07741963859688676,0.0901899877380302,0.012265990940569403,0.012232376190372804,0.03474327029733774,-0.05337541735724284,-0.019574312873978542,0.06503171244776014,-0.12773044633915673,-0.031480941610299844,0.015354298910775435,-0.07707472512016995
263,13.474232399996254,0.07747908486712983,0.0903602669509063,0.012004063139653102,0.012136502492465555,0.035060729326655375,-0.05399950511621331,-0.019727682675313954,0.06510228934578759,-0.12810181101796003,-0.03138897190260546,0.013573073128264307,-0.07515166978052165
264,13.477977000002284,0.07753806156408216,0.09053209582077273,0.011739086123723272,0.012039881629460358,0.03537851148649646,-0.0546253817990801,-0.019880593467768,0.0651641528765251,-0.12846374522247367,-0.031292752776008424,0.011782469913084155,-0.0732089270865939
265,13.483185599994613,0.07759656504794199,0.09070547582041286,0.0114710512772286,0.011942515891340547,0.0356965741545375,-0.05525300116218897,-0.020033024402697736,0.06521725780963161,-0.12881615342230332,-0.03119223677235326,0.009982703357114106,-0.07124671307206945
266,13.490775099999157,0.07765459169032807,0.0908804082141262,0.011199950211368012,0.011844407670373865,0.03601487449033209,-0.055882316498383905,-0.020184954401598544,0.0652615599633621,-0.12915894115475743,-0.03108737706099531,0.00817398868755361,-0.0692652493967127
267,13.494333999988156,0.07771213787478139,0.09105689405667679,0.010925774766339286,0.011745559462218969,0.03633336944044955,-0.05651328064228284,-0.020336362158873435,0.06529701620747339,-0.1294920150523059,-0.03097812712490811,0.006356541549202153,-0.06726476334067788
268,13.497968600000604,0.0777691999972723,0.0912349341922666,0.010648517013561622,0.011645973867034795,0.03665201574359642,-0.05714584597568805,-0.020487226142123904,0.06532358446439315,-0.12981528286996283,-0.030864440775715537,0.004530578708104901,-0.06524548778018271
269,13.501993400001084,0.07782577446671309,0.09141452925353385,0.01036816925787146,0.011545653590584232,0.036970769935766486,-0.057779964433129084,-0.020637524595065907,0.06534122371899156,-0.13012865351250785,-0.030746272542121394,0.0026963187821813827,-0.06320766118202423
270,13.509838999991189,0.0778818577054758,0.09159567966057676,0.010084724039690962,0.01144460144531503,0.037289588355457634,-0.05841558750753877,-0.020787235541610855,0.06534989402687945,-0.13043203706181536,-0.030623577669818363,0.0008539819276165628,-0.06115152753457089
271,13.514325399999509,0.07793744614991542,0.09177838562000268,0.00979817413716845,0.011342820351423652,0.03760842714890284,-0.05905266625606281,-0.0209363367887807,0.06534955652111989,-0.13072534480340248,-0.030496312061744378,-0.000996209831427447,-0.05907733609742274
272,13.51870780000172,0.07799253625089808,0.0919626471240029,0.009508512568290196,0.011240313337907742,0.037927242275352505,-0.059691151305994825,-0.021084805930205976,0.06534017342374357,-0.13100848925131559,-0.030364432576871273,-0.002854032290162482,-0.05698534111185422
273,13.523562399990624,0.07804712447433446,0.09214846394945339,0.009215732592962954,0.01113708354359584,0.03824598951241782,-0.0603309928608288,-0.021232620351956343,0.06532170805551109,-0.13128138417185292,-0.03022789741865176,-0.004719259242313189,-0.05487580155471268
274,13.527604299990344,0.07810120730171807,0.09233583565704168,0.008919827715066686,0.011033134218142959,0.038564624461448344,-0.0609721407064256,-0.021379757239828927,0.06529412484568033,-0.13154394460604973,-0.030086666284295197,-0.0065916621063082615,-0.052748980779474985
275,13.531853099993896,0.0781547812306684,0.09252476159042007,0.00862079168447693,0.010928468722989188,0.0388831025529707,-0.061614544217284795,-0.02152619358663544,0.06525738934541622,-0.13179608688989847,-0.029940700484308927,-0.008471009492096733,-0.050605146123428923
276,13.535330899991097,0.07820784277547849,0.09271524087538563,0.008318618499056322,0.01082309053228416,0.03920137905219698,-0.062258152362908506,-0.021671906200656958,0.06521146824178499,-0.13203772867300095,-0.029789963271183478,-0.01035706741038037,-0.04844456868496205
277,13.541108699995675,0.07826038846766713,0.09290727241908713,0.008013302406614874,0.010717003233763156,0.03951940906459998,-0.0629029137142552,-0.021816871716138206,0.06515632936912227,-0.13226878893661548,-0.02963442009325179,-0.012249599392494223,-0.04626752319834058
278,13.545569900001285,0.07831241485653502,0.0931008549092594,0.007704837906838521,0.010610210529569175,0.03983714754153255,-0.06354877645027966,-0.021961066604219395,0.06509194172185763,-0.1324891880110871,-0.02947403847529295,-0.014148366056710918,-0.04407428798496014
279,13.549784899994847,0.07836391850972492,0.09329598681348518,0.007393219753185579,0.010502716237022373,0.04015454928592798,-0.06419568836455684,-0.02210446718226549,0.0650182754701145,-0.1326988475934191,-0.029308787734611774,-0.01605312492873343,-0.04186514506252951
280,13.55414359999122,0.07841489601378536,0.09349266637848504,0.00707844295475067,0.010394524289351097,0.04047156895807153,-0.0648435968719933,-0.022247049622027663,0.06493530197428626,-0.13289769076576857,-0.029138638831637927,-0.01796363030817934,-0.039640380276447305
281,13.558492600001046,0.07846534397473791,0.09369089162943553,0.0067605027780956815,0.010285638736381691,0.04078816108144306,-0.06549244901563152,-0.022388789957514775,0.06484299380193898,-0.13308564201429984,-0.02896356454931615,-0.019879633163488925,-0.037400283276434305
282,13.564506900002016,0.07851525901864763,0.09389066036931618,0.0064393947490473035,0.010176063745192724,0.04110428004865349,-0.0661421914735453,-0.022529664094905238,0.06474132474341288,-0.1332626272474521,-0.028783540000931748,-0.021800881191248858,-0.035145147378782216
283,13.568692799992276,0.07856463779219672,0.09409197017828551,0.0061151146544607075,0.010065803600708075,0.041419880127439676,-0.06679277056582236,-0.022669647825373652,0.06463026982814629,-0.13342857381344864,-0.028598542764501727,-0.023727118204300606,-0.032875269487481054
284,13.57329220000247,0.07861347696326075,0.09429481841308655,0.005787658543948945,0.00995486270622601,0.04173491546676014,-0.06744413226163054,-0.022808716836314004,0.0645098053462477,-0.13358341051779485,-0.028408552524313947,-0.025658083937653647,-0.03059095026114084
285,13.577486700000009,0.07866177322148749,0.09449920220648236,0.005457022731577681,0.009843245583902753,0.042049340103000425,-0.06809622218637114,-0.022946846720668584,0.06437990886671346,-0.13372706764241626,-0.02821355066759657,-0.02759351424242291,-0.028292494500837997
286,13.58175339999434,0.07870952327887783,0.09470511846672204,0.005123203797524792,0.009730956875190535,0.04236310796624661,-0.06874898562893189,-0.023084012984215654,0.06424055925710753,-0.13385947696694103,-0.028013520060449774,-0.029533140457975178,-0.025980211459274073
287,13.585713599997687,0.0787567238703689,0.09491256387703749,0.004786198589704326,0.009618001341250057,0.04267617288668266,-0.06940236754904795,-0.023220191052712006,0.06409173670790551,-0.1339805717908545,-0.027808445032883978,-0.031476689203702224,-0.023654414859583642
288,13.589722199991227,0.07880337175441905,0.09512153489517186,0.004446004225354281,0.009504383863318842,0.042988488601101535,-0.07005631258477105,-0.02335535627903463,0.06393342275420615,-0.13409028695496533,-0.027598311244343008,-0.03342388234878651,-0.021315422604249647
289,13.594398899993394,0.0788494637135945,0.09533202775293984,0.0041026180925876786,0.009390109443054013,0.043300008759514334,-0.07071076506003991,-0.023489483949011104,0.06376560030037043,-0.13418855886071968,-0.027383106102139725,-0.035374436742761806,-0.018963556141047354
290,13.602008299989391,0.07889499655515768,0.09554403845582056,0.0037560378519064723,0.009275183202843757,0.043610686931901836,-0.07136566899233791,-0.023622549292644193,0.06358825364436214,-0.1342753254854805,-0.0271628198069669,-0.037328064634710494,-0.016599139531796446
291,13.606047299996137,0.07893996711165696,0.09575756278258381,0.003406261437677907,0.009159610386040577,0.04392047661506118,-0.07202096810041257,-0.023754527500143893,0.06340136849829661,-0.13435052639275505,-0.02693744580094458,-0.03928447368741211,-0.014222498644129776
292,13.610368900001047,0.07898437224151725,0.09597259628494972,0.0030532870595731,0.00904339635711632,0.044229331239557884,-0.07267660581203297,-0.023885393737523887,0.0632049320126432,-0.13441410273958776,-0.026706980872399803,-0.04124336667896821,-0.011833960996689314
293,13.615225000001374,0.0790282088296312,0.09618913428728282,0.0026971132039677057,0.008926546601743246,0.04453720417680868,-0.07333252527178144,-0.024015123163655998,0.06299893279968546,-0.13446599728527722,-0.026471425260413496,-0.04320444177209099,-0.00943385624407001
294,13.618939399995725,0.07907147378795064,0.09640717188632082,0.0023377386353044703,0.008809066726782649,0.044844048746262466,-0.07398866934889599,-0.024143690946886762,0.06278336095509608,-0.13450615440350092,-0.026230782206538794,-0.04516739227404346,-0.007022516768452803
295,13.62298989998817,0.07911416405607766,0.09662670395093875,0.001975162397417374,0.008690962460203783,0.04514981822269365,-0.07464498064518031,-0.024271072277717735,0.06255820808373938,-0.13453452009680517,-0.025985057670972016,-0.04713190595018391,-0.004600277943433152
296,13.633013799990296,0.07915627660185523,0.09684772512194893,0.0016093838148170017,0.008572239650948757,0.04545446584363486,-0.07530140150298763,-0.024397242382652583,0.06232346732794441,-0.13455104201130416,-0.025734260750971592,-0.049097664829889094,-0.0021674780111437895
297,13.637527899991255,0.079197808421957,0.09707022981193758,0.001240402493936782,0.008452904268716348,0.04575794481694621,-0.07595787401327408,-0.02452217654096014,0.06207913339520121,-0.13455566944997094,-0.025478403919829803,-0.05106434514657341,0.0002755422331618977
298,13.644956699994507,0.07923875654247581,0.09729421220513869,0.000868218324339777,0.008332962403663326,0.04606020832851819,-0.0766143400237123,-0.0246458501008533,0.06182520258701914,-0.1345483533842587,-0.02521750304174035,-0.05303161671019515,0.002728439687453184
299,13.6519924000022,0.07927911801951051,0.09751966625734577,0.0004928314798857532,0.0082124202660304,0.04636120955012257,-0.07727074114685815,-0.024768238496397126,0.06156167283274598,-0.13452904646498803,-0.024951577670550385,-0.05499914242917071,0.0051908689408824895
300,13.65671929999371,0.0793188899397509,0.09774658569586236,0.00011424241985828176,0.008091284185678565,0.046660901647445296,-0.07792701876837058,-0.02488931726660286,0.06128854372309123,-0.13449770303398823,-0.024680651049796436,-0.05696657843040379,0.007662481922923296
301,13.660574900000938,0.07935806942106002,0.09797496401949213,-0.00026754810994839527,0.007969560611528733,0.046959237788264434,-0.07858311405529192,-0.025009062072336375,0.061005816542773976,-0.134454279138408,-0.02440474938078394,-0.058933573894577485,0.010142927219347375
302,13.664766100002453,0.07939665361305355,0.09820479449856916,-0.0006525390761830608,0.007847256110933091,0.04725617115080168,-0.07923896796440738,-0.0251274487082704,0.060713494305653384,-0.13439873254903115,-0.02412390110550876,-0.060899771011044525,0.012631849354497392
303,13.67009319999488,0.07943463969767603,0.09843607017502959,-0.001040729156932225,0.007724377368998117,0.04755165493224311,-0.0798945212507041,-0.025244453112796036,0.06041158178781673,-0.13433102278159073,-0.023838136727427295,-0.06286480518764709,0.015128888423380497
304,13.673717400000896,0.07947202488977365,0.09866878386252503,-0.0014321167407563608,0.007600931187859217,0.04784564235741349,-0.08054971447593857,-0.025360051378226108,0.06010008556066251,-0.1342511111186745,-0.023547489050411173,-0.06482830537889034,0.01763368014926402
305,13.677470700000413,0.07950880643766337,0.09890292814657883,-0.0018266999257682034,0.007476924485904182,0.048138086687619874,-0.08120448801730945,-0.025474219763038316,0.059779014020786336,-0.13415896063047703,-0.023251993567183927,-0.06678989448918622,0.020145856172555626
306,13.681396100000711,0.07954498162369814,0.09913849538478578,-0.0022244765187536125,0.007352364296928365,0.04842894122961755,-0.08185878207622746,-0.02558693470586879,0.05944837741912936,-0.1340545361938865,-0.02295168863862448,-0.06874918904482352,0.022665044349755893
307,13.68583979998948,0.07958054776482779,0.09937547770705586,-0.002625444034335444,0.007227257769221592,0.048718159344738006,-0.08251253668717448,-0.025698172839504804,0.05910818789406492,-0.1339378045103197,-0.02264661559823224,-0.07070579910352451,0.025190868972542656
308,13.689684500001022,0.07961550221315532,0.09961386701590305,-0.003029599694180855,0.0071016121645868045,0.04900569445817775,-0.08316569172664745,-0.025807911005897667,0.05875845950142948,-0.13380873412267108,-0.02233681908080054,-0.07265932858364248,0.027722950942813795
309,13.693731099992874,0.07964984235648823,0.09985365498677969,-0.0034369404262524486,0.006975434857280481,0.0492915000684193,-0.08381818692218283,-0.02591612627336249,0.05839920824439713,-0.1336672954314398,-0.02202234720168495,-0.0746093751745895,0.030260907915106265
310,13.697836999999708,0.07968356561888446,0.10009483306845718,-0.003847462864103633,0.006848733332863451,0.049575529756811516,-0.08446996186145789,-0.0260227959533403,0.058030452104384504,-0.13351346071028902,-0.02170325154187242,-0.07655553045577751,0.032804354323562095
311,13.702172499994049,0.0797166694611925,0.10033739248345389,-0.004261163346218575,0.00672151518697776,0.04985773719729214,-0.08512095600146696,-0.026127897617452128,0.05765221106976472,-0.13334720412190995,-0.021379587372074824,-0.07849738013610146,0.03535290119811028
312,13.706430499994894,0.07974915138158545,0.10058132422851068,-0.004678037915397096,0.006593788124031073,0.0501380761662483,-0.08577110867777755,-0.026231409116447727,0.057264507164435506,-0.1331685017353747,-0.021051413533153478,-0.08043450414343543,0.03790615579440424
313,13.71079529999406,0.0797810089160882,0.10082661907511505,-0.005098082318184944,0.006465559955788651,0.050416500552517805,-0.08642035911387592,-0.026333308596092894,0.05686736447565989,-0.1329773315456112,-0.020718791943169734,-0.08236647660983626,0.040463721161928146
314,13.714609000002383,0.07981223963909782,0.10107326757007422,-0.0055212920043498795,0.006336838599902732,0.05069296436752133,-0.08706864643061318,-0.02643357451130819,0.0564608091827787,-0.13277367349497038,-0.020381787582536993,-0.08429286579669724,0.04302519579067426
315,13.719497400001272,0.0798428411638964,0.10132126003613816,-0.005947662126404117,0.006207632078366539,0.05096742175554387,-0.08771590965576136,-0.026532185641911392,0.05604486958578156,-0.1325575094961486,-0.020040468538768078,-0.08621323436331067,0.04559017347267496
316,13.723105199998828,0.07987281114315625,0.10157058657267302,-0.0063771875391736565,0.006077948515890066,0.051239827004145665,-0.08836208773368313,-0.026629121107192823,0.055619576131398875,-0.13232882345510602,-0.01969490552844104,-0.08812713948704283,0.04815824333086884
317,13.727325599989854,0.07990214726943705,0.10182123705638571,-0.006809862799415079,0.005947796138211857,0.0515101345546983,-0.08900711953511156,-0.02672436037699335,0.05518496144050021,-0.13208760129370725,-0.019345171583571033,-0.09003413293781891,0.050728989823029
318,13.731494799998472,0.07993084727567447,0.10207320114210014,-0.007245682165480305,0.005817183270366699,0.05177829901306297,-0.08965094386704071,-0.02681788328321947,0.0547410603334595,-0.13183383097260146,-0.01899134208137956,-0.0919337612867773,0.05330199269599195
319,13.735398599994369,0.0799589089356604,0.10232646826358599,-0.007684639597029893,0.005686118334885045,0.05204427516037404,-0.09029349948272863,-0.026909670031211773,0.05428790985551742,-0.13156750251430968,-0.018633494221542042,-0.09382556580212417,0.05587682689063671
320,13.739537100002051,0.07998633006451411,0.10258102763444021,-0.00812672875479541,0.005554609849949772,0.05230801796396484,-0.09093472509181329,-0.026999701206159233,0.05382554930316286,-0.13128860802703202,-0.01827170662290778,-0.09570908267338414,0.05845306234917475
321,13.74402279999049,0.08001310851914438,0.10283686824902237,-0.008571943000391435,0.005422666427533024,0.0525694825884086,-0.0915745593705478,-0.027087957780532624,0.05335402024730712,-0.13099714172961538,-0.017906059457843074,-0.09758384310075066,0.06103026376387149
322,13.749801799989656,0.08003924219870252,0.10309397888344388,-0.0090202753961778,0.0052902967714804315,0.05282862440667039,-0.09221294097216004,-0.02717442112180968,0.052873366558793516,-0.13069309997781253,-0.017536634004106016,-0.0994493729213584,0.06360799036394388
323,13.753915299996152,0.08006472904502586,0.10335234809661216,-0.009471718705172676,0.0051575096755725755,0.05308539901139698,-0.09284980853734408,-0.027259072995535896,0.052383634435218304,-0.13037648129132923,-0.017163512136974764,-0.1013051926545429,0.06618579605155377
324,13.75985170000058,0.08008956704307177,0.10361196423133007,-0.009926265391017187,0.005024314021579346,0.053339762226330446,-0.09348510070488368,-0.027341895568094073,0.05188487242599864,-0.13004728637875626,-0.016786776299395827,-0.10315081793510966,0.06876323013307797
325,13.771211999992374,0.0801137542213422,0.10387281541545139,-0.01038390761799216,0.004890718777294379,0.05359167011784268,-0.09411875612238706,-0.02742287140947385,0.05137713145496583,-0.1297055181574812,-0.016406509576657482,-0.10498575997604388,0.07133983831027872
326,13.775148799992166,0.08013728865229856,0.10413488956309282,-0.010844637251087478,0.004756732994562389,0.053841079006569426,-0.09475071345710463,-0.027501983496769876,0.05086046484091838,-0.12935118176894894,-0.016022795576866207,-0.10680952612137772,0.07391516351899105
327,13.779203899990534,0.08016016845276695,0.10439817437590299,-0.011308445856124385,0.004622365807279475,0.05408794547914533,-0.09538091140681271,-0.02757921521578508,0.05033492831482059,-0.12898428459039,-0.015635718027616142,-0.10862162062301103,0.07648874671330372
328,13.789161199994853,0.08018239178433355,0.10466265734438894,-0.011775324699931044,0.00448762642940481,0.054332226400005824,-0.09600928871074567,-0.027654550360593323,0.049800580032775696,-0.12860483624242924,-0.015245360761083127,-0.11042154540237296,0.07906012776316793
329,13.793946999998298,0.08020395685373045,0.10492832574930033,-0.012245264750571508,0.004352524152965212,0.054573878923248734,-0.09663578416055389,-0.027727973134997193,0.04925748058579251,-0.1282128485920557,-0.014851807639341318,-0.112208800962005,0.08162884622280248
330,13.798070999997435,0.0802248619132116,0.10519516666307163,-0.012718256677628203,0.004217068346052608,0.05481286050453146,-0.09726033661126493,-0.027799468151361955,0.048705693003863695,-0.1278083357527336,-0.014455142300369199,-0.11398288732657552,0.08419444136249267
331,13.802066499993089,0.08024510526091905,0.1054631669513224,-0.013194290852537852,0.004081268450839985,0.05504912891297242,-0.0978828849922425,-0.027869020429594972,0.04814528275655037,-0.12739131408706175,-0.014055447844345002,-0.11574330434095981,0.08675645124258759
332,13.806168800001617,0.08026468524123954,0.10573231327441567,-0.013673357348980893,0.0039451339815888145,0.05528264224305389,-0.09850336831817362,-0.027936615392918644,0.04757631775415185,-0.1269618022159203,-0.01365280598226385,-0.11748955123769916,0.08931441160060462
333,13.810497599988594,0.08028360024515138,0.10600259208907428,-0.014155445943324614,0.0038086745227062448,0.05551335892653486,-0.09912172570011685,-0.0280022388585424,0.046998868352510825,-0.12651982103198917,-0.01324729669231353,-0.11922112609958724,0.09186785525379351
334,13.8167584999901,0.08030184871056198,0.10627398965005558,-0.014640546115120365,0.0036718997268435456,0.055741237744400804,-0.09973789635662132,-0.028065877030082686,0.04641300735942693,-0.12606539371472436,-0.012838997965882637,-0.12093752614273595,0.09441631194373508
335,13.820602899999358,0.0803194291226362,0.10654649201188435,-0.0151286470476552,0.003534819313027265,0.055966237838839084,-0.10035181962492114,-0.028127516485756617,0.045818810036699895,-0.1255985457453928,-0.012427984702208964,-0.12263824838895923,0.09695930856839645
336,13.825260400000843,0.08033634001411571,0.10682008503064429,-0.015619737628558311,0.003397443064872874,0.05618831872520865,-0.10096343497220109,-0.028187144160016397,0.04521635409998228,-0.1251193049197843,-0.012014327901717359,-0.12432279015880456,0.09949636995684547
337,13.831196899991482,0.08035257996562985,0.10709475436582783,-0.0161138064504626,0.0032597808288951273,0.05640744030401404,-0.10157268200691508,-0.02824474732387189,0.044605719716011814,-0.12462770135568699,-0.011598094158109248,-0.1259906501173003,0.10202702017043312
338,13.83547809999436,0.08036814760599847,0.10737048548224438,-0.016610841811721552,0.0031218425129137125,0.05662356287284804,-0.10217950049012481,-0.028300313561569077,0.04398698949226018,-0.12412376749290299,-0.011179345135520977,-0.1276413293943331,0.1045507837379648
339,13.841586800001096,0.08038304161252734,0.10764726365198674,-0.017110831717181446,0.002983638084591172,0.056836647138264695,-0.10278383034681834,-0.028353830745810934,0.04336024846323316,-0.12360753808867157,-0.010758138031640316,-0.12927433170409747,0.10706718595682746
340,13.845890299999157,0.08039726071129663,0.10792507395645512,-0.017613763879008672,0.0028451775700803375,0.057046654227588305,-0.10338561167720414,-0.028405287018954797,0.04272558407895387,-0.12307905021474641,-0.010334526473978213,-0.1308891631509444,0.10957575256518663
341,13.849731299997076,0.08041080367744315,0.10820390128843883,-0.018119625717572137,0.00270647105274572,0.057253545700674036,-0.10398478476800109,-0.0284546707769787,0.04208308619315738,-0.12253834325601742,-0.00990856084846973,-0.13248533281154268,0.11207600997782205
342,13.856560300002457,0.08042366933543638,0.1084837303542551,-0.018628404362380755,0.0025675286719673935,0.057457283561601735,-0.1045812901037191,-0.028501970653885076,0.04143284704609345,-0.12198545890528682,-0.009480288419015038,-0.1340623540049503,0.11456748650029508
343,13.863688500001444,0.08043585655934898,0.10876454567594475,-0.019140086653075917,0.0024283606220145684,0.057657830270268745,-0.10517506837789815,-0.028547175506833528,0.04077496124032831,-0.12142044115004359,-0.009049753611290292,-0.13561974544323757,0.11704971418796847
344,13.868565600001602,0.08044736427312192,0.10904633159352423,-0.01965465914047865,0.0022889771509945426,0.05785514875384759,-0.10576606050425988,-0.028590274403313843,0.040109525712320106,-0.1208433362491,-0.00861699861026238,-0.13715703227679554,0.11952223045532628
345,13.87295209999138,0.08045819145082464,0.10932907226729306,-0.020172108087690904,0.002149388559851435,0.058049202418101443,-0.1063542076277186,-0.028631256612109073,0.03943663969802097,-0.120254192703663,-0.008182063897980991,-0.13867374690067577,0.12198457838133658
346,13.877022200002102,0.08046833711691044,0.10961275168019628,-0.020692419471250143,0.0020096052014033166,0.05823995515850617,-0.10693945113525065,-0.028670111595716086,0.03875640469658456,-0.11965306123099113,-0.007744988656872897,-0.1401694283123791,0.12443630575867455
347,13.881222999989404,0.08047780034646729,0.10989735364024042,-0.021215578982336693,0.0018696374794148994,0.058427371371211664,-0.10752173266664836,-0.028706829005243833,0.038068924442234565,-0.11903999474474324,-0.007305811277645646,-0.14164362099183797,0.12687696353977382
348,13.885799499999848,0.08048658026546411,0.11018286178296287,-0.021741572028033274,0.001729495847684449,0.058611415963889406,-0.10810099412519762,-0.028741398677789815,0.03737430487890089,-0.11841504834379811,-0.006864569583373651,-0.14309587409493668,0.12930610442749146
349,13.889653499994893,0.08049467605099271,0.11046925957395375,-0.022270383732636526,0.0015891908091420733,0.0587920543664463,-0.10867717768832284,-0.028773810633524886,0.036672654139957454,-0.11777827930635494,-0.006421300739852661,-0.14452574092994055,0.1317232822790958
350,13.893935499989311,0.08050208693150526,0.11075653031142979,-0.02280199893902041,0.001448732914965079,0.058969252541674524,-0.10925022581820687,-0.028804055072194995,0.035964082527967206,-0.11712974708456862,-0.005976041210795136,-0.14593277989881123,0.13412805211734435
351,13.901456299994608,0.08050881218704758,0.11104465712886014,-0.023336402210051368,0.0013081327637103962,0.05914297699576773,-0.10982008127238362,-0.028832122369768808,0.03524870248523492,-0.11646951329854206,-0.005528826817579584,-0.14731655566313248,0.13651997039503355
352,13.90611139999237,0.08051485114948818,0.11133362299764282,-0.023873577830055073,0.0011674010004626453,0.05931319478868356,-0.11038668711429939,-0.028858003075522456,0.03452662856217559,-0.11579764172838015,-0.005079692649609306,-0.14867663974062584,0.13889859539088645
353,13.910306599995238,0.08052020320274321,0.11162341072983169,-0.024413509806334645,0.0010265483159950075,0.0594798735443512,-0.11094998672382796,-0.028881687907812478,0.03379797738204668,-0.11511419830431917,-0.004628672526565485,-0.15001261105802,0.14126348712034617
354,13.914773199998308,0.0805248677829973,0.11191400298091247,-0.024956181870740005,0.0008855854459585379,0.05964298146068975,-0.11150992380773558,-0.028903167745913453,0.03306286760392185,-0.11441925109965116,-0.004175798266441579,-0.15132405671380336,0.1436142067047254
355,13.923072599995066,0.08052884437892066,0.11220538225262748,-0.0255015774812882,0.0007445231701226807,0.05980248731945451,-0.11206644241012705,-0.028922433618648727,0.032321419879980606,-0.11371287032700896,-0.0037210991328168455,-0.15261057305283526,0.14595031605666328
356,13.92826659999264,0.08053213253188245,0.11249753089584774,-0.026049679823834694,0.000603372311675519,0.05995836049583862,-0.1126194869228744,-0.028939476690834774,0.03157375680799636,-0.11299512833435972,-0.003264601655615789,-0.15387176623385504,0.14827137775331814
357,13.933323799996288,0.08053473183616104,0.11279043111349137,-0.026600471813795438,0.00046214373659656015,0.0601105709678557,-0.11316900209602396,-0.028954288250162958,0.03082000288308859,-0.11226609960252729,-0.0028063296908603453,-0.1551072524544656,0.15057695454748712
358,13.937689699989278,0.08053664193915135,0.11308406496348727,-0.027153936097919718,0.0003208483530849886,0.060259089325470715,-0.11371493304820081,-0.02896685969422694,0.03006028444801563,-0.11152586074595602,-0.002346304465478065,-0.15631665789078847,0.15286660894591847
359,13.943789600001764,0.08053786254156943,0.11337841436178263,-0.02771005505611375,0.0001794971110590315,0.06040388677949762,-0.11425722527702328,-0.02897718251784166,0.029294729645515615,-0.1107744905143478,-0.0018845447864377855,-0.15749961924988554,0.15513990342155473
360,13.95019499999762,0.08053839339765496,0.11367346108539339,-0.028268810803315142,3.810100170794822e-05,0.060544935170265185,-0.11479582466952348,-0.02898524830211139,0.02852346836320897,-0.1100120697913549,-0.001421067205068229,-0.15865578489087104,0.15739640090968277
361,13.954652000000353,0.08053823431537149,0.1139691867754963,-0.02883018519141817,-0.00010332894290193476,0.06068220697597699,-0.11533067751254893,-0.028991048703352083,0.027746632175000025,-0.10923868159137573,-0.0009558860021175571,-0.15978481492905314,0.15963566471246177
362,13.958814899990102,0.08053738515660502,0.11426557294056104,-0.029394159811249737,-0.00024478165016714306,0.060815675320805486,-0.11586173050315185,-0.028994575442013646,0.02696435428496333,-0.10845441105917931,-0.000489013202692395,-0.1608863810115377,0.16185725793804814
363,13.965153400000418,0.08053584583736098,0.11456260095952114,-0.02996071599459602,-0.00038624600723292794,0.06094531398270448,-0.11638893075898718,-0.02899582029174804,0.02617676947093483,-0.10765934547217382,-2.045872563740567e-05,-0.16196016636285263,0.1640607433014852
364,13.9693125999911,0.08053361632796001,0.1148602520849824,-0.030529834816279886,-0.0005277108612265162,0.061071097400952755,-0.11691222582872397,-0.028994775069789154,0.02538401402795299,-0.10685357424197385,0.000449769616460443,-0.16300586612784437,0.1662456833429058
365,13.975724699994316,0.08053069665323265,0.11515850744646744,-0.031101497096289142,-0.000669165019449115,0.061193000683414676,-0.11743156370245868,-0.028991431626020938,0.024586225708504147,-0.10603718891453986,0.0009216663413458627,-0.1640231881037523,0.16841164083405571
366,13.98186669999268,0.08052708689271326,0.11545734805369488,-0.03167568340195555,-0.0008105972495024924,0.06131099961350076,-0.11794689282212793,-0.028985781831170856,0.023783543658820346,-0.10521028316777878,0.0013952284166049496,-0.16501185392071346,0.1705581796556126
367,13.989950099989072,0.08052278718083349,0.11575675479989189,-0.03225237405018467,-0.0009519962793657794,0.06142507065680671,-0.11845816209189843,-0.0289778175647119,0.022976108347605804,-0.10437295280312285,0.0018704554239677828,-0.16597160066937897,0.17268486618277637
368,13.99637249999796,0.0805177977071154,0.11605670846513813,-0.03283154910973628,-0.0010933507974040034,0.06153519096737851,-0.11896532088849751,-0.028967530701452842,0.022164061486453158,-0.10352529572961029,0.002347349141059837,-0.1669021824101752,0.17479127071968145
369,14.001751899995725,0.08051211871636488,0.11635718971973939,-0.033413188403555,-0.0012346494523140428,0.061641338393574906,-0.11946831907144774,-0.028954913103521336,0.021347545943843173,-0.10266741194146774,0.002825912540555275,-0.1678033708454008,0.1768769683172468
370,14.005955599990555,0.08050575050886533,0.1166581791276288,-0.03399727151115058,-0.0013758808530549354,0.06174349148349338,-0.11996710699317874,-0.02893995661672003,0.02052670565900295,-0.10179940349421061,0.0033061491179418386,-0.16867495464698398,0.17894153851854377
371,14.010486300001505,0.08049869344057169,0.11695965714979335,-0.03458377777102722,-0.0015170335687582776,0.061841629489992084,-0.12046163550902853,-0.028922653069069056,0.019701685562465092,-0.10092137448471021,0.0037880622641518788,-0.16951673743961673,0.1809845642390678
372,14.014444599990384,0.08049094792330504,0.11726160414772416,-0.035172686283161385,-0.0016580961286443104,0.06193573237534063,-0.1209518559871609,-0.028902994273283748,0.018872631509605664,-0.10003343103821989,0.004271654862226124,-0.17032853488790486,0.1830056303136705
373,14.018844499994884,0.08048251442494744,0.11756400038688834,-0.03576397591152795,-0.0017990570219564958,0.06202578081559354,-0.12143772031844019,-0.028880972029252723,0.01803969022962574,-0.0991356813026206,0.0047569292574288794,-0.17111017259058706,0.18500432216023896
374,14.023236399996676,0.08047339346963718,0.11786682604022194,-0.036357625286674355,-0.0019399046979017827,0.06211175620474324,-0.12191918092629243,-0.028856578126807194,0.01720300927963669,-0.09822823544848633,0.005243887257273978,-0.17186148537812473,0.18698022495746947
375,14.028041500001564,0.08046358563796417,0.11817006119164238,-0.03695361280834296,-0.0020806275656122045,0.062193640658645466,-0.1223961907765808,-0.028829804348198807,0.016362737000495575,-0.09731120567135258,0.0057325302061708395,-0.17258231735722818,0.18893292377153367
376,14.033242799996517,0.08045309156716558,0.1184736858395796,-0.03755191664814157,-0.0022212139941093236,0.06227141701874131,-0.12286870338748894,-0.028800642470140584,0.01551902247045595,-0.09638470619054589,0.006222858940641527,-0.17327252243384203,0.1908620043339916
377,14.038142799996422,0.08044191195132161,0.1187776799005249,-0.03815251475226222,-0.0023616523122857434,0.06234506885553039,-0.12333667283938492,-0.028769084266721735,0.01467201545590019,-0.09544885324386168,0.006714873654897977,-0.17393196489618104,0.19276705399709837
378,14.043110599988722,0.08043004754155125,0.11908202321259599,-0.03875538484424797,-0.002501930808897994,0.06241458047181217,-0.12380005378465267,-0.028735121512760243,0.01382186635930127,-0.09450376507707237,0.007208573990426364,-0.17456052084841459,0.19464766323512092
379,14.047599500001525,0.08041749914620817,0.11938669553911738,-0.039360504427807565,-0.0026420377325807576,0.06247993690565133,-0.12425880145745356,-0.028698745985843547,0.012968726155965789,-0.09354956192395596,0.00770395936463426,-0.1751580794057468,0.1965034270478532
380,14.051981899989189,0.08040426763107633,0.11969167657221438,-0.03996785078967755,-0.0027819612918596665,0.06254112393300187,-0.12471287168336297,-0.028659949466474325,0.012112746330334661,-0.0925863659821092,0.008201028701983745,-0.1757245420217375,0.19833394479022548
381,14.0562990999897,0.08039035391956571,0.11999694593641917,-0.04057740100253094,-0.0029216896551669505,0.06259812807005095,-0.1251622208888958,-0.02861872374273467,0.011254078819289852,-0.09161430139463886,0.008699779522767832,-0.1762598214729452,0.2001388189470492
382,14.060703099996315,0.08037575899290782,0.1203024831922876,-0.041189131927932235,-0.0030612109508997465,0.06265093657528976,-0.1256068061109645,-0.028575060619323217,0.01039287595836251,-0.09063349423793032,0.009200207285827534,-0.17676384106818446,0.20191765423543528
383,14.06458130000101,0.08036048389035082,0.12060826784002547,-0.041803020219338426,-0.003200513267523926,0.06269953745133251,-0.12604658500628516,-0.028528951928632806,0.00952929043275544,-0.08964407251209715,0.009702304985236963,-0.17723653391513858,0.20367005774063945
384,14.069770199988852,0.08034452970935403,0.12091427932312311,-0.04241904232514578,-0.0033395846537404967,0.0627439194465094,-0.1264815158607423,-0.028480389543722995,0.008663475230707327,-0.08864616612742415,0.010206062776827377,-0.1776778432339611,0.20539564070817634
385,14.079286199994383,0.08032789760578146,0.12122049703199718,-0.043037174491782224,-0.0034784131187160093,0.06278407205623052,-0.12691155759866282,-0.02842936539304195,0.00779558359145521,-0.08763990687733023,0.010711467410579639,-0.17808772428523048,0.2070940216063581
386,14.082973500000662,0.08031058879409401,0.12152690030763857,-0.043657392766844605,-0.00361698663239261,0.06281998552407111,-0.12733666979191688,-0.028375871478937432,0.006925768939786531,-0.08662542839492846,0.01121850108037944,-0.17846614690907137,0.2087648297105011
387,14.090512800001306,0.08029260454754002,0.1218334684452648,-0.04427967300227989,-0.00375529312589907,0.06285165084249686,-0.12775681266876796,-0.028319899903602296,0.006054184809225907,-0.08560286609101572,0.011727139900316484,-0.1788130978406834,0.21040770921932106
388,14.102195499988738,0.08027394619834342,0.12214018069797496,-0.044903990857608794,-0.003893320492114003,0.06287905975319956,-0.1281719471223687,-0.028261442902453127,0.00518098475399321,-0.08457235707046676,0.012237352799321857,-0.17912858302572301,0.21202232323560344
389,14.10624339999049,0.08025461513788884,0.1224470162804054,-0.045530321803189854,-0.004031056586402589,0.0629022047469634,-0.12858203471879523,-0.028200492880861412,0.004306322249597804,-0.083534040031382,0.012749101072970632,-0.1794126281870149,0.21360835565553166
390,14.110324799999944,0.08023461281690254,0.12275395437238341,-0.046158641123521464,-0.0041684892275382,0.06292107906303067,-0.12898703770455883,-0.02813704245190549,0.0034303505992668844,-0.08248805516304636,0.013262338906353761,-0.179665275897856,0.2151655091166983
391,14.115304699997068,0.0802139407456285,0.12306097412257667,-0.04678892392057925,-0.004305606198807494,0.06293567668805498,-0.1293869190136446,-0.028071084467999764,0.0025532228630972082,-0.08143454406509955,0.01377701459898099,-0.1798865811155219,0.21669349988544953
392,14.119107199992868,0.08019260049399862,0.12336805465213672,-0.04742114511718677,-0.004442395249240661,0.0629459923547757,-0.12978164227423453,-0.028002612046694554,0.0016750918080656273,-0.08037364969538202,0.01429307134154789,-0.18007660795387032,0.2181920530789161
393,14.123059399993508,0.08017059369179677,0.12367517505833549,-0.048055279460418515,-0.004578844094968264,0.06295202154048335,-0.13017117181523713,-0.02793161859472594,0.0007961098686724154,-0.07930551633572673,0.014810447783634068,-0.1802354279960346,0.21966090002356348
394,14.127034999997704,0.08014792202881577,0.12398231441819378,-0.0486913015250343,-0.0047149404206861525,0.06295376046531004,-0.13055547267267678,-0.027858097828276248,-8.357088658415764e-05,-0.07823028956557926,0.015329078481740198,-0.18036311927790033,0.22109977765233021
395,14.131321699998807,0.08012458725500711,0.12428945179210114,-0.049329185716944605,-0.004850671881209998,0.06295120609036775,-0.13093451059596597,-0.02778204379265213,-0.0009637987846456855,-0.07714811623367204,0.015848894048738352,-0.18045976584077084,0.22250842933720807
396,14.135405199995148,0.08010059118062282,0.12459656622742618,-0.0499689062767062,-0.004986026103132219,0.06294435611575151,-0.13130825205401822,-0.027703450881086784,-0.0018444225770541454,-0.07605914442352053,0.01636982136304573,-0.18052545785118107,0.22388660559937332
397,14.139426299996558,0.08007593567634899,0.12490363676211691,-0.0506104372830471,-0.005120990686559976,0.06293320897839315,-0.13167666424118366,-0.027622313852376998,-0.002725291470558853,-0.07496352341816825,0.016891783299651082,-0.18056029183833902,0.22523406440450247
398,14.145831799993177,0.08005062267343066,0.12521064242829016,-0.051253752656420126,-0.005255553206944197,0.0629177638497658,-0.13203971508301793,-0.0275386278523099,-0.0036062551585938373,-0.07386140366280139,0.01741469799819821,-0.18056437141184334,0.22655057218978927
399,14.152192199995625,0.08002465416378753,0.12551756225580954,-0.05189882616258414,-0.005389701217026642,0.06289802063343054,-0.13239737324185302,-0.027452388438441746,-0.0044871638588879865,-0.07275293671947264,0.017938478384959204,-0.1805378086073306,0.2278359056319941
400,14.157002099993406,0.07999803220011982,0.12582437527585086,-0.05254563141621198,-0.0055234222489107115,0.06287397996237391,-0.13274960812212436,-0.027363591606189057,-0.005367868358072692,-0.07163827521246391,0.018463032068268406,-0.1804807248410509,0.22908985309571195
401,14.160782499995548,0.07997075889600382,0.12613106052445414,-0.05319414188452364,-0.0056567038162630996,0.06284564319611927,-0.13309638987540848,-0.027272233814627716,-0.006248220058606348,-0.07051757276887857,0.018988261607423052,-0.18039325077547883,0.2303122147257834
402,14.165305099988473,0.07994283642597622,0.12643759704606086,-0.053844330890943405,-0.005789533416636334,0.06281301241760644,-0.13343768940517048,-0.027178312009960282,-0.007128071022070682,-0.06939098396310245,0.019514064990653123,-0.18027552521533358,0.2315028007870978
403,14.168872800000829,0.079914267025607,0.12674396389703552,-0.054496171618779336,-0.005921898533899418,0.06277609042988062,-0.13377347837125977,-0.02708182364665126,-0.008007274005323079,-0.06825866427359557,0.020040336352219395,-0.18012769380609722,0.23266142946888285
404,14.17292539999471,0.0798850529915601,0.12705014014917054,-0.055149637114924245,-0.006053786640766597,0.0627348807526193,-0.1341037291942359,-0.026982766703897272,-0.008885682491093587,-0.06712077004877802,0.020566966644573154,-0.179949908407105,0.23378792639232213
405,14.177441699997871,0.07985519668164155,0.12735610489317398,-0.05580470029357744,-0.006185185201388711,0.06268938761852251,-0.13442841505953146,-0.026881139700203657,-0.009763150718020119,-0.06597745846862613,0.021093843488952106,-0.17974232801930132,0.23488212672319464
406,14.1896362999978,0.07982470051483492,0.1276618372421392,-0.05646133393998628,-0.006316081674024196,0.06263961596954677,-0.1347475099214031,-0.026776941711312476,-0.010639533720298118,-0.06482888748994406,0.021620850563010156,-0.17950512108386013,0.2359438794534008
407,14.196575399997528,0.07979356697132338,0.1279673163349958,-0.05711951071420649,-0.006446463513805364,0.06258557145290845,-0.13506098850656054,-0.026670172390754372,-0.011514687380144743,-0.06367521576618268,0.02214786671938654,-0.17923846733478202,0.23697305189616275
408,14.20154100000218,0.0797617985924981,0.12827252133994038,-0.05777920315487913,-0.006576318175609946,0.06252726041680572,-0.13536882631733513,-0.0265608319963772,-0.01238846848552541,-0.0625166025488488,0.022674764999835114,-0.1789425581879241,0.2379695312167922
409,14.205951899988577,0.07972939798095237,0.12857743145784561,-0.05844038368302182,-0.006705633117086228,0.062464689905858684,-0.13567099963434684,-0.02644892142051761,-0.013260734786413972,-0.06135320759238747,0.023201412694978683,-0.17861759530644106,0.23893322169271397
410,14.209811399996395,0.07969636780046044,0.12888202592564657,-0.059103024605831715,-0.0068343958018189915,0.062397867656282385,-0.1359674855187448,-0.026334442215946625,-0.014131345038521426,-0.06018519108232676,0.023727671986623032,-0.178263787673579,0.23986403967835862
411,14.214340999998967,0.07966271077594074,0.12918628401970272,-0.05976709812049863,-0.00696259370260782,0.062326802090900246,-0.13625826181417303,-0.02621739661977378,-0.015000159030993629,-0.059012713589290555,0.024253400276432174,-0.17788134917176332,0.24076190958775867
412,14.218828999990365,0.07962842969340277,0.12949018505913557,-0.060432576318027176,-0.007090214304866283,0.06225150231404677,-0.13654330714856233,-0.02609778757618563,-0.015867037606517743,-0.05783593603634351,0.024778450170936342,-0.17747049717879337,0.2416267625185818
413,14.223021199999494,0.0795935273998771,0.1297937084091409,-0.06109943118706736,-0.007217245110122119,0.06217197810638483,-0.1368226009357774,-0.025975618760496175,-0.016731842675322205,-0.05665501966642994,0.02530266933219188,-0.1770314525985261,0.24245853667191403
414,14.227240299995174,0.07955800680332815,0.13009683348427586,-0.0617676346177528,-0.007343673639651089,0.06208823991967175,-0.1370961233770909,-0.025850894603342556,-0.017594437235582565,-0.055470126005622726,0.02582590101554062,-0.1765644404275131,0.24325717741319064
415,14.231529700002284,0.07952187087254874,0.1303995397517202,-0.06243715840554573,-0.007469487438213254,0.06200029887137751,-0.1373638554624721,-0.02572362030948826,-0.01845468539295047,-0.05428141682996765,0.0263479845028227,-0.17606968838063775,0.24402263621573347
416,14.235906799993243,0.07948512263703633,0.1307018067345107,-0.06310797425508775,-0.007594674077870305,0.061908166739260216,-0.13762577897173736,-0.025593801877791703,-0.019312452367549034,-0.053089054139040824,0.026868755117301062,-0.17554742593574102,0.24475486966200857
417,14.241696400000365,0.07944776518685043,0.1310036140147496,-0.06378005378405609,-0.007719221161916677,0.06181185595591609,-0.13788187647558073,-0.0254614461198638,-0.02016760450417968,-0.051893200132538356,0.02738804479127285,-0.17499788463242372,0.24545383892851616
418,14.24552969999786,0.07940980167245043,0.13130494123678585,-0.0644533685270244,-0.007843116328878942,0.061711379603255345,-0.13813213133649607,-0.02532656067449804,-0.021020009282233097,-0.05069401718886,0.027905682349972417,-0.17442129819091456,0.24611950977616767
419,14.249771599992528,0.07937123530451397,0.1316057681103695,-0.06512788993932798,-0.00796634725658772,0.06160675140695544,-0.13837652770959863,-0.025189154023557835,-0.021869535327055947,-0.04949166784179271,0.02842149355629132,-0.17381790310982906,0.24675185266602262
420,14.254248799989,0.07933206935373507,0.131906074413779,-0.0658035894009327,-0.008088901666332094,0.061497985730826085,-0.13861505054331968,-0.025049235505970248,-0.022716052425694508,-0.04828631475796499,0.0289353015291062,-0.1731879387859819,0.24735084306275532
421,14.260192199988523,0.07929230715060195,0.1322058399969205,-0.06648043822030687,-0.00821076732706807,0.061385097571108826,-0.1388476855800081,-0.024906815329531477,-0.023559431539430454,-0.04707812071056936,0.0294469265939511,-0.17253164790247014,0.2479164632484811
422,14.264369899989106,0.0792519520851541,0.1325050447843996,-0.06715840763829609,-0.008331932059688178,0.061268102550719766,-0.13907441935636858,-0.02476190458635764,-0.02439954482331126,-0.045867248539118104,0.029956185775007818,-0.1718492783706951,0.24844870479949407
423,14.275688900001114,0.07921100760671843,0.13280366877856437,-0.06783746883199941,-0.008452383741380702,0.06114701691335858,-0.13929523920367054,-0.024614515269647225,-0.025236265657635433,-0.044653861098998764,0.030462892974364605,-0.17114108521247476,0.24894757083766092
424,14.281491799993091,0.07916947722362379,0.13310169206251968,-0.0685175929186462,-0.00857211031006284,0.061021857517444,-0.13951013324769415,-0.02446466028738273,-0.026069468685847773,-0.04343812119926175,0.03096685980858904,-0.17040733088894924,0.24941307764455745
425,14.28538019998814,0.0791273645028939,0.13339909480311113,-0.06919875095947181,-0.008691099768873625,0.06089264182985308,-0.13971909040833214,-0.024312353470930196,-0.026899029849233938,-0.04222019153642573,0.03146789674415506,-0.16964828470282367,0.24984525385687603
426,14.29029809999338,0.07908467306991804,0.13369585725387811,-0.06988091396359049,-0.008809340190690998,0.06075938791951812,-0.13992210039888994,-0.024157609577661807,-0.027724826418983047,-0.041000234640116116,0.031965814068199316,-0.16886422229025075,0.25024413829840875
427,14.298483999999007,0.07904140660809983,0.1339919597579754,-0.07056405289186428,-0.00892681972265032,0.0606221144508531,-0.1401191537251571,-0.024000444290083186,-0.02854673702592423,-0.03977841282802509,0.03246042269515029,-0.1680554246356459,0.2506097786367313
428,14.306561599994891,0.0789975688584839,0.134287382751062,-0.07124813866076686,-0.009043526590652932,0.060480840677060464,-0.1403102416842679,-0.023840874210585252,-0.029364641682976214,-0.0385548881646576,0.03295153477946328,-0.16722217783191518,0.2509422307852975
429,14.311817099995096,0.07895316361936065,0.13458210676415747,-0.07193314214624132,-0.009159449103833452,0.06033558643333845,-0.1404953563633702,-0.02367891685459269,-0.030178421812544272,-0.037329822422125486,0.03343896410377586,-0.16636477331964533,0.25124155830437206
430,14.31633950000105,0.07890819474584934,0.13487611242646447,-0.07261903418755099,-0.009274575659001484,0.06018637212992058,-0.14067449063810364,-0.023514590641528353,-0.030987960271303728,-0.03610337704473894,0.03392252676603609,-0.16548350681212837,0.25150783078951916
431,14.32094849999703,0.0788626661494595,0.13516938046815716,-0.0733057855911224,-0.009388894745020748,0.060033218745041174,-0.1408476381709228,-0.02334791488125702,-0.031793141367107744,-0.0348757131255251,0.03440204120959966,-0.1645786770101347,0.2517411211552347
432,14.32484580000164,0.07881658179763128,0.13546189172313514,-0.07399336713437975,-0.009502394947118516,0.05987614781780982,-0.14101479340934636,-0.02317890976475612,-0.03259385087123011,-0.033646991397324695,0.0348773273715426,-0.16365058464580504,0.2519415037925541
433,14.33120259999123,0.07876994571325484,0.13575362713174227,-0.07468174956957074,-0.009615064951173709,0.059715181441057454,-0.14117595158419347,-0.023007596358869904,-0.03338997602594372,-0.03241737222728793,0.035348206578134034,-0.1626995323931551,0.2521090551077776
434,14.33543419999478,0.07872276197416885,0.13604456774345086,-0.07537090362758389,-0.009726893547975141,0.0595503422541369,-0.14133110870777904,-0.022833996598000103,-0.03418140555589012,-0.03118701560271449,0.03581450211267693,-0.16172582504772268,0.2522438545421989
435,14.339535099992643,0.0786750347126383,0.1363346947195102,-0.07606080002175672,-0.009837869637428547,0.059381653435657974,-0.14148026157201207,-0.02265813327331934,-0.034968029677410875,-0.029956081115599324,0.03627603924509708,-0.16072976925727947,0.25234598395671054
436,14.344177499995569,0.07862676811481199,0.1366239893355599,-0.07675140945167451,-0.009947982232709568,0.05920913869619699,-0.1416234077464401,-0.02248003002417308,-0.03574974010728955,-0.02872472795447741,0.03673264485861615,-0.1597116734320414,0.25241552658613314
437,14.350955999994769,0.07857796642015981,0.1369124329842072,-0.07744270260695944,-0.010057220464386885,0.05903282227094657,-0.14176054557626797,-0.0222997113309358,-0.03652643007120693,-0.027493114899172773,0.03718414737518097,-0.15867184729704276,0.25245256682931616
438,14.356337599994731,0.07852863392088995,0.13720000717756867,-0.07813465017105,-0.010165573584505502,0.058852728912342625,-0.14189167418035098,-0.022117202507140582,-0.037297994308115236,-0.02626140031469136,0.037630376829962404,-0.15761060159304272,0.2524571907435559
439,14.360396199990646,0.07847877496134639,0.13748669354977563,-0.0788272228249705,-0.010273030970633075,0.05866888388267151,-0.14201679344915413,-0.02193252969160835,-0.03806432907577496,-0.025029742141145728,0.038071165065651544,-0.15652824861437156,0.25242948694305395
