,time,x,y,z,vx,vy,vz,ax,ay,az,jx,jy,jz
0,7.096523000000161,0.0684304264859018,-0.004504151335691055,0.002525283312236456,-0.011912237387749117,-0.01872528006260378,-0.0004981541139777703,0.06529047112536537,0.0282285145112916,0.013156560486109147,0.02908337416184969,0.09361689056760525,0.0002528747094163566
1,7.100847299996531,0.06837347376965436,-0.004594550803787779,0.0025230240173223827,-0.01159553980500299,-0.018587403630581274,-0.0004344028006747088,0.06543177779904853,0.02868374897084961,0.013157470170158732,0.029246600844904328,0.09428616945252365,0.0001226255598645685
2,7.111786800000118,0.06831805722763531,-0.004684276866213309,0.002521073631503901,-0.011278155623382802,-0.01844731356424675,-0.00037064860853798493,0.06557389206988576,0.029142216426367287,0.013157748817436383,0.02941666950353377,0.0949512879422788,-7.603508231513912e-06
3,7.115503499997431,0.06826418019614891,-0.004773318759146716,0.0025194321613226348,-0.010960080849451822,-0.018304994247392473,-0.00030689459493908264,0.06571684683320907,0.029603896370362415,0.013157396486605006,0.029593471333761945,0.09561210229481783,-0.00013782789287780666
4,7.119695099987439,0.06821184603123528,-0.004861665643341578,0.002518099598506798,-0.010641311331660103,-0.018160430164864166,-0.00024314381714570562,0.06586067444304189,0.030068767600080808,0.013156413164387749,0.029776891797890982,0.09626846910853125,-0.0002680620032586176
5,7.12390009999217,0.06816105810943024,-0.004949306604623777,0.002517075919970856,-0.010321842763036772,-0.018013605905924282,-0.00017939933265800025,0.06600540668476221,0.030536808218373814,0.013154798769811986,0.02996681096004051,0.09692024489088898,-0.0003983195323131058
6,7.130397100001574,0.06811181982851161,-0.005036230654405576,0.0025163610878136105,-0.010001670684008332,-0.017864506167617925,-0.00011566419952835415,0.06615107475012709,0.031007995631939723,0.013152553156906272,0.03016310400443606,0.097567285612929,-0.0005286137355167131
7,7.134336199989775,0.06806413460823173,-0.005122426730216036,0.002515955049314763,-0.009680790485332979,-0.01771311575815316,-5.194147667148376e-05,0.06629770921495841,0.03148230654788394,0.013149676116242735,0.030365641571081542,0.09820944643494785,-0.000658957619114714
8,7.138062400001218,0.06801800589103535,-0.005207883696247851,0.0025158577369299956,-0.009359197411135146,-0.017559419600300268,1.1765775830714132e-05,0.06644534001742029,0.03195971696930214,0.013146167375809904,0.030574289740408923,0.09884658153315917,-0.0007893640497241225
9,7.142283900000621,0.06797343714276272,-0.0052925903439207025,0.002516069068284579,-0.009036886562050334,-0.01740340273481486,7.545449642753306e-05,0.0665939964355561,0.03244020219016062,0.013142026601492982,0.030788910048541198,0.09947854400503796,-0.0009198458429729859
10,7.146571299992502,0.06793043185333701,-0.005376535392461268,0.0025165889461655306,-0.00871385289847733,-0.01724505032388675,0.00013912162179925957,0.06674370706571374,0.03292373678996218,0.01313725339708769,0.03100935965503483,0.10010518583507547,-0.001050415856901304
11,7.151587499989546,0.0678889935374359,-0.0054597074895000024,0.0025174172585123136,-0.008390091243932115,-0.017084347654614748,0.0002027640865556781,0.06689449980170825,0.03341029462829464,0.013131847303875425,0.031235491556411154,0.10072635785621437,-0.0011810870720209807
12,7.15523979999125,0.06784912573514647,-0.005542095211684813,0.002518553878406073,-0.008065596288502015,-0.016921280142508374,0.0002663788229317565,0.06704640181531638,0.03389984883912295,0.013125807799861259,0.03146715483013926,0.10134190972634316,-0.0013118726613652611
13,7.1589532999933,0.06781083201260332,-0.005623687065311779,0.0025199986640573858,-0.00774036259238863,-0.016755833335017963,0.00032996276047876676,0.06719943953780347,0.034392371825109944,0.013119134298670261,0.03170419463452143,0.10195168993099914,-0.0014427860491039981
14,7.163377599994419,0.06777411596260918,-0.005704471486973036,0.002521751458792504,-0.0074143845895410015,-0.016587992915091405,0.00039351282574927494,0.06735363864041702,0.03488783525193467,0.013111826148217487,0.03194645226986537,0.1025555457510037,-0.0015738409305621765
15,7.167260599992005,0.06773898120523775,-0.005784436844221959,0.0025238120910380524,-0.007087656591387571,-0.016417744704759322,0.0004570259419753732,0.06750902401650634,0.03538621004229946,0.013103882629410294,0.03219376581884494,0.10315332317974464,-0.0017050512502944115
16,7.170814199998858,0.06770543138841816,-0.005863571436255797,0.002526180374304152,-0.006760172790642627,-0.016245074668749877,0.0005204990287410941,0.06766561976822165,0.03588746636944669,0.013095302955030806,0.03244597087846031,0.10374486682848635,-0.0018364311706335083
17,7.174381599994376,0.06767347018850095,-0.005941863494615879,0.0025288561071659453,-0.0064319272651671535,-0.01606996891813678,0.0005839290016498132,0.067823449195727,0.03639157365024825,0.013086086268743023,0.03270290057536965,0.1043300199912082,-0.0019679951188717407
18,7.182068999987678,0.06764310131080513,-0.006019301183905603,0.0025318390732434947,-0.006102913981879814,-0.015892413714021062,0.000647312771987041,0.06798253478404792,0.0368985005393506,0.013076231643518059,0.03296438442212637,0.10490862499858805,-0.0020997580069420795
19,7.18654319999041,0.0676143284901462,-0.0060958726025263235,0.002535129041180041,-0.005773126800745257,-0.01571239547123583,0.0007106472463725653,0.06814289818120046,0.03740821492569463,0.013065738078512381,0.03323024660926161,0.10548052366178959,-0.002231735530685897
20,7.1905323999963,0.0675871554913446,-0.006171565783431239,0.0025387257646185307,-0.005442559478897044,-0.015529900762061752,0.0007739293263929912,0.06830456016848788,0.03792068393096132,0.013054604494592925,0.03350030538007627,0.1060455574553996,-0.002363944339030883
21,7.195840199987288,0.06756158610971377,-0.006246368694897286,0.0025426289821763137,-0.005111205674913801,-0.015344916319946882,0.0008371559082105182,0.0684675406325709,0.038435873907864404,0.013042829729575876,0.033774374067581464,0.1066035673013727,-0.0024964019706105655
22,7.199408799991943,0.06753762417152716,-0.0063202692413150754,0.0025468384174178794,-0.0047790589532128065,-0.015157429043238696,0.0009003238821493405,0.0686318585458132,0.03895375043650231,0.013030412534365989,0.03405226245168678,0.10715439317047513,-0.0026291266212048548
23,7.202988899996853,0.06751527353446371,-0.006393255263996953,0.002551353778825545,-0.0044461127885166134,-0.014967425998939255,0.0009634301322670114,0.06879753195150377,0.03947427831878849,0.013017351570449039,0.03433377752171358,0.10769787378961743,-0.00276213694216194
24,7.209254799992777,0.06749453808803157,-0.006465314542003324,0.0025561747597680397,-0.0041123605703898385,-0.01477489442649123,0.0010264715359165437,0.06896457795159168,0.03999742157196723,0.01300364540798458,0.03461872359832557,0.10823384662954998,-0.0028954520404113615
25,7.215299599993159,0.06747542175396966,-0.006536434792987404,0.0025613010384669486,-0.003777795607824644,-0.01457982174159589,0.0010894449632992914,0.06913301269309009,0.04052314342292473,0.01298929252329827,0.03490690176930396,0.10876214811464749,-0.003029091694330208
26,7.221616099996027,0.06745792848662686,-0.0066066036740585424,0.0025667322779609637,-0.003442411133909284,-0.014382195540054264,0.001152347277002749,0.06930285135034325,0.04105140630373787,0.012974291294882732,0.035198109111907225,0.10928261379331933,-0.0031630766215554437
27,7.22572579998814,0.06744206227331842,-0.006675808782664199,0.002572468126067849,-0.0031062003105854314,-0.014182003601628263,0.0012151753315146785,0.06947410810389461,0.041582171847636705,0.012958639998294573,0.035492138052321334,0.10979507837905261,-0.0032974285580913577
28,7.229641099998844,0.06742782713465902,-0.006744037657490682,0.0025785082153439833,-0.002769156233521507,-0.013979233893920966,0.0012779259727114572,0.06964679611654638,0.04211540088495097,0.012942336801388642,0.03578877665542297,0.11029937565332301,-0.003432170089141313
29,7.237370499991812,0.0674152271248719,-0.006811277779382728,0.0025848521630413668,-0.002431271937102006,-0.013773874576277026,0.001340596037326021,0.06982092751503573,0.0426510534381317,0.012925379760854415,0.036087809753255005,0.11079533828236876,-0.003567324381290769
30,7.241027199997916,0.06740426633207366,-0.006877516572282037,0.0025914995710620077,-0.0020925403994784004,-0.0135659140037112,0.0014031823524026476,0.06999651337703006,0.04318908871592213,0.01290776682004559,0.03638901929571139,0.11128279771823474,-0.0037029149470869066
31,7.245993899996392,0.06739494887853441,-0.006942741404184926,0.0025984500259096455,-0.0017529545476844897,-0.013355340730865242,0.0014656817347438666,0.07017356371620158,0.04372946510742038,0.012889495807797871,0.036692184228582184,0.11176158418835777,-0.0038389654358540956
32,7.249727599992184,0.06738727892091294,-0.0070069395881192055,0.0026057030986387777,-0.0014125072628319412,-0.013142143515993968,0.0015280909903537861,0.0703520874680408,0.04427214017614944,0.012870564438285713,0.03699708079852683,0.11223152675158987,-0.003975499402083182
33,7.253312799992273,0.06738126065046658,-0.007070098383140462,0.0026132583448009884,-0.0010711913853631184,-0.012926311324979622,0.0015904069138836152,0.07053209247788646,0.04481707065466272,0.012850970312084582,0.037303482537822605,0.11269245342700271,-0.0041125400728739955
34,7.257335799993598,0.0673768982932355,-0.00713220499534784,0.002621115304388602,-0.0007289997203626203,-0.01270783333537021,0.001652626288085284,0.07071358548659126,0.04536421243986228,0.012830710918281354,0.037611160142372466,0.113144191332045,-0.004250110147801309
35,7.263062099998933,0.067374196110201,-0.007193246578919453,0.002629273501775716,-0.0003859250429490194,-0.01248669894043924,0.0017147458832774177,0.07089657211736962,0.04591352058894322,0.012809783637476022,0.03791988173094521,0.11358656683122263,-0.004388231647369449
36,7.2674378999945475,0.06737315839741763,-0.007253210237167509,0.002637732445656682,-4.1960103713856125e-05,-0.012262897753263353,0.0017767624568280453,0.07108105686397556,0.04646494931615271,0.012788185745360673,0.03822941286042125,0.11401940567910794,-0.004526925825318166
37,7.272024699996109,0.06737378948611877,-0.007312083023613242,0.002646491628982123,0.00030290236577205893,-0.012036419610813476,0.0018386727526552564,0.07126704307769827,0.04701845199012026,0.012765914416571024,0.03853951654104416,0.11444253313459433,-0.0046662130985833964
38,7.276998000001186,0.06737609374279536,-0.007369851943081679,0.002655550528892575,0.000648669647393628,-0.011807254578058325,0.0019004735007472347,0.07145453295568777,0.047573981131723966,0.012742966728944127,0.03884995332791835,0.1148557740916019,-0.004806112926274084
39,7.28197789999831,0.06738007556924758,-0.0074265039528163355,0.002664908606649857,0.0009953490308720304,-0.011575392952076229,0.0019621614167041742,0.07164352752883714,0.04813148841268741,0.012719339668542705,0.039160481000767154,0.11525895318200445,-0.004946643586605711
40,7.290554399995017,0.06738573940260907,-0.007482025963613834,0.00267456530756627,0.0013429478080822757,-0.011340825266172236,0.002023733201307003,0.07183402664700485,0.04869092465444333,0.01269503013607454,0.039470853938721885,0.11565189487556425,-0.005087821872880815
41,7.294576699991012,0.06739308971534362,-0.007536404840978496,0.002684520060931787,0.0016914732672905625,-0.011103542294000946,0.0020851855401215077,0.07202602896083818,0.04925223982769897,0.012670034954862975,0.039780822922059186,0.11603442359054422,-0.0052296628619316185
42,7.299475199994049,0.06740213101521352,-0.007589627406296911,0.0026947722799394187,0.0020409326872956857,-0.01086353505368783,0.002146515103144297,0.07221953190507427,0.04981538305237166,0.012644350879510265,0.040090135604955356,0.1164063636328401,-0.0053721798602253965
43,7.303359500001534,0.06741286784521941,-0.0076416804380324685,0.0027053213616089707,0.0023913333315045715,-0.01062079481195269,0.0022077185444908803,0.07241453168494488,0.050380302596564334,0.012617974604390358,0.04039853707970692,0.11676753903575482,-0.005515384474397409
44,7.307215299995732,0.06742530478351132,-0.007692550672939889,0.0027161666867093867,0.002742682441941936,-0.0103753130882409,0.0022687925021239335,0.07261102326494515,0.05094694587494838,0.012590902771628725,0.04070577028843162,0.1171177735227777,-0.005659286726113878
45,7.311508699989645,0.0674394464432704,-0.007742224807299788,0.002727307619679873,0.0030949872332169817,-0.010127081658862539,0.002329733597618707,0.07280900035922801,0.051515259447378454,0.012563131978482044,0.041011576084110296,0.11745689054868123,-0.005803895127359204
46,7.3159740999981295,0.06745529747256153,-0.007790689498173317,0.002738743508549967,0.0034482548864399713,-0.009876092561137062,0.002390538435962806,0.07300845542096451,0.05208518901767362,0.012534658784588433,0.041315693306827356,0.1177847133118282,-0.005949216683299396
47,7.3260559999907855,0.06747286255415606,-0.007837931364676896,0.002750473684858723,0.0038024925430858174,-0.009622338097544238,0.002451203605391859,0.0732093796334771,0.05265667943235142,0.012505479719319389,0.04161785873795605,0.11810106480090517,-0.006095256886065812
48,7.333063799989759,0.06749214640532497,-0.007883936989277078,0.0027624974635731873,0.004157707298824731,-0.009365810839881089,0.002511725677260543,0.07341176289915587,0.05322967467986187,0.012475591289090263,0.04191780659701704,0.11840576789219277,-0.006242019757652413
49,7.339371699999901,0.06751315377760186,-0.007928692919105565,0.0027748141430063342,0.004513906197278402,-0.009106503633420254,0.002572101205949098,0.0736155938257161,0.05380411789026417,0.01244498998429649,0.042215268678916396,0.11869864542377194,-0.006389508011510152
50,7.351323199996841,0.06753588945651555,-0.007972185667294372,0.0027874230047346357,0.0048710962237174735,-0.00884440960107006,0.0026323267288015663,0.07382085971644446,0.054379951335179824,0.012413672285058098,0.04250997468934595,0.1189795203099791,-0.00653772334889541
51,7.355558999988716,0.06756035826129202,-0.008014401714331154,0.002800323313515398,0.005229284298723201,-0.008579522147533337,0.0026923987660879777,0.07402754655970677,0.05495711642857848,0.012381634665284101,0.04280165230586676,0.11924821568251001,-0.006686666784339536
52,7.359650499987765,0.06758656504452557,-0.008055327509434674,0.002813514317203966,0.005588477271783249,-0.00831183496345988,0.0027523138209819753,0.07423563901978615,0.05553555372809846,0.01234887359526298,0.04309002777262842,0.11950455492748735,-0.006836338887320023
53,7.363299199991161,0.06761451469181873,-0.008094949471950372,0.0028269952466708414,0.005948681914864564,-0.008041342029592464,0.002812068379548103,0.0744451204321541,0.05611520293619182,0.012315385543385094,0.04337482655600852,0.11974836168834997,-0.006986739929003279
54,7.367247199988924,0.06764421212139111,-0.008133253992766007,0.0028407653157187657,0.006309904915963345,-0.007768037620908204,0.002871658910736125,0.07465597280066222,0.05669600290147288,0.012281166977311122,0.04365577371066935,0.11997945994025888,-0.0071378699679966965
55,7.371759099987685,0.06767566228365683,-0.00817022743574736,0.0028548237209997827,0.006672152872650704,-0.007491916310751513,0.0029310818663796346,0.07486817679636067,0.057277891620584304,0.012246214364863478,0.04393259374233997,0.12019767411203494,-0.007289728867989757
56,7.383765299993684,0.06770887016077078,-0.008205856139193933,0.0028691696419323068,0.007035432285611184,-0.007212972974957368,0.0029903336811990125,0.07508171175336016,0.05786080624072732,0.012210524175023788,0.044205010180760604,0.12040282932058342,-0.007442316285410149
57,7.388220599998021,0.06774384076614344,-0.008240126417314602,0.002883802240618216,0.0073997495521483225,-0.006931202795959754,0.0030494107728097027,0.0752965556635119,0.05844468306379956,0.01217409287894393,0.044472745625454384,0.12059475162639577,-0.007595631681305269
58,7.392885900000692,0.06778057914392427,-0.008273024561723128,0.002898720661759999,0.007765110959671609,-0.0066466012668748315,0.0031083095417349677,0.07551268517271317,0.05902945755140124,0.012136916950828379,0.044735521806711996,0.1207732680144465,-0.007749674345615253
59,7.397471799995401,0.06781909036845335,-0.00830453684295339,0.0029139240325779725,0.008131522679166251,-0.006359164195560862,0.003167026371422715,0.07573007557617825,0.059615064328787895,0.012098992868710011,0.04499305953995881,0.12093820618834128,-0.00790444344295189
60,7.403106300000218,0.06785937954368149,-0.008334649511994233,0.0029294114627275917,0.008498990758634304,-0.006068887708663077,0.0032255576282657706,0.07594870081430179,0.06020143718788172,0.012060317114888822,0.045245078939087226,0.12108939449594894,-0.008059938094581484
61,7.407176799999434,0.06790145180255833,-0.008363348801843893,0.0029451820442168634,0.008867521116524347,-0.005775768255644417,0.0032838996616229572,0.07616853346999704,0.06078850909050361,0.012020886175913261,0.04549129940118222,0.12122666198662611,-0.0082161574274877
62,7.4113270999951055,0.06794531230638877,-0.008390620929083915,0.0029612348513238605,0.00923711953514682,-0.0054798026127990795,0.003342048803839187,0.07638954476441126,0.06137621217193903,0.01198069654254349,0.04573143966777234,0.12134983846076049,-0.008373100543384459
63,7.41569549999258,0.06799096624415728,-0.008416452095472472,0.0029775689405143304,0.009607791654062177,-0.005180987887248706,0.0034000013702661824,0.0766117045548575,0.061964477744650207,0.011939744710033008,0.04596521829731629,0.12145875447354704,-0.00853076644772707
64,7.41930679998768,0.06803841883182021,-0.008440828489557,0.0029941833503594104,0.009979542963476185,-0.004879321520919953,0.0034577536592853,0.0768349813351087,0.06255323630187856,0.011898027178779842,0.04619235371101474,0.12155324135985598,-0.008689153986330146
65,7.423889499987126,0.06808767531156615,-0.008463736288306071,0.003011077101453457,0.010352378797630925,-0.004574801294505769,0.003515301952334561,0.07705934223377349,0.0631424175215979,0.01185554045522239,0.04641256411663435,0.12163313138473594,-0.00884826181868889
66,7.428073099988978,0.06813874095104415,-0.008485161658760416,0.0030282491963320238,0.010726304328184348,-0.004267425331404657,0.0035726425139401548,0.07728475301385206,0.06373195027157533,0.011812281052749151,0.04662556773709594,0.12169825795122137,-0.009008088441319478
67,7.432335499994224,0.06819162104255994,-0.008505090759702964,0.0030456986193899945,0.011101324557596976,-0.003957192101632908,0.0036297715917522886,0.07751117807332711,0.06432176261533826,0.011768245492368382,0.046831082825890664,0.12174845582906389,-0.009168632260662783
68,7.436534199994639,0.06824632090224007,-0.008523509743347785,0.0030634243367999095,0.011477444312517184,-0.0036441004257060376,0.003686685416583179,0.07773858044486918,0.0649117818194519,0.011723430302911333,0.04702882774325894,0.12178356137964871,-0.009329891679816158
69,7.444971399992937,0.06830284586916403,-0.008540404757047742,0.003081425296430468,0.011854668237165043,-0.0033281494784804942,0.003743380202444869,0.07796692179716581,0.06550193436166583,0.011677832020861416,0.04721852107812669,0.12180341269138084,-0.009491865183870202
70,7.449142899989965,0.06836120130446427,-0.008555761945020661,0.0030997004277652186,0.012233000786730487,-0.003009338792956154,0.003799852146585568,0.07819616243580849,0.06609214593950355,0.01163144718973046,0.047399881571996705,0.12180784967113409,-0.009654551407539966
71,7.453039499989245,0.0684213925903943,-0.008569567450093832,0.0031182486418214156,0.012612446220765749,-0.002687668264034785,0.003856097429521422,0.07842626130388426,0.06668234147929519,0.011584272359232487,0.04757262851529495,0.12179671400231017,-0.009817949148488204
72,7.457805799989728,0.06848342512936476,-0.008581807415466602,0.003137068831069017,0.012993008596589257,-0.0023631381522350114,0.003912112215064846,0.07865717598670363,0.06727244514436066,0.011536304084530854,0.0477364820675968,0.12176984895426472,-0.009982057377391731
73,7.465801300000749,0.06854730434294753,-0.008592467986490878,0.003156159869349814,0.013374691762723896,-0.0020357490873714754,0.003967892650349,0.07888886271549535,0.06786238034219558,0.011487538925314475,0.04789116296807285,0.12172709928506989,-0.010146875269372288
74,7.469819299993105,0.06861303567084827,-0.00860153531246937,0.0031755206117966683,0.0137574993523367,-0.001705502072200166,0.00402343486584717,0.0791212763693283,0.06845206973171206,0.01143797344474038,0.0480363924285865,0.12166831129866536,-0.010312402219222996
75,7.473913900001207,0.0686806245698469,-0.008608995548471424,0.0031951498947528287,0.01414143477669574,-0.0013723984860274116,0.004078734975386996,0.07935437047777036,0.06904143523097853,0.011387604208362384,0.04817189220991284,0.12159333296882381,-0.010478637805183303
76,7.482265899991034,0.06875007651270675,-0.008614834857166237,0.003215046535691305,0.014526501218635593,-0.0010364400882802041,0.004133789076159467,0.07958809722354891,0.06963039802566182,0.011336427783424682,0.04829738483535749,0.12150201412211059,-0.010645581688446282
77,7.486548799992306,0.06882139698705174,-0.008619039410673289,0.003235209333134274,0.014912701626039998,-0.0006976290220333821,0.004188593248726311,0.07982240744727981,0.07021887857853998,0.011284440738764376,0.04841259365164092,0.12139420664753706,-0.010813233509701545
78,7.4909622999985,0.06889459149421234,-0.008621595392429739,0.0032556370665725223,0.015300038705353156,-0.0003559678174877679,0.004243143557028041,0.08005725065071788,0.07080679663997608,0.011231639645107643,0.04851724270705381,0.12126976461097849,-0.010981592812890151
79,7.494622099999106,0.06896966554803992,-0.008622488999074562,0.0032763284963849325,0.015688514915093894,-1.1459395395852966e-05,0.004297436048394213,0.08029257500030516,0.0713940712585398,0.011178021075711126,0.048611056766499496,0.12112854419796446,-0.011150658997103931
80,7.49871109999367,0.06904662467368977,-0.008621706442349145,0.0032972823637580258,0.01607813245940134,0.0003358929295629965,0.004351466753557692,0.08052832733056718,0.07198062079092686,0.011123581607124245,0.048693761448825014,0.12097040357642219,-0.011320431300811088
81,7.503473299992038,0.06912547440637298,-0.008619233951014129,0.0033184973906055836,0.016468893281582,0.0006860854454529807,0.0044052316866722944,0.080764453148992,0.07256636291125046,0.011068317819983443,0.04876508351667312,0.1207952027861496,-0.011490908803840318
82,7.507338199997321,0.06920622029007692,-0.008615057772782273,0.0033399722794883635,0.016860799057702724,0.0010391140397967018,0.004458726845334753,0.08100089664223538,0.07315121461988962,0.011012226299755271,0.04882475060184171,0.1206028036511082,-0.011662090461601342
83,7.511356299990439,0.06928886787625498,-0.00860916417626713,0.0033617057135339333,0.01725385119019791,0.001394974196331351,0.004511948210609559,0.08123760067833838,0.07373509225193071,0.010955303637199015,0.04887249126641735,0.12039306970698634,-0.01183397515752759
84,7.516185699991183,0.06937342272248513,-0.008601539452947348,0.003383696356356627,0.017648050801483954,0.0017536609918053494,0.00456489174705541,0.08147450681352493,0.07431791148531382,0.010897546428601574,0.048908035429524474,0.12016586618789227,-0.012006561723163478
85,7.522340700001223,0.06945989039109782,-0.008592169919146388,0.0034059428519776364,0.018043398727632335,0.0021151690928134796,0.004617553402752329,0.08171155529855495,0.07489958734914529,0.010838951276045422,0.04893111391010606,0.11992106014067919,-0.012179848860906102
86,7.527991999988444,0.06954827644777316,-0.008581041918027492,0.003428443824745228,0.01843989551204563,0.002479492752674081,0.004669929109330707,0.08194868508109113,0.07548003423295199,0.010779514788392178,0.04894145833533003,0.11965852061557056,-0.012353834963846063
87,7.532179699992412,0.06963858646010755,-0.008568141821603668,0.0034511978792551175,0.018837541399153532,0.0028466258083538606,0.0047220147820079585,0.08218583381116443,0.07605916589684122,0.010719233583296446,0.04893880161322612,0.11937811887205722,-0.012528517950902754
88,7.536303799992311,0.06973082599614983,-0.008553456032762459,0.0034742036002710424,0.019236336328141836,0.003216561677443547,0.004773806319637075,0.08242293784812108,0.0766368954827502,0.010658104289787034,0.048922878176807745,0.1190797284760761,-0.012703895183017046
89,7.540546799995354,0.06982500062290704,-0.008536970987305229,0.003497459552645605,0.019636279926715773,0.0035892933551917175,0.0048252996047682935,0.08265993226845378,0.07721313552554769,0.01059612355109296,0.04889342415172989,0.11876322512848421,-0.012879963422069372
90,7.54691959999036,0.06992111590482022,-0.008518673156000682,0.0035209642812414448,0.020037371504904884,0.003964813411588032,0.004876490503725042,0.08289675087437344,0.07778779796262135,0.010533288027622779,0.04885017737168961,0.11842848646108634,-0.013056718793787545
91,7.551852299991879,0.07001917740221011,-0.008498549046652417,0.0035447163108528155,0.020439610048909426,0.004343113988489971,0.004927374866694476,0.08313332620178962,0.07836079414300268,0.010469594400150037,0.048792877454458816,0.11807539203468455,-0.013234156731498881
92,7.55690679998952,0.07011919066969327,-0.008476585206180285,0.003568714146127636,0.02084299421498258,0.004724186796794498,0.00497794852783429,0.08336958952961906,0.07893203483693544,0.010405039373337687,0.048721266122160586,0.11770382347068101,-0.013412271914571316
93,7.5618543999880785,0.07022116125456855,-0.00845276822271535,0.0035929562714901034,0.021247522323367067,0.005108023113657517,0.0050282073053974155,0.08360547089086988,0.07950143024627597,0.010339619679520089,0.04863508736917202,0.11731366454255841,-0.013591058215667647
94,7.565795099988463,0.07032509469517444,-0.008427084727708202,0.0036174411510639494,0.021653192352284762,0.0054946137797663285,0.005078147001875479,0.08384089908357716,0.08006889001494812,0.010273332082738574,0.048534087568675825,0.11690480113388899,-0.013770508654896438
95,7.569997999991756,0.07043099651921728,-0.008399521398050343,0.003642167228596446,0.022060001931979288,0.0058839491966604,0.005127763404162604,0.08407580168291971,0.0806343232389366,0.010206173382967754,0.04841801547280641,0.11647712122693797,-0.013950615375964866
96,7.573752799988142,0.07053887224207088,-0.008370064958208459,0.0036671329273832492,0.022467948338823054,0.006276019324100662,0.005177052283739833,0.08431010505215714,0.08119763847663151,0.010138140420382179,0.04828662201444732,0.11603051492745571,-0.014131369641976668
97,7.5781477999989875,0.07064872736504765,-0.00833870218237131,0.0036923366501941906,0.022877028489465833,0.006670813677490529,0.005226009396880272,0.08454373435282579,0.08175874375906196,0.010069230079623374,0.048139660520396046,0.11556487446465462,-0.014312761858724554
98,7.582269899998209,0.07076056737364149,-0.008305419896608992,0.00371777677920011,0.023287238935040606,0.007068321325344365,0.0052746304848748605,0.08477661355774159,0.08231754660024031,0.009999439293840773,0.04797688715395615,0.1150800943322594,-0.014494781610453426
99,7.586444899992784,0.07087439773574275,-0.00827020498104435,0.003743451675900835,0.023698575855438147,0.007468530886808747,0.00532291127427668,0.08500866546548504,0.08287395400876271,0.009928765048612183,0.047798060853909655,0.11457607148677112,-0.014677417656488577
100,7.593158999996376,0.07099022389982568,-0.008233044372036268,0.00376935968105438,0.02411103505365324,0.00787143052924335,0.005370847477164716,0.0852398117128126,0.0834278725000747,0.009857204386017393,0.047602942922438024,0.11405270549230945,-0.014860657902197455
101,7.599210999993375,0.07110805129310858,-0.008193925064374531,0.0037954991146074827,0.02452461195017954,0.00827700796586107,0.005418434791427641,0.08546997278514841,0.08397920810947533,0.009784754408840041,0.04739129736109108,0.11350989877992011,-0.015044489363301458
102,7.605819599993993,0.07122788531968695,-0.008152834113485972,0.003821868275627554,0.024939301577457457,0.00868525045343493,0.005465668901068295,0.08569906803225141,0.08452786640689562,0.009711412284987071,0.047162891541438844,0.11294755693723933,-0.015228898132857455
103,7.609988799988059,0.0713497313586398,-0.00810975863765156,0.003848465442236164,0.025355098574420844,0.009096144790081424,0.0055125454765302985,0.08592701568520618,0.0850737525127098,0.009637175252010566,0.046917496098265045,0.11236558880943458,-0.015413869369444827
104,7.61499279999407,0.07147359476210996,-0.008064685820234032,0.0038752888715441565,0.02577199718110954,0.009509677313120633,0.005559060175046352,0.08615373287105502,0.0856167711134919,0.009562040621641687,0.046654884899423495,0.11176390648800867,-0.015599387284354008
105,7.619950899999822,0.07159948085335824,-0.008017602911915715,0.003902336799588511,0.026189991233357846,0.009925833897012267,0.005605208641008784,0.08637913562949667,0.08615682647771856,0.009486005784436655,0.046374835335218995,0.11114242529160005,-0.015785435086125
106,7.624610499988194,0.07172739492479219,-0.007968497232946159,0.003929607441271049,0.026609074157568902,0.010344599951367956,0.005650986506362878,0.08660313893032276,0.08669382247133953,0.009409068214848154,0.04607712839491844,0.11050106372678417,-0.015971994865364315
107,7.629071199989994,0.07185734223596965,-0.00791735617539922,0.003957098990299107,0.027029238965572126,0.01076596041903818,0.005696389391026563,0.0868256566908579,0.08722766257310054,0.009331225476987524,0.04576154860561008,0.10983974339775585,-0.016159047478508326
108,7.636548399997991,0.0719893280115777,-0.007864167205439235,0.003984809619128307,0.027450478249566593,0.01118989977427305,0.005741412903339581,0.08704660179280366,0.08775824988923868,0.009252475230822576,0.04542788416922956,0.10915838888713247,-0.016346572497625854
109,7.641169999988051,0.07212335743938718,-0.007808917865595929,0.004012737478907589,0.02787278417714172,0.011616402020951641,0.005786052640543236,0.08726588610100657,0.08828548716765013,0.009172815238426236,0.04507592719183689,0.10845692768432633,-0.016534548220992918
110,7.645126299990807,0.07225943566818337,-0.007751595777047746,0.0040408806994266236,0.028296148486402505,0.012045450690880076,0.005830304189290122,0.08748342048252392,0.08880927681189135,0.009092243370071888,0.04470547342404403,0.1077352901151655,-0.01672295170794105
111,7.649919599993154,0.0723975678056733,-0.007692188641913247,0.004069237389065786,0.028720562481174987,0.012477028842156542,0.0058741631261829364,0.08769911482287635,0.08932952089466487,0.009010757610144308,0.044316322291349027,0.10699340927325202,-0.016911758825471652
112,7.657358399999794,0.07253775891636999,-0.007630684245550292,0.004097805634748796,0.029146017026288978,0.012911119057600052,0.005917625018341486,0.08791287804540758,0.08984612117115523,0.008928356062783279,0.0439082771995474,0.10623122110474752,-0.017100944292080318
113,7.661480299997493,0.07268001401945398,-0.007567070458862662,0.004126583501898178,0.029572502542971127,0.013347703443244704,0.005960685423996196,0.08812461813049668,0.09035897909333643,0.008845036957369838,0.04348114518369648,0.10544866468671134,-0.017290481689275317
114,7.669843600000604,0.07282433808661297,-0.007501335240613825,0.004155569034393656,0.030000009004313846,0.013786763626907091,0.0060033398931082825,0.08833424213151601,0.09086799582600519,0.00876079865405827,0.04303473706065641,0.1046456825386714,-0.017480343478691356
115,7.674034299998311,0.07297073603985944,-0.0074334666397474535,0.004184760254533625,0.030428525930823007,0.014228280756835932,0.006045583968016867,0.08854165619552169,0.0913730722641077,0.008675639649096503,0.04256886782556826,0.10382222075718842,-0.017670501073558536
116,7.677950599987525,0.07311921274932713,-0.007363452797714268,0.0042141551629998174,0.03085804238608738,0.014672235500447392,0.006087413184110708,0.08874676558305374,0.09187410905007694,0.008589558579665521,0.042083356148758466,0.10297822892128934,-0.017860924934027637
117,7.682268099990324,0.0732697730310467,-0.007291281950804812,0.004243751738825281,0.031288546972518205,0.015118608043142726,0.006128823070522215,0.08894947468395116,0.09237100659024301,0.00850255422827599,0.04157802442135591,0.10211365991243053,-0.018051584624332526
118,7.686807999998564,0.07342242164470092,-0.0072169424324877544,0.004273547939365772,0.03172002782717189,0.015567378087202623,0.0061698091508417836,0.08914968703759417,0.09286366507042577,0.00841462552705372,0.04105269927365906,0.10122846976880354,-0.018242448852883255
119,7.694902399991406,0.07357716329135985,-0.007140422675753378,0.004303541700274656,0.03215247261768575,0.016018524850755958,0.006210366943853342,0.08934730535374262,0.09335198447093325,0.00832577156174776,0.04050721151459247,0.10032261760022576,-0.01843348559038697
120,7.698846200000844,0.07373400261119666,-0.007061711215461878,0.00433373093548143,0.032585868538302636,0.01647202706681948,0.006250491964287526,0.0895422315321915,0.09383586458132953,0.008235991574871183,0.03994139605488774,0.09939606555593901,-0.018624662237574263
121,7.703062699991278,0.07389294418118425,-0.006980796690696153,0.004364113537173921,0.03302020230599715,0.016927862982409676,0.006290179723587662,0.08973436668286495,0.09431520501512113,0.008145284968083795,0.03935509201411344,0.09844877874085356,-0.018815945784447622
122,7.707199099997524,0.07405399251277356,-0.006897667847118712,0.004394687375784229,0.03345546015669501,0.01738601035772478,0.006329425730686031,0.08992361114650897,0.0947899052237132,0.008053651303789676,0.038748142964812674,0.09748072510653052,-0.01900730300938425
123,7.711308199999621,0.07421715204955356,-0.006812313539332391,0.004425450299978451,0.03389162784159979,0.017846446465391883,0.006368225492785336,0.09010986451715128,0.09525986451003944,0.007961090305590446,0.03812039693212212,0.09649187543322373,-0.019198700739360364
124,7.715854299996863,0.07438242716489393,-0.0067247227332445595,0.004456400136650197,0.03432869062362993,0.018309148089781027,0.006406574516139355,0.09029302566279032,0.09572498204234432,0.00786760185736104,0.03747170618068319,0.09548220335794104,-0.019390106145479508
125,7.725600599995232,0.07454982215957055,-0.006634884508434482,0.004487534690917879,0.03476663327394596,0.018774091526385872,0.006444468306825454,0.0904729927457902,0.09618515686808488,0.0077731860008390845,0.036801927473471135,0.0944516854309682,-0.019581487057395756
126,7.732007300000987,0.0747193412593745,-0.006542788060523524,0.00451885174612571,0.035205440068585184,0.019241252581272513,0.00648190237150188,0.09064966324607786,0.09664028792826068,0.007677842931653687,0.036110922529537036,0.09340030117328034,-0.019772812249215375
127,7.738111099999514,0.07489098861270498,-0.006448422703547857,0.004550349063848334,0.035645094785213674,0.01971060657059901,0.006518872218141787,0.09082293398597391,0.09709027407187205,0.007581572994144214,0.03539855828350718,0.09232803305784634,-0.019964051595901137
128,7.743293099993025,0.07506476828814677,-0.006351777872333322,0.004582024383898942,0.03608558070000158,0.020182128320204322,0.006555373356740323,0.09099270115590455,0.09753501407006883,0.007484376675873408,0.03466470693064303,0.09123486644139801,-0.020155176143780214
129,7.748497199994745,0.07524068427203295,-0.006252843124872117,0.004613875424340747,0.036526880584624305,0.02065579216526494,0.006591401299995481,0.09115886033966902,0.09797440662994734,0.007386254601762892,0.033909245881706795,0.09012078948096768,-0.020346158313470007
130,7.757358799994108,0.07541874046599326,-0.006151608144700986,0.0046458998815017034,0.03696897670338268,0.021131571950017528,0.006626951563958356,0.0913213065397142,0.09840835040789042,0.007287207526639791,0.033132057930393075,0.08898579306705497,-0.020536972272618127
131,7.761283299987554,0.07559894068448884,-0.006048062743280595,0.0046780954299922815,0.03741185081044906,0.021609441027544838,0.0066620196686417695,0.09147993420402452,0.09883674402271668,0.0071872363257601095,0.03233303132942753,0.08782987081960417,-0.020727594249457387
132,7.765708699997049,0.07578128865233405,-0.005942196862375799,0.004710459722726083,0.03785548414724806,0.022089372259625765,0.006696601138578686,0.09163463725213407,0.09925948606898154,0.007086341984316774,0.03151205956247426,0.08665301908929882,-0.020918002597551305
133,7.769710599997779,0.07596578800220573,-0.005834000576436467,0.004742990390943032,0.03829985743995478,0.022571338016650164,0.006730691503329165,0.09178530909980613,0.09967647513013907,0.006984525587335586,0.030669041343550026,0.08545523692404985,-0.021108177606186412
134,7.773847999997088,0.07615244227214076,-0.005723464094978576,0.004775685044234899,0.038744950897114654,0.023055310177596454,0.006764286297940867,0.09193184268503955,0.10008760979151825,0.006881788311020695,0.02980388054084115,0.08423652603939621,-0.021298101168704783
135,7.777658899998642,0.07634125490302232,-0.0056105777649652555,0.004808541270572954,0.039190744207393706,0.023541260130072184,0.006797381063372129,0.09207413049201006,0.10049278865319798,0.006778131415864656,0.02891648576513996,0.08299689078612146,-0.021487756454614856
136,7.783356599989929,0.07653222923605563,-0.0054953320731874825,0.004841556636337595,0.039637216537430436,0.024029158770416403,0.006829971346885704,0.09221206457308827,0.10089191034266952,0.006673556241171387,0.028006770415516323,0.08173633812652302,-0.021677127742833986
137,7.787101599999005,0.07672536851023336,-0.005377717648644138,0.004874728686349813,0.04008434652979942,0.024518976503862935,0.006862052702418765,0.09234553657322357,0.10128487352748151,0.006568064199782227,0.027074652847115948,0.0804548776658145,-0.02186620048644253
138,7.790840699992259,0.07692067585979165,-0.005257725264921122,0.004908054943904405,0.040532112301099495,0.025010683244765294,0.006893620690925531,0.09247443775358825,0.10167157692820676,0.006461656771971382,0.026120056264388233,0.07915252173873007,-0.02205496143186612
139,7.794992199997068,0.07711815431165703,-0.005135345842569225,0.004941532910804765,0.040980491440146496,0.025504248416885606,0.006924670880688113,0.09259865901492668,0.1020519193319265,0.006354335499017015,0.025142908644761326,0.07782928547827377,-0.022243398598860795
140,7.7990598999895155,0.07731780678288487,-0.005010570451480446,0.004975160067399103,0.041429461006287714,0.025999640953750205,0.006955198847596842,0.09271809092045977,0.10242579960586341,0.006246101977290655,0.02414314254032504,0.0764851868244379,-0.022431501145140333
141,7.803667599990149,0.07751963607809001,-0.004883390313262418,0.005008933872617955,0.04187899752781658,0.026496829299070667,0.006985200175403837,0.09283262371731231,0.10279311671095037,0.0061369578531401455,0.02312069513923506,0.07512024652202628,-0.02261925924349968
142,7.807349800001248,0.07772364488686982,-0.004753796803610647,0.00504285176401286,0.04232907700049479,0.026995781407230895,0.007014670455953743,0.09294214736001252,0.10315376971544236,0.006026904818169817,0.022075508417844412,0.07373448809962868,-0.022806664083643173
143,7.814269999988028,0.07792983578122052,-0.0046217814546782145,0.005076911157796107,0.0427796748861947,0.027496464743840064,0.0070436052893915625,0.09304655153339365,0.10350765780828151,0.00591594460410572,0.02100752898805359,0.07232793781380015,-0.02299370805899362
144,7.81972109999333,0.07813821121294709,-0.004487335957442658,0.005111109448881423,0.04323076611164337,0.027998846286349223,0.007072000284343631,0.0931457256746142,0.10385468031216802,0.005804078976265478,0.019916708113266658,0.0709006245764681,-0.023180385088883496
145,7.823707999996259,0.0783487735110674,-0.0043504521640697034,0.005145444010925476,0.043682325067278406,0.028502892524730906,0.0070998510580621696,0.09323955899621415,0.10419473669622172,0.005691309725301256,0.018803001905975135,0.06945257988975605,-0.02336669088633574
146,7.830006399992271,0.07856152487921103,-0.004211122090273553,0.005179912196369962,0.044134325606215385,0.029008569462218435,0.007127153236526243,0.09332794051004997,0.10452772658842141,0.00557763865807462,0.017666371419228475,0.0679838378286283,-0.02355262301910541
147,7.833906200001365,0.07877646739301344,-0.004069337917673456,0.005214511336484088,0.04458674104333565,0.029515842616106076,0.0071539024544978805,0.09341075905123723,0.10485354978809826,0.005463067588807966,0.01650678263177924,0.06649443505115363,-0.02373818078859492
148,7.83891139998741,0.07899360299750592,-0.003925091996146244,0.005249238741407204,0.04503954415448577,0.030024677018609412,0.007180094355537289,0.09348790330194162,0.10517210627847455,0.005347598331132782,0.015324206752807153,0.06498441082872622,-0.02392336509353831
149,7.843101399994339,0.07921293350450195,-0.003778376846174563,0.005284091700191429,0.0454927071757959,0.03053503721778701,0.007205724591981914,0.09355926181827462,0.10548329623944996,0.005231232690562073,0.014118620786567834,0.0634538070797293,-0.024108178466280928
150,7.848854299998493,0.07943446058998063,-0.003629185161190477,0.005319067480844084,0.04594620180313985,0.031046887278524705,0.007230788824888703,0.09362472305955634,0.10578702006046657,0.00511397245618705,0.012890007775860152,0.06190266841083019,-0.024292625333883305
151,7.854056699987268,0.07965818579146777,-0.003477509809914159,0.00535416333036976,0.04639999919173703,0.03156019078358193,0.007255282723932701,0.09368417541757058,0.10608317835369527,0.0049958193906192655,0.01163835695438109,0.06033104223882221,-0.02447671241081978
152,7.865185399990878,0.07988411050541545,-0.003323343838687359,0.0053893764748117615,0.046854069955896055,0.03207491083470379,0.007279201967251852,0.09373750724730412,0.10637167196808152,0.004876775217881764,0.010363664403231637,0.058738978982742274,-0.024660449059231874
153,7.869857799989404,0.08011223598458066,-0.0031666804738013175,0.005424704119292675,0.047308384168914516,0.032591010053803514,0.007302542241228246,0.09378460690256375,0.10665240200439355,0.004756841609860101,0.009065933690714735,0.05712653223639931,-0.024843847449035346
154,7.880524499996682,0.08034256333540384,-0.003007513123818772,0.005460143448053697,0.04776291136316779,0.03310845058422034,0.0073252992402016185,0.09382536277291571,0.10692526983094001,0.004636020172641942,0.007745175841883775,0.05549375886582511,-0.02502692251504609
155,7.886404099990614,0.08057509351538841,-0.0028458353818896828,0.005495691624492417,0.04821762053036678,0.03362719409205431,0.007347468666118223,0.09385966331900764,0.10719017709956256,0.004514312433383557,0.00640140929355991,0.0538407190918144,-0.025209691791091792
156,7.890723499993328,0.08080982733048185,-0.0026816410280603043,0.005531345791198746,0.048672480121988985,0.03414720176757909,0.007369046228117057,0.09388739710907203,0.10744702576215338,0.004391719828257001,0.005034660045796177,0.05216747666164561,-0.02539217506317835
157,7.895396699997946,0.08104676543245933,-0.002514924031575219,0.005567103069988696,0.04912745804989001,0.03466843432673688,0.007390027642061931,0.09390845285571604,0.10769571808831185,0.004268243692677682,0.003644961418042108,0.0504740991281494,-0.025574393879581575
158,7.899653299988131,0.08128590831631072,-0.0023456785531719222,0.005602960561935766,0.04958252168709115,0.03519085201272232,0.007410408630032993,0.09392271945006202,0.10793615668456648,0.004143885253999109,0.002232353394277564,0.04876065813543781,-0.025756371030412756
159,7.903679800001555,0.08152725631763193,-0.0021738989473675066,0.005638915347399795,0.050037637868721764,0.03571441459766365,0.007430184919788007,0.0939300859921911,0.10816824451480046,0.004018645626783849,0.0007968822103393701,0.047027229604516,-0.025938130041565408
160,7.908342599999742,0.08177080961002099,-0.0019995797647369556,0.005674964486053134,0.050492772893101855,0.036239081384404605,0.007449352244208048,0.0939304418212847,0.10839188492127236,0.0038925258104023025,-0.0006613995998257478,0.045273893829855236,-0.026119694823957297
161,7.912163199987845,0.08201656820247989,-0.00182271575418256,0.005711105016904118,0.05094789252297653,0.036764811208389245,0.007467906340735509,0.0939236765465163,0.1086069816459775,0.0037655266877027627,-0.002142433188863808,0.04350073553642788,-0.026301089483922586
162,7.915885499998694,0.08226453193682264,-0.0016433018651939462,0.005747333958317799,0.05140296198689799,0.037291562439650865,0.00748584295080691,0.0939096800773412,0.10881343885222136,0.0036376490244476273,-0.0036461534882244444,0.04170784394953928,-0.02648233818214068
163,7.922044699997059,0.08251470048509045,-0.001461333250098218,0.005783648308033918,0.051857945980753474,0.03781929298490588,0.007503157819285442,0.09388834265349472,0.10901116114665772,0.0035088934693505423,-0.005172489176682618,0.03989531292590218,-0.026663465000128624
164,7.925959399988642,0.08276707334697468,-0.001276805266299694,0.005820045043182141,0.052312808669437966,0.03834796028975633,0.007519846693894135,0.09385955487558695,0.10920005360213222,0.003379260554806399,-0.006721362467400096,0.03806324114286441,-0.02684449379829201
165,7.929822799997055,0.08302164984724819,-0.0010897134785087066,0.005856521120294537,0.05276751368867864,0.0388775213410051,0.007535905324655475,0.09382320773716456,0.10938002178155429,0.003248750698304069,-0.008292689031670691,0.03621173232953759,-0.02702544818453142
166,7.93649049999658,0.08327842913320593,-0.0009000536609589014,0.005893073475315381,0.053222024147018245,0.03940793266908976,0.007551329463338264,0.09377919265604445,0.10955097176298048,0.003117364203460627,-0.0098863781815648,0.03434089549392454,-0.02720635156846749
167,7.941327499996987,0.08353741017211558,-0.0007078217996124511,0.005929699023608277,0.05367630262794322,0.03993915035064092,0.007566114862907261,0.09372740150460564,0.10971281016568747,0.0029851012609086055,-0.011502332657208564,0.03245084507313898,-0.027387227147143575
168,7.94495150000148,0.08379859174867871,-0.0005130140943525639,0.0059663946599606225,0.05413031119216062,0.040471130011168664,0.007580257276978635,0.0936677266431843,0.10986544417671112,0.0028519619494687697,-0.013140448351404323,0.03054170097840104,-0.027568097868903456
169,7.949062299987418,0.0840619724625035,-0.00031562696116266183,0.006003157258585458,0.05458401138004984,0.04100382682787811,0.007593752459280977,0.09360006095303432,0.1100087815773555,0.0027179462373874237,-0.014800614508022168,0.028613588572132836,-0.027748986370438173
170,7.954139099994791,0.08432755072558971,-0.00011565703429160572,0.006039983673120707,0.05503736421425897,0.04153719553261278,0.007606596163122739,0.09352429786779974,0.11014273076950998,0.0025830539841192462,-0.016482713600742445,0.026666638679485162,-0.027929914910027647
171,7.96159949999128,0.08459532475982648,8.689883159565018e-05,0.006076870736625864,0.0554903302024615,0.042071190414925116,0.0076187841408705236,0.0934403314076504,0.11026720080226998,0.002447284942211536,-0.018186620905315587,0.024700987735226138,-0.028110905455274348
172,7.971219200000632,0.08486529259450402,0.00029204355928258923,0.00611381526157618,0.055942869340283495,0.04260576532527788,0.007630312143434788,0.09334805621489953,0.11038210139967755,0.002310638758236843,-0.019912203950724867,0.0227167780307558,-0.02829197987466861
173,7.975818199993228,0.08513745206383987,0.0004997798468815011,0.006150814039854364,0.05639494111440543,0.043140873678383485,0.007641175919757163,0.09324736759345795,0.1104873429897358,0.0021731149728208064,-0.021659322107989463,0.02071415792586461,-0.028473160098637627
174,7.982721199994557,0.08541180080452054,0.0007101101657303739,0.006187863842739803,0.056846504505871705,0.04367646845668655,0.007651371216296432,0.09313816154843653,0.11058283673420159,0.0020347130200141037,-0.023427826558767822,0.018693281978261138,-0.028654468214889706
175,7.987031899989233,0.0856883362532599,0.0009230367583070107,0.006224961420895284,0.057297517993576304,0.04421250221399198,0.007660893776509764,0.09302033482590463,0.11066849455885525,0.0018954322263963319,-0.025217559792615793,0.016654311048425234,-0.02883592644453899
176,7.991670399991563,0.08596705564437461,0.001138561636161081,0.006262103504351181,0.05774793955795755,0.044748927079240795,0.007669739340330006,0.09289378495736449,0.11074422918430929,0.0017552718106793263,-0.027028355378743582,0.014597412414425534,-0.029017557021094313
177,7.9954052999964915,0.08624795600737824,0.0013566865778648278,0.006299286802487115,0.05819772668491477,0.045285694760436826,0.007677903643643073,0.09275841030172148,0.11080995415739081,0.0016142308839837284,-0.028860038407135746,0.012522759865609663,-0.02919938207611691
178,7.999025899989647,0.08653103416459473,0.0015774131269831709,0.006336508004011078,0.05864683636990976,0.045822756548726654,0.007685382417767921,0.09261411008548377,0.11086558388285818,0.0014723084505503647,-0.030712425413178552,0.01043053376341986,-0.02938142353811292
179,8.00333849999879,0.08681628672879226,0.0018007425900639525,0.00637376377693605,0.05909522512227304,0.04636006332263363,0.007692171388940832,0.09246078444546299,0.11091103365537272,0.00132950340899662,-0.03258532419464455,0.008320921130865747,-0.029563703029671436
180,8.01022089998878,0.08710371010083837,0.0020266760346490708,0.006411050768554129,0.059542848969719106,0.04689756555244767,0.007698266277807559,0.0922983344707474,0.1109462196920825,0.0011858145540246244,-0.03447853381102234,0.006194115826902965,-0.02974624180740239
181,8.01630319999822,0.08739330046737763,0.002255214287307266,0.006448365605408223,0.059989663463059416,0.04743521330477505,0.007703662798924165,0.09212666224540908,0.11097105916628386,0.0010412405782596716,-0.036391844553371556,0.004050318775051422,-0.029929060719053303
182,8.019961699988926,0.08768505379853248,0.002486357931689344,0.006485704893261344,0.06043562368113155,0.04797295624725437,0.0077083566602669865,0.09194567089076926,0.11098547024222066,0.000895780074373976,-0.03832503828030039,0.001889738121064552,-0.03011218016345258
183,8.024014099995838,0.08797896584562856,0.0027201073066066652,0.006523065217063555,0.06088068423592173,0.04851074365344358,0.0077123435627540525,0.09175526460484959,0.11098937211027378,0.0007494315373132706,-0.04027788838706584,-0.0002874108086722545,-0.030295620065710658
184,8.029197999989265,0.08827503213894528,0.002956462504133726,0.00656044314091662,0.06132479927787633,0.049048524407877006,0.007715619199776623,0.09155534870493692,0.11098268502135718,0.0006021933666608824,-0.0422501594237299,-0.0024809057454177547,-0.03047939980490159
185,8.033128399998532,0.08857324798549258,0.0031954233677356533,0.006597835208036414,0.06176792250143687,0.04958624701128565,0.007718179256743519,0.09134582967073496,0.11096533031979833,0.00045406386956514856,-0.0442416073097321,-0.0046905177498513225,-0.030663538137699172
186,8.036869799994747,0.08887360846681516,0.0034369894904213755,0.006635237940713159,0.06221000715076966,0.05012385958597287,0.007720019410641031,0.09112661518484962,0.1109372304751006,0.0003050412638435139,-0.04625197969933182,-0.006916011380607325,-0.030848053138342536
187,8.041935499990359,0.08917610843682476,0.003681160212923211,0.006672647840269565,0.06265100602569318,0.05066130988134246,0.007721135329607326,0.09089761417239932,0.11089830911319042,0.0001551236814917243,-0.04828101610331256,-0.009157144756485599,-0.031032962087175247
188,8.046961699990788,0.08948074251966179,0.00392793462190361,0.006710061387016947,0.06309087148779156,0.051198545279577165,0.007721522672526369,0.09065873684032094,0.11084849104757682,4.309172868061636e-06,-0.05032844763059253,-0.011413669530082776,-0.031218281353393433
189,8.051089999993565,0.08978750510758692,0.0041773115481897735,0.006747475040209427,0.06352955546672286,0.05173551280146873,0.007721177088642875,0.09040989471948407,0.11078770231085416,-0.00014740428866120623,-0.052393996652173994,-0.013685330887119216,-0.03140402626067942
190,8.055044599997927,0.0900963903589038,0.00442928956503689,0.00678488523799632,0.06396700946674064,0.05227215911240165,0.007720094217201244,0.09015100070725356,0.11071587018586813,-0.00030001880123548246,-0.05447737670908142,-0.015971867665399472,-0.03159021090416133
191,8.059621599997627,0.09040739219591386,0.004683866986420742,0.006822288397372838,0.06440318457341473,0.05280843052848528,0.007718269687113687,0.08988196911049588,0.11063292323606569,-0.00045353652808059573,-0.056578292330157966,-0.01827301246926892,-0.03177684794746896
192,8.064854899988859,0.09072050430290417,0.00494104186536037,0.006859680914129259,0.06483803146056961,0.05334427302283169,0.007715699116661364,0.08960271568990742,0.11053879133555192,-0.0006079596900557802,-0.05869643886476842,-0.020588491694220976,-0.03196394838535749
193,8.069262699995306,0.09103572012416945,0.005200811992271514,0.006897059162798738,0.06527150039743466,0.05387963223197905,0.0077123781132347365,0.08931315770464206,0.11043340569920147,-0.0007632905569340808,-0.06083150228390354,-0.02291802549342107,-0.03215152133403035
194,8.07383480000135,0.09135303286206925,0.005463174893351522,0.006934419496603953,0.06570354125601506,0.05441445346246127,0.0077083022731192045,0.08901321395856684,0.11031669891303987,-0.0009195314379174076,-0.06298315910333385,-0.025261327735442027,-0.03233957394449559
195,8.079443199996604,0.09167243547512137,0.005728127828996462,0.006971758247402845,0.0661341035186903,0.05494868169752582,0.007703467181327374,0.08870280484563435,0.11018860496476449,-0.0010766846720773019,-0.06515107646044584,-0.027618105996582445,-0.03252811138914583
196,8.084474699993734,0.09199392067613267,0.005995667792251128,0.007009071725633639,0.06656313628602475,0.05548226160399914,0.007697868411477333,0.08838185239539371,0.11004905927420029,-0.0012347526187399397,-0.06733491228286365,-0.02998806156323105,-0.032717136876055805
197,8.088663899994572,0.09231748093036822,0.00626579150729268,0.007046356220259396,0.06699058828480725,0.056015137539299584,0.007691501525718091,0.08805028031672892,0.10989799872379795,-0.0013937376480654517,-0.06953431542410894,-0.03237088941641895,-0.03290665168329429
198,8.09265449999657,0.09264310845375998,0.006538495427948616,0.007083607998712321,0.06741640787628547,0.056547253558598395,0.0076843620746991515,0.0877080140420552,0.10973536168923924,-0.0015536421317654352,-0.07174892525292097,-0.03476627820050034,-0.033096655139870125
199,8.096567100001266,0.09297079521115574,0.0068137757362498035,0.007120823306838017,0.06784054306463383,0.05707855342212923,0.007676445597585905,0.0873549807750371,0.10956108807023866,-0.0017144684334976256,-0.0739783716075979,-0.03717391018051408,-0.03328714459339665
200,8.10063459999219,0.09330053291460991,0.007091628341019288,0.007157998368839939,0.0682629415056503,0.05760898060264763,0.0076677476221222824,0.0869911095352274,0.10937511932156208,-0.0018762188992700545,-0.07622227500806186,-0.03959346123752088,-0.033478115406166485
201,8.10500269998738,0.09363231302171669,0.0073720488764976114,0.00719512938722426,0.06868355051565685,0.058138478293041126,0.007658263664739142,0.08661633120373004,0.10917739848387346,-0.002038895847797682,-0.07848024636798016,-0.042024600903564406,-0.03366956092563307
202,8.109444599991548,0.09396612673398713,0.007655032701005367,0.007232212542745372,0.06910231708063883,0.05866698941408765,0.007647989230710373,0.0862305785706288,0.10896787021441479,-0.0022025015606205,-0.08075188688748206,-0.04446699237548496,-0.03386147241015246
203,8.115139699992142,0.09430196499527088,0.007940574895643702,0.007269243994352265,0.06951918786560499,0.059194456622362945,0.007636919814357041,0.08583378638168994,0.10874648081771889,-0.0023670382717405477,-0.08303678786918225,-0.04692029256996394,-0.03405383886493252
204,8.120017699999153,0.09463981849022392,0.008228670263033507,0.007306219879136009,0.06993410922417943,0.05972082231829661,0.007625050899303922,0.08542589138757371,0.1085131782757559,-0.0025325081561502426,-0.08533453026109775,-0.04938415221655097,-0.034246646861052055
205,8.124267199993483,0.09497967764282329,0.00851931332609398,0.007343136312278615,0.07034702720843858,0.060246028654371654,0.007612377958794816,0.08500683239496647,0.10826791227774471,-0.00269891331771556,-0.08764468452069439,-0.05185821589741236,-0.0344398804839604
206,8.128196499994374,0.09532153261493016,0.00881249832686128,0.007379989387003577,0.07075788757899858,0.06077001754346942,0.0075988964560665,0.08457655031710964,0.1080106342499141,-0.0028662557772052857,-0.08996681101020078,-0.05434212210807805,-0.03463352141726719
207,8.132945399993332,0.0956653733049023,0.009108219225347956,0.007416775174528353,0.07116663581534195,0.061292730667357555,0.007584601844780046,0.08413498822110102,0.10774129738472554,-0.0030345374609861814,-0.0923004603620448,-0.05683550332747544,-0.03482754905724188
208,8.137214599992149,0.09601118934625717,0.009406469698443859,0.007453489724019088,0.07157321712636341,0.06181410948531814,0.007569489569504329,0.08368209137488235,0.10745985666995574,-0.0032037601901618207,-0.09464517306848873,-0.05933798597692641,-0.03502194058328477
209,8.140925399988191,0.0963589701063867,0.009707243138859184,0.0074901290625477845,0.07197757646115183,0.06233409524291747,0.007553555066252596,0.08321780729851733,0.10716626891831667,-0.00337392566995067,-0.09700047923690606,-0.06184919030599578,-0.03521667105414856
210,8.145826599997235,0.09670870468532476,0.01001053265411036,0.007526689195052217,0.07237965852003295,0.06285262898092123,0.007536793763068908,0.0827420858135508,0.10686049279764438,-0.003545035479757381,-0.09936589919965777,-0.06436873029901015,-0.03541171349190344
211,8.149403899995377,0.097060381914569,0.0103163310655495,0.007563166104298792,0.07277940776582972,0.06336965154435682,0.007519201080660928,0.08225487908837659,0.10654248886142496,-0.0037170910633645576,-0.10174094354512805,-0.06689621361418209,-0.03560703887706965
212,8.15917429998808,0.09741399035595748,0.010624630907438098,0.007599555750848595,0.07317676843534468,0.06388510359172438,0.007500772433081406,0.08175614168729589,0.10621221957957322,-0.003890093718956876,-0.10412511264438717,-0.0694312415706772,-0.03580261614198601
213,8.162968999997247,0.09776951830060165,0.010935424426065748,0.00763585407302685,0.07357168455109563,0.06439892560435734,0.0074815032284576465,0.08124583062047214,0.105869649369084,-0.004064044589248589,-0.10651789669671692,-0.07197340909873803,-0.03599841218040601
214,8.16724609999801,0.09812695376787686,0.011248703578914552,0.007672056986896039,0.07396409993328214,0.06491105789593049,0.0074613888697686636,0.08072390539254821,0.1055147446252942,-0.004238944651600641,-0.10891877571615341,-0.07452230456449908,-0.03619439183402273
215,8.170745099996566,0.09848628450447124,0.011564460033869975,0.0077081603862328915,0.07435395821199241,0.06542144062212353,0.00744042475567042,0.0801903280527317,0.10514747375423178,-0.004414794708017586,-0.11132721954464356,-0.0770775096136366,-0.03639051789831515
216,8.174322699996992,0.09884749798349445,0.011882685168478903,0.0077441601425095015,0.07474120283965509,0.06593001379044255,0.007418606281369918,0.07964506324328462,0.1047678072053929,-0.004591595375321359,-0.11374268815721017,-0.0796385990166378,-0.036586751122482976
217,8.178186199991615,0.09921058140364732,0.012203370069255674,0.007780052104878789,0.07512577710371604,0.06643671727020127,0.007395928839545666,0.07908807824665139,0.10437571750559038,-0.004769347075147562,-0.11616463164849483,-0.08220514048438636,-0.0367830501617709
218,8.182224999996834,0.0995755216884534,0.012526505531036862,0.007815832100164533,0.07550762413954688,0.0669414908026705,0.0073723878213187094,0.078519343034079,0.10397117929351797,-0.0049480500236572245,-0.11859249001730034,-0.08477669456161505,-0.03697937154991705
219,8.186842999988585,0.09994230548555372,0.012852082056385664,0.007851495932856247,0.07588668694359291,0.06744427401139437,0.007347978617272797,0.07793883031483288,0.10355416935463131,-0.005127704221266093,-0.12102569328940062,-0.087352814543694,-0.03717566965233522
220,8.190938399988227,0.10031091916606569,0.013180089855046656,0.007887039385109098,0.07626290838675856,0.06794500641267778,0.007322696618524946,0.077346515583627,0.10312466665651861,-0.005308309441902693,-0.12346366164033486,-0.08993304642403517,-0.03737189658804233
221,8.19698249999783,0.10068134882400762,0.013510518843451808,0.007922458216749152,0.076636231228015,0.06844362742624541,0.007296537217849702,0.07674237716864972,0.10268265238429126,-0.005489865221981039,-0.12590580510414479,-0.09251692881946437,-0.03756800215915049
222,8.203980299993418,0.10105358027578952,0.013843358644278537,0.007957748165284193,0.07700659812825096,0.06894007638607214,0.007269495810856571,0.07612639628181646,0.10222810997667776,-0.005672370848975421,-0.12835152389360677,-0.09510399284578597,-0.03776393370115954
223,8.20819130000018,0.10142759905977179,0.014178598586060678,0.007992904945920379,0.07737395166436734,0.0694342925513918,0.0072415677972249935,0.0754985570636923,0.10176102516262017,-0.005855825348942345,-0.1308002090427648,-0.09769376209650388,-0.03795963584376141
224,8.21572589999414,0.10180339043589264,0.014516227702853216,0.008027924251585022,0.07773823434356335,0.06992621511788231,0.007212748582002698,0.07485884662751797,0.10128138599757422,-0.006040227472777335,-0.1332512423596438,-0.10028575269115089,-0.038155050258288824
225,8.21985739999218,0.10218093938536517,0.01485623473395165,0.008062801752955834,0.07809938861785776,0.07041578322902614,0.007183033576973863,0.07420725510459078,0.10078918289963747,-0.006225575681289466,-0.13570399714222203,-0.10287947336188019,-0.03835011541943368
226,8.224109399990994,0.10256023061044559,0.015198608123666819,0.008097533098496963,0.07845735689881485,0.07090293598764555,0.007152418202102101,0.07354377568135223,0.10028440868501025,-0.006411868129149046,-0.13815783918598845,-0.10547442565592251,-0.038544766450857734
227,8.23414149999735,0.10294124853427296,0.015543336021156045,0.008132113914502217,0.07881208157242502,0.07138761246760673,0.007120897887054185,0.07286840463500499,0.09976705860216188,-0.006599102648466,-0.14061212676930845,-0.10807010419523302,-0.03873893510992498
228,8.238519099992118,0.1033239773007816,0.015890406280311388,0.008166539805145874,0.07916350501417592,0.07186975172568616,0.007088468072802167,0.07218114137074239,0.09923713036477544,-0.006787276732589599,-0.14306621118629786,-0.11066599692090669,-0.03893254990588583
229,8.243149299989454,0.10370840077468695,0.01623980645970578,0.00820080635254143,0.07951156960429384,0.07234929281359394,0.007055124213304097,0.07148198845220137,0.0986946241835454,-0.00697638752083214,-0.1455194378437843,-0.11326158525840029,-0.03912553637058726
230,8.247416400001384,0.10409450254154556,0.01659152382259779,0.008234909116808692,0.07985621774310996,0.07282617479014832,0.007020861777254184,0.07077095162806168,0.09813954279752128,-0.007166431784892047,-0.1479711464155867,-0.11585634419481966,-0.03931781734433783
231,8.252433299989207,0.10448226590788998,0.016945545336995743,0.008268843636149489,0.08019739186655946,0.0733003367336028,0.006985676249895081,0.07004803986100375,0.09757189150515636,-0.007357405916347794,-0.15042067084205865,-0.11844974241871112,-0.03950931315702689
232,8.257061199998134,0.1048716739014389,0.017301857675781948,0.008302605426932329,0.08053503446182844,0.07377171775412152,0.006949563134889238,0.06931326535431223,0.09699167819429658,-0.007549305914836185,-0.15286733971063166,-0.12104124240459778,-0.039699941765400724
233,8.260428499997943,0.10526270927138362,0.017660447216897704,0.008336189983786244,0.08086908808311086,0.07424025700639697,0.006912517956245753,0.06856664357714622,0.09639891337241006,-0.007742127376876584,-0.15531047620999483,-0.12363030017313112,-0.03988961895125906
234,8.264121299987892,0.105655354488751,0.018021300043589802,0.008369592779704118,0.08119949536750026,0.07470589370241834,0.0068745362603000225,0.0678081932915868,0.09579361019890037,-0.007935865485969864,-0.15774939785699799,-0.1262163649489856,-0.04007825862072227
235,8.267823299989686,0.10604959174684385,0.018384401944719277,0.008402809266155714,0.08152619905100889,0.07516856712440237,0.0068356136177365415,0.06703793658055375,0.09517578451865119,-0.008130515004322748,-0.16018341617554765,-0.1287988790606755,-0.04026577309967458
236,8.271968000000925,0.1064454029617591,0.018749738415133207,0.008435834873210613,0.08184914198472992,0.07562821663788674,0.006795745625648755,0.06625589887796486,0.0945454548953105,-0.00832607026580983,-0.162611837320804,-0.13137727808876679,-0.04045207333971016
237,8.277985399996396,0.10684276977298486,0.019117294656100358,0.008468665009671195,0.08216826715114886,0.07608478170498352,0.0067549279096300536,0.06546210899060367,0.09390264264339894,-0.008522525169693679,-0.1650339636970427,-0.13395099115197429,-0.04063706904959008
238,8.2820764999924,0.10724167354407668,0.019487055575811416,0.00850129506321584,0.08248351768051769,0.07653820189778368,0.006713156125894489,0.06465659911260056,0.09324737185882152,-0.008719873174860768,-0.16744909471990335,-0.13651944127660803,-0.04082066895444301
239,8.286459599999944,0.10764209536341324,0.019859005789944525,0.008533720400552468,0.08279483686730656,0.07698841691190622,0.0066704259634236245,0.06383940483991372,0.09257966944739579,-0.008918107296053432,-0.16985652725867945,-0.13908204570187596,-0.04100278129529875
240,8.291291000001365,0.10804401604503203,0.020233129622296835,0.008565936367582539,0.08310216818671831,0.07743536658017916,0.006626733146123765,0.06301056518052414,0.09189956515240487,-0.009117220102946638,-0.17225555627603456,-0.14163821594565157,-0.04118331433412504
241,8.295144499992603,0.10844741612954512,0.020609411105482603,0.008597938289575498,0.08340545531123895,0.07787899088645565,0.006582073434981756,0.062170122562717256,0.09120709158248835,-0.009317203721274118,-0.17464547490427235,-0.14418735789387227,-0.041362176738869834
242,8.299371299988707,0.10885227588513521,0.020987833981698636,0.00862972147135367,0.08370464212723244,0.07831922997956528,0.0065364426302113,0.061318122844538824,0.090502284238329,-0.009518049835636483,-0.17702557441592243,-0.1467288721027486,-0.041539277909523394
243,8.30409609999333,0.10925857530863223,0.021368381703557596,0.008661281197487498,0.08399967275158277,0.07875602418738877,0.006489836573381541,0.06045461532236163,0.08978518153761497,-0.00971974969378713,-0.1793951448179471,-0.1492621541850491,-0.041714528313497715
244,8.311531899991678,0.10966629412667062,0.021751037434989826,0.008692612732501073,0.08429049154837177,0.07918931403105117,0.006442251149521849,0.05957965273458304,0.08905582483798317,-0.009922294112690435,-0.18175347587303506,-0.15178659526185748,-0.041887839903050075
245,8.315541399992071,0.11007541179692756,0.022135784052214204,0.008723711321087764,0.08457704314555708,0.07961904023921897,0.0063936822891917,0.05869329126029464,0.08831425845760363,-0.010125673486852798,-0.1840998577554342,-0.15430158256136764,-0.04205912662243639
246,8.322339499994996,0.11048590750944196,0.022522604144778517,0.008754572188335807,0.08485927245163702,0.08004514376249268,0.006344125970504717,0.05779559051662431,0.08756052969232003,-0.010329877799295516,-0.18643358208805114,-0.1568065003770634,-0.04222830505788147
247,8.332307599994238,0.11089776018801405,0.022911480016669792,0.008785190539963555,0.08513712467230275,0.08046756578787008,0.006293578221092224,0.05688661354735555,0.0867946888269487,-0.010534896636184525,-0.1887539440170948,-0.1593007313213208,-0.042395295321977465
248,8.336599899994326,0.11131094849168581,0.023302393687494826,0.008815561562564083,0.08541054532699295,0.08088624775324833,0.00624203511998551,0.0559664268001648,0.08601678914027078,-0.010740719206373735,-0.19106024368984773,-0.16178365752963722,-0.04256002191720199
249,8.341935799995554,0.11172545081630103,0.023695326893731054,0.008845680423858693,0.08567948026532536,0.08130113136193555,0.006189492799389993,0.055035100100920074,0.08522688690466133,-0.010947334364402891,-0.19335178636209543,-0.16425466129341357,-0.042722414101934544
250,8.346404099997017,0.11214124529614489,0.024090261090047707,0.008875542272958703,0.08594387568340237,0.08171215859714935,0.006135947446344622,0.05409270662987716,0.08442504138494945,-0.011154730633587882,-0.19562788113301383,-0.16671312469066393,-0.04288240579707851
251,8.350927499996033,0.11255830980566206,0.024487177450697183,0.008905142240635032,0.08620367814001188,0.08211927173651737,0.006081395304272273,0.05313932290823819,0.08361131484162601,-0.011362896228113695,-0.19788783940385135,-0.16915842890091434,-0.04303993546015638
252,8.354793699996662,0.11297662196125331,0.024886056870976725,0.008934475439595023,0.08645883457280269,0.0825224133666069,0.00602583267442506,0.05217502878928429,0.08278577253634291,-0.01157181907490462,-0.20013097492477047,-0.171589954351358,-0.04319494625880877
253,8.362951199989766,0.11339615912315035,0.02528687996876059,0.008963536964766022,0.08670929231439939,0.0829215263974787,0.00596925591722279,0.05119990744448023,0.08194848273370449,-0.01178148683739853,-0.2023566047392953,-0.17400708173179216,-0.0433473866579771
254,8.368371799995657,0.11381689839736855,0.025689627086102774,0.008992321893585177,0.08695499910844305,0.08331655407723398,0.005911661453467882,0.05021404534545472,0.0810995166969313,-0.011991886943107318,-0.20456405045046672,-0.17640919336937655,-0.04349721110600605
255,8.37318859998777,0.11423881663773731,0.02609427829091014,0.009020825286294797,0.08719590312553158,0.08370744000652622,0.005853045765416744,0.04921753223783503,0.0802389486763291,-0.012203006614040017,-0.20675263971619445,-0.178795674396088,-0.04364438033778893
256,8.376996299994062,0.11466189044800722,0.026500813378685786,0.00904904218624252,0.08743195297900679,0.08409412815299637,0.005793405397699872,0.04821046110873627,0.0793668558936391,-0.012414832897200929,-0.20892170638462473,-0.18116591296254428,-0.04378886113459321
257,8.383210499989218,0.11508609618403336,0.02690921187434205,0.009076967620185597,0.0876630977405797,0.08447656286563303,0.005732736958097671,0.04719292815928422,0.07848331852843489,-0.01262735269268528,-0.21107058916857788,-0.18351929992707888,-0.043930625807450496
258,8.386897299991688,0.11551140995603397,0.027319453034083035,0.009104596598598582,0.0878892869558514,0.08485468888907585,0.005671037118188291,0.04616503278495022,0.0775884197054858,-0.012840552779171026,-0.21319863108192563,-0.1858552287326522,-0.04406965178926342
259,8.392777999993996,0.11593780763092414,0.02773151584735625,0.009131924115983882,0.08811047065974767,0.08522845137785322,0.005608302613876415,0.04512687755353595,0.07668224548234659,-0.013054419838061722,-0.21530517992563433,-0.1881730953459583,-0.04420592136031915
260,8.396934899996268,0.116365264834724,0.028145379038873077,0.00915894515118458,0.08832659939182658,0.0855977959105654,0.005544530245807129,0.04407856818079822,0.07576488483731092,-0.01326894047631835,-0.2173895879543753,-0.19047229818501973,-0.04433942132995033
261,8.401242599997204,0.11679375695504078,0.02856102107069787,0.009185654667698998,0.0885376242114769,0.08596266850400551,0.0054797168796734555,0.043020213511664525,0.07483642965770274,-0.013484101247517253,-0.21945121103744722,-0.19275223792456508,-0.044470142645765674
262,8.405847999994876,0.11722325914362433,0.028978420144405274,0.009212047613996492,0.08874349671304362,0.08632301562722916,0.005413859446426157,0.04195192550398909,0.07389697472971575,-0.013699888670895126,-0.2214894090530455,-0.19501231758764548,-0.04459808004867321
263,8.41014529998938,0.1176537463189957,0.029397554203305653,0.009238118923834051,0.08894416904086896,0.08667878421557697,0.005346954942396709,0.04087381920594768,0.072946617725817,-0.013916289249063867,-0.2235035471867821,-0.19725194353337946,-0.044723231922231696
264,8.415064499989967,0.1180851931691484,0.029818400934738306,0.009263863516573288,0.08913959390419886,0.08702992168462217,0.0052790004293354325,0.03978601272721007,0.07198545918501434,-0.01413328948559567,-0.2254929969841518,-0.19947052704674326,-0.04484560027364223
265,8.419609599994146,0.1185175741543215,0.03024093777243206,0.009289276297497406,0.08932972459194459,0.08737637594400188,0.005209993034364055,0.03868862720613565,0.0710136024848538,-0.01435087590255368,-0.22745713747747975,-0.20166748564521425,-0.04496519069560316
266,8.424796999999671,0.11895086350984393,0.030665141898932508,0.009314352158127726,0.08951451498727134,0.08771809541109334,0.005139929949843958,0.03758178677002495,0.07003115380902476,-0.014569035057707428,-0.2293953561011076,-0.2038422435748494,-0.04508201221758193
267,8.430394199996954,0.11938503524904892,0.031090990248095154,0.00933908597653938,0.08969391958197469,0.08805502902453122,0.005068808433161913,0.03646561849344644,0.06903822211454988,-0.0147877535606222,-0.23130704850903372,-0.20599423181901802,-0.045196076959019164
268,8.436582999987877,0.11982006316625761,0.031518459507643634,0.00936347261767576,0.08986789349066529,0.08838712625756598,0.004996625806442403,0.035340252360255245,0.06803491909930569,-0.015007018086513767,-0.23319161813232417,-0.20812288813533902,-0.045307399747971586
269,8.441213400001288,0.12025592083983098,0.0319475261217923,0.00938750693366143,0.09003639246477732,0.08871433713126639,0.004923379456199098,0.03420582122620896,0.06702135916885459,-0.015226815388642125,-0.23504847573710902,-0.21022765712749786,-0.045415997781842216
270,8.44513319998805,0.12069258163528924,0.03237816629393241,0.009411183764113188,0.09019937290639085,0.08903661222755645,0.004849066832927079,0.0330624607852697,0.06599765940326945,-0.015447132308878453,-0.23687703838777646,-0.212307989488341,-0.04552189003463924
271,8.448680999994394,0.12113001870849766,0.032810355989381035,0.009434497936449028,0.09035679188191376,0.08935390270209642,0.0047736854506519035,0.031910309542267326,0.06496393953130059,-0.01566795578435476,-0.23867672859208608,-0.21436334079060343,-0.04562509645434155
272,8.45601889998943,0.12156820500891852,0.03324407093819206,0.009457444266194841,0.09050860713563917,0.08966616029706943,0.004697232886457394,0.030749508787485974,0.06392032190891911,-0.015889272850252722,-0.2404469751866478,-0.2163931724928418,-0.04572563719295264
273,8.460960799988243,0.1220071132829284,0.03367928663802903,0.009480017557288792,0.09065477710318112,0.08997333735385457,0.004619706780007675,0.029580202560746335,0.06286693148373565,-0.016111070638991996,-0.24218721762171858,-0.21839695577896828,-0.04582353193548271
274,8.469808099995134,0.12244671607720033,0.03411597835709895,0.009502212602383391,0.09079526092468392,0.09027538682546865,0.004541104833082831,0.02840253758446937,0.06180389573633582,-0.016333336376516402,-0.24389691090124307,-0.22037417516815097,-0.04591879937754517
275,8.473919500000193,0.12288698574214899,0.03455412113714571,0.009524024183145371,0.0909300184576091,0.09057226228867084,0.0044614248091369305,0.027216663179886,0.060731344609716395,-0.016556057376419756,-0.2455755263159765,-0.22232432912543745,-0.04601145674135181
276,8.478097100000014,0.12332789443543685,0.03499368979650117,0.009545447070553478,0.0910590102891329,0.09086391795572059,0.004380664532890608,0.02602273119299631,0.059649410444703344,-0.0167792210315417,-0.24722254918633732,-0.22424692788838535,-0.04610151923050763
277,8.482239099990693,0.12376941412553953,0.03543465893319253,0.009566476025194398,0.0911821977482156,0.09115030868585643,0.0042988218899705334,0.02482089593265265,0.05855822793044957,-0.0170028148028101,-0.24883747588824448,-0.2261414904094125,-0.04618899943905711
278,8.486563699989347,0.12421151659536886,0.035877002928104675,0.009587105797557052,0.091299542917399,0.09143138999657417,0.004215894826610118,0.02361131412534065,0.05745793406948382,-0.0172268262051101,-0.2504198109401355,-0.2280075420992415,-0.046273906825372114
279,8.490615899994737,0.12465417344595256,0.03632069594819681,0.009607331128325626,0.09141100864443766,0.09170711807476702,0.004131881349425922,0.02239414488149125,0.05634866815007606,-0.0174512427910281,-0.25196906601271196,-0.22984461390373317,-0.046356247357635154
280,8.495455399999628,0.12509735610017003,0.036765711949772795,0.0096271467486717,0.09151655855376976,0.09197744978773595,0.004046779525275894,0.021169549659858004,0.05523057172023258,-0.017676052133285294,-0.2534847604631541,-0.2316522421363068,-0.046436023165078166
281,8.499898099995335,0.12554103580654322,0.03721202468180444,0.0096465473805459,0.09161615705780322,0.09224234269407783,0.003960587481206014,0.019937692228652177,0.05410378856168532,-0.0179012418051019,-0.2549664215316637,-0.23342996869236946,-0.04651323208608694
282,8.504642299987609,0.12598518364308173,0.03765960768930738,0.009665527736969512,0.09170976936800994,0.09250175505444375,0.0038733034044988106,0.018698738628015403,0.052968464661808996,-0.01812679935825149,-0.25641358437264605,-0.2351773415972681,-0.04658786720508134
283,8.510337999992771,0.12642977052118123,0.03810843431676862,0.009684082522326602,0.09179736150584818,0.09275564584215495,0.003784925542832678,0.01745285713085261,0.05182474818230037,-0.018352712298937254,-0.25782579326057053,-0.23689391624894904,-0.04665991625019715
284,8.517457699999795,0.12687476718957444,0.03855847771162528,0.00970220643265718,0.09187890031347731,0.09300397475365771,0.003695452204564171,0.016200218193619005,0.050672789419053114,-0.018578968060009426,-0.25920260389115424,-0.23857925796563792,-0.046729360731604844
285,8.521553499987931,0.1273201442383333,0.03900971082779347,0.009719894155952053,0.09195435346420329,0.09324670221875035,0.0036048817591565526,0.014940994394852853,0.049512740746148184,-0.01880555396849123,-0.26054358568388014,-0.24023294492822647,-0.04679617503234647
286,8.52849709999282,0.1277658721029212,0.039462106429246115,0.009737140372450135,0.09202368947259769,0.09348378941049539,0.0035132126377767883,0.013675360363649372,0.0483447565472148,-0.019032457208985852,-0.26184832300366834,-0.24185456964415206,-0.046860325805977626
287,8.53434610000113,0.1282119210682933,0.03991563709363792,0.009753939754939094,0.09208687770425006,0.09371519825478139,0.0034204433340787057,0.012403492706354621,0.04716899314523477,-0.019259664785365088,-0.26311641409185677,-0.2434437379182811,-0.04692177208708276
288,8.538092899994808,0.12865826127304314,0.04037027521597584,0.009770286969060248,0.09214388838517659,0.09394089143955485,0.0033265724051712536,0.011125569945398983,0.045985608743876354,-0.019487163485247296,-0.2643474678331342,-0.24500006584904166,-0.04698046617195012
289,8.543227599991951,0.1291048627135942,0.04082599301233349,0.009786176673618597,0.0921946926109797,0.09416083242381355,0.0032315984727458976,0.009841772477321828,0.044794763386408275,-0.01971493985022043,-0.26554110195812636,-0.2465231777160976,-0.04703635433531299
290,8.55049519999011,0.1295516952484353,0.04128276252360881,0.009801603520898643,0.09223926235584995,0.09437498544644027,0.0031355202243334387,0.008552282529023255,0.043596618917503535,-0.019942980147265733,-0.26669694621306816,-0.24801270807656792,-0.04708937602210866
291,8.561450299996068,0.1299987286023993,0.04174055561932404,0.009816562156986596,0.09227757048130163,0.09458331553482599,0.0030383364147083345,0.007257284085072313,0.04239133892183955,-0.020171270331148333,-0.26781464867357996,-0.2494683075988214,-0.04713946160201298
292,8.565002299990738,0.1304459323709833,0.042199344001466965,0.009831047222099815,0.09230959074447027,0.09478578851310861,0.0029400458675099806,0.005956962782773632,0.04117908862936823,-0.020399795994080722,-0.26889388102223144,-0.2508896477977011,-0.047186530484245835
293,8.569610899998224,0.13089327602470757,0.04265909920837074,0.009845053350924716,0.0923352978058314,0.09498237100987815,0.002840647477134829,0.004651505788332196,0.03996003480802831,-0.02062854230984445,-0.26993433900428604,-0.25227642092634944,-0.047230490915516975
294,8.57501049998973,0.1313407289135107,0.04311979261862979,0.009858575172964549,0.0923546672362979,0.09517303046537576,0.0027401402108991717,0.0033411016875034743,0.03873434567006375,-0.020857493981495542,-0.2709357377014938,-0.2536283364697556,-0.047271241186659145
295,8.578793799999403,0.1317882602711773,0.0435813954550494,0.00987160731289827,0.09236767552387913,0.09535773513829109,0.0026385231114380314,0.0020259404075585975,0.037502190798716147,-0.02108663519717936,-0.27189780707868055,-0.2549451172489027,-0.04730867122423691
296,8.582469499990111,0.1322358392197975,0.04404387878862749,0.009884144390951565,0.0923743000800221,0.09553645411225087,0.0025357952992961317,0.000706213151091298,0.03626374109229677,-0.021315949593259866,-0.2728202896049796,-0.25622649651458884,-0.047342663808576886
297,8.586550899999565,0.13268343477425637,0.04450721354256709,0.009896181023280826,0.0923745192456291,0.09570915730207434,0.002431955975684092,-0.0006178876589649138,0.035019168719042,-0.02154542022193808,-0.2737029379980142,-0.25747221646196866,-0.04737309528672427
298,8.593024499990861,0.13313101584675155,0.04497137049631872,0.009907711822370881,0.09236831229686604,0.09587581545982432,0.002327004425383199,-0.0019461684236692857,0.033768647075580555,-0.02177502952129044,-0.27454551433738295,-0.2586820277644643,-0.04739983598414496
299,8.597524500000873,0.13357855125133897,0.04543632028965151,0.009918731397447133,0.09235565945075047,0.09603640018066015,0.0022209400197919504,-0.0032784344144656734,0.03251235074630563,-0.022004759286876917,-0.27534779009628396,-0.25985568952071525,-0.04742275052686354
300,8.601162599996314,0.13402600970850473,0.045902033426752316,0.009929234354902802,0.0923365418705104,0.09619088390849505,0.0021137622201059664,-0.0046144898178215365,0.03125045546235625,-0.022234590644901152,-0.2761095461428448,-0.2609929691560084,-0.04744169808546584
301,8.604795399995055,0.13447335984976266,0.04636848028035164,0.009939215298741881,0.09231094167073965,0.09633923994145158,0.0020054705806246305,-0.005954137781632679,0.029983138061944616,-0.02246450402618314,-0.27683057285952645,-0.2620936420859403,-0.04745653255234965
302,8.609492099989438,0.13492057022227621,0.046835631095875616,0.009948668831038428,0.09227884192230705,0.09648144243713452,0.0018960647521832237,-0.007297180461019355,0.028710576452596816,-0.02269447914103703,-0.27751066986973566,-0.26315749177744646,-0.04746710275523458
303,8.613465699992958,0.13536760929350355,0.04730345599562305,0.009957589552412773,0.09224022665706796,0.09661746641772044,0.0017855444857030197,-0.008643419062081683,0.027432949570888765,-0.0229244949553129,-0.278149646221955,-0.2641843102753322,-0.04747325275262928
304,8.617870199988829,0.13581444545586513,0.0477719249829667,0.009965972062525218,0.09219508087234943,0.09674728777484036,0.0016739096358555903,-0.009992653889480108,0.026150437339584415,-0.023154529668137837,-0.2787473209369622,-0.2651738989194352,-0.047474822129264904
305,8.621464500000002,0.13626104703143224,0.04824100794657766,0.009973810960587755,0.09214339053520065,0.09687088327425396,0.0015611601648286063,-0.01134468439549377,0.024863220620421896,-0.023384560690820684,-0.2793035237408036,-0.2661260698911132,-0.04747164587219157
306,8.628442899993388,0.13670738227663579,0.0487106746646719,0.009981100845894257,0.09208514258640271,0.09698823056027474,0.0014472961461945717,-0.012699309234704016,0.02357148115626512,-0.023614564623392405,-0.279818096986045,-0.26704064819700296,-0.047463553673138745
307,8.632292399997823,0.13715341938699369,0.04918089480927758,0.009987836318369688,0.09202032494418913,0.0970993081598836,0.001332317768903965,-0.014056326331671089,0.022275401504665848,-0.023844517226750184,-0.2802908976339057,-0.26791747278917144,-0.04745036937381405
308,8.636263799999142,0.13759912650185568,0.04965163795052141,0.00999401197913899,0.09194892650759973,0.0972040954865102,0.0012162253414239178,-0.015415532954825976,0.0209751649691602,-0.024074393393822342,-0.28072179746824,-0.2687563966632393,-0.04743191138906762
309,8.640651999987313,0.13804447170916329,0.050122873560932625,0.009999622431116396,0.09187093715948515,0.0973025728434807,0.0010990192960107891,-0.01677672578622073,0.019670955531879853,-0.024304167125813205,-0.28111068172239156,-0.26955728586221533,-0.04740799393828702
310,8.647374799998943,0.13848942305022366,0.05059457101976278,0.010004662279615729,0.09178634776918478,0.09739472142714614,0.0009807001930790486,-0.01813970098211353,0.01836295779450211,-0.024533811515301134,-0.2814574471585359,-0.27032001802606526,-0.047378428131901025
311,8.651690399987274,0.13893394852449553,0.051066699617319994,0.01000912613298205,0.09169515019494415,0.0974805233297579,0.0008612687256376428,-0.019504254224106433,0.01705135692491683,-0.02476329873301241,-0.2817620021590055,-0.2710444823902326,-0.04734302237166516
312,8.657336099990061,0.13937801609438652,0.05153922855931665,0.010013008603244946,0.0915973372860973,0.09755996154207923,0.0007407257237870501,-0.02087018078061544,0.015736338598190857,-0.02499260001479833,-0.28202426916534973,-0.271730581237106,-0.0473015823811863
313,8.661439199990127,0.13982159369006017,0.05201212697122892,0.010016304306793756,0.0914929028848885,0.09763301995568867,0.0006190721592818475,-0.02223727558164451,0.014418088929169145,-0.025221685648704886,-0.282244185777504,-0.2723782313669929,-0.04725391148039673
314,8.666476999991573,0.14026464921425094,0.052485363902666816,0.010019007865075077,0.09138184182792997,0.09769968336493838,0.0004963091501530701,-0.023605333290907405,0.013096794399184382,-0.025450524964609724,-0.28242170383801296,-0.27298736397487305,-0.04719981126413901
315,8.670205399990664,0.14070715054708538,0.052958908331752666,0.010021113905312792,0.09126414994732471,0.09775993746854736,0.0003724379653712039,-0.024974148371727133,0.011772641789852475,-0.02567908632786781,-0.28255678772431875,-0.27355792218059893,-0.04713908239133575
316,8.673808099993039,0.14114906555090798,0.0534327291695066,0.010022617061250747,0.09113982407148562,0.09781376887091818,0.00024746002953012245,-0.026343515142608822,0.010445818133716327,-0.025907337136596008,-0.282649411970436,-0.27408985867288715,-0.047071525282635966
317,8.678052699993714,0.14159036207511028,0.053906795264237826,0.01002351197391818,0.09100886202571976,0.09786116508325192,0.00012137692753639472,-0.027713227820091467,0.00911651067087277,-0.02613524382207946,-0.2826995603813232,-0.27458313636559545,-0.04699694074183029
318,8.686886899988167,0.1420310079609624,0.05438107540594088,0.010023793292417841,0.0908712626326322,0.09790211452444458,-5.8095907107164855e-06,-0.0290830805657384,0.007784906793256539,-0.026362771852078127,-0.28270722917536506,-0.2750377319656527,-0.04691513057534972
319,8.69059610000113,0.1424709710464461,0.0548555383306956,0.010023455674736772,0.09072702571225497,0.0979366065216621,-0.00013409760566198946,-0.030452867559442005,0.0064511939666913555,-0.026589885737236568,-0.2826724306434791,-0.27545363966261105,-0.046825898299456284
320,8.694823499987251,0.14291021917108745,0.05533015272506896,0.01002249378857956,0.09057615208174044,0.09796463131048136,-0.0002634850235003609,-0.03182238308187359,0.005115559639419441,-0.026816549041243674,-0.2825951925998284,-0.2758308717627568,-0.04672904984743133
321,8.69895489999908,0.143348720180787,0.055804887230516395,0.010020902312223861,0.09041864355469133,0.0979861800345788,-0.0003939695715821155,-0.0331914215824651,0.003778191158007608,-0.027042724394095614,-0.2824755569195674,-0.2761694567752492,-0.0466243941090198
322,8.707347399991704,0.143786441932646,0.056279710447780636,0.010018675935397844,0.09025450294019531,0.09800124474505653,-0.0005255487939475316,-0.03455977774768872,0.0024392756944234804,-0.02726837350748319,-0.2823135808490357,-0.27646943836585847,-0.04651174344890591
323,8.715470600000117,0.14422335229978708,0.05675459094128649,0.01001580936017921,0.09008373404149328,0.09800981839942419,-0.0006582200469111848,-0.03592724658173529,0.0010990001720806314,-0.027493457193079177,-0.2821093393840806,-0.2767308756256248,-0.04639091430905888
324,8.719762799999444,0.14465941917616768,0.05722949724352979,0.010012297301915371,0.08990634165423218,0.0980118948602084,-0.000791980494749812,-0.03729362349784156,-0.0002424488096886949,-0.027717935383762857,-0.2818629267346746,-0.27695384249925653,-0.04626172762237517
325,8.724167799999123,0.14509461048138375,0.05770439785945875,0.010008134490164262,0.08972233156424822,0.09800746889320279,-0.0009268271054982959,-0.03865870441316188,-0.0015848850440492092,-0.02794176715591586,-0.2815744558069602,-0.27713842542719824,-0.046124008887023143
326,8.728256899994449,0.14552889416546172,0.058179261270845925,0.010003315669655252,0.08953171054490032,0.09799653616541434,-0.0010627566468535917,-0.04002228583507609,-0.002928122769339774,-0.028164910751367137,-0.2812440558241846,-0.2772847195801227,-0.04597758808637369
327,8.732406099996297,0.14596223821363635,0.058654055940649645,0.009997835601269656,0.08933448635401695,0.09797909324280298,-0.001199765682183375,-0.04138416493300627,-0.004271976700998499,-0.02838732359891288,-0.2808718694584932,-0.27739282561167666,-0.0458222996928163
328,8.736461899999995,0.1463946106511131,0.05912875031736411,0.009991689063040323,0.08913066773053362,0.09795513758791856,-0.0013378505666385124,-0.04274413959692965,-0.005616262052771672,-0.02860896233629848,-0.28045805097219045,-0.2774628486355678,-0.04565798290603732
329,8.741245799988974,0.14682597954781337,0.0596033128393579,0.00998487085116982,0.08892026439087268,0.0979246675574349,-0.0014770074433747297,-0.044102008491182836,-0.006960794558726078,-0.028829782834047527,-0.280002765515944,-0.2774948981871424,-0.04548448205902238
330,8.745104000001447,0.14725631302310188,0.06007771193920019,0.009977375781066639,0.08870328702505943,0.09788768239957348,-0.0016172322398960038,-0.04545757110617376,-0.008305390494085593,-0.029049740221378233,-0.2795061884564035,-0.2774890884153481,-0.04530164700120121
331,8.750889999995707,0.14768557925049422,0.060551916047974275,0.009969198688398809,0.08847974729260076,0.0978441822514355,-0.00175852066452738,-0.04681062780567007,-0.00964986669910376,-0.029268788913745385,-0.2789685044019018,-0.2774455389057043,-0.045109333491113277
332,8.755071199993836,0.1481137464623442,0.061025893599577934,0.009960334430164289,0.088249657818143,0.0977941681361943,-0.0019008682030252646,-0.04816097986906943,-0.010994040607875566,-0.02948688264256199,-0.27838990637874506,-0.2773643753430828,-0.04490740362530713
333,8.758941899999627,0.1485407829545095,0.06149961303500977,0.009950777885777431,0.08801303218694098,0.0977376419601482,-0.002044270115338268,-0.0495084295307055,-0.012337730278632851,-0.029703974486897565,-0.2777705952508969,-0.2772457297253935,-0.04469572617953214
334,8.763039299999946,0.148966657090995,0.061973042806640975,0.009940523958170758,0.08776988494013492,0.09767460650961926,-0.002188721432524676,-0.050852780016494604,-0.013680754424626856,-0.02992001690650619,-0.2771107781953569,-0.27708973979996226,-0.04447417673835814
335,8.76663469999039,0.1493913373085726,0.06244615138247166,0.009929567574911298,0.08752023156986437,0.09760506544770693,-0.002334216953833359,-0.05219383556846701,-0.015022932438961713,-0.030134961774780908,-0.2764106669647477,-0.27689654816342035,-0.044242637706613804
336,8.771484799988684,0.14981479212137735,0.06291890725037112,0.009917903689330654,0.0872640885143074,0.09752902331094616,-0.0024807512439405962,-0.05353140146457676,-0.016364084416754274,-0.03034876041189261,-0.27567047782495363,-0.27666630278705306,-0.04400099878021407
337,8.775979499987443,0.15023699012547917,0.06339127892230181,0.009905527281668117,0.08700147315260257,0.09744648550584624,-0.0026283186303521235,-0.05486528404262865,-0.01770403118505861,-0.03056136362230711,-0.2748904329276702,-0.27639915923714975,-0.04374915817945446
338,8.782479999994393,0.15065790000342963,0.06386323493852607,0.009892433360225905,0.08673240379965619,0.09735745830525895,-0.0027769132010035265,-0.056195290733389074,-0.019042594346542648,-0.030772721739875553,-0.27407076250770773,-0.27609528326657073,-0.04348702411673775
339,8.786541199995554,0.15107749052878347,0.06433474387179484,0.009878616962535537,0.08645689970074347,0.09726194884449416,-0.002926528802099248,-0.05752123010580647,-0.02037959633452686,-0.03098278467957483,-0.2732117061927381,-0.2757548517442662,-0.043214515587655954
340,8.790744899990386,0.15149573057059307,0.06480577433151685,0.009864073156534009,0.08617498102587759,0.09715996511715459,-0.003077159036214382,-0.05884291191281455,-0.021714860465668614,-0.03119150199026415,-0.2723135126381338,-0.2753780510700705,-0.04293156203357682
341,8.795126299999538,0.15191258909787533,0.0652762949679069,0.009848797041748562,0.08588666886396691,0.09705151597074088,-0.003228797260644932,-0.06016014713301412,-0.02304821097963905,-0.03139882290315567,-0.2713764377888181,-0.2749650742853655,-0.04263810234282601
342,8.799087799998233,0.15232803518404958,0.06574627447611246,0.009832783750488853,0.08559198521678017,0.09693661110210185,-0.003381436585979321,-0.061472747999632316,-0.02437947306380766,-0.03160469637489179,-0.2704007429569777,-0.27451611844249824,-0.04233408389381386
343,8.803037399993627,0.15274203801134595,0.06621568160031789,0.009816028449045557,0.08529095299282304,0.0968152610528003,-0.0035350698748660985,-0.06278052802357607,-0.025708472867426894,-0.031809071126743006,-0.2693866945789698,-0.2740313827888963,-0.042019461920232495
344,8.8077123999974,0.15315456687518392,0.0666844851378261,0.009798526338894484,0.0849835960010799,0.09668747720442593,-0.0036896897409653085,-0.06408330202003563,-0.027035037508719488,-0.03201189568153346,-0.26833456430635666,-0.27351106760849736,-0.04169419913937757
345,8.811608999996679,0.1535655911885201,0.06715265394311738,0.009780272657905344,0.08466993894463261,0.09655327177389235,-0.003845288548074032,-0.06538088613242017,-0.028358995077835677,-0.032213118399236976,-0.26724462882265815,-0.27295537362871797,-0.0413582655177273
346,8.81561679999868,0.15397508048616487,0.06762015693188547,0.009761262681554337,0.08435000741417036,0.09641265780872137,-0.004001858409422705,-0.06667309785718552,-0.029680174638193616,-0.03241268751163092,-0.26611716993526596,-0.27236450134791934,-0.04101163807262567
347,8.819855499998084,0.15438300442906736,0.06808696308505069,0.009741491724139736,0.08402382788136777,0.09626564918232706,-0.004159391187136482,-0.0679597560686605,-0.030998406222919245,-0.03261055115597038,-0.26495247445397657,-0.27173865031824523,-0.04065430066837318
348,8.824674099989352,0.15478933280856783,0.06855304145275029,0.009720955139999696,0.0836914276921542,0.09611226058933452,-0.004317878491857884,-0.06924068104269758,-0.032313520829236886,-0.03280665740766599,-0.2637508339152378,-0.27107801926931463,-0.04028624382754896
349,8.828814099993906,0.15519403555061742,0.06901836115830626,0.009699648324731499,0.08335283505986266,0.09595250754091826,-0.004477311682524834,-0.0705156944788269,-0.03362535041610778,-0.033000954312129696,-0.2625125439419799,-0.27038280622850797,-0.039907464656558256
350,8.834036599990213,0.15559708271996425,0.06948289140217047,0.009677566716411509,0.08300807905828442,0.09578640636014389,-0.004637681866301909,-0.07178461951770324,-0.03493372789978634,-0.0331933899167311,-0.2612379035435893,-0.269653208308612,-0.03951796691055526
351,8.838384499991662,0.15599844452430575,0.06994660146584734,0.009654705796815084,0.08265718961464885,0.0956139741773496,-0.00479897989866806,-0.0730472807564763,-0.036238487149400825,-0.033383912303272326,-0.2599272147479484,-0.2688894221350474,-0.039117761109689064
352,8.843762799995602,0.15639809131840676,0.07040946071579426,0.009631061092635684,0.08230019750252908,0.09543522892553058,-0.004961196383662571,-0.07430350426267188,-0.03753946298664973,-0.03357246962107091,-0.25858078217539565,-0.2680916443471238,-0.03870686500224102
353,8.849964599998202,0.15679599360818314,0.07087143860729948,0.009606628176702395,0.08193713433468731,0.09525018933572353,-0.00512432167429337,-0.07555311758543345,-0.03883649118623998,-0.03375901012392281,-0.2571989133134389,-0.2672600728964121,-0.03828530486852134
354,8.856781599999522,0.1571921220547505,0.07133250468833782,0.009581402669195082,0.08156803255587156,0.09505887493238681,-0.005288345873141191,-0.07679594977206557,-0.04012940848816553,-0.03394348221582097,-0.25578192037653386,-0.2663949097300812,-0.03785311749562742
355,8.862859699991532,0.15758644747843803,0.07179262860340381,0.009555380238856062,0.08119292543550062,0.09486130602866592,-0.005453258833210934,-0.07803183139729805,-0.041418052624149,-0.03412583450705522,-0.25433012171025693,-0.26549636246742736,-0.03741035187774848
356,8.86729209999612,0.15797894086276634,0.0722517800973215,0.009528556604197,0.08081184706017724,0.09465750372151747,-0.00561905015907947,-0.07926059459343682,-0.04270226234616712,-0.03430601587640802,-0.25284384117951564,-0.2645646443856897,-0.036957069542074145
357,8.874034599997685,0.15836957335838872,0.07270992901903035,0.009500927534699463,0.08042483232608093,0.09444748988669821,-0.005785709208349724,-0.08048207307369944,-0.0439818774527549,-0.034483975530412644,-0.2513234069795312,-0.26359997338221064,-0.03649334343373967
358,8.878506799999741,0.15875831628699527,0.0731670453253465,0.009472488852007724,0.0800319169312549,0.09423128717363405,-0.00595322509337274,-0.08169610215084346,-0.04525673880747361,-0.03465966305474325,-0.24976915002121866,-0.2626025701149582,-0.036019256255584116
359,8.882033299989416,0.15914514114517941,0.0736230990846989,0.009443236431112629,0.07963313736781845,0.09400891900023017,-0.006121586683199768,-0.08290251874485514,-0.04652668834719529,-0.03483302845738409,-0.24818140179478335,-0.26157265611082725,-0.035534898802073646
360,8.88610059999337,0.15953001960826657,0.0740780604808403,0.009413166201525483,0.07922853091417936,0.09378040954765977,-0.006290782605722669,-0.08410116138087449,-0.04779156908223879,-0.03500402220387407,-0.24656049293583812,-0.2605104521646243,-0.035040368651705844
361,8.890967999992426,0.1599129235341052,0.07453189981653291,0.009382274148441172,0.07881813562726638,0.09354578375517282,-0.006460801249967551,-0.08529187018298859,-0.049051225089139255,-0.03517259524780443,-0.24490675273772974,-0.25941617763801794,-0.034535769686724796
362,8.894782499992289,0.16029382496682015,0.07498458751720904,0.009350556313889829,0.07840199033480176,0.09330506731495487,-0.006631630768530717,-0.0864744868674307,-0.05030550150399047,-0.03533869906140897,-0.24322050945774382,-0.2582900510385218,-0.03402121228746496
363,8.89837899999111,0.16067269614052893,0.07543609413460697,0.009318008797876342,0.07798013462759967,0.09305828666700038,-0.00680325908016874,-0.087648854739341,-0.05155424452082514,-0.03550228566794506,-0.24150209068255557,-0.2571322904926794,-0.033496813481037745
364,8.903853899988462,0.16104950948302033,0.07588639035038189,0.009284627759506926,0.07755260885187014,0.09280546899398716,-0.00697567387254821,-0.08881481868950715,-0.05279730138954273,-0.03566330767372478,-0.2397518228993742,-0.25594311344046405,-0.0329626967736464
365,8.9079911000008,0.1614242376193961,0.07633544697969208,0.009250409418101983,0.07711945410154898,0.09254664221616982,-0.007148862605146216,-0.08997222518696907,-0.05403452041132826,-0.03582171829887091,-0.2379700314066891,-0.25472273648321214,-0.03241899203233653
366,8.91149429998768,0.16179685337567531,0.07678323497476042,0.00921535005429456,0.07668071221067348,0.0922818349862986,-0.007322812512298137,-0.0911209222748946,-0.0552657509351065,-0.035977471408202136,-0.23615704089385958,-0.2534713753834791,-0.03186583548503693
367,8.915960499987705,0.16216732978236215,0.07722972542841129,0.009179446011113685,0.07623642574575225,0.09201107668454718,-0.007497510606397424,-0.09226075956880095,-0.05649084335295938,-0.036130521541989466,-0.2343131753782956,-0.25218924453200425,-0.03130336953950174
368,8.919816800000262,0.16253564007797627,0.07767488957758294,0.009142693695051808,0.07578663799815816,0.0917343974134759,-0.007672943681241448,-0.09339158825182155,-0.05770964909141468,-0.036280823945086846,-0.23243875838944844,-0.2508765561229678,-0.030731742415347006
369,8.923931599987554,0.1629017577125469,0.07811869880681556,0.009105089577115713,0.07533139297654406,0.091451827993044,-0.007849098315513572,-0.09451326107471052,-0.05892202059887107,-0.036428334594121724,-0.23053411348750882,-0.24953351936131576,-0.03015110778001605
370,8.928050499991514,0.1632656563510697,0.07856112465171533,0.009066630193860222,0.07487073539923568,0.09116339995569471,-0.008025960876392502,-0.0956256323561361,-0.0601278113292052,-0.03657301022309792,-0.22859956414119112,-0.24816033980854804,-0.029561624529558496
371,8.932564199989429,0.1636273098769272,0.07900213880239489,0.009027312148404125,0.07440471068664448,0.09086914554152635,-0.008203517523282468,-0.09672855798150073,-0.061326875722856965,-0.03671480834846177,-0.226635434124375,-0.2467572188016605,-0.028963456598015514
372,8.936513599997852,0.16398669239527205,0.07944171310689052,0.008987132111427735,0.07393336495367198,0.09056909769356072,-0.008381754211665478,-0.09782189540707828,-0.06251906918480571,-0.036853687292857804,-0.22464204827788237,-0.24532435316320947,-0.028356772562902973
373,8.940663499990478,0.16434377823637386,0.07987981957455684,0.00894608682215149,0.07345674500208257,0.0902632900531276,-0.008560656697061719,-0.09890550366621624,-0.06370424806284579,-0.03698960620637174,-0.22261973238816418,-0.24386193533962514,-0.027741745242868994
374,8.944962199995643,0.16469854195892863,0.08031643037943921,0.008904173089295126,0.07297489831284772,0.08995175695534367,-0.008740210539087663,-0.09997924337229736,-0.06488226962690316,-0.03712252508638716,-0.22056881230330042,-0.2423701533554025,-0.02711855147481616
375,8.949106399988523,0.16505095835333128,0.08075151786362463,0.008861387792016956,0.07248787303849002,0.08963453342469749,-0.008920401105608898,-0.10104297671637526,-0.066052992046867,-0.037252404796668644,-0.21848961326089478,-0.24084919079714243,-0.02648737204336
376,8.95309099998849,0.16540100244491096,0.08118505454057136,0.008817727880832795,0.07199571799545039,0.08931165517074321,-0.009101213576983163,-0.10209656746362285,-0.06721627437175165,-0.037379207086534874,-0.21638246025413266,-0.2392992272712192,-0.025848391777836575
377,8.957346499999403,0.16574864949712959,0.08161701309841808,0.008773190378514123,0.07149848265646651,0.08898315858388749,-0.009282632950398977,-0.10313988095451533,-0.06837197651196336,-0.03750289461088183,-0.21424767833767527,-0.2377204388004125,-0.025201799638374045
378,8.961417699989397,0.16609387501474332,0.08204736640327272,0.00872777238096497,0.07099621714292852,0.08864908073125506,-0.00946464404431272,-0.10417278410424292,-0.0695199592223059,-0.03762343095018999,-0.21208559192556534,-0.23611299794655838,-0.024547788691030567
379,8.965741299994988,0.16643665474692698,0.08247608750248148,0.00868147105807707,0.07048897221726322,0.08830945935264033,-0.009647231502981139,-0.10519514539709009,-0.07066008408543588,-0.03774078063030658,-0.20989652409018242,-0.23447707420600913,-0.023886556029421475
380,8.969945099990582,0.16677696469036177,0.08290314962787848,0.008634283654562834,0.06997679927534418,0.0879643328565333,-0.009830379801090137,-0.10620683487905459,-0.07179221349870063,-0.0378549091416933,-0.20768079616574905,-0.2328128343903014,-0.023218302626364196
381,8.97389409999596,0.16711478109228609,0.08332852619901629,0.00858620749076564,0.06945975033894751,0.08761374031619866,-0.010014073248473808,-0.10720772414838445,-0.07291621066128251,-0.03796578295777093,-0.20543872762508983,-0.23112044265896192,-0.022543233253640153
382,8.978194600000279,0.16745008045351018,0.08375219082637753,0.008537239963447076,0.06893787804825362,0.08725772146582637,-0.010198295994920989,-0.10819768634700266,-0.07403193956135469,-0.03807336955338943,-0.2031706361419879,-0.22940006114312889,-0.021861556571451814
383,8.984371799990186,0.16778283953139428,0.0841741173145681,0.008487378546550656,0.06841123565438612,0.08689631669673517,-0.01038303203507329,-0.10917659615164846,-0.07513926496926879,-0.038177637424039484,-0.2008768375301561,-0.22765185098161897,-0.021173485313659233
384,8.991953599994304,0.16811303534279096,0.08459427966549204,0.008436620791941591,0.06787987701199945,0.08652956705358916,-0.010568265213417822,-0.11014432976471061,-0.07623805243475092,-0.0382785561061177,-0.19855764629178754,-0.22587597342127544,-0.020479236470568558
385,8.996528999996372,0.16844064516695142,0.08501265208150807,0.008384964330122128,0.06734385657190659,0.08615751423062853,-0.010753979229381604,-0.11110076491068453,-0.0773281682907525,-0.03837609619790948,-0.19621337683760073,-0.2240725909743542,-0.019779031349867936
386,9.00081249998766,0.16876564654839643,0.08542920896856789,0.008332406870921946,0.066803229373701,0.08578020056784882,-0.010940157642527638,-0.11204578083882873,-0.07840947966186221,-0.03847022938044471,-0.19384434409627024,-0.2222418672352822,-0.019073095426188773
387,9.005226799999946,0.1690880172997511,0.08584392493933571,0.008278946204163147,0.06625805103835865,0.0853976690471501,-0.011126783877851418,-0.1129792583255277,-0.07948185446638108,-0.03856092843702282,-0.1914508633934041,-0.22038396610379468,-0.018361657885418756
388,9.009496399987256,0.16940773550454408,0.08625677481628928,0.008224580200299323,0.06570837776083699,0.08500996328849612,-0.011313841231166218,-0.11390107967577565,-0.08054516141720605,-0.03864816726965252,-0.1890332504510957,-0.21849905108314316,-0.01764495100909797
389,9.013497599997208,0.16972477951997073,0.08666773363480217,0.008169306811028355,0.06515426630266262,0.08461712754605498,-0.011501312874558918,-0.11481112872553498,-0.0815992700171042,-0.03873192091261117,-0.1865918216319008,-0.21658728372488487,-0.016923209694036673
390,9.01740109999082,0.1700391279796204,0.08707677664620735,0.008113124069878618,0.06459577398450747,0.08421920670440403,-0.011689181861906687,-0.11570929084558434,-0.08264405054452516,-0.03881216554422931,-0.1841268941525308,-0.21464882282010098,-0.01619667115867539
391,9.02159329999995,0.17035075979616765,0.08748387932084276,0.008056030092768313,0.0640329586787391,0.083816246274808,-0.01187743113444701,-0.11659545294594802,-0.08367937404103767,-0.038888878497604425,-0.18163878699769845,-0.21268382488794804,-0.015465574706885364
392,9.02636309999798,0.1706596541640274,0.0878890173510788,0.007998023078537694,0.06346587880195396,0.08340829239154576,-0.0120660435263982,-0.11746950348859972,-0.08470511230187645,-0.03896203827009652,-0.1791278222944507,-0.21069244460214073,-0.014730161440064086
393,9.03197789999831,0.17096579056197372,0.08829216665432832,0.007939101309453937,0.06289459330740466,0.08299539180827994,-0.01225500177062144,-0.11833133250521032,-0.08572113786751161,-0.03903162453125189,-0.17659432570777053,-0.20867483524891584,-0.013990673998723639
394,9.036274199999752,0.17126914875572166,0.08869330337603888,0.007879263151688496,0.06231916167736115,0.08257759189446542,-0.012444288504318082,-0.11918083161368531,-0.08672732401863355,-0.0390976181297945,-0.17403862704948359,-0.2066311496572866,-0.013247356430234166
395,9.040465300000506,0.17156970880047198,0.08909240389266797,0.00781850705576676,0.06173964391537776,0.0821549406317676,-0.012633886274759443,-0.12001789404181329,-0.08772354477673726,-0.03916000110026809,-0.17146106116440485,-0.20456154013727468,-0.012500454227797619
396,9.044773099987651,0.17186745104341802,0.08948944481464058,0.007756831556989883,0.06115610053842525,0.08172748661046518,-0.01282377754504847,-0.12084241465239082,-0.08870967489850862,-0.03921875667040523,-0.16886196747209264,-0.2024661575351677,-0.011750214582889865
397,9.049048599990783,0.17216235612621425,0.08988440298928951,0.007694235275828607,0.060568592568914295,0.08129527902592283,-0.013013944699920945,-0.12165428996243015,-0.08968558986725342,-0.03927386927021578,-0.16624168896032804,-0.2003451522398836,-0.010996886782908083
398,9.061383399995975,0.17245440498740577,0.09027725550377882,0.007630716918288876,0.059977181526641485,0.08085836767507705,-0.013204370051595228,-0.12245341815853021,-0.0906511658970361,-0.03932532454320945,-0.16360057294786723,-0.1981986762416561,-0.010240722652360897
399,9.065515999987838,0.17274357886481886,0.09066797968801003,0.007566275276248969,0.05938192942066378,0.08041680295286874,-0.013395035845682215,-0.12323969912347593,-0.09160627994405895,-0.0393731093597597,-0.16093897334100454,-0.1960268848391473,-0.009481976892166144
400,9.069893099993353,0.17302985929791173,0.09105655311751101,0.0075009092277678385,0.05878289874098678,0.07997063584861874,-0.013585924267164583,-0.12401303447347697,-0.09255080972734399,-0.039417211831614334,-0.1582572509690185,-0.19382993819628902,-0.008720907139682465
401,9.077822799998104,0.17331322813008448,0.09144295361630708,0.007434617737364306,0.0581801524500783,0.07951991794226004,-0.013777017446447375,-0.12477332758801778,-0.09348463375519908,-0.039457621325841186,-0.15555577163285444,-0.19160800141764422,-0.007957773728442624
402,9.082211799992365,0.17359366751094768,0.09182715925977337,0.007367399856266765,0.05757375397426737,0.07906470140045681,-0.01396829746547238,-0.1255204836281866,-0.09440763134663017,-0.03949432847701033,-0.15283490488470877,-0.18936124421250802,-0.0071928393195062135
403,9.0864498999872,0.17387115989854893,0.09220914837746833,0.007299254722633121,0.056963767195080214,0.07860503897262908,-0.01415974636388678,-0.12625440955469885,-0.09531968265455229,-0.03952732519756729,-0.15009502430244617,-0.18708984050005356,-0.006426368611650595
404,9.090771999995924,0.17414568806155747,0.09258889955594751,0.007230181561740716,0.05635025644046454,0.0781409839868469,-0.014351346145258046,-0.12697501414888543,-0.09622066868337531,-0.03955660468720682,-0.14733650688001115,-0.18479396692815692,-0.005658628196418374
405,9.094736799990642,0.17441723508140577,0.09296639164155736,0.0071601796861460445,0.05573328647592216,0.07767259034568456,-0.01454307878333343,-0.12768220802480867,-0.09711047129786132,-0.0395821614418414,-0.144559731989982,-0.18247380214219436,-0.00488988650574954
406,9.09926849999465,0.17468578435438814,0.0933416037432088,0.007089248495814018,0.05511292249561588,0.07719991252202896,-0.014734926228341775,-0.12837590364019713,-0.09798897323362452,-0.03960399126246753,-0.14176508171945518,-0.18012952651181105,-0.004120413855835685
407,9.103660699998729,0.17495131959371613,0.09371451523513034,0.007017387478216608,0.054489230113396125,0.07672300555483201,-0.014926870413338915,-0.12905601531181646,-0.09885605810334071,-0.03962209126455922,-0.1389529416933686,-0.1777613218853055,-0.0033504824805344552
408,9.110952199989695,0.17521382483153022,0.09408510575960062,0.006944596208400624,0.05386227535375888,0.07624192504485885,-0.015118893260600529,-0.12972245923438278,-0.09971161040486705,-0.03963645988725808,-0.1361237025078987,-0.17536937299233316,-0.002580366424470668
409,9.117297599994345,0.17547328442086763,0.09445335522966021,0.006870874349024404,0.05323212464268903,0.07575672715036164,-0.015310976688056591,-0.13037515350982426,-0.10055551554104478,-0.039647096901730884,-0.1332777608896052,-0.1729538688027245,-0.001810341414454493
410,9.121541699991212,0.17572968303758518,0.09481924383180225,0.006796221650363235,0.05259884479833477,0.07526746858263574,-0.01550310261576522,-0.13101401817742744,-0.10138765984098685,-0.039654003419113626,-0.13041551920709285,-0.17051500246499618,-0.0010406847423661955
411,9.126145699992776,0.1759830056822368,0.09518275202864124,0.006720637950283311,0.05196250302155876,0.0747742066014873,-0.01569525297242411,-0.13163897523836646,-0.10220793057928486,-0.03965718189773413,-0.12753738498314596,-0.1680529711829669,-0.00027167508106162446
412,9.130445999995572,0.1762332376819048,0.0955438605615597,0.00664412317418405,0.05132316688637483,0.07427699901060333,-0.015887409701914372,-0.13224994868112155,-0.10301621599610093,-0.0396566361492721,-0.12464377080368616,-0.16556797618664348,0.000496407726317242
413,9.134082799995667,0.1764803646919847,0.09590255045333211,0.006566677334908638,0.050680904330252845,0.07377590415282452,-0.016079554769871666,-0.1328468645051261,-0.10381240531609254,-0.03965237134393999,-0.12173509361590415,-0.16306022245779797,0.0012632828891756878
414,9.138211899989985,0.17672437269792257,0.09625880301072579,0.00648830053262267,0.050035783644326225,0.07327098090533192,-0.01627167017028024,-0.13342965073938343,-0.10459638876584505,-0.03964439401448367,-0.11881177442288852,-0.1605299190030573,0.00202866891346347
415,9.142441599993615,0.17696524801690494,0.09661259982707814,0.0064089929546607876,0.04938787346351641,0.07276228867475086,-0.016463737932082837,-0.13399823746315465,-0.10536805759544296,-0.039632712058998744,-0.1158742388637078,-0.15797727998440222,0.002792283819274001
416,9.149105499993311,0.17720297729950046,0.0969639227848501,0.00632875487534127,0.04873724275653991,0.07224988739212859,-0.016655740125802027,-0.13455255683019687,-0.1061273041068578,-0.039617334742822516,-0.11292291800646978,-0.15540252602935936,0.00355384540453751
417,9.153980099988985,0.17743754753125293,0.09731275405815475,0.0062475866557485035,0.04808396081579785,0.07173383750776308,-0.016847658870168446,-0.1350925430971363,-0.10687402168821611,-0.03959827269879498,-0.10995824996441332,-0.15280588552655616,0.00431307164518171
418,9.162010499989265,0.17766894603422503,0.0976590761152606,0.00616548874348334,0.04742809724710809,0.07121419998584856,-0.017039476338744655,-0.13561813266336767,-0.10760810485474219,-0.03957553792527288,-0.10698068203060655,-0.1501875959690236,0.005069681137909383
419,9.16711260000011,0.17789716046849183,0.09800287172106836,0.006082461672381379,0.046769721959208144,0.0706910362989076,-0.01723117476653414,-0.136129264120114,-0.10832944929604367,-0.0395491437820999,-0.10399067089157413,-0.14754790494474215,0.0058233935516564484
420,9.174996599991571,0.17812217883358278,0.09834412393956023,0.005998506062199275,0.0461089051530118,0.07016440842197842,-0.017422736456566116,-0.13662587829239634,-0.10903795192665341,-0.039519104984245754,-0.10098868189594869,-0.14488706980162944,0.006573930078978425
421,9.178945099993143,0.17834398946987112,0.09868281613622032,0.005913622618269213,0.04544571731070538,0.06963437882655711,-0.017614143786442882,-0.13710791828100619,-0.10973351093006851,-0.03948543759340209,-0.0979751895112432,-0.1422053565488217,0.007321013704523119
422,9.18246189999627,0.17856258105991024,0.09901893198042531,0.005827812131121766,0.04478022918459761,0.06910101047435824,-0.017805379214843188,-0.13757532950890167,-0.11041602579864485,-0.03944815900901991,-0.0949506762565221,-0.1395030392775296,0.008064369202851016
423,9.186971999995876,0.17877794262971497,0.09935245544780438,0.005741075476077346,0.044112511785766244,0.06856436681087046,-0.017996425287982735,-0.1380280597528368,-0.11108539737202372,-0.0394072879599266,-0.09191563044579108,-0.13678039881937665,0.008803722976215612
424,9.190721199993275,0.17899006354998795,0.09968337082256737,0.005653413612806456,0.04344263637260144,0.0680245117587447,-0.018187264646036302,-0.13846605916788943,-0.11174152786402476,-0.039362844496935355,-0.088870544937054,-0.13403772056564703,0.009538802767059247
425,9.194683099995018,0.1791989335372899,0.10001166269980066,0.005564827584858907,0.042770674439214694,0.06748150971108921,-0.01837788002952663,-0.13888928030696795,-0.11238432087993948,-0.03931484998724833,-0.08581591518091386,-0.1312752925454459,0.010269337182098185
426,9.197973899994397,0.1794045426551537,0.10033731598773041,0.005475318519162154,0.04209669770379317,0.06693542552469012,-0.01856825428569231,-0.1392976781264288,-0.1130136814248001,-0.03926332711167806,-0.08275223714637372,-0.1284934035350399,0.010995055357092633
427,9.201424899991252,0.17960688131514174,0.10066031590995267,0.005384887625488807,0.0414207780969542,0.06638632451322635,-0.018758370374849734,-0.1396912099854826,-0.11362951590235129,-0.03920829986229923,-0.07968000796152973,-0.12569234415613617,0.011715687817534758
428,9.215935100000934,0.17980594027784713,0.10098064800763089,0.005293536195893314,0.040742987750105375,0.06583427244050018,-0.01894821137673824,-0.14006983565802048,-0.1142317321339621,-0.03914979353132935,-0.07659973036609168,-0.12287241393623183,0.012430969315635932
429,9.219766700000037,0.18000171065383835,0.10129829814166046,0.0052012656041179805,0.040063398983684426,0.06527933551346886,-0.019137760496774302,-0.14043351737516843,-0.1148202394260176,-0.039087834681288104,-0.07351191810975023,-0.12003392987849543,0.013140642413261119
430,9.224194800000989,0.18019418390454645,0.10161325249479863,0.005108077304969047,0.03938208429510695,0.0647215803748221,-0.01932700107210749,-0.14078221988942768,-0.11539494867187933,-0.03902245109915676,-0.07041709705032122,-0.11717722967844131,0.013844459296553315
431,9.228973899997072,0.18038335184309284,0.1019254975737572,0.005013972833664023,0.03869911634638471,0.06416107409502564,-0.01951591657743044,-0.14111591052787092,-0.11595577245044879,-0.03895367174895244,-0.06731580246943684,-0.1143026685845482,0.014542181057072551
432,9.23479609999049,0.1805692066350566,0.10223502021125526,0.004918953805151458,0.03801456795155786,0.06359788416394353,-0.01970449063057523,-0.14143455923026974,-0.11650262509770498,-0.03888152673285386,-0.06420857702974629,-0.11141061422827535,0.015233576025204336
433,9.24222249999002,0.18075174079918044,0.10254180756803072,0.004823021913404045,0.03732851206394375,0.0630320784821885,-0.01989270699794661,-0.14173813858249462,-0.11703542275516704,-0.03880604725992609,-0.061095969005446504,-0.1085014429777406,0.01591841861494819
434,9.245944399997825,0.1809309472080144,0.10284584713480927,0.004726178930685743,0.036641021763245483,0.06246372535227461,-0.020080549599815315,-0.14202662383749498,-0.11755408340609619,-0.03872726561844112,-0.05797853054397195,-0.10557553833773495,0.01659648872320442
435,9.249472399998922,0.18110681908849693,0.1031471267342301,0.004628426706793576,0.035952170242597434,0.06189289346961673,-0.020268002515483063,-0.14229999293185364,-0.11805852690845337,-0.03864521515042397,-0.05485681723928413,-0.10263329119466211,0.01726757146214706
436,9.253221899998607,0.18127935002247308,0.1034456345227277,0.004529767168274707,0.03526203079551335,0.06131965191336388,-0.020455049988329182,-0.14255822650263167,-0.11854867503347483,-0.038559930226566765,-0.05173138843652399,-0.09967510048634111,0.017931457549100874
437,9.257315599999856,0.18144853394714905,0.10374135899236873,0.0044302023176193365,0.03457067680276863,0.06074407013702485,-0.020641676430732527,-0.14280130790687526,-0.11902445150512064,-0.038471446216996656,-0.048602808116889794,-0.09670137321678243,0.018587944373008248
438,9.261486199990031,0.1816143651554832,0.10403428897264295,0.004329734232430073,0.03387818171915942,0.06016621795891924,-0.02082786642883482,-0.14302922324703563,-0.1194857820387935,-0.038379799455855054,-0.04547164474477524,-0.09371252522004739,0.019236836899788456
439,9.266140299994731,0.18177683829651245,0.10432441363220758,0.00422836506456867,0.033184619060138525,0.0595861655524279,-0.021013604747119306,-0.14324196138899453,-0.11993259438818953,-0.03828502720329194,-0.04233847038308933,-0.09070898186086035,0.019877947771382333
440,9.270373599996674,0.18193594837561364,0.10461172248058374,0.004126097039281035,0.03249006238839983,0.05900398343598994,-0.021198876332805802,-0.14343951397891103,-0.12036481839080658,-0.03818716760908529,-0.03920386048045672,-0.08769117643337025,0.02051109685950481
441,9.273963599989656,0.18209169075469994,0.10489620536980389,0.0040229324543013655,0.03179458530035098,0.05841974246291216,-0.021383666320076797,-0.14362187545918476,-0.12078238599927789,-0.038086259678959865,-0.03606839329131894,-0.084659548438513,0.021136110811304086
442,9.27820209998754,0.18224406115235123,0.10517785249600949,0.003918873678936208,0.031098261412543064,0.05783351381106239,-0.021567960034146096,-0.14378904307968307,-0.12118523131018669,-0.03798234324260952,-0.03293264990629419,-0.08161454364444895,0.021752822817645835
