,time,x,y,z,vx,vy,vz,ax,ay,az,jx,jy,jz
0,9.697958199991264,0.031469184319533224,0.006343932007971427,0.0683703008093359,0.006793262689855505,-0.0022467695668995885,0.008102708899261192,0.013943225237443332,0.03820404069076436,0.029529993751384227,0.09637088873973862,0.13553962951677742,0.07178484884562313
1,9.702565199986566,0.031498898686661315,0.006334510374027498,0.0684058651266538,0.006854894069986945,-0.0020791198320149495,0.008231981856851384,0.01436389544163485,0.038795110815569134,0.02984212559373733,0.0968328543892917,0.13592217076617588,0.0715648607783588
2,9.706792799988762,0.03152888542446377,0.00632582439755659,0.06844199533993033,0.006918361695065087,-0.001908892575957721,0.008362611948561796,0.014786568452027882,0.03938782321117236,0.03015327125487989,0.09729069170890352,0.13629383456944633,0.07133189533994351
3,9.71092569999746,0.03155915254810506,0.006317885318291428,0.06847869734963744,0.006983674247434515,-0.001736080750373756,0.00849459475689146,0.015211226083826624,0.03998213025539433,0.030463374138952674,0.09774430528228933,0.13665450385675873,0.07108591423352698
4,9.715148299990688,0.03158970811038569,0.006310704406206211,0.06851597703647383,0.007050840329349003,-0.0015606775153960938,0.008627925617517084,0.01563784973609189,0.040577983816236174,0.030772377484882894,0.09819359922046268,0.13700406151496747,0.0708268799396334
5,9.7195081999962,0.03162056020138945,0.0063042929606038954,0.06855384026028861,0.0071198684611525846,-0.0013826762418650323,0.008762599618590345,0.016066420388905062,0.0411753352515485,0.031080224370044176,0.09863847703576796,0.13734239031933368,0.0705547553379627
6,9.723636899987468,0.031651716948122806,0.006298662309193804,0.0685922928590019,0.007190767079449476,-0.0012020705135510929,0.008898611600033579,0.016496918600990167,0.041774135408390846,0.031386857710073116,0.09907884150530172,0.13766937298338972,0.07026950387534421
7,9.727578199992422,0.03168318651414619,0.00629382380715955,0.06863134064752228,0.007263544535264443,-0.0010188541293806718,0.009035956152835483,0.016929324505688327,0.04237433462313462,0.031692220263992,0.09951459446073496,0.13798489230470656,0.06997109038515155
8,9.731740599992918,0.03171497709919737,0.006289788836217264,0.06867098941666136,0.007338209092177659,-0.000833021105658108,0.009174627618391417,0.017363617806749353,0.04297588272209208,0.03199625464116188,0.09994563693552827,0.13828883121216512,0.06965948064613749
9,9.736027399994782,0.031747096938806514,0.006286568803664164,0.06871124493204543,0.007414768924448419,-0.0006445656782858569,0.009314620087859661,0.01779977777558832,0.04357872902203096,0.032298903302563055,0.10037186909134665,0.13858107280531912,0.06933464113019623
10,9.739936099998886,0.03177955430390319,0.006284175141417448,0.0687521129330244,0.007493232115126111,-0.0004534823049820762,0.009455927401512871,0.018237783246436285,0.044182822331146274,0.03260010856555133,0.10079318995534253,0.13886150048964024,0.06899653975879884
11,9.74405249999836,0.03181235750041501,0.006282619305043548,0.06879359913157786,0.00757360665413169,-0.0002597656674923356,0.009598543148135758,0.018677612611308805,0.044788110950752844,0.032899812611726524,0.10120949759889471,0.13912999807763266,0.06864514537777469
12,9.748496699990936,0.031845514868857894,0.006281912772777762,0.06883570921121872,0.00765590043632483,-6.341067379246241e-05,0.009742460664445075,0.01911924381671333,0.04539454267713773,0.033197957487114446,0.10162068935816586,0.13938644977174752,0.06828042693795043
13,9.752519699992265,0.0318790347839179,0.0062820670445343195,0.06887844882589426,0.007740121259556725,0.0001355875397158825,0.00988767303448888,0.019562654360538608,0.04600206480310394,0.03349448510289936,0.10202666174994318,0.13963074012500223,0.06790235408343755
14,9.75666229998751,0.03191292565402453,0.006283093640906898,0.06892182359888453,0.007826276822710147,0.0003372336060158034,0.0100341730890729,0.020007821288029127,0.0466106241194799,0.03378933724072953,0.10242731032467374,0.13986275396613856,0.06751089727764018
15,9.76068769999256,0.03194719592091546,0.006285004102159616,0.06896583912169837,0.007914374723717187,0.0005415319252927399,0.010181953405206006,0.020454721187394557,0.047220166916011344,0.03408245555454711,0.10282252986608709,0.1400823762249899,0.0671060272360144
16,9.766862099990249,0.031981854059192606,0.006287809987208542,0.06901050095296701,0.008004422457561076,0.000748486662752834,0.01033100630554251,0.02090333018752276,0.04783063898134986,0.034373781570953436,0.10321221456962633,0.1402894917578711,0.0666877149470629
17,9.771028799994385,0.03201690857586947,0.006291522872593687,0.06905581461733525,0.00809642741427401,0.0009581017464404,0.010481323857830821,0.021353623955143234,0.048441985602424034,0.034663256691221785,0.10359625793752103,0.1404839852136488,0.06625593173556936
18,9.775019499997144,0.032052368009909724,0.006296154351441509,0.0691017856043502,0.008190396876914263,0.0011703808650508148,0.010632897874373276,0.02180557769162629,0.04905415156326161,0.03495082219221337,0.10397455286284443,0.1406657409707118,0.06581064922035772
19,9.778658299997916,0.032088240931756974,0.006301716032417853,0.06914841936734781,0.008286338019536132,0.0013853274657377298,0.01078571991148277,0.022259166130878572,0.04966708114381165,0.03523641922802221,0.10434699152431393,0.14083464314353997,0.06535183990246189
20,9.782623099992634,0.03212453594285566,0.006308219538671358,0.06919572132233688,0.008384257905148731,0.0016029447519157031,0.010939781268956915,0.022714363535226014,0.050280718118823925,0.03551998883601368,0.10471346493473138,0.14099057556826602,0.06487947745949027
21,9.786827299991272,0.032161261675163005,0.0063156765067672645,0.06924369684688098,0.008484163483650076,0.0018232356810576516,0.011095072989587259,0.023171143689376617,0.050895005756545326,0.035801471941033045,0.10507386275196248,0.141133421755409,0.06439353640925073
22,9.79021439999633,0.03219842679065198,0.006324098585611633,0.06929235127897816,0.008586061589733292,0.0020462029624861294,0.011251585858670097,0.02362947989465717,0.051509886817187586,0.03608080935851446,0.1054280733524653,0.14126306490169052,0.06389399246700139
23,9.794227299993508,0.03223603998080497,0.006333497435365919,0.06934168991593868,0.008689958940770515,0.002271849055157436,0.011409310403542773,0.024089344963616408,0.05212530355172663,0.03635794180180089,0.10577598376812114,0.14137938793860394,0.06338082269258039
24,9.798261699994328,0.03227410996609834,0.00634388472635189,0.06939171801326066,0.008795862134672087,0.0025001761654424377,0.011568236893158237,0.024550711213711576,0.05274119770079326,0.03663280988653447,0.10611747965474472,0.14148227351271925,0.06285400504898407
25,9.802248299994972,0.03231264549547745,0.006355272137946876,0.06944244078350405,0.00890377764771548,0.002731186244901013,0.011728355337659587,0.02501355046163733,0.053357510493301015,0.036905354134132026,0.10645244529233364,0.14157160396208257,0.06231351875973507
26,9.806865499995183,0.03235165534582228,0.0063676713574693,0.06949386339516263,0.009013711832355097,0.0029648809880509254,0.011889655487984891,0.025477834017014485,0.05397418264513129,0.037175514979287796,0.10678076350081656,0.14164726128597638,0.06175934449797783
27,9.811656699996092,0.03239114832140342,0.0063810940790545,0.06954599097153454,0.009125670914996225,0.0032012618301308165,0.012052126835507075,0.025943532675985127,0.054591154357497826,0.03744323277509584,0.10710231581855323,0.1417091271501739,0.06119146396609925
28,9.815197599993551,0.032431133253328276,0.006395552002520778,0.06959882858959111,0.009239660993749064,0.0034403299448548343,0.012215758611683359,0.026410616716455976,0.055208365315677604,0.03770844779689161,0.10741698283866169,0.14175708303798315,0.060609859790823846
29,9.819758699988595,0.03247161899897751,0.006411056832225662,0.06965238127884438,0.009355688036161245,0.0036820862421645746,0.012380539787728599,0.026879055894622667,0.05582575468869081,0.03797110024646065,0.10772464444002876,0.14179101036181158,0.060014515607283415
30,9.823220599995691,0.032512614441431505,0.0064276202759123765,0.06970665402021303,0.00947375787694159,0.0039265313659809205,0.01254645907430138,0.02734881944222503,0.056443261129003386,0.03823113025661241,0.10802517971366798,0.1418107904539144,0.05940541597492827
31,9.827593299996806,0.03255412848888695,0.006445254043546529,0.0697616517448872,0.009593876215668727,0.004173665691953394,0.012713504921217193,0.02781987606243002,0.0570608227721264,0.03848847789465656,0.10831846679471646,0.14181630453761224,0.05878254597844353
32,9.831716499989852,0.03259617007406339,0.0064639698461429786,0.06981737933319195,0.009716048614478993,0.004423489325208506,0.012881665517164801,0.028292193925623797,0.057678377236067946,0.03874308316350107,0.1086043827365579,0.14180743363668188,0.05814589126966323
33,9.835727699988638,0.03263874815359964,0.006483779394582906,0.06987384161344952,0.009840280495738402,0.004676002098094335,0.01305092878942898,0.028765740664198364,0.05829586162014336,0.03899488600549362,0.10888280326908695,0.14178405852276513,0.057495438634779
34,9.84011129999999,0.03268187170744008,0.006504694398421044,0.06993104336084048,0.009966577139685137,0.004931203567918515,0.013221282403640346,0.02924048336623832,0.05891321250396908,0.03924382630845958,0.10915360265158593,0.14174605983492086,0.05683117605748301
35,9.844262199985678,0.03272554973821054,0.006526726564683048,0.06998898929626376,0.010094943682046545,0.005189093014684049,0.013392713763550676,0.02971638856902614,0.05953036594731411,0.039489843910093386,0.10941665380939543,0.14169331824369202,0.05615309269794385
36,9.848424399999203,0.03276979127058381,0.006549887596653005,0.07004768408519584,0.010225385111625056,0.005449669438826007,0.013565210010820984,0.03019342225391924,0.06014725749052275,0.03973287860381343,0.1096718285858979,0.14162571458375187,0.05546117929180273
37,9.852406199992402,0.032814605350634546,0.0065741891926510915,0.07010713233654892,0.010357906267870564,0.005712931558951019,0.013738758024847834,0.030671549842049863,0.060763822155521306,0.03997287014662836,0.10991899757462724,0.14154312998258922,0.054755428003213404
38,9.857688899995992,0.03286000104518359,0.0065996430448013975,0.07016733860152863,0.010492511838428899,0.005978877809582742,0.013913344422619923,0.031150736187739916,0.061379994447361606,0.0402097582637121,0.11015802990913931,0.14144544593399944,0.05403583185772518
39,9.863689799996791,0.032905987441131566,0.006626260837789948,0.07022830737249097,0.010629206356656845,0.006247506338914793,0.014088955558584242,0.03163094557237079,0.06199570835586774,0.040443482651330936,0.11038879328384706,0.1413325443505988,0.05330238467905397
40,9.867194299993573,0.03295257364478153,0.006654054247612955,0.0702900430817988,0.010767994199117236,0.00651881500657056,0.01426557752452815,0.03211214169797967,0.06261089735763695,0.04067398298086788,0.11061115376509108,0.14120430772404202,0.05255508123634102
41,9.870947499992326,0.03299976878115076,0.006683034940315332,0.07035255010067777,0.010908879583038196,0.006792801381373564,0.014443196149480586,0.032594287679483906,0.06322549441908172,0.040901198903032274,0.11082497594868963,0.14106061935739922,0.051793917181074615
42,9.87489029999415,0.033047581993271284,0.006713214570719525,0.07041583273807196,0.011051866563740511,0.007069462739133759,0.014621796999630805,0.033077346039649465,0.06383943200045454,0.041125070051334776,0.1110301234851747,0.14090136348987523,0.05101888953013345
43,9.87834889999067,0.033096022441479245,0.006744604781144748,0.07047989523949912,0.011196959032053058,0.007348796060452949,0.014801365378259851,0.03356127870588973,0.0644526420599762,0.04134553605050394,0.11122645912180401,0.14072642523908604,0.05022999761129726
44,9.881919199993716,0.033145099302692944,0.006777217200116702,0.07054474178590565,0.011344160711712287,0.007630798028547045,0.0149818863257326,0.03404604700559984,0.06506505605735777,0.04156253652819586,0.11141384462886839,0.14053569042635938,0.04942724306313607
45,9.885822799988093,0.03319482176967954,0.006811063441067841,0.07061037649252186,0.01149347515673702,0.007915465027082152,0.015163344619531217,0.0345316116623137,0.06567660495640747,0.04177601112340984,0.11159214093630229,0.14032904531286147,0.04861062966698398
46,9.890030099995784,0.03324519905031024,0.006846155101028247,0.07067680340771718,0.011644905748794468,0.008202793138019531,0.015345724774320484,0.03501793279222807,0.06628721922625447,0.04198589949673463,0.11176120802886896,0.14010637632396528,0.047780163725161466
47,9.894169999999576,0.033296240366804036,0.0068825037593071275,0.07074402651185596,0.011798455694544746,0.008492778139462347,0.015529011042070504,0.035504969899446716,0.06689682884155519,0.04219214134205813,0.1119209052820917,0.13986756988106006,0.046935854396960776
48,9.898219899987453,0.0333479549549598,0.006920120976164936,0.07081204971615386,0.011954128022965478,0.008785415503502423,0.01571318741222401,0.03599268187543025,0.06750536328225233,0.0423946763997398,0.11207109216588107,0.13961251229645072,0.046077713824661616
49,9.9028655999864,0.0334003520633767,0.006959018291476118,0.070880876861535,0.012111925582691523,0.009080700394064894,0.01589823761193378,0.036481027000368316,0.06811275153286578,0.04259344446941791,0.11221162833930538,0.13934108970399794,0.04520575652459079
50,9.906823899989831,0.03345344095266313,0.006999207223382459,0.07095051171749046,0.012271851039351522,0.009378627664748783,0.01608414510634151,0.03696996294345484,0.06871892208164758,0.042788385417878494,0.11234237377660553,0.13905318803276737,0.04431999905065629
51,9.910831299988786,0.033507230894633935,0.00704069926693702,0.07102095798093787,0.012433906872910029,0.009679191856664294,0.016270893098883743,0.037459446765357694,0.06932380291964337,0.04297943918893222,0.11246318897716476,0.13874869300823106,0.04342046018353377
52,9.91505579999648,0.033561731171496176,0.007083505892738658,0.07109221927508252,0.012598095375025563,0.009982387196265216,0.016458464531656763,0.03794943492032264,0.06992732153985777,0.043166545812931056,0.11257393476591868,0.13842749022065995,0.04250716030068543
53,9.919237999987672,0.03361695107502337,0.0071276385455570765,0.07116429914828022,0.012764418646411061,0.010288207593178951,0.01664684208580542,0.03843988325690472,0.07052940493691151,0.04334964541115843,0.11267447229347473,0.13808946518677448,0.0415801210187857
54,9.923229299995,0.03367289990571824,0.007173108642948448,0.07123720107290173,0.012932878594198309,0.010596646638035922,0.016836008181926248,0.03893074702007321,0.07112997960674373,0.04352867820223172,0.11276466313063249,0.13773450336947626,0.04063936565617809
55,9.927682299996375,0.033729586971964036,0.007219927573861565,0.0713109284441991,0.013103476929316715,0.010907697600297014,0.017025944980512055,0.039421980852766235,0.07172897154644095,0.043703584510520026,0.11284436902668989,0.137362490234301,0.039684919316944046
56,9.931732099998044,0.03378702158916442,0.007268106697234535,0.07138548457917408,0.013276215163871287,0.011221353426081496,0.01721663438242835,0.039913538795890754,0.07232630625443104,0.04387430477327888,0.11291345174148949,0.13697331131635748,0.03871680907985751
57,9.935741499997675,0.03384521307887196,0.0073176573405820166,0.07146087271544853,0.013451094608521409,0.011537606735996145,0.01740805802942008,0.04040537428841441,0.07292190873089517,0.04404077955071368,0.11297177304532455,0.136566852272899,0.037735064250319035
58,9.939838899997994,0.0339041707679052,0.007368590798573009,0.07153709601013722,0.013628116369859609,0.011856449822966757,0.017600197304675696,0.04089744016736469,0.07351570347841968,0.04420294953530851,0.11301919477154031,0.1361429989673075,0.03673971636072307
59,9.944138599996222,0.03396390398745433,0.007420918331599203,0.07161415753872323,0.013807281347790336,0.012177874650072952,0.01779303333341513,0.04138968866837891,0.07410761450313942,0.044360755561892826,0.11305557877454908,0.135701637610844,0.03573079986360344
60,9.948401499990725,0.0340244220721754,0.007474651164333909,0.07169206029393584,0.013988590232913515,0.01250187284838964,0.017986546983541542,0.041882071425337696,0.07469756531662418,0.044514138623007043,0.11308078695072586,0.13524265485986328,0.0347083524462761
61,9.954314899994642,0.034085734359273215,0.007529800484281611,0.07177080718463157,0.014172043503900132,0.012828435714838255,0.018180718866363133,0.04237453947109698,0.0752854789378687,0.04466303988170952,0.11309468153256735,0.13476593783036048,0.03367241450629827
62,9.958296299999349,0.0341478501875727,0.007586377440318182,0.0718504010346784,0.014357641424882165,0.013157554210045554,0.018375529337356408,0.04286704323968337,0.0758712778953058,0.0448074006823738,0.11309712527766723,0.13427137416613263,0.0326230290882507
63,9.963998299994271,0.03421077889657905,0.007644393141221789,0.07193084458184344,0.014545384042847286,0.01348921895621238,0.018570958496982034,0.043359532568672,0.07645488422939002,0.044947162562945,0.11308798178404886,0.13375885214632377,0.03156024215657544
64,9.969811399991158,0.03427452982552643,0.007703858654194544,0.07201214047668428,0.014735271185049506,0.01382342023499497,0.018766986191554855,0.0438519567041282,0.07703621949554737,0.045082267268113284,0.11306711557414015,0.1332282608090417,0.030484102364688032
65,9.974669899995206,0.034339112312415536,0.007764785003374961,0.07209429128144419,0.014927302456446913,0.014160147985399404,0.01896359201417447,0.0443442643037167,0.07761520476783561,0.045212656759559364,0.11303439178989547,0.1326794901312856,0.029394660613989237
66,9.978128299990203,0.03440453569304001,0.007827183168341266,0.0721772994689516,0.015121477237139394,0.014499391801694786,0.019160755305684483,0.04483640343898807,0.07819176064346102,0.04533827322528731,0.11298967638209519,0.13211243112455312,0.028291970368695046
67,9.981988499988802,0.03447080930000167,0.00789106408260568,0.07226116742152368,0.01531779467982629,0.014841140931347039,0.01935845515568437,0.045328321600136556,0.07876580724727136,0.045459059092611984,0.11293283620497513,0.13152697585855883,0.0271760879289581
68,9.98798999999417,0.034537942461714786,0.007956438632099739,0.07234589742987457,0.015516253707285552,0.015185384272971215,0.019556670403601827,0.04581996569911067,0.07933726423647922,0.04557495703987054,0.11286373899500417,0.13092301752440985,0.026047072179012455
69,9.991795699999784,0.03460594450139937,0.008023317653650731,0.07243149169202838,0.01571685300985849,0.015532110374306424,0.019755379639806645,0.0463112820741862,0.07990605080570513,0.04568591000721637,0.1127822538225264,0.1303004504554816,0.024904984754909754
70,9.995425499990231,0.03467482473606353,0.00809171193344939,0.07251795231223705,0.01591959104296875,0.015881307430212068,0.019954561206777067,0.046802216497010295,0.08047208569188281,0.04579186120979148,0.11268825091357818,0.1296591701470299,0.023749890612060155
71,9.99878529999114,0.034744592475475136,0.008161632205508883,0.07260528129990354,0.016124466024668424,0.01623296328068549,0.02015419320032837,0.0472927141756226,0.08103528717947306,0.0458927541534633,0.11258160112424151,0.12899907341915975,0.022581858403180503
72,10.002213699990534,0.034815257021122835,0.008233089150115227,0.0726934805685104,0.01633147593318333,0.01658706540890361,0.020354253470916295,0.04778271975692135,0.08159557310678828,0.04598853265128869,0.11246217616120227,0.1283200586951882,0.02140096014201886
73,10.00682219999726,0.034886827665166334,0.00830609339226923,0.07278255193455427,0.016540618504480596,0.016943600939295676,0.020554719625009012,0.04827217733160544,0.08215286087363079,0.046079140836322065,0.11232984861391083,0.12762202616561213,0.020207270867567465
74,10.010791299995615,0.03495931368937621,0.008380655500120123,0.07287249711648645,0.016751891229856992,0.017302556635651407,0.0207555690265021,0.04876103043692055,0.08270706744904535,0.04616452317515493,0.1121844914811671,0.12690487771469644,0.01900086908518962
75,10.015027399989776,0.0350327243640632,0.008456785983391021,0.07296331773365972,0.016965291353530424,0.01766391889926126,0.02095677879820843,0.04924922205747818,0.08325810937831812,0.0462446244845659,0.11202597805578648,0.12616851678113616,0.017781836745209285
76,10.019144099991536,0.035107068946997035,0.008534495291796357,0.07305501530528181,0.017180815870235403,0.018027673767085545,0.02115832582341815,0.04973669462699727,0.08380590278951565,0.04631938994487375,0.11185418213514502,0.12541284831628913,0.016550258697045888
77,10.023163499994553,0.0351823566823148,0.008613793813451402,0.0731475912493759,0.017398461522829704,0.01839380690995163,0.02136018674750487,0.050223390030956924,0.08435036340012005,0.046388765111833374,0.11166897836711022,0.1246377788026232,0.015306222647367897
78,10.027455399991595,0.0352585967994189,0.008694691873273992,0.07324104688174807,0.01761822479991294,0.018762303630780845,0.02156233797958926,0.050709249611350864,0.08489140652372867,0.04645269592962437,0.11147024278611467,0.12384321630040768,0.01404981934867375
79,10.031402199994773,0.0353357985118647,0.008777199731378612,0.07333538341496218,0.017840101933474628,0.01913314886284404,0.021764755694258342,0.05119421417400891,0.08542894707709596,0.0465111287443894,0.11125785305475332,0.12302907059792943,0.012781142326593465
80,10.035564599995269,0.035413971016237986,0.008861327581462927,0.07343060195732243,0.01806408889657653,0.01950632716804981,0.021967415833346993,0.05167822399545564,0.08596289958814134,0.04656401031484778,0.1110316886316081,0.12219525337436743,0.011500287669712509
81,10.039645199998631,0.03549312349102244,0.008947085549186955,0.0735267035118637,0.01829018140106045,0.01988182273526981,0.022170294107749688,0.052161218831693425,0.08649317820440959,0.046611287824003346,0.11079163120229792,0.1213416782676754,0.010207354344581853
82,10.044434799987355,0.03557326509545714,0.00903448369054502,0.07362368897534988,0.018518374895307072,0.020259619378700657,0.02237336599930397,0.05264313792881527,0.08701969670167001,0.04665290889250156,0.11053756462651625,0.1204682609692678,0.008902443733605332
83,10.048508499996387,0.0356544049683845,0.00912353199023065,0.07372155913728061,0.01874866456203618,0.020639700536264124,0.02257660676271851,0.05312392003132658,0.08754236849320136,0.04668882158631271,0.11026937474912123,0.11957491937888094,0.007585659424912097
84,10.05240019998746,0.03573655222708861,0.009214240359994602,0.07382031467890642,0.01898104531613798,0.021022049268049927,0.022779991427523502,0.0536035033911127,0.0880611066397398,0.04671897442825898,0.1099869496106305,0.11866157376779013,0.006257107842838837
85,10.056639499991434,0.0358197159661243,0.009306618636996198,0.07391995617225246,0.01921551180255142,0.02140664825480255,0.02298349480009912,0.05408182577759399,0.08857582386018532,0.04674331641118865,0.1096901795935948,0.11772814697534588,0.004916898100642354
86,10.060705299998515,0.035903905256137014,0.009400676582148168,0.07402048407915128,0.01945205839418395,0.02179347979645728,0.023187091465740634,0.054558824487968116,0.08908643254326135,0.046761797008220425,0.1093789574542454,0.11677456460039673,0.0035651419794628238
87,10.065068899988546,0.03598912914267372,0.00949642387845524,0.07412189875028459,0.019690679189879056,0.02218252581072857,0.0233907557907761,0.055034436357640784,0.08959284475988835,0.04677436618573442,0.10905317836517002,0.11580075513339429,0.0022019542645116148
88,10.069274399997084,0.03607539664498512,0.009593870129346684,0.07422420042423443,0.01993136801242685,0.022573767831753844,0.023594461924744622,0.05550859777083971,0.09009497227599399,0.04678097441654442,0.10871273990406297,0.1148066500321251,0.0008274526610478346
89,10.073255899987998,0.0361627167548192,0.009693024857003093,0.07432738922654393,0.020174118406624045,0.022967187008793438,0.02379818380262875,0.05598124467094736,0.09059272656554627,0.04678157269215712,0.10835754198021935,0.11379218378177905,-0.0005582423105480041
90,10.07819849999214,0.03625109843520657,0.00979389750067761,0.07443146516878793,0.02041892363737455,0.023362764104987898,0.024001895147139515,0.05645231257047474,0.09108601882388687,0.04677611253503051,0.10798748697180198,0.11275729399241746,-0.001955007209989466
91,10.081819099999848,0.03634055061923747,0.009896497415011874,0.07453642814765363,0.020665776687836302,0.023760479496174047,0.024205569471055597,0.05692173656258964,0.09157475998161313,0.04676454601174573,0.1076024798196519,0.11170192147801154,-0.0033627156137724127
92,10.08664099998714,0.03643108220883096,0.010000833868346945,0.07464227794403157,0.020914670257622253,0.024160313169763196,0.02440918007962307,0.05738945133190745,0.09205886071859977,0.046746825745816886,0.107202427817207,0.11062601015910473,-0.0047812382203817885
93,10.094339499992202,0.03652270207349626,0.010106916041029479,0.0747490142221172,0.021165596761041194,0.02456224472367932,0.024612700073006134,0.05785539116418971,0.09253823147703318,0.04672290492994657,0.10678724033811912,0.10952950693365086,-0.00621044274549993
94,10.098512799988384,0.036615419049086606,0.0102147530237134,0.07485663652852322,0.02141854832538321,0.024966253365350785,0.024816102348793594,0.05831948995476272,0.09301278247430814,0.04669273733974835,0.10635682856254475,0.10841236166969065,-0.007650193606305745
95,10.10330069999327,0.036709241936545685,0.010324353815657298,0.07496514429140291,0.021673516789233814,0.02537231791076086,0.02501935960456911,0.05878168121583228,0.09348242371599841,0.04665627734875188,0.10591110563453637,0.1072745271897024,-0.009100351648643295
96,10.107100599998375,0.036804179500646794,0.010435727323017835,0.07507453681958494,0.02193049370082312,0.0257804167835524,0.025222444340548367,0.059241898086273004,0.09394706500861713,0.04661347994450146,0.10544998714583577,0.10611595938835003,-0.01056077414733172
97,10.1110495999892,0.0369002404687249,0.01054888235713934,0.07518481330171962,0.02218947031642523,0.02619052801418948,0.02542532886228951,0.05970007334315661,0.0944066159736129,0.046564300743558495,0.1049733913141244,0.10493661750298093,-0.012031314994984362
98,10.11518259999866,0.03699743352940185,0.01066382763283991,0.07529597280543732,0.0224504375988078,0.02660262923918399,0.025627985283460993,0.06015613941309364,0.09486098606248601,0.046508696005955585,0.10448123919305871,0.10373646427929854,-0.01351182468083659
99,10.119421299998066,0.037095767331304944,0.010780571766694278,0.07540801427651883,0.022713386215730217,0.02701669770038892,0.025830385528677894,0.060610028385591,0.09531008457222744,0.04644662265038334,0.10397345523945074,0.10251546602665998,-0.015002150374808282
100,10.123405399994226,0.037195250481779046,0.010899123275313758,0.07552093653807848,0.022978306538509505,0.027432710244359403,0.026032501336402024,0.06106167202933342,0.09575382066091666,0.04637803826791238,0.10344996756538646,0.10127359268317158,-0.01650213607492511
101,10.12753499999235,0.03729589154559268,0.011019490573623541,0.07563473828975979,0.023245188640660285,0.02785064332178186,0.02623430426189776,0.06151100180773674,0.09619210336372758,0.046302901135896225,0.10291070789646449,0.10001081786050636,-0.018011622586053124
102,10.131896899998535,0.0373976990436383,0.011141681973137672,0.07574941810694427,0.023514022296596146,0.028270472986974438,0.026435765680253232,0.06195794889486568,0.09662484160891668,0.046221170231878474,0.1023556115819026,0.09872711877620943,-0.0195304475828377
103,10.13683299999684,0.03750068145162706,0.011265705680231998,0.07586497443997343,0.02378479698040824,0.028692174897455396,0.026636856789457278,0.06240244419107513,0.09705194423323939,0.04613280524694754,0.10178461720607275,0.09742247617434732,-0.02105844546282719
104,10.140558899991449,0.03760484719877847,0.011391569794415385,0.07598140561338437,0.024057501864702877,0.029115724313577816,0.02683754861353694,0.06284441833554469,0.09747331999724711,0.04603776660092305,0.1011976662734831,0.09609687434365582,-0.022595446820966446
105,10.144425199992838,0.03771020466650501,0.01151928230659948,0.07609870982515911,0.02433212581948928,0.029541096098231207,0.027037812005766684,0.06328380171917637,0.09788887760086165,0.045936015460287326,0.10059470316669894,0.09475030114183054,-0.024141278176990886
106,10.153272299998209,0.037816762187092116,0.011648851097367335,0.07621688514598811,0.02460865741112952,0.029968264716611865,0.027237617651962066,0.06372052449676267,0.09829852569888387,0.045827513755746,0.0999756748942293,0.09338274789540879,-0.025695762101250127
107,10.156856999994488,0.03792452804237367,0.011780283935241165,0.07633592951854833,0.02488708490133223,0.03039720423605954,0.027436936073841893,0.06415451659768855,0.09870217291569605,0.04571222419906365,0.09934053116388547,0.09199420933142806,-0.027258716815310374
108,10.161361999998917,0.0380335104624032,0.01191358847494955,0.076455840756796,0.025167396246195767,0.030827888325955847,0.02763573763246851,0.06458570773873837,0.09909972786017542,0.04559011030410288,0.09868922465612306,0.09058468370650515,-0.028829955667223153
109,10.165306499999131,0.03814371762412101,0.012048772255694312,0.07657661654527465,0.025449579095313455,0.031260290257690816,0.027833992531793195,0.06501402743717853,0.09949109914152067,0.04546113640822998,0.09802171112916044,0.0891541729215518,-0.030409287782314463
110,10.169336299994027,0.03825515765001764,0.012185842699417422,0.07669825443843875,0.025733620790930674,0.03169438290469914,0.028031670822282886,0.06543940502447991,0.09987619538516457,0.04532526768768611,0.09733794968134508,0.08770268258027669,-0.03199651873565601
111,10.173462599996128,0.03836783860679364,0.012324807109068194,0.07682075185999335,0.026019508367169642,0.032130138742565324,0.02822874240459944,0.06586176966168547,0.10025492524911002,0.04518247017313625,0.09663790290858175,0.08623022213391214,-0.03359145025809427
112,10.177577799986466,0.03848176850401623,0.012465672666871104,0.07694410610224973,0.026307228549320324,0.032567529849202186,0.028425177033361768,0.06628105035450382,0.10062719744110309,0.04503271076760062,0.09592153696772793,0.0847368049638075,-0.03519388019393961
113,10.182031499993172,0.038596955292772975,0.012608446432594546,0.07706831432549784,0.026596767753196675,0.03300652790510558,0.028620944320981286,0.06669717596922896,0.10099292073568843,0.044875957262372125,0.09518882176560256,0.08322244836964553,-0.03680360275331468
114,10.186144799998146,0.03871340686432279,0.012753135341820864,0.07719337355739532,0.0268881120845662,0.03344710419368146,0.028816013741562667,0.06711007524947993,0.10135200399127967,0.04471217835275005,0.09443973105325301,0.08168717360886117,-0.03842040844894382
115,10.19184139999561,0.03883113104874465,0.012899746204217957,0.07731928069237393,0.027181247338651984,0.03388922960164923,0.029010354634876317,0.06751967683294158,0.10170435616755814,0.04454134365450799,0.09367424237347954,0.08013100586923427,-0.04004408378104582
116,10.195541999986744,0.03895013561358428,0.013048285701812826,0.07744603249106319,0.02747615899970805,0.03433287461952037,0.02920393621040256,0.0679259092676472,0.1020498863423046,0.044363423722371884,0.09289233704008538,0.07855397424100731,-0.04167441109041931
117,10.198883499993826,0.039070428262499124,0.013198760387267347,0.07757362557973198,0.027772832240663205,0.034778009342148385,0.029396727551465038,0.06832870102853857,0.10238850372855506,0.044178390067767505,0.09209400012739503,0.07695611181887585,-0.04331116872640051
118,10.203951999996208,0.03919201663390199,0.013351176682156605,0.07770205644974823,0.028071251922840622,0.035224603469356804,0.029588697619429467,0.06872798053365727,0.10272011769232081,0.04398621517583568,0.0912792203541618,0.07533745573098292,-0.0449541306898601
119,10.21076109999558,0.039314908299603546,0.013505540875250138,0.07783132145705705,0.028371402595742695,0.035672626306643494,0.029779815257985225,0.06912367615969367,0.10304463776999682,0.04378687252628901,0.0904479901366329,0.07369804712611729,-0.04660306629683218
120,10.21504849998746,0.03943911076345408,0.013661859120796408,0.07796141682167775,0.028673268496906046,0.03612204676596027,0.029970049197525755,0.06951571625864045,0.10336197368597018,0.04358033661335665,0.08960030565162466,0.07203793127818957,-0.048257740766914255
121,10.21899249999842,0.03956463145998475,0.01382013743681083,0.07809233862722005,0.02897683355183142,0.03657283336657056,0.03015936805960386,0.06990402917389084,0.10367203537093843,0.04336658296151648,0.08873616663645192,0.07035715772014592,-0.04991791547547623
122,10.22317289999046,0.03969147775304873,0.013980381703367717,0.07822408282041998,0.029282081373978898,0.03702495423598853,0.030347740361449115,0.07028854325514972,0.10397473298068433,0.04314558814324335,0.0878555763997684,0.06865578037314898,-0.051583347428157865
123,10.22754979999445,0.03981965693446243,0.014142597660896483,0.07835664521069542,0.02958899526482765,0.03747837711100031,0.030535134520577746,0.07066918687462627,0.10426997691551924,0.042917329799318,0.08695854196858,0.06693385771187776,-0.0532537894290942
124,10.231639099991298,0.03994917622264715,0.014306790908482487,0.07849002146972209,0.029897558214012174,0.03793306933877244,0.030721518859486912,0.07104588844322544,0.10455767784049755,0.04268178665511013,0.08604507398330968,0.06519145288217204,-0.05492899037511909
125,10.235564199989312,0.04008004276127146,0.014472966902172889,0.07862420713103002,0.03020775289952308,0.03838899787804911,0.030906861610406393,0.07141857642582672,0.10483774670588461,0.04243893853832508,0.08511518684458619,0.06342863383038871,-0.056608695024505336
126,10.240028199987137,0.04021226361789465,0.014641130953287916,0.07875919758962094,0.030519561687976374,0.03884612930043891,0.031091130920147442,0.07178717935875396,0.10511009476849778,0.042188766397301,0.0841688989863965,0.06164547341097084,-0.0582926441860045
127,10.244508199990378,0.04034584578261145,0.014811288226737933,0.07889498810160694,0.03083296663496641,0.03930442979179794,0.031274294855013825,0.07215162586743318,0.10537463361311125,0.041931252317109084,0.08320623273996693,0.05984204928336737,-0.05998057465609282
128,10.24839599999541,0.04048079616669852,0.014983443739346748,0.07903157378387066,0.03114794948548895,0.03976386515370296,0.03145632140579089,0.07251184468267685,0.10563127517289927,0.04166637953839734,0.08222721429122756,0.05801844391238686,-0.06167221892468002
129,10.252384699997492,0.04061712160126288,0.015157602358181515,0.07916894961374737,0.031464491674435935,0.040224400805012536,0.031637178492820724,0.07286776465797125,0.1058799317508441,0.04139413247605384,0.08123187371231631,0.05617474470568837,-0.06336730525931997
130,10.256614199999603,0.04075482883589269,0.015333768798889638,0.0793071104287294,0.031782574327169126,0.04068600178352665,0.03181683397115377,0.07321931478603515,0.10612051604137666,0.04111449673731712,0.08022024484646179,0.05431104398095475,-0.06506555806174608
131,10.260613399994329,0.0408939245373107,0.015511947624043124,0.07944605092619307,0.03210217826015907,0.041148632747736336,0.03199525563578171,0.07356642421510454,0.10635294115149858,0.040827459137334224,0.07919236547575913,0.05242743903934124,-0.06676669816239993
132,10.26508539999486,0.0410344152880306,0.01569214324149073,0.07958576566314866,0.03242328398170057,0.04161225797866722,0.03217241122692458,0.07390902226695256,0.10657712062306256,0.04053300771470599,0.07814827761522398,0.0505240324034142,-0.06847044282111646
133,10.270748499999172,0.041176307585016655,0.015874359902718363,0.07972624905601347,0.03274587169270861,0.04207684138182322,0.032348268435399036,0.07424703845573521,0.10679296845596666,0.04023113174703916,0.07708802771272744,0.04860093197075348,-0.07017650601999063
134,10.274278499986394,0.04131960783834703,0.016058601701218166,0.07986749538040845,0.03306992128759793,0.042542346489232094,0.03252279490804092,0.07458040250775257,0.10700039913177244,0.03992182176394096,0.07601166665887542,0.046658251047698426,-0.07188459854809727
135,10.277726799991797,0.04146432236988109,0.01624487257086673,0.08000949877097854,0.033395412355251064,0.0430087364615948,0.03269595825318671,0.0749090443803805,0.10719932763719317,0.03960506956183339,0.07491924973504627,0.04469610833481569,-0.07359442760226784
136,10.281561499999953,0.041610457411931104,0.01643317628431289,0.08015225322123705,0.03372232418006283,0.04347597409053567,0.0328677260462251,0.07523289428137939,0.10738966948758538,0.039280868220424744,0.07381083680239636,0.042714627916095566,-0.07530569659772403
137,10.285915799991926,0.041758019105938696,0.01662351645137555,0.0802957525834343,0.03405063574307649,0.043944021800956315,0.03303806583522189,0.07555188268947192,0.10757134075034298,0.03894921211917314,0.07268649221741671,0.040713939187412486,-0.07701810529468779
138,10.289879699994344,0.04190701350115643,0.016815896517451967,0.08043999056845103,0.03438032572320747,0.044412841653489556,0.03320694514661497,0.07586594037291637,0.10774425806776576,0.03861009695265536,0.07154628451732525,0.03869417668116256,-0.07873134967186765
139,10.29427709999436,0.0420574465533349,0.017010319761936954,0.08058496074571662,0.03471137249854128,0.04488239534705252,0.03337433149097307,0.07617499840734437,0.10790833867892623,0.038263519748132226,0.07039028647213769,0.03665547993481027,-0.08044512169583311
140,10.2983019999956,0.04220932412341563,0.0172067892966534,0.08073065654315269,0.0350437541477126,0.045352644221490976,0.03354019236884369,0.07647898819478771,0.10806350044139325,0.03790947888292601,0.06921857531619263,0.034597993642921175,-0.08215910980357435
141,10.302516199997626,0.042362651976230195,0.017405308064294498,0.08087707124714219,0.035377448451368906,0.045823549260321665,0.03370449527666322,0.07677784148353253,0.10820966185442299,0.037547974097783064,0.06803123295809353,0.032521867841310684,-0.08387299898638795
142,10.30726549999963,0.04251743577920584,0.017605878836878155,0.0810241980025245,0.035712432893722446,0.046295071093578596,0.03386720771272127,0.07707149038897454,0.10834674208228634,0.03717900651352068,0.06682834612727265,0.030427257964956368,-0.08558647039221445
143,10.311639099993045,0.04267368110107811,0.017808504214214007,0.08117202981261651,0.03604868466419553,0.04676717000075853,0.03402829718321571,0.07735986741474969,0.10847466097796424,0.03680257864785303,0.06561000637444203,0.028314324979182005,-0.08729920197551454
144,10.315790900000138,0.04283139341061084,0.01801318662238348,0.08132055953926037,0.03638618065915653,0.04723980591387366,0.0341877312083636,0.07764290547359332,0.1085933391076176,0.036418694426378094,0.06437631033477738,0.026183235410661344,-0.08901086910597271
145,10.320819899992784,0.042990578075323874,0.01821992831223339,0.08146977990289787,0.03672489748374684,0.04771293842061021,0.03434547732855191,0.07792053791076295,0.1087026977745527,0.03602735919410225,0.06312736007335264,0.024034161431859827,-0.0907211444653142
146,10.325434200000018,0.043151240360228965,0.018428731357883518,0.08161968348267172,0.03706481145382086,0.04818652676758983,0.03450150311054876,0.07819269852790593,0.10880265904442647,0.035628579727325825,0.06186326270733286,0.021867281197318032,-0.09242969825624384
147,10.329544199994416,0.043313385426574404,0.01863959765524862,0.081770262716554,0.037405898597980825,0.04866052986374772,0.03465577615375774,0.07845932160319183,0.1088931457721407,0.03522236424334801,0.0605841303333272,0.019682778985436883,-0.09413619826501364
148,10.33409409999149,0.04347701833059863,0.018852528920575408,0.08192150990150199,0.03774813465969215,0.049134906283828245,0.03480826409651364,0.07872034191454731,0.10897408162828218,0.03480872241180746,0.05929008059347022,0.017480845171868646,-0.09584030973646761
149,10.338649899989832,0.04364214402229329,0.019067526688995008,0.08207341719364136,0.0380914950995206,0.049609614271993334,0.03495893462243551,0.07897569476471875,0.10904539112578514,0.03438766536547552,0.0579812363714393,0.015261676308362443,-0.09754169560466028
150,10.343311199991147,0.04380876734417634,0.01928459231309138,0.08222597660847739,0.03843595509746592,0.050084611745550324,0.035107755466816416,0.0792253160018596,0.10910699964705811,0.033959205709588276,0.056657725372285625,0.013025475123044706,-0.0992400163245325
151,10.348002699989593,0.0439768930300754,0.019503726961486226,0.0823791800211338,0.03878148955537828,0.05055985629879659,0.03525469442305778,0.07946914204093367,0.10915883347064877,0.03352335753410574,0.055319680258462255,0.010772450520145102,-0.10093492989286221
152,10.3525290999969,0.04414652570392192,0.01972493161744091,0.08253301916661998,0.03912807309947835,0.05103530520697964,0.0353997193491659,0.07970710988548718,0.10920081979836842,0.0330801364228615,0.05396723811456813,0.008502817674948666,-0.10262609222717255
153,10.35662739998952,0.04431766987855651,0.01994820707747584,0.08268748564012646,0.03947568008296335,0.05151091543037795,0.03554279817426597,0.07993915714439036,0.10923288678278381,0.032629559462521836,0.05260053963903997,0.006216797949271212,-0.1043131564511849
154,10.360661299986532,0.04449032995454576,0.02017355395000794,0.08284257089734878,0.03982428458867292,0.051986643618500535,0.035683898905176634,0.08016522204656973,0.10925496355360549,0.03217164525795857,0.05121972935336591,0.00391461882824236,-0.10599577257883988
155,10.364725999999791,0.044664510219010786,0.02040097265400661,0.08299826625484032,0.040173860431823485,0.05246244611439758,0.03582298963305788,0.08038524345957178,0.10926698024462901,0.03170641394396014,0.04982495602196937,0.0015965141890856107,-0.107673588229313
156,10.369216699997196,0.04484021484446791,0.020630463417668717,0.083154562890394,0.040524381162835806,0.05293827895909463,0.03596003854008762,0.08059916090795217,0.10926886802246417,0.03123388719437717,0.048416372275595365,-0.000737275463058924,-0.1093462482491979
157,10.3732381999871,0.04501744788768179,0.020862026277113206,0.08331145184345326,0.0408758200702295,0.053414097896153485,0.036095013906189195,0.08080691458855936,0.10926055911553009,0.03075408823712405,0.04699413444197771,-0.003086502943079675,-0.11101339406070901
158,10.377291599987077,0.04519621328853132,0.021095661075095796,0.08346892401555242,0.041228150183583695,0.05388985837635888,0.036227884115838625,0.08100844538744903,0.10924198684323778,0.03026704186900119,0.0455584028609869,-0.0054509142697023805,-0.11267466424999378
159,10.381677199999103,0.045376514868888565,0.021331367459744403,0.08362697017078687,0.04158134427657886,0.05436551556253354,0.036358617664921225,0.08120369489791242,0.10921308564599717,0.029772774465572843,0.04410934194839361,-0.007830248466171716,-0.11432969507118625
160,10.38573439999891,0.04555835633151111,0.021569144883315784,0.08378558093631315,0.041935374870114485,0.05484102433448619,0.03648718316762485,0.08139260543794612,0.10917379111613561,0.029271313991599403,0.042647120048034774,-0.010224237281684246,-0.1159781201945637
161,10.38993059999484,0.04574174125894819,0.021808992600974048,0.08394474680287924,0.042290214235503054,0.05531633929409593,0.03661354936338739,0.08157512006699284,0.10912404003033097,0.02876269001310861,0.041171909537386,-0.012632604908256151,-0.11761957037090423
162,10.394139399999403,0.04592667311246085,0.02205090966959158,0.08410445812538508,0.04264583439773351,0.05579141477054267,0.03673768512389514,0.0817511826043307,0.10906377038299606,0.028246933710751033,0.0396838871005293,-0.015055067933157123,-0.11925367326206669
163,10.398187599988889,0.04611315523095646,0.02229489494657311,0.08426470512347385,0.04300220713882543,0.056266204825682266,0.036859559460146615,0.08192073764819131,0.10899292141912599,0.02772407789334682,0.03818323378048989,-0.01749133525447501,-0.12088005373601286
164,10.402340999993612,0.04630119082993813,0.022540947088703446,0.084425477882154,0.04335930400125894,0.05674066325956306,0.03697914152956889,0.08208373059460489,0.10891143366841795,0.027194157008671747,0.0366701352838658,-0.019941107735593575,-0.12249833439254544
165,10.40639159998682,0.0464907830004691,0.022789064551019585,0.08458676635245248,0.043717096291493035,0.05721474361609814,0.03709640064317536,0.08224010765917145,0.1088192489811278,0.026657207152425165,0.035144782516976156,-0.02240407788363573,-0.12410813558325128
166,10.410683799986144,0.046681934708152746,0.023039245585707857,0.08474856035209916,0.044075555083585134,0.057688399188894186,0.03721130627276021,0.08238981590057537,0.10871631056499038,0.02611326607884237,0.03360737212094992,-0.02487992968169869,-0.1257090751177562
167,10.415037799990388,0.04687464879212854,0.023291488241026795,0.08491084956624267,0.044434651222914165,0.05816158302724526,0.03732382805814856,0.08253280324701684,0.10860256302253726,0.025562373212220848,0.03205810669227537,-0.027368338579422332,-0.12730076862059045
168,10.419122999999672,0.04706892796408448,0.023545790360256478,0.08507362354819803,0.04479435533003032,0.05863424794228667,0.03743393581449133,0.08266901852164721,0.10847795238809912,0.025004569654424616,0.030497194342504225,-0.029868971501957144,-0.12888283020430102
169,10.423602499999106,0.04726477480728655,0.023802149580675003,0.08523687172022594,0.04515463780459966,0.05910634651331106,0.03754159953958077,0.0827984114651658,0.10834242616504543,0.024439898190548145,0.028924848340384873,-0.03238148701865646,-0.13045487181774534
170,10.427599999995437,0.04746219177562553,0.02406056333256283,0.08540058337434416,0.045515468829450706,0.05957783109424654,0.03764678942119463,0.0829209327581385,0.10819593336131764,0.023868403302096587,0.027341286765146678,-0.03490553562190164,-0.13201650221593195
171,10.4316695999878,0.04766118119268168,0.024321028838235684,0.08556474767317078,0.045876818374713385,0.06004865382028227,0.03774947584452647,0.08303653404057494,0.10803842452424049,0.023290131181621633,0.025746732065573052,-0.03744075978410303,-0.13356732740251281
172,10.435763099987524,0.047861745250807615,0.02458354311110659,0.0857293536508003,0.04623865620203612,0.06051876661464982,0.03784962939965732,0.08314516793040694,0.10786985177555881,0.022705129742047955,0.02414141086066553,-0.039986793947810934,-0.13510695046072715
173,10.4402063999878,0.04806388601022971,0.024848102954777837,0.08589439021371197,0.04660095186888575,0.06098812119555381,0.03794722088906721,0.08324678804132958,0.1076901688463349,0.02211344863278142,0.02252555351937597,-0.04254326439390066,-0.13663497065049032
174,10.445063099992694,0.04826760539816843,0.025114704962163396,0.08605984614171126,0.046963674732919965,0.061456669083257254,0.03804222133524713,0.08334134899761947,0.10749933111313331,0.02151513925689922,0.020899393834580157,-0.04510978911047612,-0.13815098397612188
175,10.448897299997045,0.048472905207977784,0.025383345514642566,0.08622571008890458,0.0473267939564163,0.06192436160732736,0.038134601988360245,0.08342880644913635,0.10729729563406008,0.020910254782313602,0.019263169433177824,-0.0476859776986459,-0.1396545835839179
176,10.452734499995133,0.04867978709830427,0.025654020781245505,0.08639197058470736,0.047690278510775216,0.0623911499140347,0.038224334333951095,0.08350911708971301,0.1070840211857681,0.020298850155499433,0.017617122080537347,-0.05027143107274741,-0.14114535944855555
177,10.45683349999308,0.04888825259226554,0.025926726717871326,0.086558616034886,0.048054097181109263,0.06285698497392134,0.03831139010072639,0.08358223867480842,0.10685946830210709,0.0196809821153891,0.0159614977224975,-0.052865741234656864,-0.14262289902415898
178,10.460944599995855,0.04909830307664929,0.026201459066539527,0.0867256347226337,0.0484182185708999,0.06332181758953659,0.03839574126838521,0.08364813004026343,0.10662359931309467,0.019056709201429788,0.014296547126441354,-0.05546849114782864,-0.14408678799946883
179,10.465262099998654,0.04930993980113249,0.026478213354675473,0.08689301480968054,0.048782611106750015,0.06378559840334456,0.038477360075469945,0.08370675112553719,0.10637637838466335,0.018426091760901396,0.012622526143036463,-0.05807925465285673,-0.14553661048821012
180,10.469028399995295,0.04952316387752168,0.02675698489443069,0.08706074433743777,0.049147243043243104,0.06424827790580612,0.038556219027260266,0.0837580629947424,0.10611777155836692,0.017789191955315854,0.010939695265663298,-0.06069759649445979,-0.14697194928057372
181,10.472567099990556,0.04973797627901453,0.02703776878203873,0.0872288112281766,0.049512082467879,0.06470980644363217,0.038632290903679804,0.08380202785604468,0.10584774679089248,0.01714607376554482,0.009248319736064214,-0.06332307241598079,-0.1483923860951518
182,10.47738389999722,0.04995437783948307,0.027320559897207348,0.08739720328624138,0.049877097306102014,0.06517013422820979,0.03870554876723473,0.083838609083618,0.10556627399294383,0.01649680299602482,0.0075486694486678815,-0.06595522931536346,-0.14979750168432182
183,10.481420699987211,0.050172369252779084,0.02760535290254776,0.08756590819929748,0.05024225532642787,0.06562921134419418,0.038775965970957116,0.0838677712362107,0.10527332506739498,0.015841447278967132,0.005841018331176778,-0.06859360534193217,-0.1511868759180433
184,10.486210099988966,0.050391951072062,0.027892142243041637,0.08773491353961366,0.05060752414563355,0.06608698775826703,0.03884351616638013,0.08388948007370632,0.10496887394733073,0.015180076077833116,0.004125643914510785,-0.07123772996409602,-0.15256008816212974
185,10.489939199993389,0.05061312370914946,0.02818092214554665,0.08790420676537945,0.05097287123402844,0.06654341332805981,0.0389081733115117,0.0839037025719442,0.10465289663361052,0.014512760688249625,0.002402826607369653,-0.07388712401416625,-0.153916716858079
186,10.493980499988538,0.05083588743389111,0.028471686618341187,0.08807377522205696,0.05133826392077328,0.06699843781123928,0.03896991167881768,0.08391040693296219,0.10432537123251863,0.013839574245143706,0.0006728492761659422,-0.07654129969714091,-0.15525633864101993
187,10.498054199997569,0.05106024237356552,0.028764429450709,0.08824360614376775,0.05170366939924051,0.06745201087475867,0.03902870586325761,0.08390956259615882,0.10398627799325157,0.013160591731340052,-0.0010640025651615403,-0.079199760642304,-0.15657852796098656
188,10.50249349999649,0.05128618851230065,0.029059144212564513,0.08841368665471462,0.05206905473243042,0.06790408210426974,0.03908453079034281,0.08390114025018919,0.10363559934511887,0.012475889987994121,-0.0028074405878322334,-0.08186200183790038,-0.1578828570409281
189,10.506571799996893,0.05151372569051794,0.02935582425411945,0.08858400377063871,0.05243438685843511,0.06835460101369786,0.039137361724263,0.08388511184558424,0.10327331993559943,0.011785547723555298,-0.004557173470198734,-0.08452750948678663,-0.15916889680203078
190,10.510545699988144,0.05174285360440035,0.029654462705591515,0.08875454440031205,0.05279963259596454,0.06880351705498558,0.03918717427602242,0.08386145060819716,0.10289942666879946,0.011089645516141132,-0.006312906791352095,-0.08719576099984215,-0.16043621732477797
191,10.515155699991736,0.05197357180538459,0.029955052476955884,0.08892529534706549,0.05316475864992762,0.06925077962800265,0.039233944411587146,0.08383013105274932,0.1025139087435662,0.010388265818485006,-0.008074342895100098,-0.08986622495425264,-0.1616843879120711
192,10.519197299989171,0.05220587969967778,0.0302575862577402,0.08909624331035222,0.0535297316170762,0.06969633809062147,0.039277648460064325,0.08379112899746124,0.1021167576923092,0.009681492959760637,-0.009841180638393258,-0.0925383610730231,-0.16291297822459108
193,10.523164499987615,0.05243977654779881,0.030562056516863813,0.08926737488734697,0.0538945179917136,0.07014014176896528,0.03931826312186535,0.08374442157978962,0.10170796741929249,0.008969413140641577,-0.011613115212017017,-0.09521162044946627,-0.16412155869996004
194,10.527646399990772,0.052675261464144724,0.030868455502522027,0.08943867657458059,0.05425908417147569,0.0705821399678171,0.039355765476842074,0.0836899872726199,0.1012875342375007,0.008252114431475124,-0.013389838151854239,-0.09788544568515417,-0.165309700258815
195,10.531616799999028,0.05291233341658245,0.031176775242115994,0.08961013476961009,0.054623396463180374,0.07102228198118898,0.03939013299243409,0.08362780589990525,0.10085545690572977,0.007529686769901706,-0.015171037716324288,-0.10055927098414667,-0.16647697501945183
196,10.53578859999834,0.0531509912260661,0.031487007542229016,0.08978173577272425,0.05498742108874494,0.07146051710305394,0.0394213435317842,0.08355785864957187,0.10041173666463242,0.006802221952804764,-0.016956399411756452,-0.10323252224684581,-0.1676229566759122
197,10.540027199996985,0.05339123356628024,0.0317991439886499,0.08995346578868427,0.05535112419114792,0.0718967946382292,0.03944937536181559,0.08348012808458236,0.09995637727299146,0.006069813630637278,-0.01874560604545504,-0.10590461704347123,-0.16874722011934778
198,10.544122699997388,0.053633058963309145,0.03211317594644405,0.09012531092849974,0.05571447184044277,0.07233106391342405,0.03947420716129791,0.08339459815537892,0.09948938504399628,0.005332557302669293,-0.020538337567241872,-0.10857496479975925,-0.16984934150123238
199,10.548464099992998,0.0538764657953324,0.032429094560073035,0.09029725721123957,0.05607743003982815,0.07276327428843894,0.03949581802888301,0.0833012542123267,0.0990107688798988,0.004590550310763908,-0.022334271070013977,-0.1112429670953748,-0.17092889842290904
200,10.552571199994418,0.05412145229234705,0.032746890753563226,0.09046929056587794,0.056439964731769925,0.07319337516751526,0.039514187491116834,0.0832000830181522,0.0985205403056911,0.003843891832973988,-0.024133080758368557,-0.1139080178666334,-0.1719854701872526
201,10.556967499986058,0.05436801653591651,0.03306655523072421,0.09064139683317496,0.05680204180417979,0.0736213160108277,0.03952929551041942,0.0830910727606598,0.09801871350199574,0.003092682875126356,-0.025934437885201174,-0.11656950342570699,-0.17301863800879885
202,10.56100219998916,0.054616156458946526,0.0333880784754175,0.09081356176759216,0.057163627096648045,0.07404704634612048,0.03954112249302346,0.08297421306572242,0.09750530533857614,0.002337026262588438,-0.027738010867156035,-0.11922680253801786,-0.1740279848456958
203,10.56511659998796,0.05486586984548838,0.033711450751876315,0.09098577103924231,0.057524686406735345,0.07447051578049159,0.0395496492968826,0.08284949500899254,0.09698033540655288,0.0015770266333160305,-0.029543465547629804,-0.12187928656220735,-0.17501309552567196
204,10.569145099987509,0.05511715433056962,0.03403666210507692,0.09115801023587373,0.05788518549630746,0.07489167401230952,0.03955485723954946,0.08271691112660225,0.096443826050695,0.0008127904285228564,-0.03135046518643966,-0.1245263192849189,-0.1759735569141768
205,10.57310239999788,0.055370007400052476,0.03436370236116218,0.09133026486488878,0.05824509009792022,0.07531047084327884,0.03955672810600268,0.0825764554269643,0.0958958024030753,4.442588426395459e-05,-0.033158670459085555,-0.12716725708765467,-0.1769089573055802
206,10.577264599996852,0.05562442639052016,0.03469256112791798,0.09150252035539627,0.05860436592125706,0.07572685619064999,0.039555244156451605,0.08242812340147858,0.09533629241390837,-0.0007279569725925613,-0.03496773983502101,-0.12980144954506206,-0.1778188859391508
207,10.581607199987047,0.05588040848919137,0.035023227795303126,0.09167476206029798,0.058962978659607215,0.07614078009955343,0.039550388134128284,0.08227191203303866,0.09476532687999527,-0.0015042463285666365,-0.036777329767570185,-0.13242823971986553,-0.17870293335656048
208,10.585690199994133,0.056137950733863,0.0353556915360332,0.09184697525840893,0.05932089399637733,0.07655219275545716,0.03954214327305556,0.08210781980508425,0.09418293947299294,-0.0022843285907081204,-0.03858709458799205,-0.13504696435094632,-0.17956069150745266
209,10.589827399991918,0.05639705001288135,0.03568994130621893,0.09201914515661151,0.0596780776116485,0.07696104449674711,0.03953049330577684,0.08193584671103041,0.09358916676622084,-0.003068088391717321,-0.040396686789251665,-0.13765695436837597,-0.18039175274014135
210,10.594076099994709,0.05665770306514199,0.03602596584605962,0.09219125689204312,0.06003449518877003,0.0773672858274181,0.03951542247107963,0.08175599426084851,0.09298404825844477,-0.0038554085882965797,-0.04220575746786491,-0.14025753539875377,-0.1811957097183641
211,10.598317699987092,0.05691990648011833,0.03636375368059206,0.09236329553431753,0.06039011242097376,0.07777086742986136,0.039496915521739624,0.08156826548664732,0.09236762639628239,-0.004646170265545804,-0.044013956312103766,-0.1428480280165959,-0.18197215649233228
212,10.60264999998617,0.05718365669791912,0.03670329312049532,0.09253524608778,0.060744895018016436,0.07817174017775066,0.03947495773220598,0.0813726649493567,0.09173994659579769,-0.005440252744642106,-0.04582093144547806,-0.14542774835213002,-0.18272068820434745
213,10.606637399992906,0.05744895000937487,0.03704457226295188,0.09270709349379552,0.06109880871285226,0.07856985514901788,0.03944953490627853,0.08116919874567184,0.091101057259613,-0.00623753358467147,-0.04762632937421208,-0.14799600885935926,-0.18344090096338206
214,10.610710799999651,0.057715782556153464,0.03738757899256544,0.09287882263307086,0.061451819268335726,0.07896516363888814,0.03942063338477708,0.08095787451519439,0.09045100979181417,-0.0070378885892160795,-0.04942979493401225,-0.1505521186528938,-0.18413239234886158
215,10.61475039999641,0.057984150330904975,0.03773230098233557,0.09305041832800957,0.06180389248395637,0.07935761717298526,0.039388240053161265,0.0807387014478403,0.08978985861212908,-0.007841191812573558,-0.0512309714274687,-0.15309538400066655,-0.1847947614948249
216,10.6189880999882,0.058254049177435895,0.038078725694689675,0.09322186534510037,0.06215499420260611,0.07974716752049033,0.039352342349145676,0.08051169028978433,0.08911766116654163,-0.008647315567077273,-0.05302950151580293,-0.15562510876467672,-0.185427609719858
217,10.623196299988194,0.058525474790912906,0.038426840382572235,0.0933931483973385,0.0625050903173658,0.08013376670733957,0.039312928270255974,0.08027685334310139,0.08843447793763162,-0.009456130434801837,-0.0548250284068378,-0.1581405945073002,-0.1860305408635577
218,10.627591699987534,0.058798422718096224,0.0387766320905917,0.09356425214667993,0.06285414677826942,0.08051736702947306,0.03926998638134206,0.08003420446136467,0.08774037245426293,-0.010267505277813763,-0.05661719650650215,-0.1606411410994426,-0.18660316151779285
219,10.63169859998743,0.05907288835760228,0.03912808765622514,0.09373516120652814,0.06320212959905229,0.08089792106611686,0.03922350582204492,0.0797837590436129,0.08703541129662681,-0.011081307251891081,-0.05840565217282302,-0.16312604769717973,-0.18714508163523208
220,10.63561079998908,0.05934886696019582,0.03948119371108082,0.0939058601442533,0.06354900486386274,0.08127538169307573,0.039173476314190284,0.07952553402338176,0.08631966409742423,-0.011897401822073828,-0.060190044201507385,-0.1655946133843243,-0.18765591444591248
221,10.640057899989188,0.059626353629111055,0.03983593668221858,0.09407633348374353,0.06389473873391477,0.08164970209602555,0.03911988816912007,0.07925954785844207,0.08559320354131288,-0.012715652775657033,-0.06197002345853864,-0.16804613760090814,-0.18813527631004787
222,10.64454319998913,0.059905343320401705,0.04019230279352823,0.0942465657079879,0.06423929745411038,0.08202083578380119,0.03906273229497288,0.07898582052303096,0.08485610536235776,-0.013535922236459278,-0.06374524281487702,-0.17047992079544208,-0.1885827867808768
223,10.64851319999434,0.060185830843319806,0.04055027806716563,0.09441654126169106,0.06458264735962453,0.08238873660166675,0.03900200020389115,0.07870437349815887,0.0841084483377975,-0.014358070678363047,-0.06551535757796922,-0.17289526511833309,-0.18899806789056783
224,10.653021499994791,0.060467810860723115,0.04090984832504664,0.09458624455391908,0.06492475488244309,0.08275335874454912,0.03893768401918373,0.07841522976008253,0.08335031427945576,-0.015181956933364037,-0.06728002588199243,-0.1752914749462538,-0.18938074385611017
225,10.657143799995538,0.06075127788951086,0.04127099919039851,0.0947556599607764,0.0652655865578474,0.08311465677023344,0.038869776482462946,0.0781184137672132,0.08258178802294068,-0.016007438202550035,-0.0690389090856226,-0.17766785771350632,-0.18973044202457967
226,10.661489999998594,0.06103622630108762,0.0416337160893687,0.09492477182811382,0.06560510903083813,0.0834725856125026,0.038798270960711555,0.07781395144512543,0.08180295741181572,-0.016834370072382802,-0.07079167270603881,-0.18002372548548468,-0.1900467938186759
227,10.670557999997982,0.061322650321855014,0.041997984252690725,0.09509356447426709,0.0659432890624894,0.08382710059419483,0.038723161453277984,0.07750187016533079,0.0810139132730954,-0.017662606533911888,-0.07253798816436996,-0.18235839685048946,-0.19032943526145407
228,10.675041899987264,0.06161054403373093,0.042363788717406696,0.09526202219282573,0.06628009353618772,0.08417815744012976,0.038644442598775974,0.07718219871508507,0.08021474938493983,-0.01849200000362654,-0.07427753399249463,-0.18467119837023008,-0.19057800731278987
229,10.67860829998972,0.06189990137469555,0.04273111432864575,0.09543012925543173,0.06661548946372307,0.08452571228988466,0.0385621096818982,0.07685496726565162,0.07940556243951764,-0.01932240134559989,-0.07600999555019565,-0.18696146553378548,-0.19079215614290224
230,10.682228099991336,0.062190716139363625,0.043099945741457854,0.09559786991460775,0.06694944399125158,0.08486972171039713,0.03847615864012306,0.076520207344572,0.07858645200239218,-0.02015365989472303,-0.07773506383755331,-0.18922854254811314,-0.1909715326690096
231,10.686707499990009,0.06248298197958242,0.04347026742270199,0.0957652284066142,0.06728192440514502,0.08521014270838755,0.03838658607032594,0.07617795181427248,0.077757520477209,-0.020985623474813826,-0.07945243423398735,-0.191471781382812,-0.19111579171608806
232,10.690342499990948,0.06277669240505496,0.043842063652988164,0.09593218895433499,0.06761289813776716,0.08554693274265422,0.03829338923532828,0.07582823485531666,0.07691887307340145,-0.021818138414541822,-0.08116180620570732,-0.1936905417282228,-0.19122459184873214
233,10.694356499996502,0.06307184078398825,0.04421531852867266,0.09609873577019172,0.06794233277317746,0.08588004973621463,0.03819656607037017,0.07547109194755994,0.07607061777124306,-0.02265104956407266,-0.08286288392447182,-0.1958841911943129,-0.1912975955385646
234,10.698276399998576,0.06336842034376623,0.044590015963905785,0.09626485305908578,0.06827019605274322,0.08620945208829614,0.03809611518951443,0.07510655984801316,0.07521286528782103,-0.023484200312451017,-0.08455537677202722,-0.1980521053522001,-0.191334469542687
235,10.702486599999247,0.06366642417164686,0.04496613969273158,0.09643052502136824,0.06859645588065053,0.08653509868618094,0.037992035891967826,0.07473467656760378,0.07434572904172697,-0.02431743260754105,-0.08623899930825767,-0.20019366795553706,-0.1913348857020297
236,10.706770699995104,0.06396584521548304,0.04534367327123871,0.09659573585583711,0.06892108032931402,0.08685694891688922,0.037884328168311485,0.07435548134931692,0.07346932511710223,-0.02515058698036237,-0.0879134710192606,-0.20230827125667422,-0.19129852176128742
237,10.71084049998899,0.06426667628446686,0.045722600079761914,0.09676046976276144,0.06924403764469743,0.087174962678711,0.037772992706610144,0.0739690146471506,0.07258377222557517,-0.025983502572171538,-0.08957851624415163,-0.20439531672989214,-0.1912250613465994
238,10.715145999987726,0.06456891004989683,0.04610290332513334,0.09692471094693175,0.06956529625154008,0.08748910039255778,0.03765803089840673,0.07357531810489426,0.07168919166400765,-0.026816017158603638,-0.0912338639009957,-0.20645421551160312,-0.19111419379795633
239,10.719334599998549,0.06487253904596765,0.04648456604298286,0.09708844362073643,0.0698848247584926,0.08779932301312636,0.03753944484462135,0.07317443453747097,0.07078570727259842,-0.02764796717529416,-0.09287924696318174,-0.208484388098297,-0.19096561461141537
240,10.722791699998195,0.06517755567058219,0.046867571100086644,0.09725165200726348,0.07020259196318092,0.08810559203988565,0.0374172373613227,0.07276640791427631,0.06987344539526032,-0.02847918774587195,-0.0945144017235385,-0.2104852639571876,-0.19077902535356756
241,10.727535999991233,0.06548395218618532,0.04725190119676315,0.09741432034342716,0.07051856685719689,0.08840786952789535,0.03729141198538327,0.0723512833469296,0.06895253484111465,-0.029309512706836162,-0.09613906726742015,-0.21245628259562394,-0.19055413357810802
242,10.73192079999717,0.06579172072061938,0.047637538869315925,0.09757643288311905,0.07083271863105559,0.08870611809845745,0.03716197298003412,0.07192910707720182,0.06802310683555458,-0.030138774634822594,-0.09775298709282663,-0.21439689681942567,-0.19029065385580896
243,10.73611179999716,0.06610085326800123,0.048024466492522344,0.09773797390038305,0.07114501667908081,0.08900030094950868,0.03702892534028256,0.07149992645065677,0.06708529495336182,-0.030966804880450952,-0.09935591121059067,-0.21630657553748708,-0.1899883091812124
244,10.741608999989694,0.06641134168962019,0.04841266628216694,0.09789892769261357,0.07145543060413281,0.08929038186568951,0.0368922747981722,0.07106378988628792,0.06613923504534396,-0.03179343360784245,-0.10094759616341162,-0.21818480424278255,-0.18964683181278488
245,10.74637319998874,0.0667231777148563,0.04880212029761786,0.09805927858377642,0.07176393022222935,0.08957632522809766,0.036752027827856415,0.07062074684999378,0.0651850651672619,-0.03261848983578421,-0.10252780469214379,-0.22003108437381969,-0.18926596247520636
246,10.750196299995878,0.06703635294211849,0.04919281044444508,0.09821901092765113,0.0720704855670424,0.08985809602373813,0.036608191650499895,0.07017084782712116,0.06422292551202856,-0.033441801470299376,-0.10409630556709633,-0.22184493301990846,-0.18884544937239542
247,10.754311599986975,0.06735085883980205,0.049584718477079216,0.09837810911109457,0.07237506689428011,0.09013565985468622,0.03646077423906848,0.06971414429740974,0.06325295834120315,-0.034263195337215675,-0.1056528735033221,-0.22362588327701532,-0.18838504869083197
248,10.758412600000156,0.06766668674726493,0.04997782600150953,0.09853655755732497,0.07267764468596527,0.09040898294694084,0.036309784322947014,0.06925068870827317,0.06227530791409061,-0.03508249721911913,-0.10719728937103291,-0.2253734842713543,-0.18788452491451932
249,10.76195979998738,0.06798382787582247,0.05037211447801983,0.09869434072922574,0.07297818965458457,0.09067803215897016,0.036155231392407366,0.06878053444791103,0.061290120419030494,-0.0358995318906657,-0.10872934032109967,-0.2270873007684083,-0.18734365082581242
250,10.766794999988631,0.06830227330975983,0.05076756522396091,0.09885144313266843,0.0732766727471329,0.09094277498996643,0.03599712570291874,0.06830373581749694,0.0602975439059015,-0.03671412315554219,-0.1102488199969271,-0.2287669134043771,-0.18676220769450716
251,10.771101799997268,0.06862201400736194,0.051164159416558365,0.09900784931985405,0.07357306514902039,0.09120317958780377,0.03583547827929381,0.06782034800244523,0.05929772821539462,-0.037526093883424747,-0.11175552815480941,-0.23041191892987645,-0.1861399853609012
252,10.775666299989098,0.06894304080196002,0.05156187809575431,0.09916354389267222,0.07386733828786646,0.09145921475667708,0.03567030091967711,0.06733042704790547,0.05829082490939524,-0.038335266047663144,-0.11324927036972192,-0.23202192981803527,-0.18547678288740876
253,10.779496099989046,0.0692653444029945,0.05196070216708173,0.09931851150607714,0.07415946383719342,0.09171084996445344,0.035501606199362996,0.06683402983259153,0.05727698720366946,-0.039141460767914374,-0.11472985845578006,-0.23359657412965548,-0.18477240954691412
254,10.78348329999426,0.06958891539709373,0.05236061240457023,0.09947273687148,0.07444941371999263,0.09195805534972483,0.035329407474412745,0.06633121404061414,0.05625636989942057,-0.03994449835643478,-0.11619711078146698,-0.2351354954202732,-0.18402668486366208
255,10.787233299997752,0.06991374424916796,0.05276158945368181,0.09962620476015654,0.07473716011217273,0.09220080172856339,0.0351537188850693,0.0658220381325646,0.05522912931678481,-0.04074419836106975,-0.11765085248040566,-0.23663835253761442,-0.18323943842398305
256,10.790711999987252,0.0702398213035181,0.05316361383427546,0.09977890000666911,0.07502267544587399,0.09243906060099494,0.034974555358999994,0.06530656131551167,0.05419542322815181,-0.04154037960989743,-0.11909091542940907,-0.2381048196537962,-0.18241051078085282
257,10.794424599997,0.07056713678495852,0.05356666594359927,0.09993080751230247,0.07530593241265525,0.09267280415717355,0.034791932614322466,0.06478484351427644,0.053155410791379934,-0.042332860262096456,-0.12051713774405744,-0.23953458599400357,-0.18153975423046625
258,10.798649099990143,0.07089568079995362,0.053970726059308846,0.10008191224851228,0.07558690396655807,0.09290200528327337,0.034605867162404366,0.06425694534582234,0.05210925248547977,-0.043121457859353035,-0.1219293636740389,-0.24092735548885746,-0.18062703297946361
259,10.803835599988815,0.07122544333776731,0.05437577434251073,0.1002321992603852,0.07586556332707062,0.09312663756710308,0.034416376310441574,0.06372292809144156,0.05105711004685704,-0.043905989378185135,-0.12332744442318368,-0.24228284698354238,-0.17967222404975874
260,10.807513299994753,0.07155641427162535,0.054781790840829694,0.10038165367010987,0.07614188398194961,0.09334667530344243,0.03422347816380217,0.06318285366400317,0.049999146403174786,-0.044686271289229945,-0.12471123827460749,-0.2436007957300307,-0.1786752194420475
261,10.815079899999546,0.07188858335988942,0.05518875549149864,0.10053026068045748,0.07641583968989896,0.09356209349908065,0.03402719162808831,0.06263678457904957,0.048935525596600075,-0.04546211962841062,-0.12608061042311786,-0.24488095600304513,-0.17763592876037645
262,10.819258199990143,0.07222194024724281,0.05559664812446979,0.1006780055782706,0.07668740448313993,0.09377286787748458,0.0338275364108604,0.0620847839235043,0.04786641269488307,-0.04623335007908182,-0.1274354336885781,-0.24612310275988528,-0.17655428131435028
263,10.82319149999239,0.0725564744658869,0.05600544846554522,0.10082487373795881,0.07695655266981732,0.09397897488306263,0.03362453302298354,0.06152691532055556,0.046791973700147885,-0.04699977806150515,-0.12877558771838374,-0.24732703092467592,-0.17543022687522195
264,10.827402099996108,0.07289217543674772,0.056415136139525215,0.10097085062499932,0.07722325883626377,0.0941803916850385,0.03341820277957241,0.0609632429053099,0.045712375466205296,-0.04776121882157969,-0.13010095659361195,-0.24849255254242347,-0.17426373470867035
265,10.831736799998907,0.07322903247069225,0.05682569067337252,0.10111592179944072,0.07748749784919384,0.09437709618099505,0.03320856780056496,0.06039383131052441,0.0446277856321297,-0.04851748751189362,-0.1314114276509333,-0.24961949372358164,-0.17305479208422217
266,10.835946099992723,0.07356703476975401,0.05723709149939156,0.10126007291940867,0.07774924485784414,0.09456906700016948,0.03299565101096141,0.059818745652520676,0.04353837256618242,-0.04926839926747294,-0.13270689177663045,-0.2507076927516827,-0.17180340364449712
267,10.840319199996884,0.07390617142836803,0.05764931795842139,0.10140328974461173,0.07800847529604468,0.09475628350650886,0.03277947614073819,0.05923805151435634,0.0424443053158698,-0.05001376928133963,-0.1339872446470741,-0.2517569989921722,-0.1705095920567269
268,10.844288799999047,0.0742464314346145,0.05806234930304153,0.10154555813984625,0.07826516488421245,0.09493872580153032,0.03256006772442887,0.058651814920935366,0.04134575356136976,-0.05075341288593467,-0.1352523884935555,-0.2527672729657713,-0.16917339946217216
269,10.84834499999124,0.07458780367147105,0.05847616470078983,0.10168686407849863,0.07851928963120601,0.09511637472697093,0.032337451100329026,0.058060102306809205,0.04024288756495098,-0.05148714564129956,-0.13650223289944463,-0.25373838691455336,-0.16779488800075762
270,10.852865199994994,0.07493027691807264,0.05889074323739139,0.10182719364604319,0.0787708258360386,0.09528921186720746,0.03211165240930915,0.05746298048434442,0.039135878119469315,-0.05221478342106848,-0.13773669463278118,-0.25467022411054324,-0.16637413932915182
271,10.856729199993424,0.07527383985097864,0.05930606391999746,0.10196653304353415,0.07901975008945555,0.09545721955145761,0.03188269859327054,0.056860516612981866,0.038024896503808574,-0.05293614249645269,-0.13895569646983977,-0.2555626773417162,-0.16491125445172033
272,10.861609999992652,0.07561848104544656,0.05972210568043357,0.10210486859109007,0.07926603927537963,0.09562038085581173,0.031650617393226825,0.05625277817765017,0.036910114444562804,-0.05365103962076039,-0.14015916528337855,-0.2564156480927005,-0.16340635346816956
273,10.865577899996424,0.0759641889767117,0.06013884737845613,0.10224218673136906,0.07950967057230045,0.09577867960510035,0.03141543734702374,0.055639832974674876,0.03579170407861252,-0.054359292111183295,-0.1413470311181391,-0.2572290461364141,-0.16185957572193027
274,10.869276099998388,0.0763109520212729,0.060556267805016786,0.10237847403303342,0.07975062145459709,0.09593210037459991,0.031177187786708322,0.055021749098243665,0.03466983791836355,-0.05506071793460879,-0.1425192268549296,-0.2580027887659922,-0.1602710802403182
275,10.87327599999844,0.07665875845818382,0.060974345685533914,0.1025137171942019,0.07998886969380965,0.09608062849159761,0.03093589883550134,0.05439859492924107,0.033544688821012594,-0.055755135793239985,-0.1436756886312558,-0.2587368003020785,-0.15864104575515472
276,10.877381199999943,0.0770075964703497,0.061393059683170575,0.10264790304588796,0.08022439335986463,0.09622425003682943,0.030691601404420815,0.053770439118050295,0.03241642995807723,-0.056442365210587486,-0.1448163570168368,-0.259431012070686,-0.15696967164922818
277,10.881499999988591,0.07735745414582933,0.06181238840211856,0.10278101855542268,0.08045717082219665,0.09636295184577959,0.030444327188505507,0.05313735056315008,0.03128523478485428,-0.05712222662533241,-0.14594117707599413,-0.2600853624353973,-0.15525717904810782
278,10.88583819998894,0.07770831947914157,0.062232310390887634,0.1029130508298601,0.08068718075078748,0.09649672150985263,0.03019410866262096,0.05249939839337315,0.030151277009669346,-0.05779454148682705,-0.14705009858007395,-0.2606997980063681,-0.15350381229041116
279,10.894564199988965,0.07806018037257638,0.06265280414559982,0.10304398711936358,0.08091440211713324,0.09662554737740502,0.029940979076851258,0.051856651944653005,0.029014730552805675,-0.05845913236176286,-0.14814307852753542,-0.26127427707247797,-0.15170984220558534
280,10.903302499995334,0.07841302463750977,0.0630738481132876,0.10317381482057102,0.08113881419508087,0.09674941855455953,0.029684972451376062,0.051209180720334285,0.02787576948586217,-0.05911582305821819,-0.14922008496490122,-0.26180877458206364,-0.14987557046205252
281,10.911501299997326,0.07876683999572207,0.06349542069519531,0.10330252147993661,0.0813603965614497,0.09686832490570872,0.029426123570782003,0.050557054334641874,0.026734567947303715,-0.05976443877019543,-0.15028109986746768,-0.26230328638649864,-0.14800133391576767
282,10.915849899989553,0.07912161408071836,0.06391750025008174,0.10343009479704654,0.08157912909637555,0.09698225705359381,0.029164467977680904,0.04990034244790237,0.025591300044860706,-0.06040480623954149,-0.15132611981186148,-0.26275783040510375,-0.1460875055977421
283,10.925727699999698,0.0794773344390497,0.06434006509752213,0.1035565226279051,0.08179499198336816,0.09709120637895813,0.028900041965610967,0.04923911470415573,0.02444613976093387,-0.06103675390908555,-0.15235515414644252,-0.2631724449033052,-0.14413449173106097
284,10.929889599996386,0.07983398853163405,0.06476309352120788,0.1036817929881886,0.08200796570911194,0.09719516501980212,0.028632882571321277,0.04857344068231118,0.02329926086998978,-0.06166011205857996,-0.15336822133611952,-0.2635471851203122,-0.14214272809628573
285,10.9337635999982,0.0801915637350758,0.06518656377224198,0.10380589405646427,0.08221803106309793,0.0972941258703174,0.028363027566489042,0.047903389865592866,0.022150836873336122,-0.06227471292618332,-0.15436534549762887,-0.2638821194988496,-0.14011267587202952
286,10.937526199995771,0.08055004734298345,0.06561045407242944,0.10392881417737207,0.0824251691371585,0.09738808257957368,0.02809051544894607,0.047229031622870905,0.021001040949353483,-0.0628803908081758,-0.15534655404648284,-0.2641773264388938,-0.13804481732876026
287,10.940978899991023,0.08090942656728509,0.0660347426175613,0.10405054186476714,0.08262936132493674,0.0974770295500194,0.027815385433527566,0.04655043519860041,0.019850045916543196,-0.06347698214293841,-0.15631187622486903,-0.2644328919660279,-0.1359396535174604
288,10.944984999994633,0.08126968853954149,0.06645940758069199,0.10417106580482191,0.0828305893213335,0.09756096193584679,0.027537677442567198,0.04586766970697347,0.018698024204066046,-0.06406432559053829,-0.15726134245159332,-0.26464890828294046,-0.13379770319834483
289,10.948747599992204,0.08163082031225674,0.06688442711540914,0.10429037485908581,0.08302883512192583,0.09763987564123594,0.027257432096052775,0.045180804127519694,0.017545147827405506,-0.06464226210737783,-0.15819498360780287,-0.26482547301197235,-0.13161950244228995
290,10.952899299998537,0.08199280886018628,0.06730977935909556,0.10440845806750158,0.08322408102237573,0.09771376731850792,0.026974690701471175,0.044489907305479005,0.016391588365503296,-0.06521063502230874,-0.15911283038546326,-0.26496268911058873,-0.1294056048402276
291,10.956923899997491,0.0823556410816424,0.06773544243618305,0.10452530465137662,0.08341630961785187,0.09778263436616969,0.02668949524330112,0.04379504795307647,0.015237516937158803,-0.06576929011310483,-0.16001491339274443,-0.26506066464139755,-0.12715658072592667
292,10.9609938999929,0.08271930379979718,0.06816139446139735,0.10464090401630771,0.0836055038024494,0.09784647492686167,0.02640188837219208,0.04309629464897728,0.014083104180167607,-0.06631807567580704,-0.16090126290135448,-0.26511951245727494,-0.12487301629412657
293,10.965371199999936,0.08308378376398302,0.068587613542994,0.10475524575505815,0.08379164676860688,0.09790528788522102,0.026111913393853114,0.04239371584176211,0.012928520230463227,-0.06685684259351589,-0.16177190781811296,-0.2651393504529352,-0.12255551364206893
294,10.969313599998712,0.08344906765099049,0.06901407778598474,0.10486831965038573,0.08397472200655647,0.09795907286564748,0.02581961425763263,0.04168737985833893,0.011773934699064662,-0.06738544440609816,-0.16262687536825268,-0.2651203016060977,-0.12020469051793309
295,10.97334779999801,0.08381514206636397,0.06944076529535392,0.10498011567782037,0.08415471330381404,0.0980078302299659,0.02552503554480014,0.04097735491017658,0.010619516650859596,-0.06790373737678838,-0.16346619092874226,-0.2650624935162435,-0.11782118025724472
296,10.977447099998244,0.08418199354569517,0.06986765417926451,0.10509062400839005,0.08433160474468364,0.09805156107500734,0.02522822245654597,0.04026370910316823,0.009465434585569038,-0.06841158056134175,-0.16428987710433415,-0.2649660585529956,-0.1154056318040178
297,10.982096899999306,0.08454960855591444,0.07029472255225344,0.10519983501129393,0.0845053807098336,0.09809026723010576,0.02492922080166073,0.03954651045191189,0.00831185641523824,-0.06890883587481969,-0.16509795385197737,-0.2648311341894735,-0.11295870813564601
298,10.986086399992928,0.08491797349658055,0.07072194853841585,0.10530773925652101,0.08467602587592528,0.09812395125448312,0.024628076983953393,0.038825826888490324,0.007158949442298064,-0.06939536814702474,-0.1658904392382761,-0.2646578629188634,-0.11048108495985857
299,10.990078499991796,0.0852870747011688,0.07114931027457762,0.10541432751741363,0.08484352521526567,0.09815261643455495,0.024324837989447956,0.03810172627015465,0.006006880337782512,-0.06987104517793757,-0.1666673497957104,-0.2644463929712555,-0.10797345090422292
300,10.996079899996404,0.08565689843835775,0.07157678591345615,0.10551959077317462,0.08500786399550307,0.0981762667811258,0.0240195513733187,0.037374276385001855,0.004855815113146963,-0.0703357377948023,-0.16742870170035484,-0.26419687946684484,-0.10543650804087118
301,11.003480999992462,0.08602743091331472,0.0720043536268085,0.10562352021131705,0.08516902777932914,0.09819490702644937,0.02371226524658968,0.036643544949401294,0.0037059190884421735,-0.07078931991213348,-0.16817451247304324,-0.2639094854655742,-0.102870973378413
302,11.007149499986554,0.0863986582689799,0.07243199160856653,0.10572610723005552,0.08532700242415213,0.09820854262114671,0.023403028262547376,0.035909599598856326,0.002557356854990892,-0.07123166860179488,-0.16890480225898918,-0.26358438350198815,-0.10027758018559428
303,11.011174599989316,0.08677056658734898,0.07285967807795822,0.10582734344063757,0.08548177408171938,0.09821717973094135,0.023091889602829846,0.03517250787428626,0.0014102922301944046,-0.07166266416453457,-0.16961959431391907,-0.26322175623730415,-0.0976570775704573
304,11.015246999988449,0.08714314189075403,0.07328739128261436,0.10592722066961385,0.08563332919767107,0.09822082523318389,0.022778898963216353,0.034432337208654115,0.00026488821453008534,-0.07208219019639851,-0.17031891386861686,-0.26282179484076235,-0.09501022947235731
305,11.019275399987237,0.0875163701431422,0.0737151095016596,0.10602573096104573,0.08578165451104623,0.09821948671321257,0.022464106539138107,0.03368915492313756,-0.0008786930395447951,-0.07249013365148686,-0.17100278623637766,-0.2623846970138365,-0.0923378135698289
306,11.023357899990517,0.0878902372513523,0.07414281104878749,0.10612286657864926,0.08592673705380319,0.0982131724606071,0.022147563010921332,0.032943028230239355,-0.0020202902533878477,-0.07288638489885582,-0.1716712360171366,-0.26191066646641836,-0.08964061972583875
307,11.02786109999579,0.08826472906638932,0.07457047427531885,0.10621862000787434,0.08606856415035262,0.09820189146532453,0.021829319528802436,0.03219402423688976,-0.0031597430487057066,-0.07327083777173327,-0.1723242871179591,-0.2613999126440242,-0.0869194487270395
308,11.031864599994153,0.088639831384697,0.07499807757324314,0.1063129839579181,0.08620712341710504,0.098185653413722,0.02150942769774244,0.031442209947378515,-0.004296891970972973,-0.07364338961344043,-0.17296196270967457,-0.26085265024368126,-0.08417511156982402
309,11.035896699992009,0.08901552994942834,0.07542559937824228,0.10640595136367184,0.08634240276202941,0.09816446868448865,0.021187939562042214,0.03068765226683493,-0.005431578511750084,-0.07400394132038957,-0.17358428440868492,-0.2602690993619429,-0.08140842889314803
310,11.04160119999142,0.08939181045171432,0.0758530181726965,0.10649751538760042,0.0864743903842309,0.09813834834447399,0.020864907589782416,0.02993041801128572,-0.006563645133391363,-0.07435239738306595,-0.17419127103868384,-0.2596494858717867,-0.07862023020099135
311,11.046122499988996,0.08976865853193082,0.07628031248867187,0.10658766942155368,0.08660307477359709,0.09810730414440463,0.020540384657081807,0.029170573921919615,-0.007692935294645389,-0.07468866592225376,-0.17478293825046484,-0.2589940413179617,-0.07581135279121011
312,11.05040189999272,0.09014605978096417,0.07670746091088884,0.10667640708850873,0.08672844471050002,0.09807134851448969,0.020214424032221703,0.02840818667845639,-0.008819293474451602,-0.07501265872068912,-0.17535929812233977,-0.2583030027713516,-0.07298264095729133
313,11.054609399987385,0.0905239997414755,0.07713444207967149,0.1067637222442431,0.08685048926555879,0.09803049455993026,0.019887079359628596,0.027643322916891526,-0.009942565196272282,-0.07532429125233386,-0.17592035867931577,-0.257576613393773,-0.07013494491670469
314,11.059498999995412,0.09090246390916425,0.07756123469387698,0.10684960897893758,0.0869691977994961,0.09798475605631293,0.019558404643743664,0.026876049247052863,-0.011062597056808132,-0.07562348270469536,-0.1764661242914014,-0.25681512317512306,-0.06726912034892299
315,11.064895799994702,0.09128143773403123,0.07798781751380464,0.1069340616187088,0.08708455996305388,0.09793414744486914,0.019228454232811002,0.02610643226687631,-0.012179236756750275,-0.07591015600407673,-0.17699659621919264,-0.25601879010963174,-0.06438602889958034
316,11.069129099996644,0.09166090662164143,0.07841416936408419,0.10701707472707093,0.08719656569697405,0.09787868382760086,0.018897282802527216,0.025334538575210844,-0.01329233313974013,-0.07618423784228749,-0.17751177282391387,-0.2551878817909105,-0.06148653803326603
317,11.073216299992056,0.0920408559343869,0.07884026913654232,0.10709864310632587,0.0873052052320257,0.09781838096220066,0.01856494533959703,0.024560434784264906,-0.01440173623701312,-0.07644565870061176,-0.17801164914752307,-0.2543226752663151,-0.0585715212229906
318,11.077750099997502,0.09242127099274978,0.07926609579304672,0.1071787617988817,0.0874104690890943,0.09775325525678859,0.01823149712517413,0.023784187536068382,-0.015507297305090142,-0.07669435287816902,-0.1784962167240774,-0.2534234553778608,-0.05564185780276453
319,11.081766999996034,0.09280213707656598,0.07969162836832679,0.10725742608849864,0.0875123480793522,0.09768332376450393,0.017896993718169774,0.023005863516561878,-0.016608868855971876,-0.07693025851459834,-0.17896546376873482,-0.25249051331116545,-0.052698431455012046
320,11.08597749999899,0.09318343942628968,0.08011684597277054,0.1073346315014622,0.08761083330447053,0.09760860417797915,0.017561490938496065,0.02222552947041262,-0.017706304682192607,-0.07715331760524566,-0.1794193745254986,-0.25152414630124803,-0.049742128992430634
321,11.09038999999757,0.09356516324425886,0.08054172779519725,0.10741037380768316,0.08770591615691879,0.09752911482371343,0.0172250448502423,0.021443252220784397,-0.018799459884452252,-0.07736347601323891,-0.17985792893185043,-0.25052465818085995,-0.0467738395595018
322,11.09422669999185,0.09394729369596241,0.08096625310560532,0.10748464902172414,0.08779758832034894,0.09744487465630597,0.016887711744813072,0.020659098687074273,-0.01988819090144575,-0.077560683477721,-0.18028110259880856,-0.2494923592946788,-0.043794453918301654
323,11.097614899990733,0.09432981591130904,0.08139040125789469,0.1075574534037528,0.08788584177004936,0.09735590325256975,0.01654954812403292,0.0198731359048562,-0.02097235553674778,-0.07774489361970492,-0.18068886632535094,-0.24842756551186934,-0.04080486362921077
324,11.101402299987967,0.09471271498589827,0.08181415169256347,0.10762878346042129,0.08797066877350276,0.09726222080553064,0.016210610683233435,0.019085431047846747,-0.022051812980042274,-0.07791606394317126,-0.18108118624716216,-0.24733059719766484,-0.0378059601896493
325,11.106756599998334,0.09509597598229423,0.08223748393937805,0.10769863594567206,0.08805206189103139,0.09716384811835631,0.015870956294348346,0.018296051446553243,-0.023126423825050365,-0.07807415583342234,-0.18145802476131498,-0.2462017806834531,-0.034798634949888586
326,11.110894299999927,0.09547958393130232,0.08266037762001688,0.1077670078614701,0.08813001397651732,0.09706080659819917,0.01553064198901497,0.0175050646021862,-0.024196050103563283,-0.07821913455744656,-0.18181934212095208,-0.2450414521526701,-0.03178377942813852
327,11.115330499989795,0.09586352383324921,0.08308281245068698,0.10783389645846167,0.08820451817816889,0.09695311824982891,0.015189724941666118,0.016712538191418956,-0.025260555337213574,-0.07835096926501665,-0.1821650976973476,-0.24384995970038661,-0.028762285163849703
328,11.1194312999869,0.09624778065926622,0.08350476824471222,0.10789929923655918,0.08827556793928243,0.09684080566902453,0.014848262452621984,0.015918540069308457,-0.02631980458944549,-0.07846963298777643,-0.1824952496443572,-0.24262766282925213,-0.02573504352842741
329,11.123554199992212,0.09663233935257592,0.08392622491509229,0.10796321394545268,0.0883431569990341,0.09672389203575425,0.014506311931190003,0.015123138276977295,-0.02737366451289626,-0.07857510263869047,-0.18280975401398852,-0.2413749312511027,-0.022702945493899236
330,11.127628899994306,0.09701718482978246,0.0843471624770316,0.10802563858504759,0.08840727939330854,0.0966024011071549,0.01416393087876153,0.014326401052237233,-0.028422003390929346,-0.07866735900911614,-0.18310856393746966,-0.24009214377383306,-0.019666880645907832
331,11.1317718999926,0.09740230198216533,0.0847675610504371,0.10808657140582895,0.08846792945558328,0.0964763572103501,0.013821176871937206,0.013528396844403526,-0.029464691175321193,-0.07874638675965721,-0.18339162899714637,-0.23877968807049935,-0.016627736070331883
332,11.135972199990649,0.09778767567697741,0.08518740086238463,0.10814601090915218,0.08852510181788634,0.09634578523510141,0.013478107545703288,0.012729194330388766,-0.03050159952578355,-0.0788121744075391,-0.18365889516208098,-0.2374379605119083,-0.013586396100869163
333,11.139932399993995,0.0981732907587471,0.08560666224955273,0.10820395584746084,0.08857879141182082,0.09621071062628235,0.013134780576666968,0.011928862430078088,-0.03153260184619217,-0.07886471431526414,-0.18391030508133652,-0.23606736549332558,-0.01054374225623229
334,11.144026999987544,0.09855913205058525,0.08602532566062342,0.10826040522443134,0.08862899346965646,0.09607115937621397,0.012791253666331515,0.011127470319868724,-0.032557573318245284,-0.07890400267743987,-0.18414579840031617,-0.23466831503562283,-0.007500652694065204
335,11.14962719999312,0.09894518435549683,0.08644337165864932,0.10831535829504503,0.08867570352547209,0.09592715801684572,0.0124475845244463,0.010325087445290128,-0.033576390934218554,-0.0789300395046783,-0.18436531205404838,-0.2332412287854585,-0.0044580020006236174
336,11.15387209999608,0.09933143245769778,0.08686078092338631,0.10836881456558797,0.08871891741635714,0.09577873361180582,0.012103830852422169,0.009521783531989228,-0.034588933530625136,-0.07894282860859249,-0.18456878051985517,-0.23178653420500844,-0.0014166610437680394
337,11.157753599996797,0.09971786112393717,0.08727753425359137,0.10842077379357853,0.08875863128364973,0.09562591374828892,0.011760050326812136,0.008717628596149996,-0.03559508182262306,-0.07894237758441543,-0.18475613571324737,-0.23030466644444436,0.0016225040352140585
338,11.16126739999163,0.10010445510482482,0.08769361256928464,0.10847123598762329,0.08879484157422896,0.09546872652880682,0.011416300582878132,0.007912692956385376,-0.03659471843656465,-0.07892869778721617,-0.18492730734231896,-0.22879606825831564,0.004658633607399552
339,11.165249499987112,0.10049119913616474,0.08810899691397538,0.1085202014072015,0.08882754504185654,0.09530720056279264,0.01107263919827884,0.007107047241070342,-0.03758772794367567,-0.07890180429896583,-0.1850822233294714,-0.22726118988114374,0.0076908756907107705
340,11.169240999995964,0.10087807794029437,0.08852366845685092,0.10856767056237898,0.08885673874853296,0.09514136495805822,0.010729123676923273,0.0063007623965609105,-0.03857399689152124,-0.07886171589487312,-0.18522080937212504,-0.22570048894105962,0.0107183857816232
341,11.173468199995114,0.10126507622742989,0.08893760849492825,0.1086136442134519,0.08888242006591074,0.09497124931212428,0.010385811432951801,0.0054939096983530845,-0.03955341383693285,-0.07880845501191609,-0.18534298864577442,-0.22411443010376395,0.013740327338589743
342,11.177644199997305,0.10165217869701779,0.08935079845516743,0.10865812337052116,0.0889045866767477,0.094796883703391,0.010042759774863798,0.004686560761888036,-0.04052586937437344,-0.07874204771096743,-0.1854486816989694,-0.22250348406460094,0.01675587316839855
343,11.183862499994577,0.10203937003909275,0.08976321989654626,0.10870110929299799,0.08892323657641436,0.09461829868222116,0.009700025889828528,0.003878787554625687,-0.041491256160086074,-0.078662523633252,-0.18553780607696552,-0.2208681271068866,0.01976420698060647
344,11.1876140999957,0.1024266349356424,0.09017485451209607,0.10874260348904162,0.08893836807445242,0.09443552526190042,0.009357666828192012,0.00307066241012762,-0.0424494689366124,-0.07856991594893417,-0.18561027539759137,-0.21920884097567236,0.022764525152535825
345,11.191083999990951,0.10281395806197878,0.09058568413089768,0.10878260771493,0.08894997979620473,0.09424859490950692,0.009015739488235686,0.0022622580481791795,-0.04340040455584193,-0.07846426129820352,-0.18566599869826295,-0.21752611313004397,0.025756037443272567
346,11.194582999989509,0.10320132408811726,0.0909956907200376,0.10882112397436469,0.088958070684549,0.09405753953667077,0.008674300601196366,0.0014536475945594097,-0.0443439620057278,-0.0783455997336438,-0.18570488077189898,-0.2158204368060598,0.02873796623728551
347,11.198311299987836,0.10358871768016312,0.09140485638652357,0.10885815451771116,0.08896264000170007,0.09386239149021103,0.008333406716526829,0.0006449045982375768,-0.0452800424338842,-0.07821397466790612,-0.18572682271525287,-0.2140923111223208,0.031709546187571484
348,11.202305499988142,0.10397612350170615,0.0918131633791592,0.10889370184117529,0.08896368733109328,0.09366318354268967,0.007993114187371506,-0.00016389695363246148,-0.04620854917522159,-0.07806943281918588,-0.1857317226210521,-0.2123422413317222,0.03467002509792505
349,11.206526899986784,0.10436352621522367,0.09222059409037721,0.10892776868591712,0.08896121257931736,0.09345994888280784,0.007653479156301922,-0.0009726826245437601,-0.04712938777773669,-0.07791202415121203,-0.18571947601838348,-0.21057073722384312,0.037618664468916846
350,11.211008199999924,0.10475091048349193,0.0926271310580305,0.1089603580371032,0.0889552159780951,0.09325272110573528,0.007314557541315037,-0.0017813775174773516,-0.04804246601623369,-0.07774180181396889,-0.1856899761048701,-0.20877831264321384,0.040554739351028414
351,11.215183399996022,0.10513826097100637,0.09303275696714111,0.10899147312289836,0.08894569808631338,0.09304153420338701,0.006976405022084953,-0.0025899062657558387,-0.04894769391391868,-0.07755882208496459,-0.1856431146920272,-0.2069654870227076,0.043477537210293835
352,11.219098299989128,0.10552556234541074,0.0934374546516066,0.10902111741339832,0.08893265979208353,0.09282642255456472,0.006639077026472769,-0.0033981930301178196,-0.0498449837694756,-0.07736314431983224,-0.1855787839271025,-0.20513278565633067,0.046386356625607535
353,11.22325089998776,0.1059127992789353,0.0938412070958632,0.10904929461950395,0.08891610231479685,0.09260742091499764,0.006302628717208509,-0.004206161504567445,-0.050734250181036465,-0.07715483090494386,-0.18549687713304683,-0.20328073959402196,0.04928050827627973
354,11.227751699989312,0.10629995644984377,0.0942439974365054,0.10907600869173795,0.08889602720713398,0.09238456440727516,0.005967114978813681,-0.005013734920764375,-0.0516154100723411,-0.07693394719941074,-0.1853972879489667,-0.20140988622968886,0.05215931632849943
355,11.23167329998978,0.10668701854388914,0.09464580896386143,0.10910126381900516,0.0888724363570822,0.09215788851065987,0.005632590404788339,-0.0058208360463873066,-0.052488382721828715,-0.07670056147562222,-0.18527990982515316,-0.19952076934328705,0.05502211940155669
356,11.235885599991889,0.10707397025577813,0.09504662512352419,0.10912506442729765,0.08884533198995909,0.0919274290507668,0.0052991092850514995,-0.006627387185126001,-0.05335308978916413,-0.07645474485283099,-0.18514463583280366,-0.19761393788321946,0.05786827266877866
357,11.24006759999611,0.10746079629064458,0.09544642951783676,0.1091474151783457,0.08881471667042987,0.09169322218914547,0.004966725593706633,-0.007433310173387628,-0.05420945533372495,-0.07619657121939427,-0.18499135824485977,-0.19568994499975476,0.06069714953801769
358,11.24451949998911,0.10784748136553159,0.09584520590733263,0.10916832096821626,0.08878059330455974,0.09145530441279809,0.004635492977159302,-0.008238526376638201,-0.055057405832709544,-0.07592611715172326,-0.1848199691245902,-0.19374934783389577,0.0635081421137871
359,11.248916799988365,0.10823401021088269,0.09624293821212995,0.1091877869258605,0.08874296514186311,0.09121371252360391,0.00430546474258854,-0.009042956691235043,-0.055896870197785456,-0.07564346183249948,-0.18463036171206493,-0.19179270686695143,0.0663006611133771
360,11.25248169999395,0.10862036757204188,0.09663961051327961,0.10920581841161184,0.08870183577733995,0.09096848362769244,0.003976693846776769,-0.009846521552843395,-0.05672777978753261,-0.07534868697035478,-0.1844224320201175,-0.18982058634061325,0.06907413504744041
361,11.256972999995924,0.1090065382107625,0.09703520705406697,0.10922242101563623,0.08865720915345171,0.09071965512475941,0.003649232885280706,-0.01064914095216855,-0.05755006842775026,-0.07504187672522418,-0.1841960802833926,-0.18783355566465507,0.07182800879147164
362,11.260764199992993,0.1093925069067245,0.09742971224126686,0.10923760055633586,0.08860908956202071,0.09046726469726311,0.0033231340819113997,-0.011450734455992602,-0.05836367243616028,-0.07472311764046724,-0.18395121228279512,-0.1858321896053834,0.07456174207334694
363,11.26500609998766,0.10977825845905985,0.09782311064635123,0.1092513630787078,0.0885574816460228,0.09021135029952528,0.002998449278496314,-0.012251221234441556,-0.05916853064435534,-0.07439249858139334,-0.18368773993407292,-0.18381706803388004,0.07727480915815381
364,11.270033399996464,0.1101637776878854,0.09821538700664925,0.10926371485265857,0.08850239040124927,0.08995195014673621,0.0026752299248947627,-0.013050520087148207,-0.05996458442030956,-0.07405011067012793,-0.18340558130776086,-0.18178877519196407,0.0799666997515199
365,11.273661799990805,0.11054904943584283,0.0986065262264592,0.10927466237127582,0.08844382117787168,0.08968910270385962,0.00235352706932726,-0.013848549470692946,-0.060751777683933805,-0.07369604721627049,-0.1831046612389869,-0.1797478982823049,0.08263691862149512
366,11.277814099987154,0.11093405856964506,0.09899651337811188,0.10928421234905869,0.08838177968186477,0.0894228466745023,0.0020333913489948736,-0.014645227530077605,-0.06153005691730722,-0.07333040365505392,-0.18278491170510314,-0.17769502742743648,0.08528498488428575
367,11.281861299998129,0.1113187899816286,0.09938533370298563,0.10929237172010774,0.08831627197629714,0.08915322098972984,0.0017148729809471628,-0.015440472129455152,-0.06229937117987557,-0.0729532774842232,-0.18244627224612706,-0.17563075565018016,0.08791043250842388
368,11.286131399989245,0.11170322859131128,0.09977297261247232,0.1092991476362758,0.08824730448248659,0.08888026479680396,0.0013980217532512708,-0.016234200887265265,-0.06305967211851228,-0.07256476819780387,-0.18208869032279662,-0.17355567769464722,0.09051281002067534
369,11.290216899986262,0.11208735934695459,0.10015941568889425,0.10930454746528102,0.08817488398098476,0.08860401744791052,0.0010828870164366908,-0.017026331210082436,-0.06381091397244856,-0.072164977225542,-0.18171212066358375,-0.17147038986011384,0.09309167972877198
370,11.294244899996556,0.11247116722712998,0.10054464868637199,0.10930857878878321,0.08809901761243766,0.08832451848885402,0.0007695176751917934,-0.017816780322064504,-0.06455305358188765,-0.0717540078734421,-0.18131652528665002,-0.1693754893919412,0.09564661801549423
371,11.298354899990954,0.11285463724228874,0.10092865753164282,0.10931124940042451,0.08801971287831387,0.08804180764771054,0.0004579621803264622,-0.018605465298991975,-0.06528605038763026,-0.07133196526064585,-0.1809018738571684,-0.1672715727357719,0.09817721590587568
372,11.302466499997536,0.11323775443633462,0.10131142832482976,0.10931256730383578,0.08793697764146859,0.08775592482352547,0.00014826852101836223,-0.01939230310082857,-0.06600986642448417,-0.07089895625503005,-0.18046814297267874,-0.16515923547660744,0.10068307938233509
373,11.306685499992454,0.11362050388819861,0.10169294734016153,0.10931254071060974,0.08785082012658828,0.08746691007502391,-0.00015951578266353036,-0.020177210599536515,-0.0667244663203591,-0.07045508940734084,-0.1800153157854606,-0.16303907311582985,0.10316382944769105
374,11.310866099986017,0.11400287071341546,0.1020732010266433,0.10931117803824222,0.08776124892051244,0.08717480360931625,-0.00046534368693901685,-0.02096010460834823,-0.06742981729644354,-0.0700004748862428,-0.17954338279968773,-0.1609116805869122,0.1056191011377929
375,11.315256299989414,0.11438484006570124,0.10245217600867827,0.10930848790804283,0.08766827297242334,0.086879645770607,-0.0007691686312274716,-0.02174090191652425,-0.06812588916208187,-0.0695352244210524,-0.1790523430282892,-0.1587776501136933,0.10804854245015631
376,11.319580599985784,0.11476639713853151,0.10282985908664007,0.10930447914301593,0.08757190159386505,0.08658147702894504,-0.001070944544829181,-0.02251951932870033,-0.06881265429629832,-0.06905945124611795,-0.17854220445437433,-0.15663756929842507,0.1104518142389166
377,11.323582299999543,0.11514752716671908,0.10320623723739636,0.10929916076571315,0.08747214445859049,0.08628033796909337,-0.001370625853351729,-0.02329587370366404,-0.06949008762602235,-0.06857327004446795,-0.17801298379923874,-0.1544920213737193,0.11282859038287885
378,11.327595199996722,0.11552821542799081,0.10358129761478432,0.10929254199605844,0.08736901160224278,0.08597626927946893,-0.0016681674849005545,-0.024069881991681367,-0.07015816660980692,-0.06807679689072736,-0.17746470570508188,-0.15234158511856816,0.11517855810066413
379,11.331551299997956,0.1159084472445626,0.10395502755003794,0.1092846322491466,0.08726251342187719,0.08566931174115419,-0.00196352487600818,-0.024841461266155385,-0.07081687121532246,-0.06757014919202131,-0.17689740183044853,-0.1501868342488969,0.1175014177826101
380,11.335786999989068,0.11628820798471205,0.10432741455216772,0.10927544113301672,0.08715266067536673,0.08535950621703302,-0.0022566539773100826,-0.02561052875307481,-0.07146618389776728,-0.06705344563235542,-0.17631111070276523,-0.14802833796426265,0.11979688202442282
381,11.3399853999872,0.11666748306434825,0.10469844630829343,0.10926497844640132,0.08703946448066766,0.08504689364099026,-0.002547511258989517,-0.026377001861388374,-0.07210608958212292,-0.06652680612193564,-0.17570587746768299,-0.14586666071657928,0.12206467447181506
382,11.344160099994042,0.11704625794857805,0.10506811068392974,0.10925325417645228,0.08692293631496054,0.08473151500720214,-0.0028360537160119987,-0.027140798210270337,-0.0727365756395503,-0.06599035175161094,-0.17508175388798058,-0.1437023612645829,0.12430452923225212
383,11.3492402999982,0.11742451815326838,0.10543639572322563,0.10924027849644445,0.08680308801367825,0.08441341135954143,-0.0031222388731733564,-0.027901835659485303,-0.07335763186141016,-0.06544420474731645,-0.17443879928837122,-0.14153599177110548,0.12651619150516
384,11.352953599998727,0.11780224924660403,0.10580328964915785,0.10922606176345764,0.08667993176938264,0.08409262378109414,-0.0034060247899374485,-0.028660032344882323,-0.07396925042779713,-0.06488848841902746,-0.17377708064112746,-0.13936809698268354,0.12869941817017158
385,11.356784899995546,0.11817943685064021,0.10616878086367895,0.10921061451603804,0.08655348013048336,0.08376919338383869,-0.0036873700650396422,-0.029415306709505425,-0.07457142587441516,-0.06432332711007935,-0.17309667178813498,-0.13719921492297202,0.13085397698885248
386,11.36099899999681,0.11855606664284918,0.10653285794782089,0.10919394747184014,0.08642374599984358,0.08344316129845109,-0.003966233840883144,-0.030167577532312383,-0.07516415506715073,-0.06374884615307402,-0.17239765352395578,-0.13502987783975293,0.13297964523917916
387,11.365182999987155,0.11893212435766062,0.10689550966175428,0.10917607152524984,0.08629074263324872,0.0831145686642056,-0.004242575807758455,-0.030916763960008663,-0.07574743717719598,-0.0631651718310925,-0.17168011378610706,-0.13286061176235425,0.13507620916931198
388,11.36917249999533,0.11930759578799498,0.107256724944804,0.10915699774498969,0.08615448363773491,0.08278345661899653,-0.004516356207901893,-0.03166278553742338,-0.07632127365176744,-0.06257243133835862,-0.17094414778148856,-0.13069193608082924,0.13714346429177413
389,11.373233599995729,0.11968246678678925,0.1076164929154216,0.10913673737170658,0.08601498296979317,0.08244986628949395,-0.004787535839372456,-0.03240556224044435,-0.07688566818556408,-0.061970752738889474,-0.17018985867778594,-0.12852436340088394,0.13918121508933726
390,11.377625899986016,0.12005672326851467,0.1079748028711151,0.10911530181554323,0.085872254933411,0.08211383878141407,-0.005056076059750222,-0.03314501451241564,-0.07744062669022254,-0.06136026492972071,-0.16941735804568836,-0.12635839865999476,0.14118927427969094
391,11.382096699991962,0.12043035121068552,0.10833164428833675,0.10909270265369371,0.0857263141779596,0.08177541516994091,-0.005321938789692929,-0.03388106330092401,-0.07798615725807727,-0.06074109760596114,-0.16862676600708695,-0.12419453826583622,0.14316746296255176
392,11.385961399995722,0.1208033366553583,0.10868700682232932,0.1090689516279439,0.0855771756959151,0.08143463649031238,-0.005585086516330029,-0.0346136300954872,-0.07852227012411203,-0.0601133812227368,-0.16781821165277333,-0.12203327016123944,0.14511561101879392
393,11.390100899996469,0.12117566571062079,0.10904088030693189,0.1090440606421975,0.08542485482041745,0.0810915437285733,-0.0058454822964878255,-0.03534263696797819,-0.07904897763028583,-0.05947724695676945,-0.16699183310757174,-0.11987507491482155,0.14703355603904647
394,11.394506299999192,0.1215473245520699,0.10939325475434568,0.10901804175998836,0.08526936722263967,0.08074617781247215,-0.006103089759748907,-0.03606800661088072,-0.079566294196983,-0.058832826677651745,-0.16614777645837467,-0.11772042681398448,0.14892114174815632
395,11.400370099989232,0.12191829942427783,0.10974412035486046,0.10899090720197986,0.08511072890901356,0.08039857960246277,-0.006357873111427112,-0.03678966236837758,-0.0800742362968583,-0.05818025292314753,-0.1652861960468804,-0.11556979384406464,0.15077821817323106
396,11.404923599999163,0.12228857664224581,0.11009346747654207,0.10896266934345135,0.08494895621832811,0.08004878988282889,-0.006609797135411845,-0.03750752827715562,-0.08057282242610546,-0.057519658869003475,-0.16440725768622033,-0.113423637057293,0.1526046424419458
397,11.41129479999654,0.1226581425928449,0.11044128666488151,0.10893334071177273,0.08478406581859994,0.07969684935293606,-0.006858827196880122,-0.03822152912550852,-0.08106207307280638,-0.056851178297296696,-0.16351114273456674,-0.1112824103012918,0.15440028008497877
398,11.419645899994066,0.12302698373624255,0.11078756864240627,0.10890293398386727,0.08461607470365691,0.0793427986186318,-0.00710492924486522,-0.038931590529619926,-0.08154201068583507,-0.05617494555490313,-0.16259805151960666,-0.10914656015467052,0.15616500650654325
399,11.423607799995809,0.1233950866073136,0.11113230430825453,0.10887146198366386,0.08444500018934416,0.07898667818376845,-0.007348069814607014,-0.03963763902249089,-0.0820126596426459,-0.055491095509037906,-0.16166820424273184,-0.10701652510716994,0.15789870725752644
400,11.42754179998883,0.12376243781703385,0.11147548473771267,0.10883893767953931,0.08427085990933328,0.07862852844188375,-0.007588216029733409,-0.04033960213809787,-0.08247404621103724,-0.05479976350334488,-0.16072183875130708,-0.1048927347215374,0.15960127742621616
401,11.431696799991188,0.12412902405385448,0.11181710118171698,0.10880537418175161,0.08409367181059539,0.07826838966805676,-0.007825335604228255,-0.04103740848091818,-0.08292619850964028,-0.05410108531874334,-0.15975920675780134,-0.10277560898089404,0.161272618949383
402,11.435752499994123,0.12449483208505625,0.11215714506632025,0.10877078473986512,0.08391345414860478,0.07790630201093254,-0.008059396844271781,-0.04173098777715945,-0.08336914646399866,-0.053395197152936,-0.15878057106629062,-0.10066555690190047,0.1629126383224512
403,11.441668499988737,0.12485984875808218,0.11249560799212409,0.10873518274016779,0.0837302254823658,0.07754230548496059,-0.008290368650030038,-0.04242027092012997,-0.08380292175497901,-0.05268223560119851,-0.1577862053845557,-0.0985629757374212,0.16452124674650084
404,11.445158999995328,0.12522406100184832,0.11283248173367781,0.10869858170308073,0.0835440046692214,0.07717643996286885,-0.008518220517328026,-0.04310519001983159,-0.08422755776790636,-0.051962337634607114,-0.1567763936509696,-0.09646825143830022,0.16609835993920805
405,11.44959899999958,0.12558745582803135,0.11316775823884526,0.10866099528056092,0.08335481085944808,0.07680874516834509,-0.008742922539249515,-0.043785678442467786,-0.0846430895449964,-0.05123564058247474,-0.15575142902511036,-0.09438175909449506,0.1676438980088867
406,11.456507799986866,0.1259500203323322,0.11350142962813997,0.1086224372534968,0.08316266349072032,0.07643926066892522,-0.008964445407657203,-0.044461670851245555,-0.08504955373833288,-0.0505022821116757,-0.1547116153812624,-0.09230386348066164,0.16915778581156726
407,11.461187999986578,0.12631174169571546,0.11383348819403004,0.10858292152909772,0.08296758228235022,0.0760680258690842,-0.00918276041461247,-0.04513310325889074,-0.08544698856705149,-0.04976240020597183,-0.1536572684003232,-0.09023491933003484,0.17063995299293314
408,11.465156099991871,0.12667260718562282,0.11416392640021311,0.10854246213827727,0.08276958722929455,0.07569508000349731,-0.00939783945371548,-0.04579991307795967,-0.08583543377270254,-0.04901613314497199,-0.15258871527487453,-0.08817527108286899,0.17209033445061017
409,11.46908139999141,0.12703260415716025,0.11449273688086255,0.10850107323303095,0.08256869859595617,0.07532046213051971,-0.009609655021341694,-0.04646203917078585,-0.08621493057424398,-0.048263619479432,-0.1515062940999242,-0.08612525334749634,0.17350887062816642
410,11.473792199991294,0.12739172005425758,0.11481991243984566,0.10845876908380873,0.08236493690975613,0.07494421112583974,-0.009818180217766847,-0.0471194218944854,-0.08658552162741953,-0.047504998007653614,-0.1504103528025854,-0.08408519077426445,0.17489550699003725
411,11.477993499996956,0.1277499424107996,0.11514544604991456,0.10841556407688303,0.08215832295454313,0.0745663656763123,-0.010023388748197913,-0.047772003141582066,-0.0869472509786538,-0.046740407755357455,-0.1493012487635309,-0.08205539708987318,0.1762501929080493
412,11.481780999994951,0.1281072588517282,0.11546933085187072,0.10837147271171221,0.08194887776381175,0.07418696427401363,-0.010225254923722792,-0.048419726381715794,-0.08730016401602021,-0.04596998796177957,-0.14817934869057334,-0.08003617583268852,0.17757288021182727
413,11.486151899996912,0.12846365709411448,0.11579156015370405,0.10832650959830027,0.08173662261374871,0.07380604521050177,-0.010423753662220188,-0.0490625367011667,-0.08764430742954014,-0.04519387807216926,-0.14704502878680076,-0.07802782201147043,0.1788635227058254
414,11.489982799990685,0.12881912494820036,0.11611212742970743,0.10828068945455248,0.08152157901610686,0.0734236465712171,-0.010618860489243953,-0.04970038084602798,-0.08797972917659717,-0.04441221772809194,-0.14589867462414893,-0.07603062244219494,0.18012207650526424
415,11.494071299995994,0.12917365031840855,0.11643102631956705,0.10823402710362733,0.08130376871087543,0.07303980623004397,-0.010810551538848514,-0.050333207260628815,-0.08830647844516969,-0.043625146757001174,-0.14474067996898757,-0.07404485602157632,0.18134849997316801
416,11.498263799992856,0.12952722120432034,0.11674825062742956,0.10818653747128498,0.08108321365881938,0.0726545618440315,-0.010998803554382397,-0.050960966120478984,-0.0886246056216273,-0.042832805163089925,-0.1435714453934425,-0.07207079378855667,0.18254275443462153
417,11.503745299996808,0.1298798257016206,0.11706379432094648,0.10813823558323234,0.08085993603386274,0.0722679508482357,-0.01118359388923397,-0.05158360935859739,-0.088934162254499,-0.04203533311064195,-0.14239137638413774,-0.07010869829527229,0.18370480573138542
418,11.507409099998767,0.13023145200300926,0.11737765153029636,0.10808913656246495,0.08063395821539868,0.07188001045075576,-0.011364900507479975,-0.05220109068198522,-0.08923520101679115,-0.041232870901343435,-0.14120088317716667,-0.06815882383869187,0.18483462464201322
419,11.510923699999694,0.1305820883990793,0.117689816547186,0.10803925562660646,0.08040530278052932,0.07149077762790439,-0.011542701984433672,-0.05281336559651717,-0.08952777567177302,-0.04042555895397553,-0.14000038193214562,-0.06622141643810589,0.18593218616741836
420,11.515237199986586,0.1309317232791607,0.11800028382383054,0.10798860808524575,0.08017399249615906,0.0711002891195421,-0.011716977507116507,-0.05342039143363978,-0.08981194103509872,-0.039613537787948155,-0.13879029464823744,-0.06429671421367471,0.18699746877486143
421,11.519293199991807,0.13128034513212947,0.11830904797191405,0.10793720933727226,0.07994005031100186,0.07070858142457741,-0.011887706874662842,-0.05402212737453128,-0.09008775294388967,-0.03879694800957684,-0.13757104979573012,-0.062384947933848967,0.18803045370465965
422,11.52341309998883,0.13162794254718205,0.11861610376153044,0.1078850748682096,0.07970349934746415,0.07031569079657042,-0.012054870498672113,-0.05461853448230047,-0.09035526822362411,-0.03797593030165459,-0.13634308227304132,-0.06048634006817634,0.18903112450792303
423,11.527651699987471,0.1319745042145737,0.11892144612010569,0.10783222024754782,0.07946436289337169,0.06992165323952138,-0.012218449403522735,-0.055209575725772154,-0.0906145446489702,-0.03715062541375472,-0.13510683113800726,-0.05860110495617857,0.18999946740369025
424,11.531564499993692,0.13232001892632078,0.1192250701313022,0.10777866112607432,0.07922266439364531,0.06952650450381534,-0.012378425226639804,-0.055795215991927216,-0.0908656409121464,-0.03632117414869231,-0.13386273876700128,-0.05672944935532008,0.1909354721402113
425,11.53572039998835,0.13266447557686661,0.1195269710339056,0.1077244132332037,0.07897842744191944,0.06913028008228633,-0.012534780218691092,-0.05637542210236455,-0.09110861658852688,-0.035487717345325916,-0.13261125110833064,-0.054871571639817755,0.19183913291940197
426,11.539786399996956,0.1330078631637108,0.11982714422069486,0.10766949237430704,0.07873167577207446,0.06873301520646156,-0.012687497243704961,-0.05695016282794805,-0.09134353209802419,-0.03465039585696768,-0.13135281663186424,-0.05302766165391284,0.1927104490690906
427,11.543419899986477,0.1333501707880014,0.12012558523729643,0.1076139144280407,0.07848243324972771,0.06833474484296188,-0.012836559779078334,-0.05751940889612059,-0.09157044866941676,-0.03380935052833026,-0.13008788481484806,-0.051197901092065075,0.19354942546302134
428,11.548020599992014,0.13369138765509006,0.1204222897810229,0.10755769534367554,0.07823072386370211,0.0679355036900567,-0.012981951915493827,-0.058083132992363555,-0.09178942830504273,-0.032964722170279084,-0.12881690492430736,-0.049382463729284405,0.1943560732771664
429,11.552101099994616,0.1340315030750499,0.12071725369969723,0.10750085113842642,0.07797657171750443,0.06753532617437193,-0.01312365835670783,-0.05864130975690644,-0.09200053374713357,-0.032116651530192275,-0.1275403255135409,-0.04758151621830881,0.19513041068310324
430,11.55646799999522,0.13437050646315646,0.1210104729904627,0.10744339789478324,0.07772000102082259,0.0671342464477381,-0.013261664419209502,-0.05919391578180123,-0.09220382844945067,-0.03126527926067412,-0.12625859404357045,-0.04579521941385909,0.1958724633940342
431,11.56069579999894,0.1347083873403315,0.1213019437985797,0.10738535175784351,0.07746103608102946,0.06673229838414538,-0.013395956031736362,-0.05974092960433506,-0.09239937655515225,-0.030410745885159605,-0.12497215583240678,-0.04402372933885468,0.1965822643077421
432,11.564995399996404,0.13504513533354995,0.12159166241620914,0.10732672893264752,0.07719970129473747,0.06632951557678438,-0.013526519734633731,-0.06028233169495351,-0.09258724287684501,-0.029553191769737426,-0.12368145346682717,-0.04226719791992183,0.19725985209921024
433,11.569153699994786,0.1353807401762102,0.12187962528118347,0.1072675456815165,0.07693602113940758,0.06592593133517492,-0.013653342679124918,-0.060818104445550296,-0.09276749288085678,-0.0286927571010118,-0.12238692688708658,-0.04052577382771736,0.19790527025404434
434,11.57320769999933,0.13571519170846796,0.12216582897576514,0.10720781832139417,0.07667002016500593,0.0655215786823439,-0.013776412626477854,-0.06134823215812827,-0.09294019267460676,-0.02782958186634366,-0.12108901271417305,-0.03879960316944228,0.19851856660640713
435,11.577372499988996,0.13604847987753382,0.12245027022539295,0.10714756322119215,0.07640172298571155,0.06511649035206395,-0.013895717947103196,-0.06187270102723005,-0.09310540899690944,-0.02696380583573671,-0.11978814307319184,-0.03708883058257681,0.1990997936752064
436,11.586083399990455,0.13638059473793493,0.12273294589741654,0.10708679679913936,0.07613115427172598,0.06471069878611577,-0.014011247619563202,-0.06239149911835155,-0.09326320921487051,-0.02609556853915068,-0.11848474508967166,-0.035393600577448565,0.1996490097563232
437,11.590300999989267,0.13671152645174128,0.12301385299981885,0.10702553552013608,0.07585833874116904,0.06430423613155387,-0.014122991229472248,-0.06290461634598579,-0.09341366132588352,-0.025225009238874857,-0.1171792400490465,-0.03371405861028457,0.20016628045632257
438,11.59424819999549,0.13704126528875674,0.12329298867992679,0.10696379589311289,0.07558330115207966,0.06389713423795147,-0.014230938968265097,-0.06341204444471617,-0.09355683396387134,-0.02435226689348386,-0.11587204306055796,-0.03205035127257853,0.20065168066723754
439,11.602673399989726,0.13736980162667567,0.12357035022310976,0.10690159446839548,0.07530606629456336,0.06348942465461191,-0.014335081631783498,-0.06391377694433305,-0.09369279640293202,-0.023477480113012244,-0.11456356360320792,-0.0304026251962691,0.20110529542757877
440,11.60730189998867,0.1376971259512056,0.123845935051466,0.10683894783507591,0.07502665898300988,0.06308113862778177,-0.01443541061865406,-0.06440980914568191,-0.09382161855404517,-0.0226007871154115,-0.11325420476976915,-0.028771026614980096,0.20152721964935763
441,11.611074399988864,0.13802322885615603,0.12411974072249682,0.10677587261839154,0.07474510404845092,0.06267230709789096,-0.014531917928495619,-0.06490013808919584,-0.09394337096489658,-0.021722325684102105,-0.11194436259458485,-0.027155702014549872,0.2019175581813235
442,11.61516169999959,0.1383481010434946,0.12439176492776892,0.10671238547711188,0.07446142633105186,0.062262960696767414,-0.014624596159927426,-0.06538476252488928,-0.09405812482225018,-0.020842233123879766,-0.1106344256333112,-0.025556797670505206,0.20227642484240574
443,11.619203499998548,0.13867173332337046,0.12466200549156439,0.10664850310093489,0.0741756506727309,0.061853129744856496,-0.014713438508392488,-0.0658636828772304,-0.09416595194774442,-0.019960646226885474,-0.10932477345056701,-0.023974459060203866,0.20260394076210406
444,11.623299399987443,0.13899411661410613,0.12493046036951881,0.1065842422078928,0.07388780190995659,0.06144284424847229,-0.01479843876386938,-0.06633690120196338,-0.09426692479514444,-0.019077701242965744,-0.10801577498078763,-0.022408831093558325,0.20290023398138302
445,11.627459799987264,0.13931524194215822,0.12519712764724727,0.10651961954176828,0.07359790486674309,0.06103213389704094,-0.014879591308437445,-0.066804421136705,-0.09436111644814785,-0.01819353384911858,-0.10670778756202173,-0.02086005784032144,0.20316543953678737
446,11.631558799999766,0.13963510044204822,0.1254620055389585,0.10645465186952155,0.073305984347878,0.06062102806037107,-0.014956891113722502,-0.06726624784935202,-0.09444860061526177,-0.017308279119121125,-0.10540115727311676,-0.019328282341005996,0.20339969922931728
447,11.635922999994364,0.13995368335626426,0.1257250923860571,0.10638935597872874,0.07301206513236687,0.06020955578594174,-0.015030333738197529,-0.06772238799161444,-0.09452945162596188,-0.01642207149498857,-0.1040962193523327,-0.017813646879675526,0.20360316082601437
448,11.64155299999402,0.14027098203513483,0.12598638665573408,0.10632374867503251,0.07271617196706578,0.0597977457962063,-0.015099915324379794,-0.06817284965106864,-0.09460374442794525,-0.015535044763555394,-0.10279329798804543,-0.01631629336229957,0.20377597780806903
