,time,x,y,z,vx,vy,vz,ax,ay,az,jx,jy,jz
0,11.498436599998968,0.01662203687524348,-0.030633993910715078,0.055958676257811986,-0.0026626877685620954,-0.00041027958803450514,0.01065720916169502,0.030704975945681723,0.043246346561982216,-0.014706400336135845,0.08493043965561443,0.10570898198318264,-0.08301972354409372
1,11.502008600000408,0.016609383978750232,-0.030635483081966057,0.056010611917599505,-0.002511531653319984,-0.0001975504441717878,0.01058430550175674,0.031120664082577153,0.04376360609370271,-0.01511361317342429,0.08508853073143102,0.10585288865094766,-0.08353421630501197
2,11.5071750000061,0.01659747517291532,-0.030635925869326123,0.05606218622581928,-0.002358341022049663,1.7709708560450367e-05,0.010509404507360721,0.03153710528022675,0.04428154241077179,-0.015523329142264035,0.08523841876759024,0.10598575049662094,-0.08404350214096037
3,11.512029599995005,0.016586320415089666,-0.03063530988861235,0.056113389386007996,-0.002203112290513693,0.00023550404745185783,0.010432494000981772,0.03195425925782613,0.04480010127435612,-0.015935522576586158,0.08538003453230378,0.10610747323157951,-0.08454749755394307
4,11.51653749999241,0.01657592967966877,-0.030633622740753985,0.05616421154246369,-0.002045842072267329,0.00045583548345068387,0.010353561931595295,0.03237208539691306,0.04531922798756402,-0.016350167404392133,0.08551330928343172,0.10621796367259982,-0.08504612012164192
5,11.520332300002336,0.016566312957121524,-0.030630852013100278,0.0562146427808692,-0.00188652718030427,0.0006787066589344368,0.010272596376649063,0.03279054274441452,0.045838867400270183,-0.016767237153558122,0.08563817502810865,0.10631712974184489,-0.0855392886903122
6,11.524849900000843,0.01655748025301099,-0.030626985280739157,0.05626467312892511,-0.0017251646286832593,0.0009041199455067951,0.010189585544004493,0.03320959001692722,0.04635896391510118,-0.017186704958436782,0.08575456472307286,0.10640488063379465,-0.08602692371607196
7,11.530935400005546,0.016549441587007285,-0.030622010107826603,0.0563142925569922,-0.0015617516341319736,0.001132077441826802,0.01010451777384387,0.03362918560572379,0.04687946149389267,-0.017608543568999227,0.08586241239708435,0.10648112684863496,-0.08650894771011669
8,11.535044899996135,0.016542206991892676,-0.030615914048926562,0.05636349097874304,-0.0013962856176246625,0.0013625809714689241,0.010017381540522202,0.034049287582230504,0.04740030366400142,-0.018032725361790843,0.08596165308784125,0.10654578022933979,-0.08698528553533011
9,11.539140900000348,0.016535786512559048,-0.030608684650361238,0.05641225825182255,-0.00122876420593247,0.0015956320808139762,0.009928165454367312,0.03446985370241655,0.0479214335251252,-0.018459222351973975,0.08605222251556861,0.10659875399506158,-0.08745586448047014
10,11.543505499997991,0.016530190204997828,-0.030600309451571633,0.05646058417851719,-0.001059185233158148,0.0018312320369758747,0.00983685826341392,0.034890841409079575,0.04844279375594131,-0.018888006205009248,0.08613405668612463,0.10663996248889575,-0.08792061374840335
11,11.551383300000452,0.016525428135282447,-0.030590775986488124,0.05650845850643248,-0.0008875467422640258,0.0020693818257574844,0.009743448855089487,0.035312207832353504,0.048964326618459716,-0.019319048243693408,0.08620709153858304,0.10666932082919937,-0.0883794638625555
12,11.556113200000254,0.01652151037854332,-0.030580071784910984,0.056555870929178687,-0.0007138469866017576,0.0023100821496199442,0.009647926257879483,0.0357339097885476,0.04948597396125167,-0.019752319454035983,0.08627126265221588,0.10668674478717757,-0.08883234647397671
13,11.560374399996364,0.016518447017935353,-0.03056818437390082,0.05660281108706463,-0.0005380844314516462,0.002553333425670088,0.009550279642955751,0.03615590377778871,0.050007677222605657,-0.020187790490410307,0.08632650506473051,0.10669215065705943,-0.08927919381233838
14,11.5659799999994,0.01651624814359786,-0.030555101279178775,0.05664926856779928,-0.0003602577555754474,0.0027991357836606337,0.009450498325791402,0.036578145981082735,0.05052937743248638,-0.02062543167606116,0.08637275324257791,0.1066854550965844,-0.08971993824831846
15,11.569410600000992,0.016514923851606887,-0.030540810026536535,0.05669523290720137,-0.00018036585278443135,0.0030474890639967636,0.009348571767784218,0.03700059225766651,0.05105101521413077,-0.021065213003976117,0.08640994122935294,0.10666657505653401,-0.09015451238258497
16,11.573100599998725,0.016514484242919802,-0.030525298143256014,0.05674069358991685,1.592166481915266e-06,0.003298392815751921,0.00924448957786302,0.037423198143520596,0.05157253078531779,-0.0215071041382634,0.08643800283495627,0.10663542766575475,-0.09058284891959098
17,11.577015200004098,0.01651493942231217,-0.03050855315953876,0.05678564005014424,0.00018561697357328335,0.003551846294686808,0.009138241514097598,0.03784591885057104,0.05209386395884003,-0.021951074413788994,0.08645687171348863,0.10659193013840618,-0.09100488061577425
18,11.581070899992485,0.016516299497306874,-0.030490562609945034,0.056830061672367815,0.0003717090200420336,0.0038078484612697945,0.009029817485308633,0.03826870926596397,0.05261495414286646,-0.022397092837047928,0.08646648150421882,0.10653599974797943,-0.0914205405095282
19,11.585628899993026,0.016518574577095466,-0.030471314034842555,0.05687394779209867,0.0005598685360534956,0.004066397978699464,0.0089192075526691,0.03869152395264595,0.053135740341159886,-0.022845128088050396,0.08646676606156123,0.10646755382360058,-0.09182976204720732
20,11.589457299996866,0.016521774771451746,-0.030450794981864926,0.05691728769662363,0.0007500955288051362,0.004327493210927149,0.008806401931295746,0.03911431715088763,0.05365616115340358,-0.02329514852242532,0.08645765948474633,0.10638650981684274,-0.09223247912030988
21,11.593748300001607,0.016525910189637654,-0.030428993007379723,0.056960070625761826,0.0009423897809517593,0.004591132220682671,0.008691390991829922,0.03953704277915433,0.054176154776072155,-0.0237471221736701,0.08643909611410697,0.1062927854018364,-0.09262862621388439
22,11.597882699992624,0.016530990939301448,-0.03040589567796622,0.05700228577262908,0.0011367508490331877,0.004857312767505394,0.00857416526200706,0.03995965443559333,0.054695659003737185,-0.024201016756705537,0.08641101059786847,0.10618629860877382,-0.09301813832477994
23,11.602114099994653,0.01653702712536822,-0.030381490571902738,0.05704392228440984,0.0013331780619140082,0.00512603230578273,0.008454715428202739,0.040382105399557604,0.055214611231243715,-0.024656799669326095,0.08637333768811287,0.10606696785363691,-0.09340095059826997
24,11.60638110000582,0.016544028848922806,-0.030355765280663548,0.05708496926313668,0.001531670519226155,0.005397287982802479,0.008333032336987975,0.04080434863109778,0.05573294845530662,-0.02511443799220116,0.08632601192918966,0.10593471177868427,-0.09377699823161197
25,11.610459200004698,0.016552006206085088,-0.030328707410425274,0.057125415766477436,0.0017322270898036867,0.005671076636806948,0.008209106996675281,0.04122633676943866,0.05625060727512714,-0.02557389848938218,0.08626896743146115,0.10578944918199647,-0.09414621622165502
26,11.618038899992824,0.016560969286877586,-0.03030030458358282,0.057165250808529834,0.0019348464101104695,0.00594739479505132,0.008082930578868996,0.04164802213025847,0.05676752389330019,-0.0260351476058356,0.08620213755227517,0.10563109894695082,-0.09450853902371868
27,11.621881800005212,0.01657092817408538,-0.030270544440274768,0.05720446336062379,0.0021395268826483477,0.006226238671866643,0.00795449442003547,0.04206935670104545,0.057283634115741236,-0.026498151464614,0.08612545478470958,0.10545957983818133,-0.09486390036616839
28,11.627766000005067,0.016581892942108146,-0.03023941463991824,0.05724304235213139,0.0023462666743394164,0.006507604166717488,0.007823790023081053,0.042490292137289096,0.05779887335059817,-0.02696287586257568,0.08603885094303036,0.10527481045345491,-0.09521223295348484
29,11.631542899995113,0.016593873655804246,-0.03020690286275329,0.05728097667128461,0.0025550637148969426,0.006791486862254294,0.007690809058964153,0.04291077975965041,0.05831317660770752,-0.027429286264651895,0.08594225731474246,0.10507670932746976,-0.09555346842920921
30,11.635376799997175,0.01660688036932684,-0.03017299681139683,0.05731825516600108,0.0027659156951799655,0.007077882022365708,0.007555543368329281,0.04333077055164015,0.05882647849852147,-0.027897347799204095,0.08583560488691266,0.10486519490588457,-0.09588753751711959
31,11.639847900005408,0.016620923124951885,-0.03013768421240605,0.05735486664471779,0.0029788200655415115,0.007366784590230218,0.00741798496316451,0.04375021515900244,0.05933871323531007,-0.028367025253671806,0.08571882462806554,0.10464018550824765,-0.09621437019163874
32,11.64368100000138,0.016636011951898084,-0.030100952817851405,0.057390799877233035,0.0031937740341771662,0.00765818918636069,0.007278126028478091,0.044169063890149816,0.05984981463072573,-0.028838283071596364,0.08559184775152619,0.10440159946893929,-0.09653389597455535
33,11.647823199993582,0.016652156865138743,-0.030062790406899166,0.05742604359555654,0.0034107745654775442,0.007952090106651741,0.007135958923985011,0.04458726671812223,0.06035971609838376,-0.029311085351170618,0.08545460597882866,0.10414935525958342,-0.09684604422456886
34,11.651970799997798,0.01666936786420561,-0.03002318478740349,0.05746058649476788,0.0036298183783960193,0.008248481320429955,0.006991476185797797,0.0450047732835981,0.06086835065362402,-0.029785395845094282,0.08530703177337255,0.10388337156323234,-0.09715074430773372
35,11.656217700001434,0.016687654931984763,-0.02998212379750805,0.05749441723388317,0.003850901944830641,0.008547356468508705,0.006844670528114486,0.045421532899138396,0.06137565091481695,-0.030261177960790517,0.08514905857038371,0.10360356743393999,-0.0974479257459011
36,11.660329799997273,0.016707028033504625,-0.029939595307257115,0.05752752443672997,0.00407402148803337,0.008848708861251137,0.006695534844907309,0.0458374945544466,0.061881549105685774,-0.03073839476171297,0.08498062079182704,0.10330986244499044,-0.09773751837254317
37,11.666146799994747,0.016727497114716296,-0.029895587220216138,0.05755989669283048,0.004299172981043436,0.009152531476647708,0.006544062211597886,0.04625260692075862,0.062385977058062154,-0.031217008969086253,0.08480165367202477,0.10300217667414104,-0.09801945251070578
38,11.670792299992172,0.016749072101266253,-0.029850087475101636,0.05759152255829286,0.004526352145139502,0.009458816958406117,0.0063902458867288806,0.046666818354397385,0.06288886621406406,-0.03169698296495329,0.08461209302018334,0.10268043068887779,-0.0982936590399183
39,11.679749999995693,0.016771762897261535,-0.02980308404742044,0.057622390556710756,0.004755554448307786,0.00976755761405014,0.006234079313609397,0.04708007689884038,0.06339014762870723,-0.032178278794570137,0.0844118748718377,0.10234454556478778,-0.09856006887676672
40,11.685992999991868,0.016795579384027468,-0.029754564951118185,0.057652489180070696,0.004986775103714447,0.010078745413035103,0.0060755561219632175,0.04749233028486551,0.06388975197226274,-0.03266085816437356,0.08420093518092837,0.10199444264453854,-0.09881861265589133
41,11.689743199996885,0.01682053141885791,-0.029704518240236986,0.05768180688966775,0.005220009068175131,0.010392371984869768,0.0059146701295940685,0.04790352592960726,0.06438760953051134,-0.033144682441256144,0.08397920963800291,0.10163004323372464,-0.09906922081909471
42,11.697947299995576,0.016846628833758006,-0.029652932010582292,0.05771033211702923,0.005455251040618124,0.010708428617234299,0.005751415344040952,0.04831361093492467,0.06488365020412658,-0.033629712651405325,0.08374663364798919,0.10125126858606767,-0.09931182329628938
43,11.702067699996404,0.016873881434179408,-0.02959979440139897,0.0577380532648465,0.0056924954605379425,0.011026906254096113,0.005585785964254766,0.04872253208624013,0.06537780350878439,-0.03411590947645829,0.08350314254531413,0.1008580400887134,-0.09954634936450087
44,11.706186099996556,0.0169022989977479,-0.02954509359705658,0.05776495870791511,0.00593173650644713,0.011347795493828916,0.005417776382291235,0.049130235853011114,0.06586999857635831,-0.03460323325096211,0.08324867184993877,0.10045027947380494,-0.09977272787789002
45,11.710350599998492,0.016931891272983488,-0.029488817828743862,0.05779103679408312,0.006172968094334456,0.011671086587340245,0.005247381185012374,0.04953666839007288,0.06636016415709821,-0.035091643960778185,0.08298315738965213,0.1000279090151658,-0.09999088748292068
46,11.714982799996504,0.016962667978012932,-0.029430955376172324,0.05781627584520792,0.006416183876129848,0.011996769436211809,0.005074595155795021,0.04994177553930621,0.06684822862274896,-0.03558110124264661,0.08270653537058562,0.09959085175061376,-0.10020075672958975
47,11.719072099993356,0.016994638799274833,-0.029371494569288902,0.05784066415812124,0.0066613772381789,0.012324833590857533,0.00489941327623656,0.05034550283166969,0.0673341199709033,-0.036071564383678395,0.08241874251822702,0.09913903167135153,-0.10040226407889079
48,11.722969599999487,0.017027813390217254,-0.029310423789997573,0.057864190005602625,0.006908541299727676,0.012655268248706468,0.00472183072786842,0.05074779549024651,0.06781776582997266,-0.03656299232099284,0.08211971629249956,0.09867237380715407,-0.1005953381549942
49,11.727900600002611,0.01706220136998797,-0.029247731473889784,0.05788684163736127,0.007157668911427018,0.012988062252409442,0.004541842893865345,0.051148598434380126,0.06829909346437314,-0.03705534364367596,0.08180939499907988,0.09819080441563006,-0.10077990787884746
50,11.731962000005296,0.017097812322117475,-0.0291834061119836,0.05790860728102614,0.007408752653857795,0.013323204088072693,0.004359445360739744,0.05154785628380971,0.06877802978134721,-0.037548576593724396,0.08148771785240358,0.09769425119741501,-0.10095590220849925
51,11.73596859999816,0.01713465579319481,-0.029117436252471415,0.057929475143144414,0.007661784836075653,0.013660681883531233,0.00417463392004172,0.05194551336342197,0.0692545013382542,-0.03804264906546436,0.08115462514263809,0.09718264323288976,-0.10112325013907622
52,11.739984200001343,0.01717274129153633,-0.029049810502475973,0.057949433410188225,0.007916757494182731,0.014000483406653774,0.003987404570059113,0.05234151370901953,0.06972843434877311,-0.03853751860649529,0.08081005834701566,0.0966559108785026,-0.1012818808734318
53,11.745197199998074,0.017212078285847573,-0.02898051752981466,0.05796847024956972,0.008173662389928829,0.014342596063676757,0.0037977535175082954,0.05273580107316153,0.07019975468917922,-0.039033142418777665,0.08045396015193869,0.09611398580387631,-0.10143172356988368
54,11.749364699993748,0.01725267620387834,-0.028909546064771835,0.05798657381066435,0.00843249100934024,0.01468700689757066,0.003605677179223575,0.05312831893114819,0.07066838790490974,-0.039529477357109655,0.08008627452724273,0.09555680091011567,-0.10157270723100215
55,11.756054099998437,0.017294544431071153,-0.02883688490187907,0.05800373222584243,0.008693234561379446,0.015033702586438233,0.0034111721838628946,0.05351901048758767,0.07113425921604154,-0.04002647992912733,0.07970694686728845,0.09498429000341833,-0.10170476105964843
56,11.760505199999898,0.01733769230920324,-0.028762522901703166,0.05801993361150914,0.008955883976638167,0.01538266944193438,0.0032142353735972254,0.05390781868376046,0.07159729352066484,-0.040524106297263204,0.07931592409460264,0.09439638753910205,-0.10182781439220659
57,11.764365900002304,0.017382129135022205,-0.02868644899264184,0.05803516606915258,0.009220429906069081,0.01573389340769739,0.0030148638057971174,0.05429468620519981,0.07205741539785761,-0.0410223122780935,0.07891315458203435,0.09379302852520806,-0.10194179646862779
58,11.768561200005934,0.017427864158875598,-0.028608652172727077,0.05804941768640027,0.00948686271975301,0.016087360057797893,0.0028130547547284756,0.054679555488294805,0.07251454911011661,-0.0415210533420478,0.07849858798224997,0.09317414832582796,-0.10204663643981728
59,11.772735000005923,0.017474906583334542,-0.028529121511436002,0.05806267653808381,0.009755172505695202,0.016443054595193886,0.002608805713241949,0.05506236872620337,0.07296861860440834,-0.04202028461282857,0.07807217510896858,0.09253968262406352,-0.10214226328607817
60,11.777170100001968,0.017523265561811534,-0.02844784615150932,0.058074930687311864,0.01002534906865036,0.016800961850189953,0.0024021143944743845,0.05544306787429386,0.07341954751423789,-0.042519960866323224,0.07763386778852495,0.09188956758908391,-0.10222860583934532
61,11.781432599993424,0.01757295019717257,-0.028364815310777274,0.0580861681865515,0.010297381928972135,0.01716106627891252,0.0021929787335488544,0.05582159465460641,0.07386725916233361,-0.043020036530241064,0.07718361870405391,0.09122373991291768,-0.10230559271637028
62,11.785264599995571,0.0176239695403437,-0.028280018283992982,0.058096377078717766,0.010571260321481774,0.017523351961795348,0.001981396889279662,0.056197890559770744,0.07431167656307577,-0.04352046568237196,0.0767213814512907,0.0905421369182572,-0.10237315219266498
63,11.789395200001309,0.01767633258891209,-0.028193444444673216,0.05810554539827172,0.010846973194355942,0.01788780260207852,0.0017673672458893978,0.056571896858013185,0.07475272242623555,-0.04402120204899048,0.07624711077590494,0.08984469678837323,-0.10243121242504623
64,11.794395799995982,0.017730048285721695,-0.02810508324694642,0.058113661172326816,0.011124509208044333,0.01825440152433051,0.001550888414729552,0.056943554599395506,0.07519031916165213,-0.04452219900529098,0.07576076269210491,0.08913135868196358,-0.10247970179288615
65,11.798079600004712,0.017785125517463744,-0.028014924227407933,0.05812071242176371,0.011403856734218499,0.01862313167299291,0.0013319592359933164,0.057312804621981864,0.07562438888409483,-0.04502340957712901,0.07526229459767002,0.08840206275579136,-0.10251854893521625
66,11.802737499994691,0.017841573113262132,-0.027922957006982243,0.058126687162353446,0.011685003854749777,0.01899397561095004,0.0011105787804191658,0.057679587559202584,0.07605485341816164,-0.04552478644181926,0.07475166560411611,0.08765675015321901,-0.10254768253557259
67,11.806502599996747,0.017899399843253897,-0.0278291712927922,0.058131573405888905,0.011967938360730132,0.019366915518121596,0.0008867463509958567,0.05804384384924999,0.07648163430302922,-0.04602628192777285,0.07422883674454155,0.08689536300787797,-0.1025670313813599
68,11.810260500002189,0.01795861441716505,-0.027733556880035037,0.05813535916132465,0.01225264775154197,0.0197419331900787,0.0006604614846695559,0.058405513744474814,0.0769046527973873,-0.046527848015875825,0.07369377098082674,0.08611784445878731,-0.10257652460866706
69,11.814468099997612,0.018019225482881953,-0.02763610365386511,0.05813803243592511,0.01253911923397087,0.0201190100366848,0.0004317239540353581,0.05876453732085246,0.07732382988433653,-0.04702943634152066,0.07314643332234844,0.08532413856119286,-0.10257609137583586
70,11.819039900001371,0.018081241625018465,-0.027536801591283213,0.05813958123642091,0.012827339721367981,0.02049812708075964,0.00020053376902454736,0.05912085448854038,0.07773908627545094,-0.04753099819279237,0.07258679094490882,0.08451419018626533,-0.10256566054445734
71,11.8233523999952,0.018144671363479137,-0.027435640763032385,0.05813999357017361,0.013117295832865998,0.02087926495675987,-3.310882138614661e-05,0.0594744050025074,0.07815034241469487,-0.048032484509380295,0.07201481315341009,0.0836879449805378,-0.10254516093161094
72,11.826947299996393,0.018209523152018684,-0.027332611335500127,0.05813925744634873,0.013408973892645502,0.021262403909481326,-0.00026920332747664425,0.05982512847272607,0.07855751848208876,-0.04853384588323102,0.07143047124095749,0.08284534924721437,-0.10251452114664994
73,11.831018600001698,0.01827580537679801,-0.027227703572626903,0.05813736087709706,0.013702359929250623,0.021647523792775496,-0.0005077490170806455,0.06017296437342411,0.07896053439646533,-0.049035032555863986,0.07083373825154085,0.08198634980857529,-0.10247366930929135
74,11.836204899998847,0.01834352635493698,-0.027120907837820906,0.05813429187874441,0.013997439674945851,0.022034604068278747,-0.0007487449138614733,0.06051785205095585,0.07935930981778971,-0.04953599441626744,0.07022458884272717,0.08111089389123179,-0.10242253312380342
75,11.844046600002912,0.01841269433306417,-0.027012214595878985,0.05813003847298972,0.014294198565108676,0.022423623804151485,-0.000992189795588626,0.06085973073171087,0.07975376414879352,-0.05003668099893956,0.06960299924855361,0.0802189290224895,-0.10236103978997903
76,11.848015499999748,0.018483317485863685,-0.026901614414913746,0.058124588688111684,0.014592621737663744,0.022814561673823362,-0.0012380821923944647,0.061198539529622606,0.08014381653628146,-0.050537041480913814,0.06896894711626622,0.07931040303375551,-0.10228911597345522
77,11.852361099998234,0.01855540391461937,-0.02678909796828675,0.058117930560183925,0.01489269403254893,0.023207395954745216,-0.0014864203850216734,0.06153421745248028,0.08052938587279866,-0.05103702467950976,0.06832241148790835,0.0783852642644118,-0.10220668791700652
78,11.856308999995235,0.018628961645756434,-0.02667465603654782,0.058110052134298734,0.01519439999121122,0.023602104527150575,-0.0017372024030579518,0.061866703409257484,0.08091039079993115,-0.051536579050446826,0.06766337298946415,0.07744346184781652,-0.10211368167793573
79,11.860202800002298,0.0187039986293807,-0.026558279509380337,0.05810094146579952,0.015497723856144452,0.023998664872839887,-0.0019904260231650285,0.06219593621827389,0.08128674971277013,-0.05203565268791672,0.06699181388262587,0.07648494595598399,-0.10201002342482546
80,11.8646155000024,0.018780522737815723,-0.02643995938755246,0.05809058662152187,0.01580264957046502,0.024397054073985673,-0.002246088767314061,0.06252185461503006,0.08165838076560528,-0.05253419332559926,0.06630771810582453,0.07550966805166756,-0.10189563953399074
81,11.869035199997596,0.018858541764137895,-0.0263196867848741,0.05807897568104325,0.01610916077752624,0.024797248811972438,-0.002504187901024585,0.06284439726077039,0.08202520187885436,-0.05303214833767811,0.06561107139286325,0.07451758100357318,-0.10177045649302784
82,11.874842399993211,0.01893806342070978,-0.02619745293015947,0.05806609673794129,0.01641724082057778,0.025199225366269597,-0.002764720431609846,0.06316350275147815,0.0823871307458832,-0.053529464738913304,0.06490186130979711,0.07350863914556666,-0.10163440085628979
83,11.879174899993814,0.0190190953377119,-0.02607324916919509,0.058051937901060655,0.016726872742468007,0.025602959613338073,-0.003027683106416459,0.06347910962679912,0.08274408484051438,-0.054026089185221574,0.06418007723674662,0.07248279830641292,-0.10148739918555202
84,11.88329729999532,0.019101645061673146,-0.025947066966713044,0.05803648729578853,0.017038039285390695,0.026008427025576663,-0.003293072411075416,0.06379115637885868,0.08309598142413797,-0.05452196797316863,0.06344571030093928,0.07144001579860523,-0.1013293777013368
85,11.887253399996553,0.019185720054000096,-0.025818897908369273,0.0580197330653386,0.017350722890673576,0.026415602670298174,-0.003560884567736779,0.0640995814605307,0.08344273755311105,-0.05501704703713954,0.06269875335431124,0.07038025050742244,-0.10116026241643532
86,11.893026299992924,0.01927132768950536,-0.02568873370272684,0.0580016633720438,0.017664905698605925,0.02682446120874815,-0.0038311155332930147,0.06440432329403557,0.08378427008673936,-0.05551127195013686,0.061939200984903776,0.06930346279451102,-0.1009799794549107
87,11.89731600000232,0.019358475254935205,-0.025556566183243843,0.057982266398657674,0.017980569548311204,0.027234976895159073,-0.0041037609976214955,0.06470532027932052,0.08412049569373387,-0.05600458792407068,0.06116704939432038,0.06820961440127983,-0.10078845482214598
88,11.901835399999982,0.019447169947496658,-0.025422387310265908,0.05796153034966431,0.018297695977656594,0.027647123575832218,-0.004378816381810669,0.06500251080145926,0.08445133085924772,-0.05649693980830794,0.06038229634588434,0.06709866870507851,-0.1005856144864292
89,11.906169699999737,0.019537418873384244,-0.025286189173023086,0.057939443452597036,0.018616266223198005,0.028060874688260684,-0.00465627683638837,0.06529583323852527,0.08477669189383806,-0.056988272090760336,0.05958494126831799,0.0659705910233757,-0.10037138467567452
90,11.910223400001996,0.019629229046306557,-0.02514796399163093,0.057915993959365704,0.018936261220166607,0.028476203260298896,-0.0049361372395586335,0.0655852259700054,0.08509649494347776,-0.05747852889933545,0.05877498526684689,0.06482534890646963,-0.10014569214455148
91,11.915890899996157,0.01972260738601286,-0.025007704119095503,0.05789117014759261,0.01925766160249612,0.02889308190938353,-0.005218392195444195,0.06587062738478179,0.0854106560013798,-0.05796765400563707,0.05795243106435565,0.06366291249009737,-0.0999084643747745
92,11.920480999993742,0.019817560716819924,-0.024865402043322084,0.05786496032195697,0.019580447702887412,0.02931148284181867,-0.005503036032359492,0.06615197588896993,0.08571909092145737,-0.05845559082837504,0.057117283075028634,0.06248325480718083,-0.09965962937478363
93,11.926840500003893,0.019914095766139263,-0.024721050389127162,0.05783735281554773,0.01990459955291243,0.029731377852128354,-0.005790062801086511,0.06642920991462076,0.08602171543319698,-0.058942282435106574,0.05626954749707406,0.061286352017573736,-0.09939911585036292
94,11.931363199997577,0.020012219163004986,-0.024574641920253472,0.0578083359912249,0.020230096883163903,0.030152738322487185,-0.0060794662731648175,0.0667022679284656,0.08631844515736542,-0.05942767154731467,0.05540923224637451,0.060072183426666974,-0.0991268536052748
95,11.936853799998062,0.020111937436602497,-0.02442616954138756,0.057777898242989116,0.020556919123444806,0.030575535222226495,-0.00637123993921707,0.06697108843996935,0.08660919562106481,-0.05991170054606744,0.05453634692278142,0.058840731411127785,-0.09884277349678403
96,11.944092799996724,0.020213257014798203,-0.02427562630017965,0.0577460279973593,0.02088504540299681,0.030999739107412178,-0.006665377007294395,0.06723561000974575,0.0868938822727133,-0.060394311476661584,0.0536509029029159,0.05759198135241261,-0.09854680734655627
97,11.947939699995914,0.020316184222670442,-0.024123005389265335,0.05771271371475842,0.021214454550772047,0.03142532012049736,-0.00696187040124731,0.06749577125851815,0.08717242049644992,-0.06087544605341036,0.052752913458973726,0.05632592152147849,-0.0982388879852046
98,11.951861499997904,0.020420725281041854,-0.023968300148288837,0.057677943890907114,0.021545125095749185,0.03185224799004111,-0.007260712759117924,0.06775151087669669,0.08744472562598782,-0.06135504566472266,0.051842393836567816,0.05504254309717548,-0.09791894931166496
99,11.957877599998028,0.020526886305013398,-0.023811504065927462,0.05764170705822515,0.021877035267298863,0.032280492030496585,-0.007561896431560533,0.06800276763410028,0.08771071295919895,-0.0618330513784717,0.05091936130275773,0.05374184031551746,-0.09758692610025961
100,11.96252159999858,0.020634673302500295,-0.023652610781916918,0.057603991787240474,0.022210162995594845,0.03271002114207237,-0.007865413480286325,0.06824948039000349,0.08797029777342716,-0.06230940394518721,0.049983835097991806,0.05242381051684881,-0.09724275385237409
101,11.968141399993328,0.02074409217277007,-0.02349161408907713,0.057564786688005916,0.022544485912077698,0.033140803810670375,-0.008171255676515188,0.06849158810238856,0.08822339534053411,-0.06278404380197362,0.04903583615431043,0.051088454194129315,-0.09688636898931456
102,11.974737800002911,0.02085514870498303,-0.023328507935338166,0.05752408041152337,0.022879981349956433,0.03357280810789434,-0.00847941449945874,0.06872902983523645,0.08846992094268458,-0.06325691107758832,0.04807538687648316,0.04973577528694475,-0.09651770874842128
103,11.982706800001324,0.020967848576735205,-0.023163286425765976,0.05748186165117531,0.023216626344743488,0.034006001691142096,-0.008789881134821795,0.06896174476563842,0.08870978989026769,-0.06372794559534384,0.047102511089785935,0.04836578125873486,-0.09613671120539818
104,11.98824720000266,0.02108219735260406,-0.022995943824587407,0.05743811914416366,0.023554397634825915,0.0344403518037893,-0.00910264647331378,0.06918967219057641,0.08894291753843746,-0.0641970868784045,0.04611723421070962,0.04697848298892366,-0.09574331579354449
105,11.993373299992529,0.021198200482697032,-0.02282647455721414,0.05739284167295586,0.023893271662066673,0.034875825275443494,-0.009417701109201995,0.06941275153570407,0.08916921930397911,-0.06466427415776649,0.04511958380009498,0.04557389519255353,-0.09533746360054016
106,11.998007100002724,0.02131586330120311,-0.022654873212265232,0.05734601806673785,0.024233224572461687,0.03531238852229278,-0.009735035338901073,0.06963092236753654,0.08938861068595347,-0.06512944638045691,0.04410958998539353,0.04415203666144017,-0.09491909755397018
107,12.00461990000622,0.021435191024947797,-0.022481134543587643,0.05729763720287397,0.024574232216860354,0.03575000754756175,-0.01005463915960643,0.06984412440636102,0.08960100728492165,-0.0655925422193282,0.043087285627929184,0.04271293002265723,-0.09448816256216754
108,12.010783299992909,0.02155618875195175,-0.022305253472274314,0.05724768800837332,0.024916270151748864,0.03618864794204821,-0.010376502267979495,0.0700522975400623,0.08980632482122755,-0.0660535000826346,0.0420527065604019,0.04125660185396685,-0.09404460557363775
109,12.01621649999288,0.021678861459993398,-0.02212722508867944,0.05719615946136246,0.02525931364010591,0.03662827488475785,-0.010700614058874831,0.07025538183935602,0.09000447915535141,-0.06651225812440767,0.041005891697785714,0.039783082831967985,-0.0935883756438114
110,12.022827099994174,0.021803214005175934,-0.02194704465443035,0.057143040592564254,0.02560333765233499,0.037068853143640064,-0.011026963624126824,0.07045331757269872,0.0901953863076411,-0.06696875425468563,0.0399468828744463,0.0382924075761035,-0.09311942366054278
111,12.02748600000632,0.021929251120499066,-0.021764707604435583,0.05708832048678245,0.025948316867265914,0.037510347076415575,-0.011355539751376839,0.0706460452199282,0.09037896247714015,-0.06742292614720431,0.0388757246511135,0.0367846146306055,-0.09263770224769338
112,12.0346722999966,0.022056977414435807,-0.021580209548888674,0.05703198828439198,0.026294225673220525,0.03795272063149635,-0.011686330922935133,0.07083350548528583,0.09055512406114251,-0.06787471124868362,0.03779246413310693,0.03525974669041946,-0.09214316601734404
113,12.039192700001877,0.022186397369514638,-0.02139354627526723,0.05697403318283465,0.026641038169141554,0.03839593734900452,-0.012019325314698822,0.07101563930927922,0.09072378767622996,-0.06832404678898502,0.03669715064402913,0.033717850808840884,-0.0916357714882161
114,12.043536199998924,0.02231751534090734,-0.02120471375032675,0.05691444443812004,0.026988728165774332,0.03883996036189798,-0.01235451079511313,0.07119238787851341,0.09088487017985748,-0.06877086978960013,0.03558983568118148,0.032158978494310785,-0.09111547702624119
115,12.04766430000018,0.022450335555022717,-0.0210137081220887,0.05685321136633137,0.027337269186891815,0.039284752397200425,-0.012691874924172376,0.07136369263711755,0.09103828869233734,-0.06921511707322711,0.03447057330125737,0.030583185888308877,-0.09058224317850702
116,12.05241340000066,0.022584862108106406,-0.020820525721822303,0.05679032334513613,0.027686634470588035,0.039730275777341964,-0.01303140495247487,0.07152949530034794,0.09118396062016408,-0.06965672527552502,0.033339420309624807,0.028990533991568625,-0.0900360329254695
117,12.06038529999205,0.02272109896484725,-0.020625163066019497,0.056725769815301225,0.028036796970636154,0.040176492421617235,-0.013373087820338851,0.07168973786786587,0.09132180368021099,-0.07009563085715674,0.032196436427233265,0.02738108886048066,-0.08947681185891691
118,12.0645058999944,0.022859049956990386,-0.02042761685836247,0.056659540282212234,0.028387729357911767,0.040623363847762654,-0.013716910156975168,0.07184436263897291,0.0914517359249758,-0.07053177011728379,0.031041684579954144,0.025754921878293407,-0.08890454850853094
119,12.068709600003784,0.02299871878195754,-0.020227883991683192,0.05659162431739664,0.028739404021899954,0.04107085117366144,-0.014062858279735182,0.07199331222871838,0.09157367576942932,-0.07096507920880282,0.02987523082809609,0.0241121098365855,-0.08831921431210618
120,12.072745099998428,0.023140109001474864,-0.020025961549914276,0.056522011560050454,0.029091793072276106,0.04151891511918341,-0.014410918193432456,0.07213652958244535,0.09168754201705799,-0.07139549415154925,0.02869714420309121,0.02245273479777885,-0.08772078314821295
121,12.076908799994271,0.023283224040208668,-0.019821846810030515,0.056450691718568084,0.029444868340555232,0.04196751600814471,-0.014761075589719784,0.07227395799030091,0.09179325388536792,-0.07182295084296335,0.027507496666787923,0.02077688414382513,-0.08710923102465569
122,12.081274199998006,0.023428067184409398,-0.019615537243980585,0.056377654572075046,0.029798601381814685,0.04241661377039702,-0.015113315846515188,0.07240554110138415,0.09189073103240356,-0.07224738506824714,0.026306362933486784,0.019084650583167693,-0.08648453611542659
123,12.086216499999864,0.023574641580564226,-0.019407030520608142,0.05630288997196343,0.03015296347648183,0.04286616794404662,-0.015467624027478283,0.072531222936516,0.09197989358231981,-0.07266873251139191,0.025093820291784728,0.017376132106053956,-0.08584667896857083
124,12.093823100003648,0.023722950234058494,-0.019196324507561827,0.05622638784342975,0.030507925632181663,0.04331613767779369,-0.01582398488154411,0.07265094790064484,0.09206066215146372,-0.07308692876736791,0.023869948604504122,0.01565143220044384,-0.08519564258029978
125,12.097682599996917,0.023872996007846384,-0.018983417273193488,0.05614813818701498,0.03086345858564579,0.043766481733406415,-0.01618238284251872,0.07276466079561576,0.09213295787605806,-0.07350190935387667,0.022634830308729658,0.013910660040938983,-0.08453141246919213
126,12.10206570000446,0.024024781621131024,-0.018768307088443983,0.056068131080146334,0.03121953280468492,0.04421715848833107,-0.016542802028727932,0.07287230683257649,0.09219670244013065,-0.07391360972426633,0.02138855030475989,0.01215393058840212,-0.0838539769136422
127,12.106224300005124,0.02417830964805445,-0.018550992428715884,0.05598635667868074,0.03157611849021919,0.04466812593843923,-0.016905226242739223,0.0729738316436606,0.09225181810417218,-0.07432196528160616,0.020131196048590153,0.010381364731423067,-0.08316332707793056
128,12.110083699997633,0.02433358251639757,-0.01833147197573241,0.055902805218449356,0.0319331855783649,0.04511934170091811,-0.01726963897114814,0.07306918129529795,0.09229822773444904,-0.07472691139283476,0.018862857852228004,0.008593089386158015,-0.08245945724222653
129,12.115155199993753,0.024490602506290534,-0.018109744619381862,0.055817467016803124,0.032290703742594996,0.04557076301730445,-0.017636023384438544,0.07315830230283481,0.0923358548326375,-0.07512838340508389,0.017583629036202315,0.006789237548570793,-0.08174236493601804
130,12.118576699998812,0.024649371748933824,-0.01788580945954689,0.05573033247415866,0.032648642395968805,0.04602234675666467,-0.018004362336928658,0.07324114164533578,0.0923646235656474,-0.07552631666113162,0.016293606151905702,0.004969948364867832,-0.08101205089378442
131,12.123003799992148,0.024809892225330428,-0.017659665807917824,0.055641392075544305,0.03300697069343727,0.046474049418920416,-0.018374638366782443,0.07331764678237834,0.09238445879594524,-0.0759206465152926,0.014992889204175325,0.0031353672276436847,-0.08026851932939569
132,12.129149600004894,0.02497216576502948,-0.017431313189789424,0.05555063639214595,0.03336565753423692,0.04692582713832526,-0.01874683369611105,0.07338776567103152,0.09239528611231809,-0.07631130835155472,0.013681581599133965,0.001285645776381943,-0.07951177795090897
133,12.133456499999738,0.025136194044881835,-0.017200751345840207,0.055458056082852064,0.03372467156436115,0.0473776356870911,-0.01912093023116156,0.0734514467821403,0.09239703186020155,-0.07669823759961415,0.012359790096337937,-0.0005790580624265416,-0.07874183767133457
134,12.13936640000611,0.025301978587807895,-0.016967980233893728,0.05536364189579768,0.034083981179113466,0.04782943047916146,-0.019496909562575243,0.07350863911683639,0.09238962317283603,-0.07708136975018334,0.011027624682685188,-0.0024585799709430953,-0.07795871254178684
135,12.143619299997226,0.025469520761578143,-0.016733000030661013,0.0552673846699069,0.0344435545257402,0.04828116657414259,-0.019874752965726016,0.07355929222158947,0.0923729880026151,-0.07746064037037231,0.009685198375146234,-0.004352749273144626,-0.0771624197885558
136,12.14790670000366,0.025638821777606707,-0.016495811133463392,0.05516927533643356,0.03480335950613097,0.04873279868138331,-0.020254441401129124,0.07360335620278873,0.09234705515191749,-0.07783598511935926,0.008332627314348265,-0.006261388946580532,-0.07635297987259541
137,12.151821799998288,0.02580988268975832,-0.016256414161935035,0.055069304920499766,0.035163363779594,0.049184281164207685,-0.020635955514932844,0.07364078174270937,0.09231175430434041,-0.07820733976435354,0.006970031061108787,-0.008184315642392779,-0.07553041645978158
138,12.15602549999312,0.025982704393169014,-0.016014809959704387,0.054967464542631725,0.0355235347657127,0.04963556804430028,-0.02101927563948328,0.0736715201169941,0.09226701605533576,-0.07857464019597547,0.00559753285935462,-0.010121339720569585,-0.07469475649491884
139,12.160270899999889,0.026157287623081022,-0.01577099959605382,0.05486374542029276,0.035883839647291985,0.05008661300623843,-0.02140438179396647,0.07369552321319087,0.09221277194309874,-0.07893782244494306,0.00421525982548537,-0.012072265218541647,-0.0738460303355549
140,12.164412800004357,0.026333632953692288,-0.015524984367556753,0.05475813886941286,0.03624424537339613,0.05053736940217962,-0.021791253685136378,0.07371274355008624,0.09214895447951112,-0.0792968226987604,0.0028233430933359777,-0.014036889828904333,-0.07298427187060816
141,12.168497599996044,0.026511740797021066,-0.015276765799691446,0.054650636305914595,0.03660471866248414,0.05098779025669635,-0.022179870708120206,0.07372313429766082,0.09207549718124775,-0.07965157731956458,0.0014219179181426576,-0.01601500478783282,-0.07210951871313846
142,12.172822099993937,0.026691611401786105,-0.015026345648430847,0.05454122924723478,0.03696522600564278,0.05143782827176769,-0.022570211947320912,0.07372664929743938,0.09199233460181105,-0.0800020228626993,1.1123761283417563e-05,-0.01800639486238293,-0.07122181212619691
143,12.177605000004403,0.02687324485230286,-0.01477372590180758,0.05442990931384154,0.03732573366992098,0.05188743583192746,-0.02296225617740417,0.07372324308327499,0.09189940236276177,-0.0803480960938366,-0.0014088957243070272,-0.020010838491751375,-0.07032119694871844
144,12.181263299993589,0.02705664106739629,-0.014518908781453425,0.054316668230746365,0.03768620770176608,0.052336565009561214,-0.02335598186436834,0.0737128709015565,0.09179663718437195,-0.0806897340068257,-0.002837992798027979,-0.022028107801714644,-0.06940772174388438
145,12.185639300005278,0.027241799799330665,-0.01426189674411252,0.05420149782901068,0.03804661393055589,0.052785167570354175,-0.023751367166705957,0.07369548873097667,0.09168397691671448,-0.08102687384226574,-0.004276015690820154,-0.02405796853011851,-0.06848143868036
146,12.189466800002265,0.027428720632756913,-0.014002692483127554,0.05408439004724654,0.03840691797222825,0.05323319497889226,-0.02414838993665536,0.07367105330216067,0.09156136057104482,-0.08135945310419312,-0.005722808649562359,-0.026100180044001796,-0.06754240309458578
147,12.194587399993909,0.02761740298367793,-0.013741298929898197,0.053965336933110994,0.03876708523300503,0.05368059840441694,-0.024547027721525373,0.07363952211699999,0.091428728350723,-0.08168740957437362,-0.007178212107934706,-0.02815449543100364,-0.06659067331273096
148,12.198542099999033,0.02780784609843233,-0.013477719255311015,0.05384433064479378,0.039127080913210814,0.05412732872672864,-0.024947257765086685,0.07360085346660995,0.09128602168170144,-0.08201068132724856,-0.008642062909009355,-0.030220661567063968,-0.06562631073990258
149,12.203059599996775,0.028000049052697106,-0.013211956871140157,0.053721363452498096,0.039486870011172466,0.05457333654223975,-0.02534905700904272,0.07355500644848682,0.09113318324278494,-0.08232920674509933,-0.010114194335213949,-0.03229841922394558,-0.06464937963736754
150,12.210246999995434,0.028194010750509525,-0.012944015431418087,0.053596427739913945,0.03984641732720562,0.055018572170174015,-0.025752402094569304,0.07350194098417227,0.09097015699506689,-0.08264292453081488,-0.01159443615947875,-0.034387503185167,-0.06365994678859546
151,12.21800219999568,0.028389729923308765,-0.012673898833775638,0.05346951600568381,0.04020568746768701,0.05546298565890735,-0.02615726936391041,0.0734416178359103,0.0907968882110555,-0.08295177371979029,-0.013082614704950644,-0.036487642276981994,-0.06265808133631663
152,12.222103499996592,0.028587205128997636,-0.012401611220750732,0.05334062086486039,0.04056464484920385,0.055906526792452095,-0.026563634862034176,0.0733739986237277,0.0906133235038071,-0.08325569369110075,-0.014578552645040639,-0.03859855945704798,-0.061643854767744
153,12.22642380000616,0.028786434751024804,-0.012127156981065023,0.05320973505035611,0.0409232537027932,0.05634914509708276,-0.02697147433833793,0.07329904584404646,0.09041941085518519,-0.08355462417925562,-0.016082068806363405,-0.040719971892915666,-0.06061734120369786
154,12.230708599992797,0.028987416997487962,-0.011850540750867817,0.05307685141438416,0.041281478078273356,0.05679078984809662,-0.027380763248419163,0.07321672288869138,0.09021509964422614,-0.08384850528819993,-0.01759297807268685,-0.042851590859736145,-0.059578617546798225
155,12.235189700004412,0.02919014990025842,-0.011571767414946607,0.052941962929890694,0.041639281848669135,0.05723141007671688,-0.027791476755917473,0.07312699406444179,0.09000034067639862,-0.08413727750451766,-0.01911109129170137,-0.044993121649500735,-0.05852776332598276
156,12.241187399995397,0.029394631314127544,-0.011290842107903473,0.05280506269197786,0.041996628714734446,0.05767095457713939,-0.028203589734414673,0.07302982461295093,0.08977508621285692,-0.08442088170991276,-0.02063621530490524,-0.047144263522788714,-0.057464860756071774
157,12.246452699997462,0.02960085891597559,-0.01100777021529671,0.05266614391931739,0.04235348220957238,0.05810937191372192,-0.02861707676939878,0.07292518073000545,0.08953929000017226,-0.08469925919499488,-0.022168152977721265,-0.04930470963237087,-0.056389994759495486
158,12.251548500003992,0.02980883020396332,-0.010722557374746916,0.05252519995555447,0.042709805703346135,0.05854661042832163,-0.029031912160298948,0.07281302958515021,0.08929290730033322,-0.08497235167197291,-0.023706703132165316,-0.05147414702219487,-0.055303252773489256
159,12.25625969999237,0.03001854249674689,-0.010435209477006867,0.0523822242707014,0.043065562408091035,0.05898261824777772,-0.0294480699225736,0.07269333934160623,0.08903589492048698,-0.08524010128655517,-0.025251660643410435,-0.05365225665822282,-0.054204724743094845
160,12.260651999997208,0.030229992932716544,-0.010145732666994426,0.052237210462521014,0.04342071538262024,0.05941734329153979,-0.029865523789861737,0.0725660791749512,0.08876821124263817,-0.08550245063057446,-0.026802816477156318,-0.055838713500468394,-0.05309450306888081
161,12.26436790000298,0.03044317846925948,-0.00985413334478781,0.05209015225789937,0.04377522753751944,0.05985073327944089,-0.030284247216194524,0.07243121929267195,0.08848981625268562,-0.08575934275337704,-0.028359957492503605,-0.058033186568879465,-0.051972682584705915
162,12.269262699992396,0.03065809588204738,-0.009560418166582494,0.051941043514207495,0.04412906164024379,0.06028273573960986,-0.030704213378257995,0.07228873095477274,0.0882006715694769,-0.08601072117423018,-0.029922866375492244,-0.06023533883530658,-0.050839360624619176
163,12.273160600001574,0.03087474176434912,-0.009264594045609087,0.051789878220651946,0.04448218032031416,0.06071329801652856,-0.03112539517772598,0.07213858649397772,0.0879007404749016,-0.08625652989436539,-0.03149132167298577,-0.0624448270691888,-0.04969463665185689
164,12.277365899994038,0.031093112526369125,-0.008966668153011446,0.05163665049961376,0.04483454607461161,0.061142367279238455,-0.03154776524364057,0.07198075933600785,0.08758998794445494,-0.08649671340575771,-0.03306509772150268,-0.06466130174344598,-0.04853861197683443
165,12.281198299999232,0.031313204394611854,-0.008666647918684297,0.05148135460797572,0.045186121272771954,0.06156989052969676,-0.031971295934830925,0.07181522402047932,0.08726838067825143,-0.08673121670041106,-0.03464396450602005,-0.0668844069194825,-0.04737138985371181
166,12.287656000000425,0.03153501341127291,-0.008364541032069621,0.05132398493843766,0.045536868162684624,0.06199581461128635,-0.032395959342384525,0.07164195622256136,0.08693588713271312,-0.0869599852800819,-0.03622768764975066,-0.06911378012277122,-0.046193075510142845
167,12.291620699994382,0.03175853543365731,-0.00806035544291106,0.05116453602081955,0.04588674887609902,0.06242008621748178,-0.03282172729216108,0.07146093277397463,0.0865924775527999,-0.08718296516585547,-0.037816028450781636,-0.07134905225070412,-0.045003776221171195
168,12.29557059999206,0.0319837661336254,-0.007754099361965552,0.05100300252335224,0.04623572543432874,0.0628426519006744,-0.033248571347357446,0.07127213168429065,0.08623812400459901,-0.08740010290859213,-0.039408743796386037,-0.07358984751092139,-0.04380360142824686
169,12.299432600004366,0.03221070099706693,-0.007445781261671424,0.050839379253955444,0.04658375975406622,0.06326345808115706,-0.033676462811123666,0.0710755321627683,0.08587280040815845,-0.08761134559966754,-0.04100558624921931,-0.07583578337089507,-0.04259266286525281
170,12.30373650000547,0.032439335323403845,-0.00713540987677217,0.05067366116150288,0.04693081365330054,0.06368245105627038,-0.03410537272923294,0.0708711146388102,0.0854964825705695,-0.08781664088265155,-0.04260630414664065,-0.07808647049429138,-0.041371074714197015
171,12.307981999998448,0.0326696642251222,-0.006822994204895093,0.05050584333707419,0.047276848857332084,0.06409957700971095,-0.034535271892811886,0.07065886078282789,0.08510914821942249,-0.08801593696557088,-0.044210641541438896,-0.08034151268221036,-0.04013895349399798
172,12.312299700002768,0.03290168262733379,-0.006508543507084049,0.050335921015193345,0.04762182700489441,0.06451478202100475,-0.03496613084113042,0.07043875352727796,0.08471077703646403,-0.08820918263150039,-0.045818338198855384,-0.08260050689669252,-0.03889641797871714
173,12.316475100000387,0.033135385267367944,-0.00619206730828545,0.050163889575053286,0.047965709654374654,0.06492801207514458,-0.0353979198644356,0.07021077708755627,0.08430135069082283,-0.0883963272500262,-0.04742912956633665,-0.08486304334371539,-0.03764358947977845
174,12.32270360000257,0.03337076669439397,-0.005873575397786756,0.04998974454172663,0.048308458290139716,0.06533921307238837,-0.03583060900685361,0.0699749169833299,0.08388085287185525,-0.08857732079059688,-0.049042746788182,-0.08712870554327937,-0.0363805916680085
175,12.327049999992596,0.03360782126907482,-0.005553077829606651,0.049813481587361916,0.04865003432896529,0.06574833083821781,-0.03626416806935417,0.06973116005928814,0.08344926932168577,-0.08875211383224617,-0.05065891675038433,-0.08939707039006403,-0.03510755031345626
176,12.333883800005424,0.033846543163252425,-0.005230584922836147,0.04963509653236532,0.04899039912656497,0.06615531113345492,-0.03669856661274761,0.06947949450603594,0.0830065878674593,-0.08892065757439976,-0.05227736217726806,-0.09166770818215698,-0.03382459360448132
177,12.338886300000013,0.03408692635966519,-0.004906107261929826,0.0494545853465676,0.04932951398422364,0.0665600996645361,-0.03713377396075498,0.06921990987989975,0.08255279845360074,-0.08908290384971859,-0.05389780189072281,-0.09394018261147515,-0.0325318519554912
178,12.343170899999675,0.034328964651698206,-0.004579655696946463,0.04927194415037579,0.04966734015552025,0.06696264209394416,-0.03756975920313068,0.06895239712128583,0.08208789317416089,-0.08923880513302532,-0.05551995077319716,-0.09621405070180727,-0.031229457538976914
179,12.34772219999286,0.0345726516431665,-0.004251241343738253,0.04908716921590959,0.05000383885314073,0.0673628840507987,-0.03800649119881991,0.068676948574848,0.08161186630568198,-0.08938831454957114,-0.057143519493449944,-0.09848886262642091,-0.02991754440428677
180,12.355668200005312,0.034817980748131874,-0.003920875584087861,0.04890025696812218,0.05033897125579803,0.06776077114160955,-0.03844393857916214,0.06839355801052797,0.08112471434132736,-0.08953138588512384,-0.05876821446919207,-0.10076416144092162,-0.02859624878951849
181,12.359964499992202,0.035064945190753816,-0.003588570065792484,0.04871120398590532,0.050672698515250796,0.06815624896120098,-0.03888206975114719,0.06810222064408843,0.08062643602635941,-0.08966797359728479,-0.06039373799325081,-0.1030394828217688,-0.027265709224842317
182,12.36493419999897,0.035313538005174984,-0.003254336702694071,0.048520007003178274,0.05100498176342418,0.06854926310381203,-0.03932085290072942,0.06780293315691951,0.08011703239482655,-0.08979803282658742,-0.062019788308077486,-0.10531435484166687,-0.025926066503257048
183,12.369367599996622,0.03556375203544177,-0.002918187674654825,0.048326662909960516,0.051335782119622246,0.06893975917437949,-0.0397602559961923,0.06749569371584332,0.07959650680723772,-0.08992151940752824,-0.0636460595534452,-0.10758829783576947,-0.0245774638587841
184,12.37334789999295,0.03581557993546031,-0.002580135427477083,0.048131168753427774,0.051665060697842456,0.06932768280000674,-0.0402002467915705,0.06718050199343184,0.07906486498855778,-0.09003838988140797,-0.0652722419517439,-0.10986082436743885,-0.02322004709966749
185,12.380743999994593,0.036069014168988556,-0.0022401926727666555,0.04793352173895122,0.05199277861418676,0.0697129796416183,-0.04064079283014006,0.0668573591859993,0.07852211506621691,-0.0901486015086652,-0.06689802213496701,-0.11213143924391805,-0.02185396448213433
186,12.386965800003964,0.0363240470096648,-0.0018983723877387302,0.04773371923111942,0.05231889699435207,0.0700955954058003,-0.04108186144796108,0.0665262680307224,0.07796826760795275,-0.09025211228048298,-0.06852308324099889,-0.11439963960048245,-0.02047936656957453
187,12.391197100005227,0.036580670541073,-0.0015546878149654175,0.04753175875474288,0.052643376981208745,0.07047547585682522,-0.041523419777481384,0.06618723282269094,0.0774033356589968,-0.09034888092974526,-0.07014710494277497,-0.11666491502944928,-0.01909640595836016
188,12.395772499992743,0.036838876656845376,-0.0012091524620640585,0.04732763799584072,0.05296617974245783,0.07085256682885596,-0.041965434751186366,0.06584025943174292,0.07682733477865492,-0.09043886693996216,-0.07176976324114327,-0.11892674767507579,-0.017705237366583453
189,12.400123200000962,0.037098657060802655,-0.0008617801013254171,0.04712135480260955,0.053287266478374194,0.07122681423832831,-0.04240787310528996,0.06548535532154089,0.07624028307656563,-0.09052203055709421,-0.07339073010145467,-0.12118461227838587,-0.016306018168254468
190,12.404211899993244,0.03736000326713239,-0.0005125847692808948,0.046912907186374066,0.05360659842965029,0.07159816409650971,-0.04285070138350012,0.065122529569961,0.0756422012488423,-0.09059833280370184,-0.07500967336373932,-0.12343797619008917,-0.014898908519468172
191,12.408436400000936,0.0376229066006059,-0.00016158076620790377,0.04670229332251905,0.05392413688533872,0.07196656252223503,-0.043293885940848126,0.06475179288904784,0.07503311261420506,-0.09066773549200352,-0.07662625691386363,-0.1256862993972864,-0.013484071172744737
192,12.41453900000488,0.03788735819683429,0.00019121734442747028,0.04648951155140257,0.05423984319089115,0.0723319557548188,-0.043737392947581805,0.06437315764372963,0.07441304314986179,-0.0907302012362095,-0.07824014110679296,-0.127929034576281,-0.012061671172895378
193,12.422054599999685,0.038153349002563966,0.0005457947365913704,0.04627456037924987,0.05455367875628387,0.07269429016714184,-0.04418118839311546,0.06398663786763371,0.07378202152712363,-0.09078569346260572,-0.07985098338916403,-0.1301656271175361,-0.010631875478948172
194,12.429075699998066,0.03842086977601215,0.0009021363223674872,0.04605743847902795,0.0548656050642114,0.0730535122789118,-0.044625238090021675,0.06359224927571328,0.07314007914704183,-0.09083417641819011,-0.08145843895951338,-0.13239551507561725,-0.00919485258571483
195,12.436231400002724,0.038689911087242526,0.0012602267527076427,0.045838144691300445,0.05517558367833553,0.07340956877009833,-0.04506950767806573,0.06319000927360609,0.07248725017651288,-0.09087561517705559,-0.08306216133251088,-0.13461812905311207,-0.007750772338054335
196,12.43972520000534,0.03896046331858141,0.0016200504182485008,0.04561667802506271,0.05548357625157045,0.07376240649454666,-0.04551396262825982,0.06277993696474324,0.07182357158505048,-0.09090997564720997,-0.08466180254639205,-0.13683289207350932,-0.006299806198239253
197,12.44352839999192,0.03923251666507445,0.001981591450195285,0.04539303765855707,0.055789544534401325,0.07411197249377242,-0.045958568246964156,0.062362053157679315,0.07114908318213392,-0.09093722457957365,-0.08625701302960131,-0.13903921948949666,-0.0048421273568793124
198,12.448067599994827,0.039506061134984095,0.0023448337212733975,0.04516722294006779,0.05609345038324108,0.0744582140109405,-0.0464032896800292,0.06193638037450528,0.07046382765487687,-0.09095732957588433,-0.08784744125210862,-0.14123651895438072,-0.003377910933596208
199,12.452227500005392,0.039781086550328075,0.0027097608467488423,0.04493923338869583,0.05639525576883126,0.07480107850502817,-0.04684809191697406,0.06150294286158864,0.06976785060565519,-0.09097025909965718,-0.08943273314651785,-0.14342419045342417,-0.0019073345852436163
200,12.456339399999706,0.04005758254745901,0.003076356185518355,0.044709068695112944,0.05669492278470387,0.07514051366517198,-0.0472929397952359,0.06106176660364762,0.06906120058946932,-0.09097598249003774,-0.09101253160389786,-0.14560162637610996,-0.00043057883230778
201,12.460176599997794,0.040335538577685626,0.0034446028412701327,0.04447672872229488,0.05699241365571986,0.07547646742519631,-0.047737798004483814,0.06061287933942191,0.06834392915086539,-0.09097446997595411,-0.09258647625082984,-0.14776821159855447,0.0010521728741299376
202,12.46673909999663,0.04061494390793589,0.0038144836637160453,0.04424221350623327,0.0572876907466842,0.07580888797832126,-0.04818263109100666,0.0601563105779272,0.06761609086049157,-0.09096569269062471,-0.09415420333107848,-0.14992332356883703,0.002540734011989942
203,12.471403799994732,0.040895787621462454,0.004185981249896203,0.04400552325662596,0.05758071657104336,0.07613772379204874,-0.04862740346216879,0.059692091615283126,0.06687774335118474,-0.09094962268708358,-0.09571534578728068,-0.15206633248010945,0.004034914943221592
204,12.476948499999708,0.041178058618590876,0.004559077945556747,0.0437666583575453,0.05787145379966495,0.07646292362322325,-0.049072079390949715,0.059220255550168965,0.06612894735283392,-0.09092623295312793,-0.09726953365352901,-0.1541966015272769,0.005534523136398202
205,12.48223730000609,0.04146174561751091,0.004933755846601708,0.04352561936808405,0.058159865269686306,0.07678443653325899,-0.04951662302054604,0.058740837296812246,0.06536976672595668,-0.09089549742466659,-0.0988163945678797,-0.15631348711567045,0.00703936324078199
206,12.48635560000548,0.04174683715511125,0.005309996800619705,0.04328240702297873,0.058445913993421215,0.07710221190352894,-0.04996099836904164,0.05825387359543233,0.06460026849452186,-0.09085739099994318,-0.10035555409121737,-0.15841633894708312,0.00854923710889137
207,12.490170499993836,0.04203332158785795,0.005687782408486307,0.043037022233209814,0.05872956316731061,0.07741619945091294,-0.0504051693341487,0.0577594030221107,0.06382052287868455,-0.09081188955266391,-0.10188663566982083,-0.16050449995795735,0.010063943596261796
208,12.493869700003415,0.04232118709271667,0.006067094026042787,0.0427894660865787,0.059010776180925796,0.07772634924350698,-0.0508490996980063,0.057257465999600604,0.06303060332821336,-0.090758969948179,-0.10340926073222184,-0.16257730625220929,0.011583277937999254
209,12.498151899999357,0.04261042166811918,0.006447912765852108,0.04253973984826101,0.0592895166260249,0.07803261171649814,-0.05129275313207968,0.056748104806250095,0.062230586555882345,-0.09069861006270749,-0.10492304946819385,-0.16463408728550308,0.013107031808130979
210,12.50651979999384,0.04290101313497416,0.006830219499032933,0.042287844961335634,0.05956574830564334,0.07833493768820043,-0.05173609320214681,0.05623136357919353,0.0614205525690961,-0.09063078879893827,-0.10642762211923781,-0.1666741663673165,0.014634993801639904
211,12.514834000001429,0.04319294913772258,0.007213994857172431,0.042033783047289254,0.05983943524318148,0.07863327837623904,-0.05217908337335029,0.05570728831065421,0.06060058469837173,-0.09055548610054075,-0.10792260015814166,-0.16869686140808213,0.016166949524284012
212,12.518566300001112,0.043486217145437406,0.007599219234318561,0.041777555906496,0.060110541691458956,0.07892758541386469,-0.05262168701532578,0.055175926839600264,0.05977076962165725,-0.09047268296688755,-0.1094076067792112,-0.17070148566748958,0.017702681710643573
213,12.522910800005777,0.043780804452967524,0.00798587278905243,0.0415191655186718,0.060379032141720725,0.0792178108663757,-0.053063867407397894,0.05463732884325306,0.05893119738549544,-0.09038236146641072,-0.11088226655683953,-0.17268734812406816,0.01924197018667929
214,12.526988199999323,0.04407669818212551,0.008373935446641178,0.041258614043303235,0.06064487133260834,0.0795039072476394,-0.05350558774383925,0.05409154583208213,0.05808196142572791,-0.09028450475169054,-0.11234620477701185,-0.17465375352597348,0.020784591440296676
215,12.531143700005488,0.04437388528291927,0.008763386901271899,0.04099590382005047,0.06090802425911705,0.07978582753671654,-0.05394681113921391,0.05353863114785119,0.05722315858816228,-0.09017909707701147,-0.11379904667391202,-0.17660000249502802,0.022330318190749633
216,12.53623830000288,0.044672352534827466,0.009154206618367114,0.04073103736912383,0.06116845618154799,0.08006352519458489,-0.05438750063380816,0.052978639966078725,0.05635488914825875,-0.09006612381766199,-0.11524041681453422,-0.1785253917739771,0.023878919099156716
217,12.539833799994083,0.04497208654811865,0.009546373836982244,0.040464017391633626,0.0614261326344893,0.08033695418095622,-0.05482761919916265,0.0524116293001022,0.05547725682937925,-0.0899455714903216,-0.11666993921650376,-0.18042921453019242,0.025430158701609498
218,12.54386859999795,0.04527307376521452,0.009939867572285538,0.040194846769912626,0.06168101943580811,0.0806060689711783,-0.055267129743702584,0.05183765800238646,0.054590368819503916,-0.08981742777301484,-0.11808723786770393,-0.18231076069304056,0.026983797283510667
219,12.55057289999968,0.04557530046209705,0.010334666618120844,0.03992352856781083,0.061933082695644424,0.08087082457321534,-0.055705995118464975,0.0512567867635062,0.05369433578618091,-0.08968168152672712,-0.11949193761670354,-0.18416931745072168,0.028539590649218176
220,12.555497900000772,0.04587875274975963,0.010730749549653598,0.039650066030961946,0.06218228882539315,0.08113117654469627,-0.05614417812294023,0.05066907810474635,0.05278927188838403,-0.08953832281761162,-0.12088366558215558,-0.18600417005879052,0.03009729006270304
221,12.560408899997128,0.04618341657570209,0.011128094726100322,0.03937446258702099,0.06242860454662566,0.08138708101001113,-0.05658164151101661,0.05007459636330124,0.05187529478355555,-0.08938734293918545,-0.12226205215467482,-0.18781460270555736,0.03165664215155993
222,12.564752099991892,0.04648927772546906,0.011526680293541806,0.03909672184587267,0.06267199689992702,0.08163849467742813,-0.05701834799703886,0.04947340767507706,0.05095252563100057,-0.08922873443547522,-0.12362673107061904,-0.18959989895074122,0.033217388891552214
223,12.570780699999888,0.04679632182423143,0.011926484187820004,0.038816847599809724,0.06291243325364938,0.08188537485622337,-0.05745426026197901,0.048865579959169465,0.05002108909464001,-0.0890624911233644,-0.12497733881796298,-0.1913593419191826,0.0347792676142337
224,12.57505559999845,0.04710453433841031,0.012327484137518736,0.038534843823680935,0.06314988131259745,0.08212767947382472,-0.05788934095971357,0.04825118290647633,0.049081113344510555,-0.08888860811566435,-0.1263135140221418,-0.1930922148240912,0.03634201077724132
225,12.579739900000275,0.047413900577343425,0.012729657667028245,0.03825071467500812,0.06338430912667048,0.08236536709295628,-0.05832355272341998,0.047630287970181553,0.04813273005440049,-0.0887070818457081,-0.1276348973415742,-0.19479780208739692,0.03790534574904092
226,12.58468189999985,0.047724405694993616,0.013132982099693569,0.03796446449407155,0.06361568509945464,0.08259839692875909,-0.058756858172094265,0.04700296835538955,0.0471760743923931,-0.08851791009252646,-0.12894113199337842,-0.1964753910011928,0.03946899480109122
227,12.590528700005962,0.048036034691699224,0.013537434561046523,0.037676097803963235,0.06384397799676372,0.08282672886584311,-0.05918921991719374,0.046369299004467776,0.04621128500225431,-0.08832109200551849,-0.13023186468153322,-0.19812427329747886,0.041032675204617945
228,12.59429259999888,0.04834877241596615,0.013942991982120834,0.03738561931060736,0.06406915695508811,0.08305032347522597,-0.05962060056939592,0.04572935657760419,0.04523850397862466,-0.08811662812868115,-0.13150674572326213,-0.19974374603039446,0.04259609913449387
229,12.598091599997131,0.048662603566300845,0.014349631102849784,0.037093033902747465,0.06429119148994533,0.08326914203114225,-0.06005096274547818,0.045083219436913825,0.044257876839779074,-0.08790452042621977,-0.1327654285591587,-0.20133311231218848,0.04415897359465309
230,12.606752799998503,0.04897751269308405,0.014757328475545724,0.03679834665189962,0.06451005150417366,0.08348314652771589,-0.060480269075327116,0.044430967631786986,0.043269552495621394,-0.08768477230750717,-0.13400757007938566,-0.20289168287642767,0.04572100067760142
231,12.610347900001216,0.049293484200484884,0.015166060468460769,0.03650156281227104,0.06472570729613933,0.08369229969545648,-0.0609084822090623,0.04377268287980574,0.04227368320515663,-0.08745738865015619,-0.13523283179597206,-0.20441877847672,0.04728187767594023
232,12.61984709999524,0.049610502348414846,0.015575803269427639,0.03620268782064362,0.0649381295678435,0.08389656501751572,-0.061335564824271306,0.04310844854062758,0.041270424521026985,-0.08722237582388818,-0.1364408814302545,-0.2059137322915306,0.04884129712705546
233,12.624528999993345,0.0499285512545212,0.015986532889579335,0.03590172729622175,0.06514728943287412,0.0840959067456413,-0.06176147963336684,0.04243834958137737,0.040259935223466076,-0.08697974171316848,-0.13763139382616404,-0.20737589164526202,0.05039894730980387
234,12.630372700004957,0.05024761489621871,0.016398225167146004,0.03559868704044393,0.06535315842417438,0.0842902899157875,-0.06218618939104316,0.04176247254159949,0.03924237724800351,-0.08672949573621751,-0.13880405098606968,-0.20880461894998273,0.0519545127343239
235,12.634981800001697,0.05056767711275905,0.016810855771327276,0.035293573036757675,0.06555570850165185,0.08447968036336206,-0.06260965690181913,0.04108090549829925,0.03821791561020939,-0.08647164886285612,-0.13995854198980745,-0.2101992918483577,0.05350767432768553
236,12.639169400004905,0.05088872160733691,0.01722440020623824,0.03498639145035733,0.06575491205960506,0.08466404473810075,-0.06303184502766916,0.04039373803168687,0.03718671833200112,-0.08620621363170114,-0.14109456204584092,-0.21155930226611566,0.05505810942584132
237,12.64353289999417,0.05121073194923202,0.017638833814927243,0.03467714862788438,0.0659507419339976,0.08484335051859358,-0.0634527166957344,0.03970106119949815,0.03614895637565437,-0.08593320416808942,-0.1422118108505729,-0.21288405473347918,0.05660549154451371
238,12.647774299999584,0.051533691575986466,0.018054131783463937,0.034365851097089825,0.0661431714096336,0.08501756602651406,-0.063872234906129,0.03900296751878369,0.03510480358652556,-0.08565263620351397,-0.14330999137192735,-0.21417296523158463,0.05814949027499777
239,12.65207620000001,0.05185758379561682,0.018470269145096224,0.034052505566458155,0.06633217422725375,0.0851866604405852,-0.06429036273984137,0.038299550952125595,0.03405443663834434,-0.08536452709456707,-0.14438880913717983,-0.2154254611219634,0.05968977133546442
240,12.656368399999335,0.05218239178886087,0.018887220784474884,0.033737118924792475,0.06651772459057592,0.08535060381027383,-0.06470706336672567,0.0375909068963914,0.03299803497662575,-0.08506889584187464,-0.14544797192185502,-0.2166409816023168,0.06122599678701644
241,12.66020529999514,0.05250809861145861,0.019304961441944452,0.033419698240760305,0.06669979717328123,0.08550936706920313,-0.0651223000535883,0.03687713217199324,0.03193578075950537,-0.08476576310692642,-0.1464871895786457,-0.21781897837123185,0.062757825441289
242,12.665950299997348,0.05283468719646729,0.01972346571789901,0.03310025076239963,0.06687836712594966,0.08566292204826835,-0.06553603617234391,0.03615832501331486,0.030867858794650888,-0.0844551512270242,-0.14750617415596667,-0.21895891671139245,0.06428491300149133
243,12.670686600002227,0.05316214035661025,0.02014270807720133,0.032778783916584925,0.06705341008295247,0.0858112414884324,-0.06594823520824813,0.0354345850568114,0.029794456469503895,-0.08413708423073264,-0.1485046408332947,-0.22006027757719723,0.06580691235174302
244,12.677553200002876,0.053490440786659335,0.020562662853663805,0.03245530530845272,0.06722490216927145,0.08595429905315934,-0.0663588607682047,0.034706013322289155,0.028715763667775417,-0.08381158784999798,-0.14948230921898314,-0.22112256082985612,0.06732347452114842
245,12.683181000000332,0.05381957106585044,0.02098330425458918,0.032129822720786363,0.06739282000720821,0.08609206934039332,-0.06676787658911662,0.0339727121883133,0.0276319726680499,-0.08347868952617056,-0.15043890424758757,-0.2221452881452883,0.06883424974523732
246,12.687517500002286,0.05414951366033155,0.021404606365368638,0.031802344113359915,0.06755714072296301,0.08622452789400048,-0.06717524654625226,0.033234785364712194,0.026543278031842723,-0.0831384184117431,-0.15137415623283138,-0.223128003815243,0.07033888788894224
247,12.691332999995211,0.05448025092564261,0.021826543154134424,0.03147287762224111,0.0677178419530751,0.08635165121465316,-0.06758093466161351,0.03249233786746713,0.02544987649436956,-0.08279080537223674,-0.15228780008084686,-0.22407027348314656,0.07183703835677784
248,12.696070299993153,0.05481176510922656,0.022249088476464375,0.03114143155905339,0.067874901850756,0.08647341677020351,-0.06798490511232029,0.03174547599891079,0.02435196686496677,-0.08243588298881765,-0.15317957471062665,-0.22497168305321105,0.0733283501378278
249,12.700802899998962,0.05514403835297111,0.022672216080135997,0.0308080144101969,0.06802829909213616,0.08658980300559391,-0.06838712223900432,0.03099430732828473,0.02324974992852923,-0.08207368555974319,-0.15404922335163826,-0.22583184041079177,0.07481247234741394
250,12.706087400001708,0.055477052695780904,0.023095899609927906,0.030472634836028405,0.06817801288240814,0.08670078935226666,-0.06878755055420778,0.030238940669027315,0.022143428329106336,-0.08170424909768119,-0.15489649459742288,-0.22665038074583074,0.07628905571804738
251,12.714860599997335,0.05581079007617937,0.02352011261246594,0.030135301670000163,0.06832402296185118,0.08680635623693603,-0.06918615475075082,0.02947948604902743,0.021033206419278853,-0.08132761131657522,-0.155721144355944,-0.2274269737017167,0.0777577549181979
252,12.722748000000138,0.05614523233493975,0.02394482854111037,0.02979602391775802,0.06846630961168337,0.0869064850895249,-0.06958289971000181,0.02871605466883886,0.019919290073842147,-0.08094381160628737,-0.15652293776453352,-0.22816132854883972,0.07921823052875784
253,12.726833599997915,0.05648036121774426,0.024370020760879647,0.029454810756199386,0.06860485365967768,0.08700115835011475,-0.06997775050999687,0.027948758853206652,0.018801886488587865,-0.0805528910001345,-0.1573016494345345,-0.22885319376901148,0.08067014977059925
254,12.731552800003556,0.056816158377869984,0.024795662553405574,0.029111671532491935,0.06873963648554003,0.08709035947491443,-0.0703706724333926,0.02717771200688898,0.017681203998051374,-0.08015489214241585,-0.15805706215174672,-0.2295023512211045,0.08211318609610344
255,12.735166400001615,0.057152605378900635,0.025221727121915418,0.028766615763053803,0.06887064002609328,0.0871740729414278,-0.07076163097526807,0.0264030285788926,0.016557451931350983,-0.0797498592599439,-0.15878896590626013,-0.2301086093568428,0.08354701875544267
256,12.743022599999676,0.057489683697463184,0.025648187596237628,0.028419653132495993,0.06899784678030554,0.08725228425301272,-0.07115059185079914,0.02562482402778253,0.015430840496282041,-0.07933783813381365,-0.1594971585890999,-0.23067179925161627,0.08497133338657521
257,12.747635699997772,0.057827374725988756,0.026075017037828527,0.028070793492527515,0.06912123981413493,0.08732497994291512,-0.07153752100278436,0.024843214779104617,0.014301580673973089,-0.07891887606516351,-0.16018144754266697,-0.23119177297887358,0.08638582299049355
258,12.751810400004617,0.058165659775496655,0.026502188444817488,0.027720046860824195,0.06924080276514145,0.0873921475777978,-0.07192238460898444,0.02405831817553256,0.013169884118877697,-0.07849302183740708,-0.16084165038464102,-0.23166840192299423,0.08779018812813164
259,12.756048800001736,0.05850452007840036,0.026929674757068128,0.027367423419862036,0.06935651984684424,0.08745377576079646,-0.07230514908927878,0.023270252426233068,0.012035963069930012,-0.07806032568006843,-0.16147759455452979,-0.2321015740057633,0.08918413635546729
260,12.7607960000023,0.058843936791334164,0.027357448861253374,0.02701293351571604,0.06946837585283826,0.08750985413417967,-0.07268578111265128,0.022479136561447444,0.010900030277660473,-0.07762083923653824,-0.16208911648381702,-0.23249119110336744,0.09056738167939116
261,12.76456870000402,0.05918389099799943,0.027785483595942673,0.02665658765682525,0.06957635616070733,0.08756037338169204,-0.07306424760403157,0.02168509038997233,0.009762298940612032,-0.07717461553323053,-0.16267606175847826,-0.23283716838196103,0.09193964510749982
262,12.772895400004929,0.05952436371202949,0.028213751756699972,0.02629839651272467,0.06968044673572507,0.08760532523059243,-0.07344051575097914,0.020888234452151953,0.008622982638953754,-0.07672170894196202,-0.1632382865215603,-0.2331394354521178,0.09330065623350388
263,12.777429399997343,0.0598653358798721,0.028642226101190858,0.02593837091274494,0.06978063413430817,0.08764470245334793,-0.07381455301015664,0.020088689963642256,0.007482295259606989,-0.07626217513360425,-0.1637756590313133,-0.2333979375858213,0.0946501544323183
264,12.783074799997848,0.06020678838368811,0.029070879354297103,0.025576521844680945,0.06987690550716737,0.08767849886893975,-0.07418632711356082,0.019286578753165275,0.0063404509179573266,-0.0757960710287755,-0.16428805974883468,-0.2336126353638607,0.0959878888246484
265,12.786994199996116,0.060548702044264754,0.029499684213236583,0.025212860453430554,0.06996924860215199,0.08770670934379159,-0.07455580607451358,0.018482023205416146,0.005197663886429092,-0.0753234547518392,-0.16477537991517216,-0.2337835030174333,0.0973136172660507
266,12.79109569999855,0.0608910576239421,0.029928613352686897,0.024847398039604642,0.07005765176684262,0.08772932979237706,-0.07492295819344298,0.01767514621273281,0.004054148532415714,-0.07484438559148242,-0.16523752001583134,-0.23391052673985396,0.09862710507131689
267,12.79572310000367,0.0612338358295517,0.030357639429911223,0.0244801460581093,0.07014210395092292,0.08774635717754105,-0.07528775206348887,0.016866071133019474,0.002910119263364976,-0.07435892396718927,-0.16567438874023166,-0.23399370361147673,0.09992812421451755
268,12.799681000004057,0.06157701731536628,0.030786735089885088,0.024111116116701022,0.07022259470836087,0.08775778951057003,-0.07565015657595595,0.016054921751592392,0.0017657904752231908,-0.0738671313976426,-0.16608590287229658,-0.23403304156356378,0.10121645333132516
269,12.80487360000552,0.06192058268605968,0.031215872970422904,0.023740319974515596,0.07029911419940744,0.08776362585100929,-0.07601014092561038,0.015241822240173309,0.0006213764978737997,-0.07336907046717471,-0.16647198823232742,-0.2340285604189745,0.10249187837153723
270,12.811023300004308,0.06226451249967611,0.03164502570730295,0.02336776954057149,0.07037165319237679,0.08776386630619963,-0.07636767461580482,0.014426897109524113,-0.0005229084665959461,-0.07286480478778762,-0.16683258108524135,-0.23398029370263287,0.10375419378038594
271,12.815384300003643,0.06260878727060747,0.032074165939389394,0.022993476872248623,0.07044020306518173,0.08775851203049087,-0.07672272746340351,0.013610271154668322,-0.001666850416161983,-0.07235439895405107,-0.16716762922580714,-0.23388829055661597,0.10500320362541163
272,12.818971700005932,0.06295338747257764,0.03250326631374956,0.022617454173743584,0.07050475580657821,0.08774756522407183,-0.07707526960346629,0.012792069396912594,-0.0028102356293254957,-0.07183791849410252,-0.16747709173225767,-0.23375261609159664,0.10623872140623067
273,12.822913299998618,0.06329829354163202,0.032932299490764504,0.022239713794502597,0.07056530401713382,0.08773102913139691,-0.07742527149369449,0.011972417031477778,-0.003952850740816873,-0.07131542982640547,-0.1677609374155603,-0.2335733496585047,0.10746056848639456
274,12.826948999994784,0.06364348587913121,0.033361238149230935,0.02186026822763326,0.07062184090996006,0.08770890803927575,-0.07777270391869202,0.011151439384685893,-0.005094482805155359,-0.07078700022608521,-0.16801914306263568,-0.2333505829866925,0.10866857260287278
275,12.83111509999435,0.06398894485474774,0.03379005499145307,0.021479130108295844,0.07067436031126219,0.08768120727467822,-0.0781175379940821,0.010329261878771747,-0.006234919354145064,-0.0702526977962638,-0.1682516927160611,-0.23308441940777117,0.10986256724210969
276,12.83615980000468,0.06433465080946514,0.0342187227483231,0.02109631221207476,0.07072285666072738,0.08764793320226179,-0.07845974517048794,0.00950600999611411,-0.007373948452844068,-0.06971259144049767,-0.16845857779247572,-0.23277497392003696,0.11104239169864573
277,12.842713499994716,0.06468058405857847,0.034647214184388854,0.020711827453330934,0.07076732501172472,0.08760909322162914,-0.07879929723738,0.008681809242889377,-0.008511358757690494,-0.06916675083353936,-0.16863979754937944,-0.23242237427486803,0.11220789189233941
278,12.847790899992106,0.06502672489469535,0.03507550210290746,0.020325688883535663,0.07080776103133797,0.08756469576428715,-0.07913616632677069,0.00785678510873765,-0.009646939583096105,-0.06861524638578301,-0.16879536045912907,-0.2320267629488389,0.11335892177414661
279,12.852290900002115,0.06537305359073677,0.035503559350883285,0.019937909689586836,0.07084416100017107,0.08751475029025317,-0.07947032491671391,0.007031063016979309,-0.010780480978858812,-0.06805814920027814,-0.1689252856775391,-0.23158829865860983,0.11449534434954022
280,12.856816700004856,0.06571955040293623,0.03593135882408836,0.019548503192108577,0.07087652181189405,0.087459267284257,-0.07980174583457941,0.006204768269918806,-0.01191177381157124,-0.06749553102716661,-0.1690296031460349,-0.2311071558934012,0.1156170314593947
281,12.861134499995387,0.06606619557383615,0.0363588734720632,0.019157482843735446,0.07090484097251365,0.08739825825155104,-0.0801304022601067,0.005378025998062223,-0.013040609837461033,-0.06692746422283924,-0.16910835236218344,-0.2305835229560835,0.11672386251555773
282,12.866226700003608,0.06641296933527988,0.036786076303096285,0.01876486222738221,0.07092911659942257,0.08733173571339983,-0.08045626772828,0.004550961117444749,-0.014166781764642122,-0.06635402171673828,-0.16916158175588913,-0.23001760086531675,0.11781572360337347
283,12.872790800000075,0.06675985191139872,0.03721294038918073,0.018370655054499932,0.0709493474202528,0.08725971320228153,-0.08077931613205748,0.003723698284948773,-0.015290083315218427,-0.06577527697929102,-0.16918934929694648,-0.22940960413389166,0.11889250787781568
284,12.87703999999212,0.06710682352159279,0.03763943887094683,0.01797487516331905,0.07096553277148789,0.08718220525677002,-0.08109952172493262,0.0028963618496897587,-0.016410309295146964,-0.06519130398483824,-0.16919172295632642,-0.22875976217188937,0.11995411622415615
285,12.880909999992582,0.06745386438350452,0.03806554496256873,0.017577536517080418,0.07097767259684083,0.08709922741605318,-0.08141685912330092,0.002069075803823152,-0.017527255670063847,-0.06460217717310678,-0.16916878040798713,-0.22806831957601825,0.12100045688010203
286,12.8855973000027,0.06780095471598356,0.03849123195664332,0.01717865320225524,0.07098576744538528,0.08701079621407347,-0.08173130330864446,0.0012419637368464222,-0.018640719637976987,-0.06400797141583327,-0.16912060770929443,-0.22733553502275786,0.12203144422214837
287,12.889501600002404,0.06814807474204203,0.0389164732290396,0.01677823942675474,0.0709898184694865,0.08691692917333525,-0.08204282962957221,0.0004151487993108892,-0.01975049969426752,-0.06340876199010569,-0.16904729832243748,-0.2265616807729746,0.1230469979348583
288,12.89769179999712,0.06849520469179922,0.03934124224371704,0.016376309518130155,0.07098982742257771,0.08681764479840974,-0.08235141380374389,-0.00041124633330610026,-0.02085639569953785,-0.06280462455311121,-0.1689489539281745,-0.2257470441627216,0.12404704344138201
289,12.901916300004814,0.06884232480541508,0.03976551255751141,0.015972877921763586,0.07098579665673775,0.08671296256907876,-0.0826570319196633,-0.001237099504847429,-0.021958208959192472,-0.06219563511126742,-0.16882568534768094,-0.22489192932316243,0.12503151304717147
290,12.906069999997271,0.06918941533601122,0.04018925782488609,0.015567959199050442,0.07097772912003464,0.08660290293306144,-0.08295966043830032,-0.0020622891236193133,-0.02305574230810612,-0.06158186998378513,-0.16867761212755103,-0.22399665724166073,0.1260003463041933
291,12.91207000000577,0.06953645655257844,0.040612451802646776,0.015161568025574442,0.07096562835366182,0.08648748729832997,-0.0832592761945279,-0.002886694202579051,-0.02414880019080203,-0.06096340576823775,-0.1685048618401042,-0.22306156429216203,0.1269534890596263
292,12.916333300003316,0.0698834287428697,0.041035068354617635,0.014753719189276005,0.07094949848888872,0.08636673802505217,-0.08355585639840735,-0.003710194397635425,-0.025237188731747844,-0.060340319313427475,-0.16830756937266356,-0.22208700037974335,0.12789089222508196
293,12.920350700005656,0.07023031221627782,0.04145708145627721,0.014344427588614673,0.07092934424382237,0.08624067841721976,-0.08384937863635993,-0.004532670040885898,-0.02632071579738837,-0.0597126876969911,-0.1680858759341713,-0.22107332817736416,0.12881251121026366
294,12.924996600006123,0.07057708730669685,0.04187846519935271,0.01393370823072605,0.07090517092003294,0.08610933271398433,-0.08413982087223316,-0.005354002169202139,-0.02739919105897724,-0.05908058820380478,-0.1678399293806578,-0.22002092390478775,0.12971830610463667
295,12.931020499992885,0.07092373437536668,0.04229919379637119,0.013521576229573801,0.07087698439903585,0.08597272608067111,-0.08442716144826128,-0.006174072560650171,-0.028472426062227177,-0.058444098301813234,-0.16756988565395176,-0.21893017870852366,0.13060824247158614
296,12.93522679999296,0.07127023381370007,0.04271924158516594,0.01310804680409719,0.07084479113856107,0.08583088459943378,-0.08471137908589506,-0.0069927637771458615,-0.02954023430363691,-0.05780329561266794,-0.1672759093908286,-0.21780149984108993,0.13148229205870288
297,12.939540899998974,0.07161656604609073,0.04313858303333629,0.012693135276354963,0.0708085981686181,0.08568383525952182,-0.08499245288647518,-0.0078099592068322805,-0.030602431311674106,-0.057158257880610054,-0.1669581734781206,-0.21663531046759088,0.13234043251352096
298,12.945877699996345,0.0719627115327019,0.043557192742658825,0.01227685706966631,0.07076841308735088,0.08553160594714138,-0.08527036233175778,-0.00862554310238436,-0.03165883472121071,-0.05650906294588859,-0.16661685787998265,-0.2154320474856672,0.13318264610500677
299,12.949960099998862,0.07230865077223388,0.043975045453448,0.011859227706749602,0.07072424405672809,0.08537422543499466,-0.08554508728432776,-0.009439400611917418,-0.03270926433338593,-0.0558557887261466,-0.1662521483468984,-0.21419215967091712,0.1340089183946911
300,12.954444799994237,0.07265436430467044,0.04439211604886508,0.01144026280785931,0.07067609979809582,0.08521172337155539,-0.0858166079879424,-0.010251417804666443,-0.03375354217190457,-0.055198513202835135,-0.16586423608963047,-0.2129161076014427,0.1348192378483684
301,12.959789700005786,0.07299983271400294,0.04480837955917389,0.011019978088921387,0.07062398958761679,0.0850441302700576,-0.08608490506781175,-0.011061481698705997,-0.03479149254216212,-0.054537314406396836,-0.16545331887766168,-0.21160436463062735,0.13561359651838062
302,12.964248399992355,0.07334503663093203,0.045223811165942034,0.01059838935966744,0.07056792325155185,0.08487147749719287,-0.08634995953079733,-0.011869480297371785,-0.03582294209705645,-0.05387227039600744,-0.16501960229913537,-0.21025741845992363,0.13639199121431564
303,12.970038100000238,0.07368995673554568,0.04563838620618612,0.010175512521768166,0.07050791116134307,0.08469379726145557,-0.08661175276549446,-0.01267530262930223,-0.03684771991149407,-0.05320345923331045,-0.16456330031094704,-0.20887577197668944,0.13715442436260963
304,12.977574599994114,0.0740345737599728,0.046052080176459016,0.00975136356696673,0.07044396422850362,0.08451112260111136,-0.08687026654217406,-0.013478838790239703,-0.03786565755639551,-0.052530958953752094,-0.16408463562414197,-0.20745994260933998,0.13790090418923368
305,12.983435699992697,0.07437886849101127,0.0464648687368774,0.00932595857521276,0.07037609389929204,0.08432348737181877,-0.08712548301258463,-0.014279979986841128,-0.03887658916689525,-0.051854847538529404,-0.1635838397922829,-0.2060104613252564,0.13863144439958885
306,12.987749299994904,0.07472282177272951,0.046876727715087954,0.008899313712797664,0.07030431214917376,0.08413092623393072,-0.08737738470961975,-0.015078618579343402,-0.03988035150654707,-0.05117520288905567,-0.16306115279775826,-0.20452787146618007,0.13934606339958844
307,12.992388900005608,0.07506641450904032,0.04728763311017074,0.00847144523049188,0.07022863147707804,0.08393347463948814,-0.08762595454687035,-0.015874648121328272,-0.040876784024134624,-0.05049210280652599,-0.16251682253085692,-0.20301272718326188,0.1400447832623729
308,12.998228099997505,0.07540962766624627,0.04769756109647821,0.008042369461684568,0.0701490648994706,0.08373116881896599,-0.0878711758180923,-0.016667963397293338,-0.041865728902572265,-0.0498056249764878,-0.16195110458168807,-0.20146559255395605,0.1407276290045238
309,13.002673399998455,0.07575244227555562,0.04810648802740891,0.007612102820526068,0.0700656259442432,0.08352404576778862,-0.08811303219660786,-0.017458460460381988,-0.04284703110707921,-0.04911584695548476,-0.16136426198973147,-0.19988704112203465,0.14139462823955598
310,13.006346499998472,0.07609483943556793,0.04851439043911468,0.007180661800073445,0.06997832864441723,0.08331214323260464,-0.08835150773464266,-0.01824603666750511,-0.04382053842958189,-0.04842284615901598,-0.1607565644120985,-0.19827765466594965,0.14204581055948234
311,13.010420599995996,0.07643680031472837,0.04892124505414011,0.006748062970439432,0.06988718753168983,0.08309549969736807,-0.08858658686260933,-0.019030590708936982,-0.044786101524843254,-0.04772669985422792,-0.16012828717324487,-0.19663802144785186,0.14268120636875753
312,13.014586799996325,0.07677830615375027,0.04932702878499359,0.0063143229769449805,0.06979221762984807,0.08287415436925989,-0.08881825438837303,-0.019812022634143577,-0.045743573937741255,-0.047027485159277176,-0.15947971012328727,-0.19496873433028167,0.14330084573708024
313,13.018648099998243,0.077119338268005,0.04973171873764914,0.005879458538275387,0.06969343444806242,0.0826481471645024,-0.08904649549652889,-0.02059023387021328,-0.04669281212098019,-0.046325279047241444,-0.15881111619871227,-0.19327038931351967,0.14390475766501806
314,13.022945899996555,0.07745987804987893,0.050135292214978665,0.0054434864446399065,0.06959085397412075,0.08241751869410756,-0.08927129574770577,-0.021365127233609546,-0.04763367544806513,-0.045620158352664204,-0.15812279072457175,-0.19154358495661547,0.1444929695656969
315,13.026897699994151,0.07779990697109714,0.050537726720114466,0.005006423555934693,0.06948449266760685,0.08218231024956446,-0.08949264107790768,-0.02213660694177739,-0.04856602622535113,-0.04491219978053455,-0.15741502154841228,-0.18978892207499268,0.14506550679538777
316,13.031326500000432,0.07813940658501364,0.050938999959741514,0.00456828679990885,0.06937436745302089,0.08194256378846985,-0.08971051779790536,-0.022904578626205804,-0.04948972970206041,-0.044201479917422494,-0.15668809923340907,-0.18800700322736108,0.14562239235125485
317,13.035244700004114,0.07847835852886789,0.0513390898473194,0.004129093170333321,0.06926049571283022,0.08169832192011765,-0.08992491259268662,-0.02366894934592303,-0.050404654077313774,-0.043488075243414734,-0.15594231720579266,-0.18619843232959007,0.14616364691270775
318,13.039630999992369,0.07881674452600698,0.051737974506233714,0.0036888597251723185,0.06914289528045783,0.08144962789106067,-0.09013581252096466,-0.024429627602000747,-0.05131067050637159,-0.042772062142845534,-0.1551779724081092,-0.18436381486279102,0.14668928929790345
319,13.04792379999708,0.07915454638807358,0.052135632272876785,0.0032476035847570205,0.06902158443319137,0.0811965255706391,-0.09034320501473331,-0.025186523357437925,-0.05220765310970024,-0.04205351691176808,-0.15439536630914708,-0.1825037586898201,0.14719933720319592
320,13.052708999995955,0.07949174601715882,0.052532041699657535,0.002805341929961349,0.06889658188497708,0.0809390594364536,-0.09054707787884844,-0.025939548061541688,-0.05309547898719811,-0.04133251576145388,-0.15359480565949535,-0.18061887490848927,0.1476938078807751
321,13.060564100000192,0.07982832540791973,0.05292718155794015,0.0023620920003797606,0.06876790677909038,0.08067727455975467,-0.09074741929061744,-0.0266886146772002,-0.053974028235606056,-0.04060913481923711,-0.15277660298127058,-0.17870977798405072,0.14817271844730232
322,13.0649459999986,0.08016426664966048,0.05332103084091105,0.0019178710925070398,0.06863557868066315,0.08041121659074539,-0.09094421779938885,-0.02743363771005284,-0.05484318396402908,-0.03988345012899567,-0.15194107634639756,-0.17677708519358856,0.14863608568540868
323,13.070152899992536,0.08049955192837668,0.05371356876637382,0.0014726965579201035,0.068499617569069,0.08014093174381907,-0.09113746232614657,-0.028174533233594767,-0.05570283230591317,-0.0391555376539368,-0.1510885481883515,-0.17482141584724514,0.1490839254225043
324,13.074037400001544,0.08083416352876222,0.054104774779471836,0.0010265858014617618,0.06836004383020501,0.07986646678274488,-0.09132714216312672,-0.028911218906726446,-0.05655286242695088,-0.03842547328315312,-0.15021934405643314,-0.17284339041237187,0.14951625192438445
325,13.080459599994356,0.08116808383617803,0.054494628555338286,0.0005795562794262691,0.06821687824870543,0.0795878690058281,-0.09151324697347597,-0.02964361398667557,-0.05739316652849276,-0.03769333284033851,-0.14933379211211256,-0.17084362991250404,0.14993307775592987
326,13.08493310000631,0.0815012953385828,0.054883110001673674,0.00013162549774642777,0.06807014200009702,0.07930518623106243,-0.09169576679095366,-0.030371639341621025,-0.058223639849575175,-0.03695919209170645,-0.14843222309855908,-0.16882275577935582,0.15033441400340947
327,13.089178499998525,0.08183378062842506,0.055270199261250666,-0.0003171889898179489,0.0679198566428893,0.07901846678127047,-0.09187469201966753,-0.031095217463316838,-0.0590441806688843,-0.03622312675253186,-0.147514969983682,-0.1667813894077855,0.15072027034978536
328,13.093386599997755,0.08216552240449644,0.05565587671434624,-0.0007668695834903482,0.06776604411060644,0.07872775946923675,-0.09205001343383981,-0.03181427247622523,-0.05985469030243168,-0.035485212494333,-0.1465823667445919,-0.16472015144260496,0.15109065482049225
329,13.097681500003093,0.08249650347374594,0.05604012298110116,-0.001217398639286807,0.06760872670378816,0.07843311358287093,-0.09222172217761325,-0.03252873013825312,-0.060655073098543545,-0.03474552495389949,-0.14563474704773097,-0.16263966156498932,0.15144557352602203
330,13.102110599997104,0.08282670675305492,0.056422918923807026,-0.0016687584708243277,0.06744792708201447,0.07813457887038988,-0.09238980976490545,-0.03323851783697743,-0.06144523643344755,-0.034004139742991595,-0.1446724438758092,-0.16054053845489374,0.151785030666858
331,13.1063959000021,0.08315611527097334,0.056804245649120816,-0.0021209313511287007,0.06728366825594344,0.07783220552552403,-0.09255426807930972,-0.033943564586733144,-0.06222509070589451,-0.03326113245732001,-0.14369578949979947,-0.15842339978930953,0.15210902871485402
332,13.11099749999994,0.08348471216941693,0.05718408451020728,-0.0025738995144419523,0.06711597357936443,0.07752604417275204,-0.0927150893740373,-0.03464380102456478,-0.06299454933272813,-0.03251657868447133,-0.142705115360533,-0.15628886243003257,0.15241756861855582
333,13.115463699999964,0.08381248070532568,0.0575624171088091,-0.003027645158029602,0.06694486674127546,0.07721614585255046,-0.09287226627189568,-0.03533915940615651,-0.06375352874534301,-0.03177055401087988,-0.14170075194797008,-0.15413754249766504,0.15271064994352285
334,13.119079600000989,0.08413940425228357,0.05793922529724498,-0.0034821504439878966,0.06677037175797626,0.07690256200666308,-0.093025791765299,-0.0360295736006029,-0.06450194838597807,-0.031023134028380903,-0.1406830285062053,-0.15197005525843635,0.15298827091454745
335,13.122825400001602,0.08446546630209971,0.0583144911803358,-0.003937397501051172,0.06659251296519673,0.0765853444633868,-0.09317565921631048,-0.03671497908345415,-0.06523973070306774,-0.03027439434076948,-0.1396522724105355,-0.1497870150069555,0.1532504284375671
336,13.128748100003577,0.08479065046635106,0.05868819711725878,-0.004393368426399502,0.06641131501025804,0.07626454542288645,-0.09332186235671694,-0.0373953129253948,-0.06596680114638873,-0.02952441057013947,-0.13860880843859566,-0.14758903500004025,0.15349711830266774
337,13.133834399995976,0.08511494047788698,0.059060325723330004,-0.004850045287466784,0.06622680284431182,0.07594021744252814,-0.09346439528813325,-0.03807051377816103,-0.0666830881617641,-0.028773258361457107,-0.137552958563878,-0.14537672758891895,0.15372833588174512
338,13.138964400000988,0.08543832019229598,0.05943085987171521,-0.005307410123749415,0.06603900171463892,0.07561241342224587,-0.09360325248212155,-0.038740521861200035,-0.06738852318750295,-0.028021013382077117,-0.1364850417340139,-0.14315070506474406,0.15394407743124935
339,13.143399499997033,0.085760773589335,0.059799782695069144,-0.005765444948615543,0.06584793715701914,0.07528118658990966,-0.09373842878029098,-0.039405278945419016,-0.06808304065737318,-0.02726775131357605,-0.1354053736316398,-0.14091158050600025,0.15414434138086014
340,13.148108699999284,0.08608228477432152,0.060167077587103275,-0.006224131751114714,0.06565363498818891,0.07494659048666315,-0.09386991939433706,-0.04006472833750596,-0.0687665780053285,-0.026513547838665694,-0.13431426631860077,-0.13865996775559083,0.15432912871061358
341,13.152059500003816,0.08640283797948908,0.06053272820408177,-0.006683452497787512,0.06545612129836428,0.07460867895224546,-0.09399771990601337,-0.040718814860199064,-0.06943907566825712,-0.025758478629338263,-0.13321202740639082,-0.13639648093718854,0.15449844247510258
342,13.15612549999787,0.08672241756530631,0.06089671846624566,-0.007143389134474929,0.06525542244389164,0.0742675061103019,-0.09412182626705505,-0.04136748482849478,-0.07010047708597886,-0.025002619338432938,-0.1320989599660402,-0.13412173386336287,0.1546522875302464
343,13.160413799996604,0.0870410080217605,0.06125903255916515,-0.007603923588127254,0.06505156504000335,0.07392312635370592,-0.09424223479906801,-0.042010686029035994,-0.07075072869820559,-0.024246045590453125,-0.13097536288376813,-0.1318363396941561,0.15479067153958917
344,13.168648199993186,0.08735859396960582,0.06161965493502023,-0.008065037768612362,0.06484457595367003,0.07357559432989945,-0.0943589421933626,-0.042648367699798184,-0.07138977994119934,-0.02348883296329183,-0.12984153120328648,-0.12954091112193258,0.1549136072479419
345,13.172945099999197,0.08767516016157703,0.061978570313809656,-0.008526713570522978,0.06463448229655488,0.07322496492624761,-0.09447194551066411,-0.04328048051282518,-0.07201758324654052,-0.022731056956813673,-0.12869775657111837,-0.12723606087649159,0.15502111459468346
346,13.177056000000448,0.08799069148356874,0.06233576368448831,-0.00898893287498213,0.06442131141803477,0.07287129325539109,-0.09458124218063917,-0.043906976558270375,-0.07263409404272578,-0.02197279295391309,-0.12754432735399404,-0.12492240173900358,0.15511322119071652
347,13.181199900005597,0.08830517295578086,0.06269122030603293,-0.009451677551445785,0.06420509089831064,0.07251463464058518,-0.09468683000122544,-0.04452780932828053,-0.07323927075407254,-0.021214116184431912,-0.12638152878743691,-0.12260054567471858,0.15518996120522935
348,13.185243999992965,0.08861858973383055,0.0630449257084361,-0.009914929459501747,0.06398584854158622,0.07215504460106291,-0.09478870713780514,-0.04514293370249011,-0.07383307479383511,-0.020455101697104572,-0.12520964285880415,-0.12027110288383262,0.15525137414362414
349,13.190173900002264,0.08893092710983092,0.06339686569362886,-0.010378670450664207,0.06376361236932028,0.0717925788374414,-0.09488687212226038,-0.04575230593076129,-0.0744154705538271,-0.019695824335427013,-0.12402894781568051,-0.11793468141420684,0.15529750479745738
350,13.195914500000072,0.08924217051343696,0.06374702633633193,-0.010842882370163405,0.06353841061357413,0.07142729321718648,-0.09498132385191066,-0.04635588361387056,-0.07498642539375013,-0.018936358710091455,-0.12283971824045714,-0.11559188722202647,0.1553284045577798
351,13.202068300000974,0.08955230551285923,0.0640953939848362,-0.011307547058729791,0.06331027171045275,0.07105924376012338,-0.09507206158829865,-0.046953625686978105,-0.07554590963140936,-0.01817677916201141,-0.12164222539306895,-0.11324332436478589,0.1553441335311929
352,13.206286500004351,0.08986131781584564,0.06444195526171226,-0.011772646354371809,0.06307922429361398,0.07068848662399704,-0.0951590849557661,-0.04754549240366624,-0.07609389653392962,-0.01741715971406231,-0.12043673707532201,-0.11088959544501116,0.1553447623019982
353,13.210262099993995,0.09016919327063164,0.06478669706444964,-0.012238162094146132,0.06284529718786573,0.07031507809006877,-0.09524239393976765,-0.048131445318081945,-0.07663036231231032,-0.01665757401687348,-0.11922351739452017,-0.1085313016339244,0.1553303721367941
354,13.214586799993413,0.09047591786685939,0.06512960656602555,-0.012704076115918957,0.06260851940284977,0.06993907454872975,-0.09532198888491662,-0.04871144726666368,-0.07715528611287298,-0.015898095298567876,-0.11800282657120027,-0.10616904212918012,0.15530105375195966
355,13.21916290000081,0.0907814777364662,0.06547067121540336,-0.013170370260117126,0.062368920126817703,0.06956053248518128,-0.09539787049280729,-0.04928546234840367,-0.07766865000651307,-0.015138796322607541,-0.11677492071530764,-0.10380341399176998,0.15525690591354008
356,13.222903200003202,0.09108585915454283,0.06580987873796129,-0.013637026371468129,0.062126528720507765,0.0691795084651535,-0.09547003981964843,-0.049853455904385786,-0.07817043897855251,-0.014379749351225875,-0.11554005144101792,-0.10143501189441512,0.15519803459651343
357,13.226929800002836,0.09138904854016199,0.06614721713585131,-0.014104026300728077,0.061881374711120894,0.06879605912068484,-0.09553849827372794,-0.050415394494280966,-0.07866064091553093,-0.013621026111495089,-0.11429846571880317,-0.09906442791246356,0.15512455276785952
358,13.23108169999614,0.09169103245717779,0.0664826746882887,-0.014571351906396909,0.061633487786427396,0.06841024113596988,-0.09560324761271462,-0.050971245874438374,-0.07913924659301319,-0.012862697760879975,-0.11305040627541127,-0.09669225159920532,0.1550365806153889
359,13.235456399997927,0.09199179761499662,0.06681623995177251,-0.015038985056419985,0.06138289778895729,0.06802211123325808,-0.09566428994078585,-0.05152097897829243,-0.07960624966311723,-0.012104834851067505,-0.11179611150477316,-0.0943190699712164,0.15493424569705613
360,13.239684999993187,0.09229133086931975,0.0671479017602373,-0.015506907629875196,0.06112963471029856,0.06763172615882355,-0.09572162770557566,-0.05206456389358269,-0.08006164664217824,-0.01134750729206039,-0.11053581542425187,-0.09194546741809956,0.15481768273708627
361,13.243502600002104,0.09258961922285841,0.06747764922513635,-0.015975101518644712,0.0608737286855103,0.06723914266898452,-0.09577526369495128,-0.052601971842333006,-0.08050543689739383,-0.010590784318000465,-0.10926974823764771,-0.08957202521363264,0.154687033439518
362,13.25020520000544,0.09288664982602182,0.06780547173545667,-0.016443548629070572,0.060615209987616776,0.06684441751620365,-0.09582520103362693,-0.05313317516357737,-0.0809376226297074,-0.009834734453085723,-0.10799813694369861,-0.0871993211602603,0.15454244703423048
363,13.255694499996023,0.09318240997757843,0.06813135895766628,-0.01691223088359331,0.060354109022189455,0.06644760743527486,-0.09587144317960714,-0.05365814729928993,-0.08135820885697664,-0.009079425472053789,-0.10672120591532933,-0.08482792955818401,0.15438408177790292
364,13.260069700001624,0.09347688712529088,0.06845530083559413,-0.017381130222372764,0.060090456321978694,0.06604876912958833,-0.09591399392041397,-0.054176862782775635,-0.08176720339655462,-0.00832492435142021,-0.1054391770325711,-0.0824584208796115,0.15421210628796053
365,13.264399499996216,0.09377006886652484,0.06877728759024308,-0.01785022860488981,0.059824282541609326,0.06564795925748762,-0.09595285736905354,-0.05468929722590017,-0.08216461684527251,-0.007571297216916517,-0.10415226974212809,-0.08009136107181136,0.15402669935060026
366,13.268644399999175,0.09406194294883202,0.06909730971953638,-0.018319508011527725,0.0595556184523372,0.06524523441873044,-0.09598803795972922,-0.055195427308063136,-0.08255046255520493,-0.006818609296605936,-0.10286070098300953,-0.07772731096247641,0.15382804817982912
367,13.27290909999283,0.09435249727050778,0.06941535799799825,-0.01878895044513199,0.059284494936852616,0.06484065114108278,-0.09601954044334961,-0.05569523076270067,-0.08292475660783734,-0.006066924885347308,-0.1015646845486506,-0.07536682609706535,0.1536163463568356
368,13.27709849999519,0.0946417198811233,0.06973142347636924,-0.019258537932547726,0.05901094298416887,0.06443426586703234,-0.09604736988289421,-0.05618868636002047,-0.08328751778824064,-0.005316307318062866,-0.10026443083501242,-0.07301045641333034,0.15339179288971333
369,13.282002299994929,0.09492959898203318,0.07004549748115688,-0.019728252526134187,0.05873499368459452,0.06402613494063517,-0.09607153164865999,-0.05667577389104094,-0.08363876755605566,-0.0045668189433976545,-0.09896014666217519,-0.07065874606182727,0.15315459262875006
370,13.29128170000331,0.0952161229268585,0.07035757161412243,-0.020198076305255695,0.058456678224778034,0.06361631459451286,-0.09609203141336947,-0.057156474148581445,-0.08397853001791233,-0.003818521092925955,-0.09765203484395742,-0.06831223385108876,0.15290495718624422
371,13.295458799999324,0.09550128022194591,0.07066763775170434,-0.020667991377748295,0.058176027882865966,0.06320486093696899,-0.09610887514711611,-0.05763076890709254,-0.08430683190276782,-0.0030714740458152984,-0.09634029448458585,-0.06597145324922771,0.15264310547484256
372,13.299814500001958,0.09578505952680334,0.07097568804437902,-0.021137979881361263,0.057893074023744835,0.06279182993922741,-0.09612206911212683,-0.05809864090654753,-0.08462370253434139,-0.002325736992768177,-0.09502512102374631,-0.06363693183326295,0.1523692631618023
373,13.304039199996623,0.09606744965451257,0.07128171491595948,-0.021608023985172538,0.05760784809435685,0.06237727742281829,-0.09613161985735476,-0.05856007383271328,-0.08492917380106715,-0.0015813680060231374,-0.0937067057466394,-0.06130919109656144,0.152083661408034
374,13.308382200004417,0.09634843957211914,0.07158571106283275,-0.022078105890977348,0.05732038161913474,0.06196125904711028,-0.09613753421294842,-0.0590150522962503,-0.08522328012664585,-0.0008384240156281168,-0.09238523645131709,-0.05898874625702127,0.15178653631162575
375,13.314891300004092,0.09662801840100026,0.07188766945313659,-0.022548207834649555,0.05703070619552185,0.061543830296984514,-0.09613981928461239,-0.059463561819509854,-0.08550605843812163,-9.696078488362719e-05,-0.09106089835456957,-0.0566761054692853,0.1514781295679234
376,13.320767600002,0.09690617541721092,0.07218758332587635,-0.02301831208747513,0.0567388534895361,0.061125046470679,-0.09613848244783635,-0.059905588824493226,-0.08577754812872969,0.0006429671198392098,-0.08973387380926134,-0.05437176899446686,0.15115868943432986
377,13.324831199992332,0.0971829000518084,0.07248544618998287,-0.02348840095745706,0.05644485523140784,0.06070496266782592,-0.09613353134196058,-0.06034112061688447,-0.0860377910178533,0.0013813063630908,-0.08840434224512685,-0.05207622872565185,0.15082847104576194
378,13.330728700006148,0.09745818189115572,0.07278125182331227,-0.02395845679059079,0.05614874321129996,0.060283633777687654,-0.09612497386407258,-0.06077014537343072,-0.08628683130923105,0.0021180048736100764,-0.08707248079243107,-0.0497899676828614,0.15048773597977244
379,13.336087399991811,0.09773201067720434,0.07307499427158881,-0.024428461972109433,0.05585054927506915,0.05986111446760278,-0.09611281816274723,-0.061192652132074046,-0.08652471554597485,0.0028530118740637163,-0.08573846422218759,-0.04751345943459655,0.15013675134079638
380,13.33980810000503,0.0980043763077561,0.07336666784729175,-0.024898398927698,0.05555030532008252,0.05943745917166201,-0.09609707263165258,-0.06160863077874713,-0.08675149256312009,0.0035862779053574606,-0.08440246438220952,-0.04524716783091758,0.14977578841445238
381,13.344158899999456,0.09827526883670501,0.0736562671284874,-0.02536825012467608,0.055248043291108,0.05901272207961822,-0.09607774590305224,-0.06201807203198994,-0.08696721344003333,0.004317754843214978,-0.08306464996000616,-0.042991546765984344,0.1494051210267021
382,13.34810020000441,0.09854467847425905,0.07394378695760756,-0.02583799807314852,0.05494379517628141,0.058586957126027815,-0.09605484684124901,-0.06242096742742665,-0.08717193145064016,0.005047395906442465,-0.08172518661650012,-0.04074703980679494,0.1490250245725212
383,13.353926600000705,0.09881259558714246,0.07422922244017538,-0.026307625327123985,0.05463759300314864,0.058160217979647544,-0.09602838453600654,-0.06281730930369,-0.08736570201220212,0.005775155664008331,-0.08038423783133097,-0.03851407962983214,0.1486357769512425
384,13.37009909999324,0.0990790106987789,0.07451256894348007,-0.026777114485601314,0.054329468834770384,0.05773255803307676,-0.09599836829592363,-0.06320709079516493,-0.08754858263003522,0.006500990052455051,-0.07904196675758235,-0.03629308622546135,0.14823766147009537
385,13.376559099997394,0.0993439144894556,0.07479382209520151,-0.027246448193623277,0.05401945476583531,0.05730403039269488,-0.09596480764168563,-0.06359030583605134,-0.08772063282872664,0.007224856411374221,-0.07769853782438685,-0.03408446490978227,0.1478309698860293
386,13.38323209999362,0.0996072977964685,0.07507297778198652,-0.02771560914329693,0.053707582918725044,0.056874687868976335,-0.09592771229909186,-0.06396694916878055,-0.08788191407740999,0.007946713530566144,-0.0763541170634069,-0.03188860610211471,0.14741600285553785
387,13.387496499999544,0.09986915161424793,0.07535003214797875,-0.028184580074779187,0.053393885439545014,0.05644458296715878,-0.09588709219184573,-0.06433701635127094,-0.08803248971880594,0.008666521689913966,-0.0750088718565019,-0.02970588603672906,0.1469930674034571
388,13.396017099992603,0.10012946709446496,0.07562498159330375,-0.02865334377722667,0.05307839449411849,0.05601376787825199,-0.09584295743419226,-0.0647005037628766,-0.0881724249014579,0.009384242681789197,-0.07366297001598858,-0.02753666760939299,0.14656247379277326
389,13.400836500004516,0.1003882355461179,0.07589782277251085,-0.029121883089709272,0.052761142263959275,0.055582294470368825,-0.09579531832348909,-0.06505740860264839,-0.08830178651705148,0.010099839820313912,-0.072316578478691,-0.02538130107430819,0.14612453365974112
390,13.40602549999312,0.10064544843559918,0.07616855259297349,-0.029590180902087353,0.05244216094228272,0.05515021428034707,-0.09574418533275339,-0.06540772888251094,-0.08842064313946596,0.010813277945528525,-0.07096986296429642,-0.023240124029157747,0.14567955928154125
391,13.410452299998724,0.10090109738674297,0.07643716821324918,-0.030058220155852425,0.052121482730045146,0.05471757850567644,-0.09568956910319212,-0.06575146342218256,-0.0885290649619475,0.011524523425491996,-0.06962298796157769,-0.02111346137077616,0.14522786297685403
392,13.41503059999377,0.10115517418085325,0.07670366704140084,-0.030525983844931284,0.051799139832004557,0.054284437996734894,-0.09563148043672842,-0.06608861184221755,-0.08862712373572705,0.012233544154587475,-0.06827611601555592,-0.019001625829074536,0.144769756080697
393,13.418749799995568,0.10140767075671289,0.07696804673328088,-0.03099345501645362,0.05147516445282809,0.05385084324931588,-0.0955699302885484,-0.0664191745519548,-0.08871489271241517,0.012940309545596856,-0.06692940728196421,-0.016904918813056554,0.14430554768390322
394,13.423324999996112,0.10165857921057372,0.0772303051907794,-0.03146061677148325,0.05114958879327059,0.053416844397428026,-0.09550492975970508,-0.06674315273820297,-0.0887924465908936,0.013644790515679062,-0.06558301948357191,-0.014823631167544433,0.14383554371083693
395,13.427666699994006,0.10190789179612818,0.07749044056003793,-0.0319274522657134,0.05082244504639272,0.052982491206341756,-0.09543649008980228,-0.067060548352762,-0.08885986146711049,0.014346959469425052,-0.06423710710840631,-0.012758043573814732,0.14336004641544609
396,13.431864700003644,0.10215560092446241,0.07774845122962956,-0.03239394471012639,0.050493765393861544,0.052547833065879956,-0.09536462264976427,-0.06737136409326719,-0.08891721478489008,0.015046790279907718,-0.06289182083136557,-0.010708426726982155,0.1428793539237486
397,13.43617699999595,0.10240169916399175,0.0780043358287071,-0.03286007737161821,0.050163582002356016,0.052112918983945676,-0.09528933893470502,-0.06767560338505435,-0.08896458528746265,0.0157442582672626,-0.061547308166978676,-0.008675041544449362,0.14239375993027326
398,13.441843399996287,0.10264617924037868,0.07825809322511992,-0.03332583357358847,0.049831927020044894,0.05167779758028678,-0.0952106505569073,-0.06797327036838761,-0.08900205297031272,0.016439340176769117,-0.06020371395883892,-0.006658139566674765,0.14190355381008024
399,13.446850199994516,0.10288903403643383,0.07850972252350111,-0.033791196696496294,0.049498832573117116,0.051242517080484794,-0.09512856923890628,-0.068264369885111,-0.08902969903662836,0.017132014158526776,-0.058861180276063636,-0.004657962674522948,0.14140902105146358
400,13.456610099994576,0.10313025659200004,0.07875922306332554,-0.03425615017838266,0.04916433076239028,0.05080712531015523,-0.09504310680666736,-0.06854890746486368,-0.08904760584738519,0.017822259749768057,-0.057519847362650374,-0.002674742214349547,0.1409104440721627
401,13.461221100005789,0.10336984010382015,0.0790065944169403,-0.03472067751535957,0.04882845365997583,0.050371669689424595,-0.0949542751828428,-0.06882688932101581,-0.08905585686823943,0.01851005786251683,-0.05617985494341549,-0.0007086990572001404,0.1404081031224916
402,13.464771600003589,0.1036077779253885,0.07925183638756877,-0.035184762262066425,0.04849123330592727,0.04993619722765009,-0.09486208638007024,-0.06909832234965534,-0.08905453662019078,0.019195390774733437,-0.05484134214983986,0.0012399560895686734,0.13990227610134826
403,13.46892719999596,0.10384406356678592,0.07949494900728939,-0.035648388032093664,0.04815270170491526,0.04950075451837909,-0.09476655249431587,-0.06936321412479862,-0.08904373062952302,0.019878242116173776,-0.053504447178136634,0.003171022237043917,0.1393932372428728
404,13.473246800000195,0.1040786906944987,0.07973593253499044,-0.03611153849837405,0.047812890822922664,0.04906538773455843,-0.0946676856983113,-0.0696215728940333,-0.08902352538282123,0.02055859684669046,-0.05216930733459165,0.0050843070170389325,0.1388812560555902
405,13.477314399991885,0.10431165313122126,0.07997478745430196,-0.03657419739354212,0.04747183258396228,0.04863014262393378,-0.09456549823510892,-0.06987340757417232,-0.08899400828764753,0.021236441231717158,-0.05083605928768192,0.0069796262073060595,0.13836659688492026
406,13.484216299999389,0.10454294485564304,0.0802115144715056,-0.03703634851026243,0.04712955886681437,0.0481950645046435,-0.09446000241175849,-0.0701187277493624,-0.08895526763220157,0.021911762816291307,-0.0495048395125391,0.008856803760641534,0.13784951877097448
407,13.489885000002689,0.10477256000221928,0.08044611451342333,-0.0374979757015272,0.046786101501762885,0.04776019826101255,-0.0943512105931166,-0.07035754367108474,-0.08890739254571163,0.022584550399147762,-0.04817578451418307,0.010715671820184364,0.1373302756274706
408,13.494135500004631,0.10500049286092593,0.08067858872528624,-0.037959062880923974,0.046441492267333,0.04732558833953365,-0.09423913519577659,-0.0705898662584466,-0.08885047295794544,0.02325479400849121,-0.04684903122793919,0.012556071016738977,0.13680911641339238
409,13.498086399995373,0.10522673787699857,0.08090893846858396,-0.03841959402287392,0.046095762887024466,0.04689127874505721,-0.09412378868211492,-0.07081570710209793,-0.08878459955669367,0.023922484877768584,-0.04552471731632533,0.014377850289718358,0.13628628502038573
410,13.502801599999655,0.10545128965065538,0.08113716531889613,-0.038879553162841286,0.04574894502601089,0.046457313037188266,-0.09400518355445805,-0.07103507846742638,-0.0887098637490318,0.02458761542034026,-0.044202980693831745,0.0161808659968506,0.13576201990912842
411,13.5072172999935,0.10567414293680376,0.08136327106370662,-0.03933892439751463,0.04540107028784179,0.04602373432685522,-0.09388333234937654,-0.07124799329382644,-0.08862635762751028,0.025250179201696317,-0.04288395875562558,0.017964981277102332,0.1352365535313805
412,13.511404899996704,0.10589529264473103,0.08158725770020148,-0.03979769188496048,0.04505217021114903,0.04559058527303747,-0.09375824763212359,-0.07145446519035158,-0.08853417393764683,0.02591017090847564,-0.041567787725074745,0.019730065931690598,0.13471011189931176
413,13.515351299996835,0.1061147338377789,0.08180912743305109,-0.04025583984475019,0.04470227626639144,0.04515790807965204,-0.09362994199123215,-0.0716545084286024,-0.08843340604528015,0.026567586316470396,-0.04025460274191255,0.021475996082149278,0.134182914452298
414,13.518912899991848,0.10633246173300229,0.0820288826721777,-0.04071335255806073,0.044351419852630754,0.044725744492600465,-0.09349842803326636,-0.07184813793924097,-0.0883241479074062,0.027222422258342437,-0.03894453821904454,0.023202653606880383,0.13365517384869613
415,13.523608400006196,0.10654847170081223,0.08224652603050872,-0.041170214367750244,0.043999632294310316,0.04429413579694065,-0.09336371837773437,-0.07203536930836849,-0.08820649404504226,0.027874676589591446,-0.03763772748653068,0.024909926171267884,0.13312709580318055
416,13.527349399999366,0.10676275926460328,0.08246206032171655,-0.04162640967840909,0.04364694483806648,0.04386312281419913,-0.09322582565217263,-0.07221621877055781,-0.08808053951376865,0.02852434815468056,-0.03633430228648693,0.026597707212664086,0.13259887923504057
417,13.531529899992163,0.10697532010036519,0.08267548855794561,-0.04208192295638729,0.04329338864957543,0.043432745899830996,-0.09308476248738995,-0.07239070320029152,-0.08794637987673964,0.029171436754454792,-0.03503439271401555,0.028265895553893312,0.13207071632651293
418,13.535525200000848,0.10718615003627943,0.08288681394752735,-0.0425367387297991,0.04293899481044832,0.043003044940796126,-0.09294054151287041,-0.07255884010441678,-0.08780411117900494,0.029815943112837123,-0.033738126757451234,0.0299143955374821,0.13154279195295757
419,13.539775900004315,0.1073952450523006,0.08309603989268356,-0.04299084158850548,0.042583794315151885,0.04257405935327022,-0.09279317535234317,-0.07272064760908718,-0.08765382991920787,0.030457868838674285,-0.03244562767196684,0.03154311718897303,0.1310152821025227
420,13.544568600002094,0.10760260127972275,0.08330316998721897,-0.043444216184075346,0.04222781806803126,0.04214582808049782,-0.0926426766195585,-0.07287614442653262,-0.08749563302230973,0.03109721637697787,-0.031157009157392564,0.03315197632030315,0.13048835135220085
421,13.55245410000498,0.10780821500073172,0.0835082080142036,-0.04389684722972672,0.041871096880555604,0.04171838959077007,-0.09248905791433436,-0.07302534979484225,-0.087329617810277,0.031733988946087005,-0.02987237124813024,0.0347408949307421,0.12996215046576975
422,13.556059800001094,0.10801208264794453,0.08371115794364556,-0.04434871950024933,0.04151366146892979,0.041291781875564426,-0.09233233181894705,-0.07316828340453951,-0.08715588197088467,0.03236819046541836,-0.02859180074339073,0.03630980071715635,0.12943681623083925
423,13.56138379999902,0.1082142008039383,0.08391202393015523,-0.04479981783191047,0.0411555424520581,0.040866042447827496,-0.09217251089488435,-0.07330496534257262,-0.08697452353319285,0.03299982549103522,-0.027315375406810893,0.03785862576828204,0.1289124739794633
424,13.566254599994863,0.10841456620076982,0.08411081031060126,-0.04525012712234583,0.04079677034970368,0.04044120834035456,-0.09200960767986618,-0.07343541605996003,-0.08678564084911956,0.03362889916804799,-0.02604316806092535,0.039387305763467516,0.12838924023034184
425,13.570674400005371,0.10861317571948641,0.08430752160175888,-0.045699632330436224,0.04043737558076861,0.04001731610425267,-0.09184363468506336,-0.0735596563558231,-0.0865893325767533,0.03425541719202285,-0.02477524931709677,0.04089577964647565,0.1278672241729497
426,13.575563199992756,0.10881002638962865,0.08450216249795087,-0.04614831847617123,0.040077388461609555,0.03959440180748332,-0.09167460439249563,-0.07367770737172911,-0.0863856976651159,0.03487938577589644,-0.023511688585153574,0.0423839891652107,0.12734652849753775
427,13.580586099997165,0.10900511538872484,0.08469473786868166,-0.04659617064050046,0.03971683920437314,0.03917250103347455,-0.09150252925257392,-0.07378959058559781,-0.08617483534197637,0.03550081161950156,-0.02225255432557659,0.04385187826373524,0.1268272497219037
428,13.58963259999291,0.10919844004177741,0.08488525275626471,-0.047043173965173164,0.03935575791537118,0.038751648879782837,-0.0913274216817965,-0.0738953278085106,-0.08595684510455956,0.0361197018796775,-0.020997914894805507,0.0452993925031522,0.1263094787481602
429,13.595059200000833,0.10938999782074145,0.0850737123734435,-0.04748931365256699,0.038994174593447284,0.03833187995679605,-0.09114929406058349,-0.07399494118688388,-0.08573182671302354,0.036736064145240735,-0.019747838856635735,0.04672647866111951,0.1257933014855205
430,13.599179700002423,0.10957978634399522,0.08526012210100621,-0.04793457496550639,0.03863211912833081,0.03791322838645911,-0.09096815873121777,-0.07408845320232357,-0.08549988018508485,0.037349906413185814,-0.01850239433018922,0.04813308480672812,0.1252787986426562
431,13.60306579999451,0.10976780337580255,0.08544448748539432,-0.04837894322707124,0.03826962129900491,0.037495727801029506,-0.0907840279959123,-0.07417588666742186,-0.08526110578876357,0.0379612370616254,-0.017261648306839062,0.0495191603884993,0.12476604523782606
432,13.608108899992658,0.10995404682576738,0.08562681423630508,-0.04882240382039635,0.037906710772101566,0.03707941134187393,-0.09059691411501561,-0.07425726471893158,-0.08501560403614802,0.03857006482120044,-0.016025666531435688,0.05088465589354226,0.12425511049512139
433,13.61485569999786,0.11013851474828049,0.0858071082242883,-0.04926494218846255,0.037543417100336415,0.03666431165828477,-0.09040682930535872,-0.07433261081240135,-0.08476347567947312,0.03917639874700552,-0.014794513725336113,0.052229522595578975,0.1237460583201241
434,13.618482299993047,0.11032120534195868,0.08598537547833732,-0.049706543833880026,0.03717976972095624,0.03625046090631507,-0.09021378573873523,-0.0744019487175311,-0.08450482170734928,0.039780248194650765,-0.013568253482002331,0.05355371224318258,0.12323894796651094
435,13.622942200003308,0.11050211694907637,0.08616162218347434,-0.050147194318664524,0.0368157979542192,0.03583789074763192,-0.09001779554048231,-0.07446530251178624,-0.08423974334388969,0.0403816227987063,-0.012346948252342454,0.054857176584707706,0.1227338341840643
436,13.626932500003022,0.11068124805498994,0.08633585467833023,-0.050586879264006825,0.0364515310019048,0.03542663234835995,-0.08981887078817159,-0.0745226965756098,-0.08396834204958514,0.040980532450211646,-0.011130659478647161,0.05613986750193456,0.12223076717572147
437,13.63116330000048,0.11085859728755468,0.08650807945271853,-0.051025584350036145,0.036086997945840915,0.03501671637792618,-0.08961702351041012,-0.07457415558734642,-0.08369071951912438,0.04157698727470012,-0.009919447341880846,0.05740173724811041,0.1217297927007381
438,13.63554160000058,0.11103416341653476,0.08667830314520394,-0.05146329531557788,0.03572222774646343,0.0346081730079248,-0.08941226568574616,-0.07461970451598318,-0.08340697767994097,0.04217099761071713,-0.00871337064278009,0.05864273828369209,0.12123095205873374
439,13.639370499993674,0.11120794535300611,0.08684653254066527,-0.05189999795790632,0.035357249241414236,0.03420103191097624,-0.08920460924168021,-0.0746593686149107,-0.08311721869163999,0.04276257398768857,-0.007512487218150207,0.059862823291725785,0.12073428193573252
440,13.643585600002552,0.11137994214875269,0.0870127745678527,-0.052335678132492694,0.03499209114416189,0.033795322259597575,-0.08899406605378726,-0.07469317341873517,-0.08282154494439452,0.04335172710293342,-0.0063168540737842446,0.061061945044786084,0.12023981453678757
441,13.648113200004444,0.11155015299565582,0.08717703629693974,-0.052770321752749316,0.03462678204263078,0.03339107272507726,-0.08878064794495263,-0.07472114473833945,-0.08252005905967359,0.043938467800829176,-0.005126526983541933,0.06224005607755087,0.11974757777810323
442,13.652196399998502,0.1117185772250771,0.08733932493706949,-0.05320391478977017,0.03426135039787011,0.032988311476338426,-0.08856436668469796,-0.07474330865377415,-0.08221286389184079,0.044522807051703334,-0.0039415603863160705,0.06339710856868451,0.11925759515513065
443,13.657027799999923,0.1118852143072347,0.08749964783389544,-0.05363644327206844,0.033895824542752556,0.03258706617879796,-0.08834523398862344,-0.07475969150831115,-0.0819000625300373,0.04510475592970882,-0.0027620075341922147,0.06453305414799201,0.11876988608284117
