,time,x,y,z,vx,vy,vz,ax,ay,az,jx,jy,jz
0,6.996481800000765,0.039580357669379514,-0.07716260308864545,0.018322537714918343,0.0056016351464346385,0.0016041687996589706,0.004937802830480792,0.04159526930003226,0.00722192029213615,-0.02314601381555276,0.18135002902160915,0.041958630147339415,-0.021543106027767954
1,7.000746100005927,0.03960807633083695,-0.07715472056011106,0.018346264983719628,0.005805955453821982,0.001639767331164327,0.004825044810401295,0.042477725599019696,0.007426986864062275,-0.02325010857352886,0.1817458900020628,0.042418383299281937,-0.021289419989185418
2,7.005375699998695,0.039636798536300095,-0.07714666257886113,0.018369442951135826,0.006014569705904094,0.0016763680406881975,0.004711783823906468,0.043362057845441525,0.007634277973110946,-0.0233529725719509,0.1821218533086351,0.04287391730060387,-0.02103667548951337
3,7.009708900004625,0.039666545179083454,-0.07713842424742887,0.018392069186986222,0.006227486785869329,0.0017139816909785136,0.0045980258420993915,0.04424816895975127,0.007843772883172095,-0.023454610349541192,0.18247776844401767,0.04332513831049355,-0.02078485603260347
4,7.0142989000014495,0.0396973371945324,-0.07713000061627905,0.01841414129005961,0.006444715103263754,0.0017526189428825909,0.004483776814217629,0.045135961129169566,0.008055450402893998,-0.02355502636010516,0.18281348415562487,0.04377195297154155,-0.020533943230235784
5,7.020019000003231,0.039729195557712337,-0.07712138668430864,0.018435656888009015,0.006666262590417919,0.0017922903531429456,0.00436904266806792,0.04602533580379297,0.008269288888620333,-0.02365422496360951,0.18312884835244583,0.04421426854570613,-0.020283916862476117
6,7.024000300007174,0.039762141281080424,-0.07711257739935819,0.01845661363724864,0.006892136698854352,0.0018330063722045342,0.0042538293105037085,0.04691619369233465,0.008485266247474121,-0.023752210417297595,0.18342370821082382,0.044651992914299214,-0.02003475487782307
7,7.02864010000485,0.039796195412139815,-0.07710356765873377,0.018477009222853225,0.0071223443956729285,0.0018747773420405487,0.004138142627946211,0.04780843475926149,0.008703359940294647,-0.023848986866769017,0.1836979104237194,0.04508503441182015,-0.01978643347243011
8,7.041264400002547,0.03983137903107627,-0.07709435230973953,0.018496841358460064,0.007356892159930532,0.0019176134939882065,0.00402198848694866,0.04870195822295793,0.008923546983106065,-0.023944558337865126,0.18395130129881807,0.045513301750437773,-0.019538927225994016
9,7.044925099995453,0.03986771324837715,-0.07708492615022064,0.01851610778617385,0.007595785979008574,0.0019615249465888235,0.0039053727347962536,0.0495966625538168,0.009145803949320195,-0.024038928729069615,0.18418372701542163,0.045936704186149285,-0.019292209169866455
10,7.049247500006459,0.03990521920243277,-0.07707528392911685,0.018534806276474514,0.007839031344974098,0.0020065217034450165,0.003788301200144277,0.050492445474900415,0.009370106972820392,-0.02413210180405615,0.18439503398705845,0.046355151231756965,-0.019046250907858983
11,7.053483199997572,0.03994391805711999,-0.07706542034702629,0.01855293462812829,0.008086633250953724,0.0020526136510907555,0.0036707796936904947,0.05138920396355646,0.00959643174737413,-0.024224081185263337,0.1845850688386878,0.04676855229431554,-0.018801022763475003
12,7.058611100001144,0.03998383099936831,-0.07705533005677973,0.018570490668102076,0.008338596187510462,0.0020998105568428567,0.003552814008875734,0.05228683425185748,0.009824753526192427,-0.024314870347873618,0.1847536784142168,0.04717681699237686,-0.01855649372709468
13,7.063415199998417,0.04002497923670826,-0.07704500766402522,0.018587472251481312,0.008594924139021928,0.0021481220666667504,0.003434409922614808,0.0531852318282898,0.010055047124426423,-0.02440447261287481,0.1849007098371683,0.047579855261718734,-0.018312631320031563
14,7.0683141000045,0.04006738399480228,-0.07703444772782315,0.01860387726139146,0.008855620580073574,0.0021975577030522446,0.0033155731960645505,0.05408429143878282,0.010287286919754621,-0.02449289113971748,0.18502601021594914,0.04797757706833373,-0.018069401568022787
15,7.072572600009153,0.040111066514958056,-0.07702364476125155,0.018619703608923323,0.009120688471846914,0.0022481268628850018,0.0031963095754261165,0.05498390708553279,0.010521446852089372,-0.024580128919118767,0.18512942643981498,0.048369892529288507,-0.017826768952197786
16,7.078137999997125,0.04015604805162427,-0.07701259323202175,0.01863494923306235,0.009390130258501318,0.0022998388153194485,0.0030766247927829734,0.05588397202604859,0.010757500425339007,-0.024666188765243114,0.18521080512616248,0.04875671207886895,-0.017584696378871428
17,7.08241889999772,0.040202349869868766,-0.07700128756310447,0.018649612100622086,0.00966394786355296,0.0023527026996673825,0.002956524566979215,0.05678437877146317,0.010995420708729461,-0.024751073308212447,0.18526999250721454,0.04913794624200507,-0.017343145296546292
18,7.087378900003387,0.04024999324283912,-0.07698972213336594,0.01866369020618202,0.009942142686240198,0.0024067275232837306,0.002836014604530362,0.05768501908447776,0.01123518033636382,-0.024834784987424308,0.18530683462634032,0.04951350583064477,-0.017102075862162117
19,7.091519599998719,0.040298999449205467,-0.07697789127821456,0.01867718157202989,0.010224715597882541,0.002461922159450873,0.002715100600566631,0.05858578397958177,0.011476751510452929,-0.024917326045678177,0.18532117772323395,0.04988330212503425,-0.016861447190320487
20,7.095656799996505,0.04034938977058564,-0.07696578929025759,0.018690084248108692,0.010511666938248163,0.002518295345295808,0.002593788239800835,0.05948656372474142,0.011720106002637207,-0.02499869852491637,0.1853128684153464,0.05024724629969483,-0.016621217666712013
21,7.101303200004622,0.04040118548895274,-0.07695341041996805,0.018702396311968413,0.010802996511929282,0.002575855679687324,0.0024720831975130575,0.060387247843383327,0.011965215151637064,-0.025078904263397254,0.18528175392435295,0.05060524934784966,-0.016381345144550908
22,7.1050841999967815,0.040454407884025,-0.07694074887636186,0.01871411586872259,0.011098703584728966,0.002634611621130325,0.0023499911405460297,0.06128772511828473,0.012212049863840042,-0.02515794489334572,0.1852276824008784,0.050957222323137964,-0.016141787031420347
23,7.10938310000347,0.04050907823063823,-0.0769277988276852,0.018725241051009735,0.011398786880074323,0.0026945714856687107,0.0022275177283126468,0.062187883596713775,0.012460580613300992,-0.02523582183897063,0.18515050310596942,0.051303076067732,-0.015902500417642542
24,7.113609100008034,0.04056521779610085,-0.07691455440211206,0.018735770018959683,0.011703244575453277,0.002755743444779702,0.002104668613810618,0.06308761059608385,0.012710777439686188,-0.02531253631536323,0.18505006653186645,0.05164272094038976,-0.015663442193393797
25,7.117672100008349,0.04062284783753167,-0.07690100968845202,0.01874570096016488,0.012012074298882727,0.0028181355232567364,0.0019814494446406903,0.06398679271026794,0.01296260994562984,-0.025388089327653067,0.18492622440190085,0.05197606683157539,-0.015424569139344724
26,7.121287400004803,0.04068198959918058,-0.07688715873686844,0.018755032089656627,0.012325273125406705,0.0028817555970780955,0.0018578658640295057,0.06488531581525196,0.013216047294825204,-0.025462481670787542,0.18477882969319692,0.05230302317856814,-0.015185838005924088
27,7.128354800006491,0.04074266430973229,-0.07687299555960692,0.01876376164988632,0.012642837573619496,0.002946611391271244,0.001733923511849967,0.06578306507566979,0.01347105820952797,-0.025535713929458383,0.18460773662172528,0.05262349879926587,-0.014947205483151215
28,7.132523399995989,0.04080489317959325,-0.07685851413173425,0.018771887910711604,0.012964763602227317,0.003012710477757187,0.0016096280256448093,0.06667992495031132,0.013727610967031744,-0.025607786477587907,0.18441280028716664,0.05293740190732494,-0.014708628155309256
29,7.137456099997507,0.040868697398161936,-0.07684370839188788,0.018779409169387567,0.013291046606624987,0.0030800602731805462,0.001484985041651961,0.06757577919520512,0.013985673397318609,-0.02567869947781488,0.184193876393342,0.05324464030853388,-0.01447006240650405
30,7.145017100003315,0.040934098131082494,-0.0768285722430359,0.018786323750562866,0.013621681415487573,0.0031486680367310772,0.001360000195833113,0.06847051086640875,0.014245212881443599,-0.025748452880062694,0.18395082118039385,0.05354512140079002,-0.014231464303610804
31,7.1490279999998165,0.04100111651748191,-0.07681309955324768,0.018792630006280907,0.013956662287374183,0.0032185408679580424,0.0012346791249129986,0.06936400232243214,0.014506196349185034,-0.025817046419887326,0.18368349136436976,0.053838752023080354,-0.013992789535861092
32,7.155873099996825,0.04106977366719062,-0.07679728415647517,0.018798326315986092,0.014295982907343173,0.003289685704568886,0.0011090274674240223,0.07025613522644059,0.014768590275960903,-0.025884479616458227,0.18339174407674852,0.0541254385460855,-0.013753993399703004
33,7.16022079999675,0.041140090657946785,-0.0767811198533449,0.01880341108653514,0.014639636383577353,0.0033621093202136298,0.0009830508647651684,0.07114679054809023,0.015032360681359982,-0.025950751770759107,0.18307543697766163,0.05440508696280053,-0.013515030942330704
34,7.165673700001207,0.041212088532584096,-0.07676460041196079,0.01880788275221363,0.014987615244017038,0.0034358183222692696,0.0008567549622641202,0.0720358485668317,0.015297473126939156,-0.026015861964964103,0.18273442859586264,0.05467760269221634,-0.013275857120317399
35,7.169947600006708,0.04128578829620331,-0.0767477195687177,0.018811739774757655,0.015339911433017371,0.0035108191496027587,0.0007301454102422328,0.07292318887705058,0.015563892712846087,-0.026079809062180666,0.18236857863092434,0.054942890594382426,-0.013036426961970729
36,7.1743757000076585,0.04136121091332756,-0.07673047102912604,0.018814980643380712,0.015696516308031344,0.0035871180703225714,0.0006032278650791519,0.07380869039430868,0.015831584075762965,-0.026142591707404017,0.1819777481796643,0.05520085504590551,-0.012796695744861197
37,7.182672199996887,0.041438377305041664,-0.07671284846864714,0.018817603874805702,0.016057420636327792,0.003664721179521698,0.0004760079902685079,0.07469223136268563,0.01610051138626311,-0.026204208328985828,0.1815617999402658,0.05545139990981934,-0.012556619158213945
38,7.187535300006857,0.04151730834611551,-0.07669484553353974,0.01881960801330209,0.016422614591745786,0.0037436343970035117,0.0003484914574682577,0.07557368936300453,0.016370638346461824,-0.026264657141167318,0.1811205984312386,0.05569442855064468,-0.012316153476619485
39,7.191176000007545,0.0415980248621118,-0.07667645584171758,0.01882099163072811,0.01679208775149259,0.003823863465001926,0.00022068394753175393,0.07645294132230206,0.016641928187519396,-0.02632393614723661,0.18065401010452603,0.05592984407605251,-0.012075255635572622
40,7.195223999995505,0.04168054762647837,-0.07665767298361799,0.018821753326577952,0.017165829092990116,0.003905413945882989,9.259115152739345e-05,0.07732986352315364,0.016914343669641205,-0.026382043142796165,0.18016190327786483,0.0561575498505593,-0.011833883250357198
41,7.199590100004571,0.0417648973576252,-0.07663849052308182,0.018821891728033877,0.017543826990763525,0.003988291219865041,-3.578122826207704e-05,0.07820433161248606,0.017187847084574465,-0.026438975719103707,0.1796441481195686,0.05637744960124489,-0.011591994430992179
42,7.203400300000794,0.04185109471598653,-0.07661890199824421,0.018821405490023115,0.01792606921337336,0.004072500482744579,-0.0001644274773523899,0.07907622061075467,0.01746240025663603,-0.02649473126454072,0.17910061652005282,0.056589447432815305,-0.011349547627386769
43,7.208456100008334,0.04193916030106806,-0.07659890092243662,0.018820293295279587,0.01831254292039336,0.00415804674362641,-0.0002933418680727268,0.07994540491950707,0.017737964545355575,-0.026549306966448097,0.17853118185007,0.056793447993806485,-0.011106501674663902
44,7.213692000004812,0.04202911464847964,-0.07657848078509968,0.01881855385441037,0.018703234659416115,0.004244934822675205,-0.0004225186585963922,0.08081175832821008,0.01801450084811909,-0.026602699813035226,0.17793571898336807,0.05698935647661287,-0.010862815706296337
45,7.21805029999814,0.04212097822695339,-0.07655763505270705,0.018816185905966842,0.01909813036309725,0.004333169348871354,-0.0005519520919743422,0.08167515402203372,0.018291969602812347,-0.02665490659437123,0.17731410434233036,0.05717707861745851,-0.010618449127676791
46,7.223097399997641,0.042214771435347666,-0.07653635716970009,0.018813188216520546,0.019497215346236756,0.004422754757788217,-0.0006816363951754942,0.08253546458912182,0.01857033079046411,-0.026705923904037105,0.17666621595061166,0.05735652093806047,-0.010373361668980145
47,7.229055300005712,0.0423105145996368,-0.07651464055943336,0.01880955958074366,0.01990047430289384,0.004513695289373671,-0.0008115657781363164,0.08339256202888767,0.01884954394023886,-0.026755748140630864,0.17599193360668342,0.05752759098737704,-0.010127513366281564
48,7.236671799997566,0.04240822796988699,-0.07649247862513084,0.01880529882149411,0.020307891303548903,0.004605994985775901,-0.0009417344328157694,0.08424631776097175,0.01912956813443009,-0.026804375509236113,0.17529113886140504,0.05769019690356379,-0.009880864557795887
49,7.240623400008189,0.04250793171721849,-0.07646986475085255,0.018800404789905214,0.020719449792305483,0.004699657689173488,-0.0010721365322591716,0.08509660263331928,0.019410362009194722,-0.026851802022890628,0.17456371507089144,0.05784424762538713,-0.009633375914068806
50,7.245235299997148,0.04260964593075429,-0.07644679230247187,0.0187948763654799,0.02113513258413074,0.004794687039608333,-0.0012027662296674178,0.08594328693165196,0.019691883761601584,-0.026898023504348438,0.17380954764578982,0.05798965376839035,-0.009385008494631053
51,7.253177200007485,0.04271339061455545,-0.07642325462866323,0.0187887124561894,0.02155492186214949,0.004891086472884269,-0.0013336176574779736,0.08678624038996875,0.019974091158883215,-0.026943035588099143,0.17302852415694472,0.05812632742855941,-0.009135723785783931
52,7.257571699999971,0.04281918568454352,-0.07639924506189988,0.01878191199857641,0.02197879917498675,0.004988859218489928,-0.0014646849264537245,0.08762533220104479,0.020256941543575754,-0.02698683372249732,0.17222053441076868,0.05825418207658245,-0.008885483832753912
53,7.261600300000282,0.042927050965410024,-0.07637475691946173,0.01877447395786263,0.022406745434163856,0.005088008297547311,-0.0015959621247846707,0.0884604310276649,0.020540391841742802,-0.027029413173066542,0.17138547041931282,0.05837313308655241,-0.008634251356775197
54,7.2651273000083165,0.043037006187513535,-0.0763497835044531,0.018766397328060645,0.022838740911550207,0.005188536520814604,-0.001727443317208895,0.08929140501283153,0.020824398573254944,-0.027070769025766966,0.17052322636246475,0.05848309772082434,-0.008381989664462698
55,7.269483600000967,0.043149070983764436,-0.07632431810682994,0.018757681132090042,0.023274765236858595,0.005290446486734678,-0.0018591225441460227,0.09011812179063079,0.021108917859866405,-0.027110896189418348,0.16963369882951915,0.058583994979006036,-0.008128662560938832
56,7.273747700004606,0.04326326488649762,-0.07629835400443657,0.018748324421897694,0.02371479739520261,0.005393740579516419,-0.001990993820841744,0.09094044849878875,0.02139390543402658,-0.027149789398123122,0.168716786826841,0.05867574599072046,-0.007874234387596567
57,7.278549299997394,0.04337960732433351,-0.0762718844640516,0.01873832627858219,0.024158815724714015,0.00549842096726889,-0.002123051136524829,0.09175825178961199,0.02167931665077481,-0.027187443214056514,0.16777239162664925,0.05875827430256599,-0.007618670056091875
58,7.282445200005895,0.0434981176190276,-0.07624490274244271,0.01872768581252233,0.02460679791420651,0.005604489600198288,-0.002255288453578774,0.09257139784107384,0.021965106499341514,-0.027223852030220073,0.16680041697107517,0.05883150547032729,-0.007361934938846603
59,7.286532800004352,0.04361881498230876,-0.07621740208743014,0.018716402163509595,0.025058721000900876,0.00571194820885488,-0.002387699706725584,0.09337975236973867,0.022251229611078765,-0.027259010072167335,0.16580076935928398,0.05889536687767521,-0.007103994744392245
60,7.290739700008999,0.04374171851270666,-0.07618937573895855,0.018704474500884572,0.025514561368214384,0.005820798302407065,-0.0025202788022141926,0.0941831806446393,0.022537640269298963,-0.02729291139954555,0.16477335821338834,0.05894978834036337,-0.006844815502246519
61,7.295221799999126,0.043866847192368594,-0.07616081693017726,0.01869190202367733,0.025974294743620844,0.005931041166983947,-0.0026530196170192347,0.09498154750181416,0.02282429242307893,-0.027325549907674326,0.16371809592393236,0.058994702196918,-0.006584363498745467
62,7.299339000004693,0.0439942198838661,-0.07613171888852821,0.01867868396075163,0.026437896196581323,0.006042677864083588,-0.002785915998044812,0.09577471735862682,0.023111139697980197,-0.02735691932846357,0.1626348977592846,0.05903004288568646,-0.006322605224189103
63,7.303911900002276,0.04412385532699166,-0.07610207483684167,0.018664819570953024,0.02690534013654341,0.0061557092290198,-0.002918961761332188,0.09656255422742237,0.023398135405741507,-0.02738701323147832,0.16152368185044144,0.05905574706563121,-0.006059507448324679
64,7.315626399999019,0.04425577213554588,-0.07607187799443933,0.018650308143260786,0.027376600311004678,0.006270135869424616,-0.003052150691273906,0.09734492172969926,0.023685232556173358,-0.02741582502559048,0.16038436950080476,0.059071754160159695,-0.005795037299666918
65,7.320403400008217,0.044389988794115355,-0.07604112157824455,0.01863514899694365,0.02785164980364973,0.006385958163810715,-0.0031854765398375406,0.09812168311277704,0.023972383872137185,-0.02744334796081473,0.1592168853898389,0.05907800691611988,-0.005529162322166495
66,7.323857600000338,0.04452652365484175,-0.07600979880389942,0.018619341481719273,0.028330461032575683,0.006503176260219506,-0.0033189330257976627,0.098892701265948,0.02425954180687402,-0.027469575130511154,0.1580211573317127,0.05907445123756856,-0.005261850588488097
67,7.328366300003836,0.0446653949341824,-0.07597790288688816,0.018602884977917452,0.028813005748586223,0.0066217900749520105,-0.0034525138339810035,0.09965783873479862,0.0245466585573677,-0.027494499474322354,0.15679711629042326,0.05906103565708773,-0.00499307072270716
68,7.33234550000634,0.04480662070966283,-0.07594542704366651,0.01858577889664692,0.029299255033556324,0.006741799291346853,-0.003586212614526973,0.10041695773750826,0.024833686076534075,-0.027518113780596706,0.155544696651333,0.05903771151703752,-0.004722791832272856
69,7.336567000005743,0.044950218916621425,-0.07591236449279702,0.018568022679965754,0.029789179298884732,0.006863203358629633,-0.003720022982156378,0.10116992018181024,0.025120576088346225,-0.02754041068866408,0.1542638361913175,0.059004433029965685,-0.004450983451391012
70,7.34086730000854,0.04509620734494693,-0.07587870845608963,0.018549615801055276,0.030282748284023574,0.006986001490837957,-0.0038539385154540656,0.10191658768100034,0.025407280100610923,-0.0275613826907087,0.1529544761013042,0.05896115696145402,-0.0041776155183859106
71,7.347619200008921,0.045244603635808844,-0.07584445215974737,0.018530557764397437,0.030779931055086463,0.007110192665795009,-0.003987952756155848,0.102656821571117,0.025693749417010726,-0.027581022133824816,0.15161656116731215,0.058907842660241426,-0.003902658462508539
72,7.354420200004824,0.045395425278381335,-0.07580958883551699,0.018510848105955654,0.03128069600354512,0.007235775624151647,-0.004122059208451129,0.10339048292870971,0.02597993515017328,-0.02759932122273342,0.15025003994457403,0.05884445225462769,-0.003626083192671204
73,7.357928900004481,0.045548689606561006,-0.0757741117218439,0.018490486393358964,0.0317850108450102,0.007362748868487024,-0.004256251338296236,0.10411743258971194,0.026265788235622683,-0.027616272021728415,0.14885486505223705,0.05877095060718148,-0.003347861123832766
74,7.361673699997482,0.04570441379567895,-0.07573801406503156,0.018469472226089544,0.032292842618111404,0.007491110662486307,-0.004390522572735968,0.10483753117007434,0.026551259444408507,-0.02763186645764983,0.1474309935729109,0.05868730489174066,-0.003067964388490954
75,7.365776400009054,0.04586261485920763,-0.07570128912040447,0.018447805235673458,0.03280415768347886,0.007620859030164067,-0.0045248662992458345,0.10555063908852173,0.026836299392945094,-0.027646096323885937,0.14597838743080652,0.05859348474450411,-0.0027863659915547466
76,7.369956399998045,0.04602330964546302,-0.07566393015347504,0.01842548508587457,0.03331892172284445,0.00775199175513765,-0.004659275865092502,0.10625661659086233,0.027120858557109363,-0.027658953284852034,0.14449701344494045,0.0584894624301495,-0.002503039851863373
77,7.378125100003672,0.04618651483430276,-0.07562593044111368,0.01840251147289151,0.03383709973825957,0.007884506379987614,-0.004793744576719575,0.1069553237732619,0.02740488728369498,-0.027670428880396156,0.14298684338137296,0.05837521228292416,-0.002217960832414951
78,7.3851585000084015,0.04635224693382068,-0.07558728327272186,0.01837888412555756,0.03435865605142263,0.008018400205642444,-0.004928265699150872,0.10764662060706083,0.027688335799076893,-0.02768051453057172,0.1414478544145802,0.05825071096352588,-0.0019311048234180582
79,7.390096200004336,0.04652052227703844,-0.07554798195140822,0.01835460280554341,0.03488355430313811,0.008153670290823227,-0.005062832455422602,0.10833036696653335,0.02797115422316269,-0.0276892015408506,0.1398800293309227,0.058115937972606446,-0.001642448530846527
80,7.395264200007659,0.046691357018594795,-0.07550801979516698,0.01832966730756258,0.03541175745291392,0.008290313451563983,-0.0051974380260373185,0.10900642265568257,0.028253292583049015,-0.02769648110484028,0.13828335616569498,0.057970875454348786,-0.0013519691327579166
81,7.40424570000323,0.046864767131433276,-0.07546739013805877,0.018304077459579477,0.035943227778680885,0.0084283262607891,-0.005332075548422507,0.1096746474324714,0.028534700825063444,-0.02770234430615592,0.13665782797014586,0.057815507909647776,-0.001059644173503813
82,7.408173899995745,0.047040768403488774,-0.07542608633139311,0.01827783312302007,0.03647792687662573,0.00856770504795073,-0.005466738116402742,0.11033490103335275,0.028815328825632685,-0.0277067821201091,0.1350034428411464,0.0576498221355787,-0.0007654513900519517
83,7.412391999998363,0.04721937643437359,-0.07538410174491275,0.018250934192985097,0.03701581566114898,0.00870844589871187,-0.005601418779674688,0.11098704319778882,0.029095126402736017,-0.02770978541389154,0.1333202038299177,0.05747380713465889,-0.0004693685760453247
84,7.416009200009283,0.04740060663206361,-0.07534142976797929,0.01822338059846583,0.03755685436493631,0.008850544654695099,-0.0057361105432810425,0.11163093369189404,0.029374043325891393,-0.027711344946942336,0.13160811904108055,0.05728745384304553,-0.00017137375170126067
85,7.419893199999933,0.04758447420958502,-0.0752980638107599,0.0181951723025624,0.038101002539146285,0.008993996913262742,-0.00587080636708911,0.1122664323339173,0.029652029324966644,-0.0277114513727833,0.12986720188913872,0.05709075511544616,0.0001285545906791852
86,7.424284299995634,0.04777099418170233,-0.07525399730541511,0.018166309302704638,0.03864821905372943,0.009138798027351262,-0.006005499165282584,0.11289339902037811,0.02992903410001889,-0.02771009524177283,0.1280974711815212,0.05688370554379213,0.00043043738474958564
87,7.428939200006425,0.04796018136160822,-0.07520922370728714,0.018136791630875324,0.03919846209787005,0.009284943105347067,-0.006140181805866891,0.11351169375235617,0.030205007328343032,-0.027707267003932466,0.12629895135280658,0.05666630132123461,0.0007342948881846906
88,7.432475099994917,0.0481520503576158,-0.07516373649608887,0.018106619353835847,0.03975168918056086,0.009432427010989427,-0.006274847110188454,0.1141211766639045,0.030479898672989045,-0.027702957012691654,0.1244716726987404,0.056438540529278575,0.0010401464560240066
89,7.437045099999523,0.04834661556985407,-0.07511752917709316,0.018075792573354135,0.04030785713132101,0.009581244363329081,-0.006409487852476437,0.11472170805061387,0.030753657792601752,-0.027697155529917673,0.12261567150494718,0.056200423167962206,0.0013480104122938648
90,7.440714600001229,0.04854389118696717,-0.0750705952823222,0.018044311426434756,0.04086692210104841,0.009731389536726809,-0.006544096759410904,0.11531314839927716,0.031026234350231496,-0.02768985273090841,0.12073099015985479,0.05595195120108298,0.00165790409912222
91,7.445779200003017,0.04874389118281811,-0.0750229283717368,0.01801217608555105,0.04142883956302612,0.009882856660897683,-0.006678666509713105,0.11589535841755162,0.031297578023613576,-0.027681038708944814,0.1188176769963202,0.05569312878286834,0.0019698438993711364
92,7.449428599997191,0.04894662931319782,-0.07497452203442538,0.017979386758879216,0.04199356431406301,0.010035639621009571,-0.006813189733757884,0.11646819906208364,0.03156763851618242,-0.027670703480063653,0.11687578629912435,0.0554239622127243,0.0022838452441993895
93,7.453247500001453,0.049152119112539944,-0.07492536988979229,0.017945943690534212,0.04256105047577358,0.010189732057834463,-0.006947659013210366,0.11703153156824378,0.03183636556691112,-0.02765883698753646,0.11490537844094321,0.05514445981424807,0.0025999227150426706
94,7.4586045000032755,0.049360373890642344,-0.07487546558874528,0.01791184716080737,0.043131251496007696,0.010345127367942622,-0.007082066880681905,0.11758521747957341,0.03210370896014948,-0.027645429105650925,0.11290651973888054,0.05485463208634095,0.0029180901304489567
95,7.462325700005749,0.049571406729395806,-0.07482480281488196,0.01787709748640564,0.04370412015041662,0.010501818703949548,-0.007216405819403527,0.11812911867612509,0.03236961853693254,-0.027630469643345677,0.11087928243134523,0.05455449182415564,0.0032383605876560462
96,7.467332400003215,0.04978523047952075,-0.07477337528567492,0.017841695020692386,0.04427960854415828,0.010659798974820063,-0.0073506682629172196,0.11866309740368436,0.03263404420599437,-0.027613948347587507,0.10882374470895421,0.054244054088739564,0.0035607465192400516
97,7.471863099999609,0.050001857757312515,-0.07472117675365514,0.01780564015392963,0.04485766811374737,0.010819060846222344,-0.0074848465947822,0.11918701630241056,0.032896935954781485,-0.027595854906455462,0.10673999063141298,0.05392333598049151,0.0038852596854785613
98,7.475885699997889,0.05022130094139606,-0.07466820100759372,0.017768933313521695,0.04543824962903902,0.010979596740939068,-0.007618933148296186,0.11970073843525064,0.033158243858264394,-0.027576178952592297,0.10462811025528404,0.05359235638237581,0.004211911064909551
99,7.48039680000511,0.05044357216949054,-0.07461444187368133,0.017731574964260165,0.04602130319535516,0.011141398839307105,-0.007752920206235219,0.120204127317822,0.033417918087454736,-0.02755491006735247,0.10248819983825776,0.053251136337570656,0.004540710699548944
100,7.484374699997716,0.05066868333518465,-0.07455989321670557,0.017693565608570057,0.04660677825575864,0.01130445907971146,-0.007886800000615257,0.12069704694881205,0.033675908921888,-0.027532037785758266,0.10032036200567951,0.05289969912504053,0.004871667524816298
101,7.4884147999982815,0.050896646084723336,-0.07450454894122571,0.0176549057867571,0.047194623593475114,0.011468769159146316,-0.008020564712480178,0.12117936184147991,0.03393216675887535,-0.027507551602301127,0.09812470575759623,0.0525380697760458,0.005204789222263218
102,7.493539000002784,0.05112747181380668,-0.07444840299274456,0.017615596077255963,0.04778478733447344,0.01163432053379891,-0.008154206471719766,0.12165093705412451,0.03418664212128622,-0.02748144097732942,0.09590134645356409,0.052166275436719305,0.005540082129037344
103,7.499046800003271,0.051361171664401684,-0.07439144935887751,0.017575637096879308,0.04837721695018371,0.011801104419686232,-0.008287717356919815,0.12211163822143854,0.034439285670324817,-0.027453695343729895,0.09365040619878871,0.05178434591195272,0.005877551124493291
104,7.504834499995923,0.051597756521567575,-0.07433368207051824,0.017535029501067476,0.04897185926038246,0.01196911179336311,-0.008421089395245064,0.12256133158873031,0.03469004821859995,-0.027424304114417725,0.09137201386586587,0.05139231349919272,0.006217199588700048
105,7.508617300001788,0.05183723701029565,-0.07427509520300088,0.01749377398413867,0.04956866043624338,0.012138333392685961,-0.008554314562362114,0.12299988404348908,0.034938880741285844,-0.027393256689421323,0.08906630471678259,0.050990212973303674,0.006559029598789184
106,7.5124666000047,0.05207962349236423,-0.07421568287725828,0.0174518712795394,0.050167566003529375,0.012308759717629368,-0.008687384782391238,0.12342716314593227,0.03518573438904479,-0.02736054246146365,0.0867334203741273,0.05057808182828111,0.0069030420610765985
107,7.515886900000623,0.05232492606320954,-0.07415543926097624,0.017409322160095126,0.05076852084594023,0.012480381031175457,-0.008820291927883552,0.12384303716029098,0.03543056050153773,-0.027326150821762638,0.08437350866903542,0.050155960398222614,0.0072492367716764745
108,7.520206000001053,0.052573154548813214,-0.07409435856974314,0.017366127438260933,0.0513714692086088,0.012653187360261817,-0.008953027819829214,0.12424737508387898,0.03567331062152287,-0.02729007116502326,0.08198672345967124,0.0497238921290412,0.0075976125712284
109,7.524044000005233,0.052824318502607125,-0.07403243506819492,0.017322287966372092,0.05197635470173127,0.012827168496807928,-0.009085584227683121,0.12464004667661369,0.035913936511007646,-0.02725229289373383,0.0795732247529747,0.04928192345769634,0.007948167284356222
110,7.528397400004906,0.05307842720239622,-0.07396966307115477,0.01727780463689448,0.05258312030435032,0.013002313998820101,-0.009217952869414878,0.1250209224912687,0.036152390164173355,-0.027212805423746593,0.07713317859825967,0.048830103540412124,0.008300897591393618
111,7.532396199996583,0.05333548964730013,-0.07390603694476737,0.017232678382674657,0.053191708368279474,0.013178613191543545,-0.009350125411588743,0.12538987390196038,0.03638862382088502,-0.027171598189821004,0.07466675710227635,0.04836848456966844,0.008655799100213465
112,7.537245200001053,0.05359551455471412,-0.07384155110762737,0.017186910177189516,0.05380206062216318,0.013356055168698642,-0.00948209346946748,0.12574677313454685,0.03662258998269759,-0.027128660650506068,0.07217413881491033,0.047897121668602154,0.009012866380076812
113,7.540996499999892,0.05385851035729018,-0.07377620003190159,0.017140501034795346,0.054414118175696705,0.013534628793788613,-0.009613848607139769,0.12609149329886402,0.03685424142533924,-0.027083982293354552,0.06965550872895848,0.04741607269471927,0.009372092874787886
114,7.544915200007381,0.05412448519993903,-0.07370997824444482,0.017093452010976236,0.05502782152399955,0.013714322701457143,-0.00974538233767475,0.12642390841912238,0.03708353121280943,-0.027037552640649564,0.06711105825730768,0.04692539851160541,0.009733470842374567
115,7.549156399996718,0.05439344693685368,-0.0736428803279088,0.017045764202591646,0.05564311055213086,0.013895125298933103,-0.0098766861233051,0.12674389346592121,0.03731041271250358,-0.02698936125520515,0.06454098555791184,0.046425162837855735,0.010096991347361979
116,7.55323540000245,0.054665403128555355,-0.073574900921844,0.01699743874812303,0.05625992453977405,0.0140770247675352,-0.010007751375637962,0.12705132438980457,0.03753483960784248,-0.02693939774616797,0.061945495654279585,0.0459154320962905,0.01046264417785368
117,7.557650000002468,0.05494036103896259,-0.07350603472379395,0.016948476827919348,0.05687820216607842,0.014260009064239474,-0.010138569455894428,0.1273460781544467,0.03775676591193121,-0.026887651775623987,0.05932480057960842,0.04539627536843526,0.010830417713311401
118,7.561559000008856,0.055218327632484215,-0.07343627649038179,0.016898879664441372,0.05749788151466639,0.014444065923316726,-0.010269131675184688,0.12762803277160925,0.03797614597974605,-0.026834113065685464,0.05667911948979471,0.04486776421306406,0.011200298909299225
119,7.56587550000404,0.05549930957113715,-0.07336562103838867,0.01684864852250452,0.05811890007881492,0.01462918285801849,-0.010399429294816409,0.12789706733542525,0.03819293452002939,-0.026778771405245955,0.05400867850453843,0.04432997286294203,0.0115722733355018
120,7.5704407000012,0.05578331321168972,-0.07329406324582395,0.016797784709520154,0.05874119476679606,0.014815347162330099,-0.01052945352663555,0.12815306205581165,0.038407086609389234,-0.02672161665669774,0.05131371076065467,0.04378297819448864,0.011946325171813134
121,7.574030600007973,0.05607034460283141,-0.07322159805298653,0.016746289575735117,0.059364701907383154,0.015002545912793706,-0.010659195533400044,0.1283958982932716,0.03861855770389918,-0.026662638762724827,0.04859445661552654,0.04322685936506611,0.012322437245985082
122,7.578289800003404,0.05636040948236968,-0.0731482204635173,0.016694164514469388,0.0599893572555297,0.015190765970374128,-0.010788646429186649,0.1286254585942848,0.038827303649671956,-0.026601827752654388,0.04585116348908642,0.04266169793402323,0.012700591132003254
123,7.582844100004877,0.05665351327445491,-0.07307392554544237,0.016641410962351666,0.06061509599821963,0.015379993982384656,-0.010917797279826369,0.1288416267245736,0.03903328069563609,-0.02653917374829344,0.04308408564422568,0.042087577847478734,0.013080767119886585
124,7.586576800007606,0.05694966108683414,-0.07299870843220681,0.016588030399552794,0.061241852760469534,0.015570216384477092,-0.01104663910336805,0.12904428770235865,0.03923644550396149,-0.026474666970573872,0.040293484519395,0.04150458531753455,0.013462944117334607
125,7.592321799995261,0.05724885770813432,-0.07292256432369851,0.016534024350016833,0.061869561611502207,0.015761419402668918,-0.011175162870578402,0.12923332783485833,0.03943675516166197,-0.026408297746345216,0.03747962902347657,0.04091280918483672,0.013847099593135343
126,7.59943889999704,0.057551107605176066,-0.07284548848726219,0.01647939438168963,0.06249815607110372,0.01595358905544612,-0.011303359505471617,0.12940863475441092,0.03963416719454533,-0.026340056515569827,0.03464279555769178,0.04031234091837262,0.014233209418674024
127,7.604136000009021,0.057856414920318726,-0.07276747625870288,0.016424142106744737,0.06312756911614811,0.01614671115592597,-0.011431219885879343,0.12957009745518697,0.039828639578813885,-0.02626993383965638,0.03178326838622645,0.03970327455540779,0.014621247705441005
128,7.610478700007661,0.05816478346883756,-0.07268852304327884,0.016368269181806446,0.06375773318731134,0.016340771314072623,-0.011558734844061322,0.12971760633291438,0.04002013075443071,-0.026197920410234672,0.02890133996849999,0.03908570695814752,0.01501118662365209
129,7.615471299999626,0.05847621673633406,-0.07260862431668356,0.016311777308169767,0.06438858019598216,0.016535754938989823,-0.011685895167360651,0.12985105322482085,0.04020859963921522,-0.026124007059252333,0.02599731111798929,0.0384597380551248,0.015402996304205595
130,7.619980200004647,0.058790717876180336,-0.07252777562601637,0.01625466823201709,0.06502004153136434,0.01673164724127354,-0.011812691598912581,0.12997033145090292,0.040394005644555954,-0.026048184768702735,0.02307149132639489,0.037825471219270525,0.015796644929344707
131,7.626790900001652,0.05910828970699846,-0.07244597259074151,0.01619694374463128,0.06565204806778875,0.016928433235457428,-0.011939114838394344,0.1300753358570197,0.04057630869318148,-0.02597044467984036,0.0201241988624009,0.03718301308657228,0.016192098683444532
132,7.632410599995637,0.05942893471017593,-0.07236321090363507,0.016138605682605042,0.0662845301722345,0.01712609774253819,-0.012065155542823534,0.13016596285712193,0.04075546923311035,-0.025890778103387104,0.01715576065118162,0.0365324733897243,0.01658932174170496
133,7.636687000005622,0.05975265502741814,-0.07227948633171946,0.016079655928046267,0.06691741771205152,0.01732462539255667,-0.012190804327407153,0.13024211047517445,0.04093144825380484,-0.025809176528857575,0.014166512197023872,0.035873965547409355,0.016988276470364026
134,7.6406968000083,0.060079452458338914,-0.07219479471718525,0.01602009640877913,0.06755064006288927,0.017524000627280253,-0.012316051766430646,0.13030367838663304,0.04110420730584944,-0.02572563163281908,0.011156797381684251,0.035207606664263064,0.017388923600405063
135,7.644786899996689,0.060409328458090064,-0.07210913197829957,0.015959929098540795,0.06818412611682251,0.017724207702975236,-0.012440888394187244,0.1303505679584066,0.04127370851710427,-0.025640135286528278,0.008126968154236107,0.03453351692661311,0.017791222337074163
136,7.648956799996085,0.06074228413503089,-0.07202249411030101,0.01589915601717349,0.06881780429066846,0.017925230693246273,-0.012565304705941234,0.13038268228731903,0.04143991460650941,-0.025552679563126526,0.005077384310068822,0.03385181963272964,0.01819513035229723
137,7.653418400004739,0.06107832024843861,-0.07193487718628042,0.015837779230811835,0.06945160253448651,0.018127053491942942,-0.01268929115892725,0.13039992623792296,0.04160278890053241,-0.02546325674535025,0.0020084134250906863,0.03316264152504437,0.01860060377713487
138,7.657440700000734,0.06141743720626048,-0.07184627735804751,0.01577580085206521,0.07008544834026298,0.018329659816159072,-0.0128128381733885,0.130402206480322,0.04176229535020214,-0.02537185933279964,-0.0010795692050688613,0.0324661124126651,0.019007597254705265
139,7.661596200006898,0.06175963506290866,-0.07175669085698257,0.015713223040194988,0.07071926875077846,0.018533033209304904,-0.012935936133646716,0.1303894315273935,0.04191839854388674,-0.025278480049134536,-0.004186180550660662,0.03176236492969436,0.019416063917459224
140,7.665705100007472,0.06210491351709852,-0.07166611399487315,0.015650048001286502,0.07135299036865443,0.018737157044230634,-0.01305857538921033,0.13036151177275068,0.04207106372197801,-0.025183111849564052,-0.007311029674093706,0.03105153497303298,0.019825955338149296
141,7.669840400005341,0.06245327190973147,-0.07157454316473541,0.015586277988415505,0.0719865393655897,0.01894201452644132,-0.013180746255917239,0.1303183595296543,0.04222025679392533,-0.025085747928519097,-0.010453717563119622,0.03033376168743556,0.02023722143158514
142,7.674442200004705,0.06280470922182303,-0.0714819748416196,0.015521915301809026,0.07261984149178523,0.019147588697386028,-0.013302439017117562,0.1302598890705963,0.04236594435277482,-0.024986381728097043,-0.01361383697207729,0.0296091872994972,0.020649810379115327
143,7.678839200001676,0.0631592240724773,-0.07138840558339937,0.015456962289000339,0.07325282208556537,0.01935386243781406,-0.013423643924898497,0.13018601666775484,0.042508093690589326,-0.024885006946468387,-0.01679097224140112,0.028877957329008795,0.021063668613501754
144,7.682383799998206,0.06351681471690857,-0.07129383203154467,0.015391421344977903,0.073885406083196,0.019560818471214006,-0.013544351201348805,0.1300966606343326,0.04264667281504228,-0.024781617546468456,-0.019984699222159213,0.02814022057372119,0.021478740758563746
145,7.689272400006303,0.06387747904451117,-0.07119825091187762,0.015325294912328043,0.07451751802890762,0.0197684393673313,-0.013664551039867186,0.1299917413657452,0.04278165046468956,-0.024676207764590796,-0.02319458530555856,0.02739612900375783,0.02189496952149788
146,7.6943705000012415,0.06424121457697862,-0.07110165903531118,0.015258585481371174,0.07514908208511382,0.01997670754575571,-0.01378423360651419,0.1298711813806729,0.0429129961245369,-0.024568772120625658,-0.02642018924907731,0.026645838063801924,0.022312295551183577
147,7.698802800005069,0.06460801846647275,-0.07100405329857021,0.015191295590291334,0.07578002204283353,0.020185605279590242,-0.013903389041414287,0.12973490536393914,0.04304068004424936,-0.024459305428030834,-0.02966106090566437,0.025889506869326506,0.022730657275987276
148,7.702971100006835,0.06497788749384414,-0.07090543068489441,0.015123427825258782,0.0764102613323263,0.020395114699215643,-0.014022007460208603,0.12958284021019462,0.04316467325562636,-0.024347802805146875,-0.03291674113181186,0.025127297813799528,0.02314999075813753
149,7.707781600009184,0.06535081806690471,-0.07080578826472282,0.015054984820545406,0.07703972303393915,0.02060521779612918,-0.014140078955566012,0.12941491506768965,0.043284947586992716,-0.024234259686983575,-0.036186761916791016,0.02435937638758186,0.023570229716469576
150,7.711806000006618,0.06572680621875353,-0.07070512319635945,0.014985969258632636,0.07766832988916746,0.02081589642684905,-0.014257593598750444,0.1292310613807019,0.043401475678913094,-0.024118671836214092,-0.03947064651906598,0.02358591149516327,0.02399130567762953
151,7.717141100001754,0.06610584760615697,-0.07060343272661979,0.014916383870311611,0.0782960043119142,0.02102713231690592,-0.014374541441238863,0.12903121293198253,0.04351423100166701,-0.02400103535349154,-0.042767909268345644,0.022807075454977548,0.024413148062714198
152,7.721081800002139,0.06648793750798397,-0.07050071419145765,0.014846231434775363,0.07892266839996351,0.02123890706491721,-0.014490912516388859,0.1288153058871083,0.04362318787096146,-0.02388134668760086,-0.046078055536066975,0.022023043757723307,0.024835684191129095
153,7.732794399998966,0.06687307082369771,-0.07039696501657208,0.014775514779702778,0.07954824394667101,0.021451202146731376,-0.014606696841155316,0.12858327883721465,0.04372832146305654,-0.023759602645737923,-0.049400582098705466,0.021233995202493677,0.0252588393392352
154,7.737244899995858,0.06726124207190454,-0.07029218271799394,0.014704236781334088,0.08017265245285284,0.02166399891964925,-0.014721884417857932,0.128335072839816,0.04382960783180138,-0.023635800403091278,-0.05273497725848263,0.02044011218372475,0.02568253686482495
155,7.74188280000817,0.06765244538896117,-0.0701863649026517,0.014632400364537652,0.08079581513887281,0.02187727862673391,-0.014836465235991025,0.12807063146036532,0.04392702392654925,-0.02350993751191119,-0.05608072057037575,0.01964158069108852,0.026106698210886764
156,7.748980500007747,0.0680466745276412,-0.0700795092689162,0.01456000850286785,0.08141765295693541,0.02209102240120619,-0.014950429274079224,0.12778990081572833,0.04402054760919251,-0.0233820119110548,-0.059437282631227245,0.018838590143512496,0.02653124287184458
157,7.753371700004209,0.06844392285586173,-0.06997161360712371,0.014487064218613831,0.08203808660359563,0.022305211270920153,-0.015063766501580061,0.12749282961779318,0.04411015767046412,-0.023252021935383355,-0.06280412517066152,0.0180313332379177,0.026956088415993344
158,7.757431500009261,0.06884418335547153,-0.06986267580007711,0.014413570582838906,0.08265703653247583,0.02251982616291705,-0.015176466880831014,0.1271793692160607,0.044195833845502165,-0.023119966325089274,-0.06618070106576618,0.017220005798150754,0.027381150483568897
159,7.761609100009082,0.0692474486211013,-0.06975269382352477,0.01433953071541037,0.08327442296718966,0.02273484790805213,-0.01528852036904277,0.12684947364111154,0.04427755682868282,-0.022985844235112126,-0.06956645400918839,0.0164048068960969,0.02780634270957628
160,7.766023899996071,0.0696537108590774,-0.06964166574661669,0.01426494778501952,0.08389016591448148,0.02295025724569277,-0.015399916920337804,0.12650309965042278,0.044355308290362216,-0.022849655245215907,-0.0729608182671402,0.015585939002641479,0.028231576559318645
161,7.771547700001975,0.07006296188639993,-0.06952958973233775,0.014189825009191658,0.08450418517759561,0.023166034828508042,-0.015510646487841605,0.12614020677418758,0.04442907089317694,-0.022711399371003877,-0.076363218876039,0.014763607745774496,0.0286567612623478
162,7.778155899999547,0.07047519312978638,-0.06941646403791728,0.01411416565428578,0.08511640036986125,0.023382161227325313,-0.015620699025828329,0.1257607573592203,0.0444988283064344,-0.022571077074637912,-0.07977307191401889,0.0139380220465711,0.029081803906946417
163,7.782334400006221,0.07089039562478176,-0.06930228701521506,0.014037973035483719,0.08572673092848848,0.023598616936059687,-0.015730064491916235,0.1253647166121366,0.0445645652237352,-0.022428689274934865,-0.08318978460638307,0.013109394572559403,0.02950660956460296
164,7.786796000000322,0.07130856001493639,-0.06918705711108301,0.013961250516768496,0.08633509612857297,0.02381538237674193,-0.015838732849311483,0.12495205264223355,0.04462626738177077,-0.022284237356875864,-0.08661275534175268,0.012277941813352192,0.029931081467537958
165,7.790810899998178,0.07172967655105217,-0.06907077286770233,0.013884001510891645,0.08694141509730885,0.024032437904630635,-0.015946694069096014,0.12452273650451268,0.04468392157868103,-0.022137723179976913,-0.09004137389836372,0.01144388405014029,0.030355121265806053
166,7.7968489000049885,0.07215373509049851,-0.06895343292289544,0.013806229479329328,0.08754560682841159,0.024249763813418618,-0.01605393813255272,0.12407674224036017,0.04473751569255541,-0.021989149085298847,-0.09347502194205257,0.0106074452500274,0.030778629281898725
167,7.801992200009408,0.07258072509659884,-0.0688350360104125,0.013727937932227053,0.08814759019672638,0.024467340340524932,-0.016160455033521464,0.123614046915729,0.04478703869876331,-0.021838517901342884,-0.09691307290538412,0.009768853081230973,0.031201504727867323
168,7.808523400002741,0.07301063563808854,-0.06871558096019202,0.013649130428332889,0.0887472839730222,0.024685147672469727,-0.016266234780781572,0.12313463066299409,0.04483248068860296,-0.021685832948949886,-0.10035489180688749,0.008928339109355104,0.03162364591143021
169,7.814028900000267,0.07344345538864527,-0.068595066698595,0.01356981057491902,0.08934460683900704,0.024903165950347562,-0.016371267400455476,0.12263847672089168,0.044873832888539814,-0.021531098045192303,-0.10379983605154114,0.008086138767350691,0.03204495037542477
170,7.822634700001799,0.07387917262649285,-0.06847349224861235,0.013489982027691595,0.08993947740251022,0.025121375275389286,-0.01647554293842903,0.12212557146859282,0.04491108767856341,-0.021374317506917793,-0.10724725577807868,0.007242491294871145,0.03246531491308252
171,7.828653300006408,0.07431777523407918,-0.06835085673004505,0.013409648490688755,0.09053181421282892,0.025339755714613794,-0.01657905146278962,0.12159590446226654,0.044944238610836254,-0.02121549615449267,-0.11069649363269042,0.006397639798776782,0.03288463551325253
172,7.833399199997075,0.07475925069782932,-0.06822715935965656,0.013328813716166779,0.09112153577626587,0.0255582873065712,-0.016681783066282853,0.12104946847135317,0.04497328042863883,-0.021054639315878018,-0.11414688488944255,0.005551831389260218,0.033302807269682676
173,7.843176099995617,0.07520358610797448,-0.06810239945129715,0.013247481504474232,0.09170856057182851,0.025776950067178773,-0.0167837278687903,0.12048625951395696,0.04499820908634179,-0.020891752831255044,-0.11759775743544311,0.004705317089023773,0.03371972426214439
174,7.847567400007392,0.07565076815845767,-0.06797657641599957,0.013165655703914021,0.09229280706711075,0.02599572399565824,-0.01688487601983115,0.11990627689326357,0.04501902176746807,-0.02072684305825679,-0.12104843171019848,0.003858351470665032,0.03413527951292538
175,7.85158109999611,0.07610078314691708,-0.0678496897620457,0.013083340210593227,0.09287419373434616,0.02621458908054733,-0.016985217701090814,0.11930952323352219,0.045035716901140006,-0.020559916877016433,-0.12449822075098185,0.0030111924906579225,0.03454936515868632
176,7.859603200005949,0.07655361697474783,-0.06772173909500377,0.01300053896826058,0.09345263906663952,0.02643352530579695,-0.01708474312897165,0.11869600451602207,0.04504829417852758,-0.020390981693728348,-0.1279464304051842,0.002164101217418833,0.03496187282071029
177,7.863803700005519,0.07700925514724309,-0.06759272411773573,0.01291725596813149,0.0940280615943697,0.026652512656942625,-0.017183442557156172,0.11806573011301026,0.045056754566651994,-0.020220045442097132,-0.13139236002390225,0.0013173414234264825,0.03537269406535569
178,7.87001159999636,0.07746768277381533,-0.06746264463037446,0.01283349524870061,0.094600379901751,0.02687153112733588,-0.01728130627917189,0.11741871281692567,0.045061100320868824,-0.020047116582422517,-0.1348353033835768,0.0004711792528236257,0.03578172087064628
179,7.8746094000089215,0.0779288845682984,-0.06733150053027058,0.012749260895541934,0.0951695126435202,0.027090560724437,-0.017378324630945605,0.11675496886535738,0.04506133499544031,-0.01987220409851257,-0.13827454897426492,-0.0003741171109505536,0.03618884594552503
180,7.878419700005907,0.07839284484933101,-0.0671992918119085,0.012664557041096522,0.09573537856174044,0.027309581476149213,-0.01747448799333824,0.11607451796747631,0.04505746345278745,-0.019695317493665085,-0.14170937963573885,-0.0012182775657958943,0.03659396272390647
181,7.883520999996108,0.0788595475408222,-0.0670660185667916,0.012579387864447964,0.09629789650274535,0.027528573437201387,-0.01756978679466007,0.11537738333253111,0.045049491872889626,-0.019516466787638593,-0.14513907233119308,-0.0020610300458668747,0.03699696511749025
182,7.887233600005857,0.07932897617249945,-0.06693168098329634,0.012493757591085652,0.0968569854342199,0.027747516695573574,-0.017664211513176122,0.1146635916984797,0.04503742776297493,-0.019335662515036704,-0.1485628978610233,-0.002902100506450977,0.03739774732312432
183,7.890885400003754,0.0798011138805403,-0.06679627934649487,0.012407670492655887,0.09741256446242279,0.027966391378973925,-0.017757752679605686,0.11393317336326753,0.0450212799670668,-0.019152915724151787,-0.15198012049936332,-0.003741213331627543,0.03779620377930259
184,7.895087099997909,0.08027594340828782,-0.0666598140379462,0.012321130886700855,0.09796455284957144,0.028185177661357034,-0.017850400879616465,0.1131861622169924,0.045001058671711426,-0.018968237975772195,-0.15538999811510515,-0.004578091606459336,0.03819222917376473
185,7.899073900000076,0.08075344710705122,-0.06652228553545549,0.012234143136385482,0.09851287003137704,0.028403855769456525,-0.017942146756312515,0.11242259577200635,0.04497677541287834,-0.018781641341952073,-0.15879178247469863,-0.005412456890211564,0.03858571849650714
186,7.90335039999627,0.08123360693699185,-0.06638369441280165,0.012146711650212232,0.09905743563472219,0.028622405989370485,-0.018032981012716418,0.1116425151921368,0.04494844308389242,-0.018593138404303253,-0.16218471976934654,-0.006244029805530307,0.03897656728311957
187,7.912827499996638,0.08171640446809557,-0.06624404133943268,0.01205884088172383,0.09959816949547996,0.028840808673171157,-0.01812289441424062,0.11084596531766353,0.04491607593660694,-0.018402742250399534,-0.16556805155310686,-0.007072530793809745,0.039364672158724655
188,7.917035200007376,0.08220182088123205,-0.06610332708012898,0.011970535329194032,0.10013499167643437,0.029059044245501774,-0.01821187779113466,0.11003299468542031,0.04487968958199251,-0.018210466466780834,-0.1689410159367933,-0.007897680251062019,0.03974993156137089
189,7.924209999997402,0.08268983696930134,-0.06596155249463453,0.011881799535306561,0.10066782248529488,0.029277093210191982,-0.01829992204088848,0.10920365554216575,0.04483930098998931,-0.018016325128325218,-0.1723028489749956,-0.008719199087029419,0.040132246430953575
190,7.928456900001038,0.08318043313846821,-0.06581871853725596,0.011792638086822514,0.1011965824927468,0.029494936156853235,-0.018387018130576353,0.10835800385120145,0.04479492848466078,-0.01782033278455591,-0.17565278543911084,-0.009536809087611085,0.040511520732412626
191,7.932776900008321,0.08367358940948427,-0.06567482625642956,0.011703055614236511,0.10172119255053015,0.0297125537674471,-0.018473157099127085,0.10749609929822797,0.044746591740522625,-0.017622504443927215,-0.1789900587262926,-0.010350232854392192,0.040887661593625696
192,7.936902400004328,0.08416928541909809,-0.06552987679425651,0.011613056791422034,0.10224157380954703,0.029929926822844982,-0.018558330059515165,0.10661800529884818,0.04469431177828436,-0.017422855558791035,-0.18231390037484044,-0.011159193880170015,0.041260578971208994
193,7.9406908999953885,0.08466750042155323,-0.06538387138600614,0.011522646335266276,0.10275764773801335,0.030147036209355015,-0.018642528200884835,0.10572378900913423,0.04463811096044412,-0.017221402012931614,-0.18562353988430502,-0.011963416322578399,0.04163018513492093
194,7.944945499999449,0.0851682132901749,-0.06523681135958768,0.011431829005294828,0.10326933613966896,0.030363862925238964,-0.018725742790620063,0.10481352133487966,0.04457801298923084,-0.017018160111544275,-0.1889182047746726,-0.012762624973686739,0.041996394286103696
195,7.948985900002299,0.08567140251904504,-0.06508869813499023,0.01134060960328641,0.10377656117201933,0.030580388087219128,-0.01880796517637119,0.103887276941591,0.0445140429024946,-0.01681314657247936,-0.19219712069282538,-0.01355654581881379,0.042359122471039186
196,7.9575790999952,0.0861770462247662,-0.06493953322369116,0.011248992972877854,0.1042792453646428,0.030796592936955275,-0.018889186788039792,0.10294513426270503,0.04444622706621644,-0.016606378517063262,-0.1954595123045302,-0.014344906958315678,0.04271828778298003
197,7.961496200005058,0.08668512214831468,-0.06478931822803317,0.011156983999159539,0.10477731163751212,0.031012458847478736,-0.018969399139716084,0.10198717550090915,0.04437459316143786,-0.016397873459378376,-0.19870460407862503,-0.01512743966492185,0.04307381056234871
198,7.965979100001277,0.08719560765698253,-0.0646380548405702,0.01106458760826154,0.10527068331931459,0.03122796732954228,-0.019048593831559574,0.10101348662873535,0.04429917016649205,-0.016187649295137954,-0.20193162064959708,-0.015903879018063553,0.04342561322840629
199,7.971694799998659,0.0877084797464087,-0.06448574484338264,0.010971808766930788,0.10575928416577934,0.03144310003788148,-0.01912676255162833,0.10002415738635598,0.044219988337766906,-0.015975724292602442,-0.20513978701539087,-0.01667396422114551,0.043773619790307916
200,7.978258300005109,0.08822371504269927,-0.06433239010736244,0.010878652482099424,0.10624303837797601,0.03165783877737756,-0.019203897077671308,0.09901928128025471,0.04413707918885206,-0.01576211708620746,-0.2083283281583847,-0.01743743914574702,0.04411775534501637
201,7.98331579999649,0.08874128980463646,-0.06417799259146845,0.010785123800444541,0.10672187062062917,0.03187216550911607,-0.019279989278895696,0.09799895558470688,0.04405047546601158,-0.015546846672361024,-0.21149646936288843,-0.01819405316195923,0.04445794573344764
202,7.9870185000036145,0.08926117992597689,-0.06402255434195253,0.010691227807939366,0.10719570604043135,0.0320860623563113,-0.019355031117718375,0.09696328133736405,0.043960211119259116,-0.015329932406414204,-0.2146434369562971,-0.018943561546189605,0.044794117459371716
203,7.991152400005376,0.08978336093783866,-0.06386607749155739,0.01059696962939596,0.10766447028431458,0.032299511610083737,-0.01942901465150381,0.09591236333352939,0.043866321273866256,-0.015111393999246728,-0.21776845823215144,-0.01968572539133221,0.04512619780256095
204,7.995189799999935,0.09030780801117719,-0.06370856425868648,0.010502354427999516,0.10812808951770772,0.03251249573510754,-0.019501932034282334,0.09484631012249017,0.043768842202310934,-0.014891251513137704,-0.22087076140533912,-0.02042031199885881,0.04545411496612175
205,8.005074600005173,0.09083449595934977,-0.06355001694654697,0.010407387404834354,0.10858649044277235,0.03272499737511529,-0.01957377551844788,0.0937652340022287,0.04366781129197419,-0.01466952535691898,-0.22394957651920286,-0.021147095996472912,0.0457777983107222
206,8.009973499996704,0.09136339924076871,-0.06339043794226609,0.01031207379840171,0.10903960031660874,0.03293699935823144,-0.019644537456429162,0.09266925100693663,0.043563267006223615,-0.014446236279568892,-0.22700413674386544,-0.0218658606530988,0.046097178551006625
207,8.014351200006786,0.09189449196164287,-0.06322982971598227,0.010216418884129493,0.1094873469693703,0.03314848470209874,-0.01971421030232513,0.09155848088910451,0.04345524883932686,-0.01422140536345624,-0.23003367878417752,-0.022576399056783727,0.04641218764035442
208,8.020504600004642,0.09242774787880689,-0.0630681948199117,0.010120427973874168,0.10992965882229548,0.0333594366187734,-0.019782786613510465,0.09043304710307049,0.04334379726608445,-0.013995054019054319,-0.23303744307665233,-0.023278514975543965,0.046722758410137184
209,8.024343500001123,0.09296314040263802,-0.06290553588739178,0.010024106415414909,0.11036646490566228,0.0335698385193619,-0.019850259052219658,0.08929307678519537,0.04322895368837482,-0.013767203981691746,-0.23601467416628233,-0.023972023167514286,0.04702882407306454
210,8.028407000005245,0.09350064260005987,-0.0627418556319027,0.009927459591940083,0.1107976948766274,0.033779674018396474,-0.019916620387120915,0.08813870073374816,0.04311076038177213,-0.013537877311094569,-0.23896462004247493,-0.024656749191807263,0.047330317581440996
211,8.035174699994968,0.09404022719763269,-0.0625771568460683,0.009830492921526103,0.11122327903698527,0.03398892693795301,-0.019981863494895783,0.0869700533955367,0.04298926044392996,-0.013307096394375611,-0.24188653117233722,-0.025332528940197267,0.047627170949149096
212,8.04020540000056,0.09458186658472975,-0.062411442400637625,0.009733211856608557,0.1116431483508772,0.03419758131152475,-0.02004598136184212,0.08578727285519082,0.04286449774575169,-0.013074883952167715,-0.24477966045483632,-0.025999208486379516,0.047919314777279565
213,8.043824200009112,0.09512553281679975,-0.062244715243448184,0.009635621883445472,0.11205723446244623,0.034405621387665494,-0.020108967085513338,0.08459050082223854,0.042736516881239646,-0.012841263046224533,-0.24764326329659103,-0.02665664440295051,0.04820667805643319
214,8.048997999998392,0.09567119761871486,-0.062076978398372014,0.009537728521572515,0.11246546971342063,0.034613031633375806,-0.020170813876395265,0.0833798826196525,0.04260536311558401,-0.012606257087475635,-0.2504765974609068,-0.0273047039122218,0.04848918814968514
215,8.05330280000635,0.09621883238820403,-0.06190823496424604,0.009439537323249954,0.11286778716065744,0.03481979673724155,-0.020231515059623693,0.08215556717239372,0.042471082333545844,-0.012369889843792907,-0.2532789233395867,-0.027943265060390386,0.04876677095257986
216,8.057683100007125,0.0967684081993716,-0.06173848811378765,0.009341053872901161,0.11326412059361461,0.03502590161231833,-0.02029106407673674,0.08091770699331567,0.04233372098585292,-0.012132185446490315,-0.2560495043606124,-0.028572216974308135,0.049039351067225456
217,8.06151939999836,0.09731989580630047,-0.061567741092497005,0.009242283786542538,0.11365440455175746,0.035231331398748934,-0.02034945448745558,0.0796664581677449,0.04219332603508659,-0.011893168396397898,-0.2587876070039878,-0.029191459657284393,0.049306851730702345
218,8.065647099996568,0.09787326564673988,-0.06139599721754718,0.009143232711204709,0.11403857434188094,0.0354360714661217,-0.02040667997149585,0.07840198033923106,0.04204994490406267,-0.011652863571057484,-0.26149250019656617,-0.029800903415261194,0.0495691945559794
219,8.069972600002075,0.098428487845877,-0.06122325987666353,0.009043906324344838,0.11441656605537762,0.03564010741558621,-0.020462734330418342,0.07712443670001058,0.041903625427296594,-0.01141129623331529,-0.2641634551762164,-0.03040046839598918,0.049826299343209715
220,8.074302199995145,0.09898553222019257,-0.06104953252699325,0.008944310333249831,0.11478831658546716,0.035843425081739794,-0.02051761148952393,0.07583399397807716,0.041754415803864034,-0.011168492040352074,-0.2667997461423722,-0.03099008462655297,0.05007808401012183
221,8.078420999998343,0.0995443682814,-0.060874818693966444,0.00884445047443023,0.11515376364433867,0.03604601053428499,-0.020571305499792046,0.0745308224213213,0.04160236454850128,-0.010924477052952412,-0.2694006513119024,-0.03156969286723708,0.05032446457094688
222,8.086802300007548,0.10010496524046761,-0.06069912197014955,0.008744332513004572,0.115512845780226,0.036247850079440695,-0.02062381053986572,0.07321509577433642,0.041447520436165265,-0.0106792777447397,-0.2719654548691593,-0.03213924603173756,0.05056535525533238
223,8.091069500005688,0.10066729201172377,-0.060522446014092686,0.008643962242073987,0.11586550239432455,0.036448930261060664,-0.020675120918079833,0.07188699124360169,0.041289932439327756,-0.010432921010289453,-0.27449344885435145,-0.03269871038738366,0.050800668769260926
224,8.095087000008789,0.10123131721704358,-0.06034479454917221,0.008543345482086842,0.11621167375752821,0.0366492378614351,-0.02072523107452502,0.07054668945593083,0.041129649660867795,-0.010185434171827863,-0.2769839339778369,-0.03324806590302749,0.051030316479864245
225,8.0993662999972,0.10179700919011668,-0.06016617136243026,0.008442488080193268,0.11655130102694215,0.03684875990175676,-0.02077413558314104,0.06919437441573899,0.040966721267983994,-0.009936844985548478,-0.27943621885091297,-0.03378730525221748,0.05125420837948104
226,8.103686900009052,0.1023643359807945,-0.059986580303412806,0.00834139590958946,0.11688432626220438,0.03704748364228014,-0.02082182915384211,0.06783023347096927,0.04080119643477731,-0.009687181648660165,-0.2818496184899789,-0.03431643218878716,0.05147225291600631
227,8.107324199998402,0.1029332653595167,-0.05980602528300764,0.008240074868851546,0.11721069244166732,0.03724539658222937,-0.020868306634678754,0.0664544572849009,0.04063312429195458,-0.009436472807352997,-0.2842234533950406,-0.03483546060311316,0.051684356777421794
228,8.111614499997813,0.10350376482181575,-0.05962451027228329,0.00813853088125886,0.11753034347844525,0.037442486459468474,-0.020913563014040588,0.06506723981103384,0.0404625538785856,-0.009184747565940836,-0.28655704988248043,-0.03534441437849431,0.05189042467820048
229,8.115814200005843,0.10407580159289935,-0.059442039301330254,0.00803676989410641,0.1178432242363518,0.03763874124994031,-0.020957593422907064,0.06366877826166197,0.04028953409320283,-0.00893203549690363,-0.2888497410660223,-0.0358433276022499,0.052090359268110516
230,8.12015450000763,0.10464934263230995,-0.05925861645810536,0.007934797878006262,0.11814928054564182,0.03783414916686141,-0.02100039313714785,0.062259273073221565,0.040114113643506345,-0.008678366650916532,-0.29110086660032813,-0.03633224455110987,0.052284061170947735
231,8.124348099998315,0.1052243546386602,-0.059074245887280795,0.007832620826177649,0.11844845921861206,0.03802869865967204,-0.021041957579871092,0.060838927877357084,0.03993634099760556,-0.008423771566515663,-0.2933097726062594,-0.036811219555373496,0.052471429072023644
232,8.128195600002073,0.10580080405444414,-0.05888893178909872,0.0077302447537255315,0.11874070806506179,0.038222378412757024,-0.02108228232381774,0.05940794946699612,0.03975626433504473,-0.008168281279276745,-0.2954758125461087,-0.03728031695309404,0.05265235981449935
233,8.132544599997345,0.10637865707092294,-0.058702678418232714,0.007627675696907421,0.1190259759075636,0.038415177343919714,-0.021121363093799046,0.057966547758906896,0.039573931498490034,-0.007911927330544391,-0.29759834782760153,-0.037739610863706134,0.05282674853650893
234,8.136640600001556,0.1069578796330845,-0.058515490082657204,0.007524919712388252,0.1193042125965601,0.03860708460263317,-0.02115919576917575,0.05651493575390164,0.03938938994695572,-0.007654741775277726,-0.29967674925494564,-0.03818918546741012,0.052994488941184296
235,8.144822700007353,0.10753843744467599,-0.05832737114252593,0.0074219828764831046,0.11957536902524786,0.03879808956805942,-0.02119577638637184,0.05505332948528809,0.039202686704775225,-0.007396757188154708,-0.301710400216257,-0.03862913591154654,0.05315547368159118
236,8.149064400000498,0.10812029597330818,-0.058138326009060645,0.007318871284387636,0.11983939714417295,0.038988181846804575,-0.021231101141413092,0.05358194794808728,0.039013868306016254,-0.0071380066676757165,-0.3036986996743491,-0.03905956883992115,0.05330959478212113
237,8.155572800009395,0.10870342045562977,-0.05794835914345137,0.007215591049396129,0.12009624997542682,0.03917735127039774,-0.021265166392480706,0.05210101301841097,0.03882298073830625,-0.006878523838171432,-0.30564106257453977,-0.039480602150207045,0.05345674402166563
238,8.159853600009228,0.10928777590256976,-0.05775747505576961,0.0071121483021070984,0.1203458816264581,0.039365587892500054,-0.021297968662469375,0.05061074937871504,0.038630069389605795,-0.00661834285018151,-0.3075369191942457,-0.03989236432943932,0.05359681325166105
239,8.16585180000402,0.1098733271046461,-0.05756567830389576,0.00700854918961647,0.1205882473035418,0.039552881985866165,-0.0213295046415446,0.049111384443499696,0.038435178998493885,-0.006357498379370688,-0.30938571592996367,-0.04029499384288903,0.05372969476556902
240,8.171429000009084,0.11046003863733894,-0.05737297349246185,0.00690479987469833,0.12082330332486889,0.03973922403906999,-0.021359771189690225,0.04760314827691241,0.03823835360688221,-0.006096025623315659,-0.31118691679325167,-0.0406886387103205,0.053855281714210425
241,8.175724300002912,0.11104787486652652,-0.05717936527181077,0.006800906534973335,0.1210510071332145,0.03992460475300649,-0.02138876533923451,0.046086273503905394,0.038039636514419696,-0.005833960296383634,-0.3129400036652219,-0.04107345569823269,0.05397346845865139
242,8.180087600005209,0.1116367999539816,-0.05698485833697303,0.006696875362064909,0.12127131730816378,0.04010901503717424,-0.02141648429734788,0.0445609952253646,0.037839070239059205,-0.005571338623088742,-0.314644474621108,-0.041449608748466836,0.054084150901648684
243,8.184539299996686,0.11222677786292619,-0.056789457426662124,0.00659271256074337,0.1214841935779551,0.04029244600579382,-0.021442925448504423,0.04302755094555439,0.03763669648673788,-0.005308197329748545,-0.316299841951578,-0.04181726754324083,0.05418722690999626
244,8.188715700001922,0.11281777236364311,-0.056593167322289015,0.006488424348058196,0.12168959683100061,0.040474888973795635,-0.021468086356898525,0.041486180506481736,0.03743255612589343,-0.005044573633734719,-0.3179056314675366,-0.04217660670510086,0.05428259679781579
245,8.192597900007968,0.11340974703914274,-0.056395992846996514,0.006384016952458667,0.12188748912709133,0.04065633545269062,-0.02149196476880187,0.039937126022099076,0.037226689164921924,-0.004780505230431405,-0.3194613826515285,-0.0425278053050361,0.054370163706683454
246,8.196679100001347,0.11400266529088343,-0.05619793886471391,0.006279496612903208,0.12207783370827806,0.0408367771463389,-0.021514558614853296,0.038380631811196685,0.037019134731475764,-0.004516030278790602,-0.32096664880738174,-0.04287104637904326,0.05444983392506971
247,8.200994800004992,0.11459649034454411,-0.05599901027923246,0.006174869577957777,0.1222605950094242,0.041016205946619214,-0.021535866012275372,0.03681694433015081,0.03680993105462109,-0.004251187385185176,-0.322420997258459,-0.04320651637779967,0.054521517330291584
248,8.205028299998958,0.11519118525584726,-0.05579921203330214,0.00607014210488366,0.12243573866843283,0.04119461392902417,-0.02155588526700729,0.035246312103888795,0.036599115449485575,-0.003986015584667953,-0.3238240100416783,-0.04353440471274306,0.05458512790943332
249,8.209524999998393,0.1157867129164309,-0.05559854910774995,0.005965320458715121,0.1226032315361284,0.04137199334818042,-0.021574614875739268,0.033668985651890526,0.03638672430382847,-0.0037205543197607435,-0.3251752846171049,-0.0438549034310845,0.05464058414571429
250,8.21349989999726,0.11638303605976769,-0.05539702652062021,0.005860410911327427,0.12276304168576452,0.041548336633313324,-0.021592053527839224,0.03208521741225545,0.03617279306584768,-0.0034548434179574794,-0.3264744336576576,-0.04416820711815629,0.05468780924967152
251,8.218261700007133,0.11698011726712927,-0.05519464932633694,0.00575541974049576,0.12291513842216745,0.04172363638364864,-0.021608200107168494,0.03049526166974832,0.0359573562316991,-0.003188923068265869,-0.3277210849116561,-0.04447451292714629,0.054726731464905365
252,8.222829400008777,0.11757791897359432,-0.05499142261488889,0.0056503532289455954,0.1230594922905444,0.04189788536375584,-0.02162305369378047,0.028899374481202434,0.035740447333014624,-0.002922833795738313,-0.3289148830317178,-0.044774020942116334,0.05475728471433927
253,8.228587200006586,0.1181764034740985,-0.05478735151103716,0.005545217663395104,0.1231960750849019,0.04207107649882845,-0.021636613565488717,0.027297813585786302,0.035522098920892524,-0.0026566164317311423,-0.3300554925962388,-0.04506693492548285,0.05477940953651251
254,8.232424900008482,0.1187755329295243,-0.054582441173546124,0.005440019333590282,0.12332485985598171,0.042243202869871745,-0.021648879199276497,0.025690838301034462,0.03530234254614905,-0.0023903120793336403,-0.3311426002535837,-0.04535346286173399,0.05479305376521152
255,8.236624099998153,0.11937526937282819,-0.05437669679443784,0.00533476453133365,0.12344582091866856,0.04241425770879112,-0.021659850272528817,0.024078709412270024,0.03508120873802321,-0.0021239620770204474,-0.332175914963951,-0.045633817154138626,0.054798172555352784
256,8.240884800005006,0.11997557471520248,-0.05417012359827068,0.005229459549507411,0.12355893385885107,0.04258423439337276,-0.02166952666408861,0.022461689066284287,0.034858726982516124,-0.0018576079638289718,-0.3331551667161786,-0.04590821469244507,0.05479472812580814
257,8.249898599999142,0.12057641075226913,-0.053962726841442585,0.005124110681091877,0.12366417553979592,0.04275312644216143,-0.02167790845515026,0.020840040673233463,0.034634925700437705,-0.00159129144551184,-0.33408010655726145,-0.0461768772987255,0.05478268989851031
258,8.255406299998867,0.12117773917030357,-0.053754511811519474,0.005018724218179943,0.12376152410805513,0.042920927509227755,-0.02168499592998676,0.01921402880003135,0.03440983222141186,-0.001325054358362035,-0.334950509024369,-0.04644003259600591,0.05476203509114812
259,8.261063600002672,0.12177952155248598,-0.05354548382658935,0.004913306450988449,0.12385095899880384,0.04308763137879331,-0.021690789576491558,0.017583919048603926,0.03418347275347904,-0.0010589386296036367,-0.3357661739731554,-0.04669791479333558,0.05473274915144512
260,8.265777599997818,0.12238171938517696,-0.053335648234642964,0.004807863666867377,0.12393246094056411,0.043253231959702376,-0.021695290086520665,0.015949977931508645,0.03395587234946963,-0.00079298623699525,-0.33652692582205807,-0.04695076516966718,0.05469482548280307
261,8.270458800005144,0.12298429406421477,-0.05312501041298168,0.004702402149307895,0.12400601195933351,0.043417723279720155,-0.02169849835604181,0.014312472757535352,0.03372705487190259,-0.0005272391718878203,-0.337232610546969,-0.04719883158322425,0.05464826453737969
262,8.274183400004404,0.1235872069012311,-0.05291357576765354,0.004596928176950101,0.12407159538219692,0.0435810994796633,-0.02170041548511742,0.012671671536541002,0.0334970429641284,-0.0002617394076444355,-0.3378830917974348,-0.04744236713374788,0.05459307282509379
263,8.278349300002446,0.12419041912998341,-0.05270134973291823,0.004491448022591235,0.12412919584052992,0.0437433548074176,-0.02170104277774677,0.011027842902805765,0.03326585802823226,3.4711276681958896e-06,-0.33847824810264926,-0.04768162921090016,0.05452926221864747
264,8.282614800002193,0.1247938919127019,-0.05248833777074125,0.004385967952194954,0.12417879927286553,0.043904483611853715,-0.0217003817415835,0.009381256047028868,0.0330335202054277,0.00026835057610392356,-0.3390179712863301,-0.047916879132637646,0.05445684954736979
265,8.286622200001148,0.12539758634644968,-0.05227454537031805,0.004280494223902291,0.12422039292743656,0.044064480336654235,-0.02169843408753645,0.007732180655093992,0.03280004835747523,0.00053285717319735,-0.3395021654682727,-0.048148382000854514,0.05437585634742131
266,8.291242799998145,0.12600146346949442,-0.052059978047628234,0.004175033087044814,0.12425396536444702,0.044223339514048804,-0.021695201729260066,0.006080886849771218,0.03256546004847926,0.0007969492703596959,-0.3399307473369065,-0.04837640639901624,0.05428630875800631
267,8.295023800004856,0.12660548426769067,-0.05184464134502054,0.004069590781160533,0.1242795064580478,0.04438105575846423,-0.021690686782537542,0.004427645126832854,0.032329771529246126,0.001060585357230054,-0.3403036467682766,-0.04860122400035691,0.054188237618221745
268,8.299549999996088,0.12720960968087067,-0.05162854083082881,0.0039641735350130596,0.12429700739798702,0.04453762376010753,-0.02168489156455394,0.002772726290738122,0.0320929977228898,0.0013237240850127424,-0.3406208078986531,-0.04882310942381855,0.054081678821888836
269,8.307486000005156,0.12781380060924272,-0.05141168209901936,0.0038587875656145797,0.12430646069096045,0.04469303827847612,-0.021677818593052452,0.001116401380321945,0.031855152210590355,0.0015863242922779471,-0.3408821916634568,-0.04904234039257889,0.053966673913882796
270,8.311651600000914,0.12841801791979515,-0.05119407076887003,0.003753439077253215,0.12430786016153952,0.044847294135802414,-0.021669470585356725,-0.0005410584202017806,0.031616247215658595,0.0018483450340961187,-0.3410877778201476,-0.04925919805139366,0.05384327056178528
271,8.315786499995738,0.12902222245270367,-0.05097571248468125,0.003648134260525498,0.12430120095265661,0.0450003862104091,-0.02165985045724389,-0.0021993818752163077,0.031376293586209573,0.0021097456124236427,-0.3412375662775302,-0.049473966724809595,0.05371152253213105
272,8.32398230000399,0.12962637502774008,-0.05075661291551972,0.003542879291374691,0.1242864795256194,0.04515230942998532,-0.021648961321671503,-0.0038582977996212127,0.03113530078157769,0.0023704856050063257,-0.3413315773994447,-0.049686933290546346,0.053571489311969915
273,8.328429800007143,0.13023043645067972,-0.050536777754994835,0.003437680330135637,0.12426369365960546,0.04530305876480986,-0.021636806487369604,-0.005517535155760754,0.030893276861081675,0.0026305248920861926,-0.34136985097636036,-0.04989838679393155,0.053423235627301946
274,8.333429000005708,0.13083436751970534,-0.050316212721068225,0.003332543520586765,0.12423284245073435,0.045452629220918125,-0.021623389457308028,-0.007176823145345706,0.030650228474187857,0.002889823680623584,-0.3413524455601359,-0.050108617912042824,0.05326683084292953
275,8.33699379999598,0.1314381290318055,-0.05009492355589663,0.0032274749890098394,0.12419392631066854,0.045601015833229716,-0.021608713927053,-0.008835891299914784,0.03040616085448432,0.0031483425251697945,-0.34127943656184345,-0.05031791812252183,0.053102348296078745
276,8.340870100000757,0.13204168178916476,-0.049872916025708224,0.003122480843257943,0.1241469469648062,0.0457482136586568,-0.021592783783031533,-0.010494469554265045,0.030161077817924303,0.003406042345611168,-0.34115091356231847,-0.05052657908385777,0.052929864809107594
277,8.345207400008803,0.13264498660554463,-0.04965019592071251,0.0030175671718320972,0.12409190745016825,0.04589421776921463,-0.021575603100715542,-0.012152288310768616,0.02991498176282474,0.003662884443304674,-0.3409669795871509,-0.050734892658811814,0.052749460471871026
278,8.349201500008348,0.1332480043126532,-0.0494267690550436,0.0029127400429668983,0.1240288121129659,0.0460390232451299,-0.021557176142729378,-0.013809078505755147,0.029667873667881955,0.003918830516706331,-0.3407277512879003,-0.05094315109563226,0.052561218526331624
279,8.353289499995299,0.13385069576650238,-0.049202641266737096,0.0028080055037255345,0.12395766660584243,0.04618262516793197,-0.021537507356882004,-0.015464571675590162,0.029419753090408573,0.004173842676385059,-0.34043335903211647,-0.0511516466951405,0.05236522515329409
280,8.357426000002306,0.13445302185375071,-0.04897781841774057,0.002703369579104552,0.1238784778847983,0.04632501861354408,-0.021516601374128592,-0.01711850002393262,0.029170618167585524,0.004427883458577903,-0.34008394687470317,-0.05136067166718153,0.05216156911727949
281,8.361645900004078,0.1350549434980308,-0.04875230639395757,0.002598838271148687,0.12379125420577919,0.046466198645386744,-0.021494463006470923,-0.0187705964875349,0.02892046561609445,0.00468091583675164,-0.33967967189179715,-0.05157051855458928,0.051950341333238184
282,8.36600449999969,0.1356564216662589,-0.04852611110532515,0.0024944175580760434,0.12369600512096139,0.0466061603074654,-0.021471097244806583,-0.02042059479702484,0.028669290729248238,0.004932903230945932,-0.3392207048151688,-0.051781480368289196,0.05173163444009163
283,8.37178970000241,0.13625741737492628,-0.04829923848592508,0.0023901133934138333,0.12359274147474897,0.046744898617445914,-0.021446509256738543,-0.022068229548872876,0.02841708737531008,0.005183809515189243,-0.33870723178593076,-0.05199385060220107,0.05150554248929504
284,8.377855099999579,0.13685789169636983,-0.048071694494128694,0.002285931705144847,0.12348147539935961,0.04688240855972586,-0.021420704384352264,-0.02371323628322225,0.028163847994479123,0.005433599023814447,-0.3381394555317056,-0.052207923664694955,0.0512721607665959
285,8.38246110000182,0.13745780576502054,-0.047843485112775454,0.002181878394864804,0.12336222031006511,0.04701868507848076,-0.02139368814196388,-0.025355351567299605,0.027909563593015264,0.0056822365571420255,-0.33751759763284606,-0.052423995119647196,0.05103158560314567
286,8.386561999999685,0.1380571207836279,-0.04761461634938538,0.002077959336950712,0.12323499089996641,0.04715372307067822,-0.02136546621384205,-0.026994313095275592,0.02765422373788145,0.005929687385959455,-0.33684189897547495,-0.05264236118031324,0.050783913985569966
287,8.390811500008567,0.13865579802945746,-0.047385094236405544,0.0019741803777403653,0.12309980313426332,0.047287517379072094,-0.02133604445191261,-0.028629859776079562,0.027397816555788622,0.006175917253413815,-0.33611261673044424,-0.052863317674829026,0.05052924303100948
288,8.396373399998993,0.1392537988604597,-0.0471549248314906,0.001870547334723018,0.12295667424417586,0.04742006278520735,-0.021305428873462012,-0.03026173180389202,0.027140328737894605,0.006420892374387943,-0.3353300230243216,-0.05308715928353416,0.050267669637721786
289,8.403296700009378,0.1398510847214083,-0.046924114217817274,0.0017670659957412056,0.12280562272052875,0.04755135400245989,-0.021273625658848043,-0.0318896707330397,0.026881745546263176,0.006664579433996473,-0.33449440635856786,-0.05331417906243705,0.04999929038907655
290,8.407464999996591,0.1404476171500068,-0.046692668504432565,0.0016637421182036747,0.12264666830694466,0.04768138566910423,-0.021240641149217896,-0.033513419562284145,0.026622050823195444,0.0069069455860287085,-0.3336060732415097,-0.053544667627891444,0.049724201510675185
291,8.414234800002305,0.14104335778296068,-0.046460593826635616,0.0015605814283093868,0.12247983199260931,0.047810152341444014,-0.021206481844234012,-0.03513272282558151,0.02636122700561485,0.007147958451027812,-0.33266534852080903,-0.053778912424244305,0.04944249877853118
292,8.419977300000028,0.14163826836201351,-0.0462278963463927,0.0014575896202825556,0.12230513600458244,0.047937648487019535,-0.02117115439981083,-0.03674732667960314,0.026099255141517886,0.007387586113841079,-0.3316725753225193,-0.054017196967768355,0.049154277489662945
293,8.42578200000571,0.14223231073994455,-0.04599458225278511,0.0013547723556186525,0.12212260379971208,0.04806386847789818,-0.021134665625864447,-0.03835697899390294,0.02583611491170898,0.007625797121413256,-0.3306281170155282,-0.05425979960120861,0.04885963257561053
294,8.432192100008251,0.14282544688652615,-0.0457606577624894,0.00125213526234132,0.12193226005606904,0.04818880658409324,-0.02109702248407081,-0.039961429457534677,0.025571784658358517,0.007862560481440337,-0.3295323587521826,-0.05450699241302417,0.048558658683865503
295,8.436663300002692,0.14341763889443807,-0.04552612912028923,0.00114968393427017,0.12173413066382466,0.048312456967131955,-0.02105823208562847,-0.0415604296841961,0.025306241417244,0.00809784566095447,-0.3283857059270786,-0.05475904053514156,0.048251450033588404
296,8.441285599998082,0.14400884898513625,-0.04529100259961811,0.0010474239302994458,0.1215282427156632,0.04843481367378776,-0.021018301689030527,-0.043153733303863816,0.025039460953134748,0.008331622583575157,-0.3271885815486955,-0.0550162015012103,0.04793810015718559
297,8.445641600003,0.1445990395146739,-0.045055284503132224,0.0009453607736874803,0.12131462449676884,0.04855587062999233,-0.020977238697854107,-0.04474109604238653,0.02477141779827158,0.008563861625581985,-0.32594142421592315,-0.05527872476265143,0.04761870179512642
298,8.44948920000752,0.14518817297947298,-0.04481898116331234,0.0008434999513568466,0.12109330547446426,0.04867562163494186,-0.02093505065857049,-0.04632227579344935,0.024502085292456118,0.008794533612143308,-0.3246446874826364,-0.055546851372045306,0.047293347061923126
299,8.457840700008092,0.1457762120220445,-0.044582098943093895,0.0007418469132051045,0.12086431628749805,0.048794060355398836,-0.020891745258371237,-0.0478970326919899,0.024231435624608305,0.009023609815002512,-0.3232988406130974,-0.055820813589861365,0.046962127770600624
300,8.461491099995328,0.14636311943665586,-0.044344644236524344,0.0006404070714260835,0.12062768873496968,0.04891118032020233,-0.02084733032300082,-0.04946512919350606,0.023959439876678774,0.009251061951860932,-0.32190437021436547,-0.05610083431834187,0.046625135673386824
301,8.466070199996466,0.14694885817494358,-0.0441066234694466,0.000539185799841699,0.12038345576484588,0.04902697491499662,-0.020801813814588746,-0.05102633016334108,0.023686068070709703,0.00947686218640391,-0.3204617806273658,-0.05638712674634193,0.04628246248825645
302,8.470221800002037,0.1475333913514689,-0.04386804310020759,0.00043818843324430973,0.12013165146201765,0.04914143737719899,-0.020755203829481927,-0.05258040295979294,0.023411289216199758,0.009700983127941763,-0.31897159184378965,-0.05667989451497691,0.04593419985667437
303,8.475602000005892,0.14811668224921443,-0.04362890962039066,0.0003374202667496056,0.11987231103600876,0.04925456079118879,-0.020707508596080303,-0.05412711750314926,0.02313507135555466,0.009923397831025041,-0.3174343380861835,-0.05697933183202111,0.04558043950851028
304,8.479255199999898,0.14869869432502034,-0.0433892295555709,0.00023688655516000578,0.1196054708083616,0.049366338083717064,-0.02065873647267295,-0.055666246344993425,0.022857381610340028,0.01014407979668867,-0.3158505672321388,-0.05728562335802445,0.045221273799003925
305,8.482770000002347,0.14927939121495828,-0.04314900946609214,0.00013659251233858206,0.119331168199672,0.049476762019545255,-0.020608895945261604,-0.0571975647316419,0.022578186227839043,0.010363002977287162,-0.31422083945635376,-0.05759894421343354,0.04485679654997036
306,8.487068700007512,0.14985873673964162,-0.04290825594786467,3.6543310593614906e-05,0.11904944171635835,0.04958582519730742,-0.02055799562534977,-0.05872085066024957,0.022297450627236055,0.010580141785916278,-0.31254572707937267,-0.05791945985097755,0.04448710393274907
307,8.491992900002515,0.15043669490947068,-0.042666975633182495,-6.325591992599073e-05,0.11876033093715102,0.049693520045597905,-0.020506044247674656,-0.060235884940776634,0.022015139447414806,0.010795471109831565,-0.3108258155633896,-0.05824732567745209,0.044112295175847395
308,8.49793270000373,0.15101322992981164,-0.042425175191559084,-0.00016280009182410092,0.1184638764992591,0.049799838819298205,-0.020453050667865832,-0.06174245126177435,0.021731216596818766,0.011008966326749168,-0.30906170435958896,-0.05858268688006452,0.043732473167915405
309,8.50297670000873,0.1515883062061074,-0.0421828613305803,-0.0002620841610391764,0.11816012008422029,0.049904773596149345,-0.020399023860018704,-0.06324033626058909,0.021445645302937476,0.011220603324126006,-0.30725400850986007,-0.05892567821548058,0.043347745123096804
310,8.507734099999652,0.15216188834891875,-0.04194004079677349,-0.00036110312741407917,0.11784910440338518,0.05000831627355981,-0.020343972914165752,-0.06472932960471867,0.021158388164217612,0.011430358521928594,-0.30540336000415047,-0.059276423510676565,0.04295822312283862
311,8.511909499997273,0.15273394117889427,-0.041696720376491456,-0.0004598520352533137,0.11753087318297625,0.05011045856568257,-0.020287907033628653,-0.06620922407521153,0.02086940720440164,0.01163820889718026,-0.303510406693909,-0.05963503572344052,0.0425640241217668
312,8.515712599997642,0.15330442973166625,-0.04145290689680993,-0.0005583259738670929,0.11720547114876143,0.05021119200075122,-0.0202308355322509,-0.06767981563746042,0.02057866392385074,0.011844132006787083,-0.3015758096651896,-0.06000161759990212,0.04216526941868719
313,8.520329000006313,0.15387331926267145,-0.04120860722643747,-0.0006565200781016771,0.11687294401042485,0.05031050791865596,-0.02017276783152802,-0.06914090349906499,0.020286119347491475,0.012048106006942613,-0.2996002405170469,-0.06037626232376717,0.04176208410629402
314,8.52533950000361,0.15444057525189525,-0.040963828276636485,-0.0007544295288555423,0.11653333844567797,0.05040839746874583,-0.02011371345765157,-0.07059229015416818,0.019991734069827377,0.012250109670604302,-0.2975843796706823,-0.06075905386369626,0.04135459696338054
315,8.532057799995528,0.1550061634085379,-0.040718577002154505,-0.000852049553580983,0.1161867020841993,0.05050485160784221,-0.020053682038469453,-0.07203378142488172,0.019695468299508686,0.012450122405850386,-0.29552891697431444,-0.061150067003849916,0.04094294080735724
316,8.536476199995377,0.1555700496756025,-0.04047286040216451,-0.0009493754267707315,0.11583308349134282,0.05059986109847439,-0.019992683300351453,-0.07346518651150258,0.019397281904046985,0.012648124276783222,-0.29343455245713584,-0.061549367358867874,0.0405272529316884
317,8.540779500006465,0.15613220023440294,-0.04022668552121334,-0.0010464024704290897,0.11547253215158952,0.050693416507327727,-0.019930727064946367,-0.0748863180412678,0.019097134454239335,0.012844096026138572,-0.291301995696074,-0.06195701151719446,0.040107675251238255
318,8.54494030000933,0.15669258150899096,-0.039980059450177144,-0.0011431260545270235,0.11510509845178189,0.05078550820391104,-0.01986782324582774,-0.07629699211241515,0.01879498526748961,0.013038019097601883,-0.2891319639115606,-0.06237304759265887,0.03968435419404137
319,8.549276300007477,0.15725116017050111,-0.03973298932722271,-0.0012395415974406879,0.11473083366414716,0.05087612635942595,-0.019803981845034055,-0.07769702832442651,0.01849079344687061,0.013229875657365449,-0.28692518018519864,-0.06279751581342374,0.039257440707286505
320,8.558456400001887,0.15780790314141285,-0.03948548233877392,-0.0013356445663728874,0.11434978992923771,0.050965260945813974,-0.019739212949504908,-0.07908624980476212,0.0181845179187201,0.01341964861650286,-0.2846823743063497,-0.06323044876399628,0.0388270905031476
321,8.562747600008151,0.15836277759972958,-0.03923754572048235,-0.0014314304777569562,0.11396202023869449,0.05105290173499136,-0.01967352672740369,-0.08046448324733378,0.017876117469350302,0.013607321654915938,-0.28240428343620677,-0.06367187190640963,0.038393464149721626
322,8.567616700005601,0.1589157509830732,-0.03898918675820116,-0.0015268948976424712,0.11356757841781343,0.05113903829825303,-0.01960693342432097,-0.08183155894569476,0.01756555077757741,0.01379287924459321,-0.28009165098966293,-0.06412180419890798,0.03795672661600729
323,8.572016799997073,0.1594667909926937,-0.03874041278896146,-0.0016220334420622242,0.11316651910798614,0.05122366000582365,-0.01953944335937108,-0.08318731082064336,0.01725277644541672,0.013976306669133489,-0.27774522539661195,-0.06458025827026145,0.03751704646994555
324,8.576261099995463,0.160015865597393,-0.03849123120195061,-0.001716841777379989,0.11275889774899805,0.05130675602655997,-0.019471066921205704,-0.08453157644137116,0.016937753028917594,0.014157590039208343,-0.27536575835044386,-0.06504724036734043,0.0370745952907539
325,8.580027400006657,0.16056294303736246,-0.03824164943949147,-0.0018113156206187408,0.11234477056126353,0.05138831532780162,-0.01940181456396014,-0.08586419703603991,0.016620439069368238,0.01433671630637285,-0.2729540035992995,-0.06552275039946363,0.036629547543037565
326,8.584490499997628,0.161107991827934,-0.0379916749980221,-0.0019054507397690166,0.11192419452802113,0.05146832667537684,-0.01933169680313264,-0.08718501750117927,0.01630079312369955,0.014513673277304281,-0.2705107165830598,-0.06600678210478253,0.0361820806552452
327,8.588430600007996,0.16165098076324458,-0.03774131542907502,-0.0019992429540770765,0.11149722737747741,0.0515467786337488,-0.01926072421139226,-0.08849388640873482,0.01597877379407243,0.014688449628375542,-0.26803665400997007,-0.06649932298287459,0.03573237496078085
328,8.592770500006736,0.16219187891981368,-0.03749057834025547,-0.002092688134312511,0.11106392756493368,0.05162365956630897,-0.019188907414316527,-0.08979065601135007,0.015654339758936913,0.014861034919321385,-0.26553257382711454,-0.06700035429430536,0.03528061347875419
329,8.597994800002198,0.16273065566003406,-0.03723947139621779,-0.0021857822030149675,0.1106243542548784,0.05169895763582538,-0.019116257086066422,-0.09107518224912747,0.015327449802623724,0.015031419605680487,-0.2629992358856658,-0.06750985139302713,0.034826981819958545
330,8.603353099999367,0.16326728063557516,-0.036988002319639335,-0.002278521134719714,0.11017856730304829,0.05177266080502366,-0.019042783945003108,-0.09234732476137743,0.014998062843172115,0.015199595051547655,-0.2604374034201225,-0.06802778382469458,0.034371668448376816
331,8.607663200004026,0.16380172379069946,-0.036736178892191225,-0.0023709009561617544,0.10972662723840645,0.05184475683730578,-0.01896849874923895,-0.09360694690775927,0.01466613796096566,0.015365553544558049,-0.257847844408307,-0.06855411522056702,0.033914865212603826
332,8.615877400006866,0.1643339553654907,-0.036484008955505264,-0.0024629177464581416,0.10926859524499798,0.0519152332976095,-0.018893412292108565,-0.09485391579325109,0.014331634427591493,0.015529288313805456,-0.2552313324482218,-0.06908880342622307,0.0334567678829211
333,8.624993200006429,0.1648639458989938,-0.036231500412136325,-0.002554567637268068,0.10880453314368536,0.051984077553407664,-0.01881753539754567,-0.09608810229781482,0.013994511733224841,0.01569079355004753,-0.25258864714940493,-0.06963180100034316,0.032997576411995556
334,8.62975500000175,0.16539166623226564,-0.03597866122651956,-0.0026458468129302347,0.10833450337371568,0.05205127677583383,-0.018740878915357702,-0.09730938110517053,0.013654729610639498,0.015850064426158363,-0.2499205729857281,-0.07018305574257039,0.032537494725175024
335,8.633626299997559,0.1659170875113357,-0.035725499425921854,-0.002736751510577006,0.10785856897417634,0.052116817940914995,-0.018663453716403842,-0.09851763072130926,0.013312248057460917,0.016007097115295146,-0.24722789715120722,-0.0707425108680448,0.032076730077165855
336,8.637460099998862,0.1664401811900765,-0.03547202310138703,-0.0028272780202249033,0.10737679356538223,0.05218068783091354,-0.018585270687693042,-0.09971273348242327,0.012967027358479995,0.01616188880509688,-0.24451140741272298,-0.07131010485643859,0.03161549223887586
337,8.641042999995989,0.16696091903298352,-0.035218240408674266,-0.002917422684841106,0.10688924133025442,0.0522428730357769,-0.018506340727424013,-0.10089457555254475,0.012619028109373731,0.016314437707946168,-0.24177189014764158,-0.07188577109583985,0.03115399283933303
338,8.645063700008905,0.16747927311786445,-0.034964159569189225,-0.003007181900385729,0.10639597699573027,0.05230335995471005,-0.018426674739983495,-0.10206304691239933,0.012268211242480889,0.01646474306877058,-0.23901012898455656,-0.07246943769485462,0.030692445003584316
339,8.649702299997443,0.16799521583843838,-0.034709788870907164,-0.0030965521158297,0.10589706581425046,0.052362134797875784,-0.018346283630910412,-0.10321804134383121,0.011914538052349244,0.016612805171784394,-0.23622690453028283,-0.07306102744501419,0.03023106318499147
340,8.653341800003545,0.16850871990684518,-0.03445513666928754,-0.0031855298331480825,0.10539257354532051,0.05241918358821557,-0.0182651783018286,-0.10435945641600271,0.011557970221876693,0.016758625346659672,-0.23342299400786093,-0.07366045756348946,0.029770063001637207
341,8.657396800001152,0.1690197583560654,-0.03420021138817942,-0.0032741116072886943,0.10488256643713201,0.05247449216340389,-0.018183369645350972,-0.10548719346630035,0.011198469850359634,0.016902205973677673,-0.23059917007808467,-0.07426763940599404,0.02930966094162965
342,8.661903900007019,0.16952830454225096,-0.03394502152071709,-0.0033622940461158915,0.10436711120830967,0.052528046177941816,-0.018100868539962168,-0.10660115757507826,0.010835999482424996,0.017043550487035132,-0.22775620026603396,-0.07488247843668065,0.028850073898425956
343,8.666069300001254,0.17003433214696764,-0.033689575630205124,-0.0034500738103294404,0.10384627502977815,0.05257983110539258,-0.01801768584489058,-0.10770125754098947,0.010470522136371263,0.017182663375478458,-0.22489484717165548,-0.07550487419062082,0.02839151860379885
344,8.669889700002386,0.17053781517934954,-0.033433882350992226,-0.003537447613358452,0.10332012550674892,0.052629832240750636,-0.017933832394984837,-0.10878740585777637,0.010102001333465246,0.017319550180097773,-0.2220158679568178,-0.0761347199715085,0.02793421110019722
345,8.674092900007963,0.17103872797816635,-0.0331779503893333,-0.003624412221230447,0.10278873066081264,0.05267803470296209,-0.017849318995607273,-0.1098595186846156,0.009730401129221794,0.017454217489831815,-0.21912001310646653,-0.07677190270818586,0.02747836631487386
346,8.678296800004318,0.1715370452138038,-0.03292178852423879,-0.003710964452415649,0.10225215891221437,0.05272442343759779,-0.017764156417554113,-0.11091751581086548,0.009355686144095309,0.017586672935121988,-0.21620802627706395,-0.07741630308291947,0.027024197726056007
347,8.683045700003277,0.17203274189015863,-0.03266540560831075,-0.003797101177646666,0.10171047906228865,0.05276898321967212,-0.017678355392010625,-0.11196132062493748,0.00897782159351245,0.017716925180172042,-0.2132806446900127,-0.07806779557662978,0.026571917139838246
348,8.687226699999883,0.17252579334644824,-0.03240881056856479,-0.003882819319713743,0.1011637602760373,0.05281169865660806,-0.017591926605546558,-0.11299086008286822,0.00859677331812397,0.017844983914433253,-0.210338599282621,-0.07872624834861972,0.026121734610259493
349,8.690822600008687,0.17301617525893634,-0.03215201240723731,-0.003968115853235794,0.10061207206486997,0.05285255419135004,-0.017504880695154067,-0.11400606467865856,0.008212507815006605,0.017970859844087157,-0.20738261452644155,-0.07939152312276411,0.025673858500098932
350,8.69599670000025,0.1735038636425748,-0.0318950202025772,-0.004052987804407416,0.10005548426947035,0.05289153410563237,-0.017417228243325943,-0.11500686841107957,0.007824992269021279,0.018094564684121735,-0.20441340730958557,-0.08006347518714255,0.02522849560533313
351,8.699599100000341,0.17398883485256275,-0.03163784310962131,-0.004137432250722074,0.0994940670428594,0.05292862252339687,-0.017328979773170574,-0.11599320874314638,0.007434194584018565,0.018216111151024027,-0.201431687269627,-0.08074195329322564,0.024785851263513556
352,8.704077300004428,0.17447106558582376,-0.0313804903609529,-0.00422144632067163,0.09892789083365548,0.05296380341436468,-0.01724014574356121,-0.1169650265721604,0.007040083415176926,0.01833551295590987,-0.19843815781952265,-0.08142679962099722,0.024346129427302993
353,8.70761610000045,0.1749505328824022,-0.0311229712674424,-0.004305027193422371,0.09835702636942883,0.052997060597768285,-0.017150736544317712,-0.11792226619915636,0.006642628200547222,0.018452784797931377,-0.19543351469832612,-0.08211784998653011,0.02390953264307148
354,8.713450199997169,0.17542721412677867,-0.030865295218969583,-0.0043881720984676985,0.09778154464025872,0.053028377746229934,-0.017060762491419898,-0.11886487528485568,0.006241799191373069,0.018567942357198605,-0.19241844548847797,-0.0828149339599083,0.023476261889283978
355,8.717471900003147,0.17590108704910645,-0.030607471685126612,-0.004470878315257625,0.09720151688251609,0.05305773838978844,-0.016970233822258107,-0.119792804814421,0.005837567482489004,0.01868100228661596,-0.1893936307622858,-0.08351787490964989,0.023046516351121985
356,8.722882800007937,0.17637212972636931,-0.030349510215901092,-0.004553143172805293,0.09661701456276335,0.053085125920073084,-0.016879160690925907,-0.1207060090645548,0.005429905042208989,0.01879198220261292,-0.18635974290417,-0.08422649019214618,0.022620493179974603
357,8.726582999996026,0.17684032058346144,-0.030091420442338514,-0.004634964049270712,0.09602810936185688,0.053110523594621,-0.016787553163560766,-0.1216044455568046,0.005018784740883014,0.018900900674642417,-0.18331744508445827,-0.0849405914877326,0.022198387282081483
358,8.730596800000058,0.1773056383941907,-0.029833212077183348,-0.004716338371521982,0.0954348731593007,0.05313391454132865,-0.016695421213738845,-0.1224880750146857,0.004604180377518578,0.01900777721385689,-0.18026739231569586,-0.08565998504174721,0.02178039117410497
359,8.735249999997905,0.17776806228220646,-0.029574894915498216,-0.004797263614674264,0.09483737801776584,0.05315528176302803,-0.01660277471792575,-0.12335686132725505,0.004186066705993916,0.019112632261202668,-0.17721023118082446,-0.0863844716916975,0.021366694871558
360,8.739606400005869,0.17822757172185238,-0.029316478835260496,-0.004877737301606777,0.09423569616779812,0.05317460814219294,-0.016509623450987075,-0.12421077150359147,0.0037644194614153874,0.01921548717501142,-0.17414659862517168,-0.08711384713166827,0.020957485817213503
361,8.743706799999927,0.1786841465389456,-0.029057973797935743,-0.004957757002458126,0.09362989999277996,0.05319187644577144,-0.016415977081759764,-0.1250497756246262,0.003339215383760338,0.019316364218398562,-0.17107712225837407,-0.08784790255362467,0.020552948884813942
362,8.749810000008438,0.17913776691148325,-0.028799389849027315,-0.005037320334100249,0.0930200620141065,0.05320706933012195,-0.01632184516868516,-0.12587384680055827,0.0029104322380002568,0.0194152865468908,-0.16800242077703056,-0.08858642526720166,0.02015326651975464
363,8.759547900001053,0.17958841337027762,-0.028540737118601816,-0.005116424959591292,0.09240625487656136,0.05322016934604132,-0.016227237155500656,-0.12668296112679364,0.002478048831718532,0.01951227819719213,-0.164923103753672,-0.089329199334546,0.019758619012852106
364,8.764224500002456,0.18003606679952047,-0.028282025821789836,-0.005195068587607675,0.09178855133392107,0.0532311589438722,-0.016132162366981933,-0.12747709763930914,0.002042045029062187,0.01960736407747274,-0.1618397722410512,-0.0900760062379794,0.01936918477606064
365,8.76783240000077,0.18048070843727826,-0.028023266259261746,-0.005273248971855573,0.09116702423476476,0.053240020478666744,-0.016036630004729022,-0.12825623827646612,0.0016024017618691442,0.019700569958815303,-0.15875301898302352,-0.09082662513735684,0.018985140492627634
366,8.77231899999606,0.18092231987591853,-0.02776446881767824,-0.005350963910462019,0.0905417465084498,0.05324673621540215,-0.015940649142991703,-0.12902036783642426,0.0011591010411181298,0.01979192246696358,-0.15566342708569317,-0.09158083270757483,0.01860666109245962
367,8.776173000005656,0.18136088306246875,-0.027505643970115436,-0.0054282112453458075,0.08991279115133549,0.053251288334255645,-0.015844228724535767,-0.12976947392603724,0.0007121259696355542,0.01988144907352924,-0.15257156959417306,-0.09233840299509682,0.018233919595540014
368,8.781029500009026,0.18179638029890885,-0.027246802276464126,-0.005504988861568405,0.08928023121325547,0.053253658935943596,-0.0157473775565539,-0.13050354691415217,0.0002614607549401592,0.019969178086218287,-0.14947801058090568,-0.09309910768214014,0.017867086863548497
369,8.787425600006827,0.1822287942423985,-0.02698795438380298,-0.0055812946866651055,0.08864413978419543,0.05325383004712132,-0.01565010430662696,-0.131222579891085,-0.00019290928061831375,0.020055138637623326,-0.14638330517504541,-0.09386271662290657,0.017506331289103755
370,8.791620899995905,0.18265810790544013,-0.026729111026745314,-0.005657126689956683,0.08800458998115944,0.05325178362582079,-0.015552417498743814,-0.13192656862220556,-0.0006509976922272838,0.020139360672429052,-0.14328799877693318,-0.09462899810086746,0.01715181850134023
371,8.795067700004438,0.1830843046559786,-0.026470283027759414,-0.005732482881841851,0.08736165493529889,0.05324750156692459,-0.015454325509386982,-0.13261551149977682,-0.0011128169049737812,0.02022187493334238,-0.14019262736121132,-0.09539771897157731,0.016803711181796396
372,8.799228999996558,0.1835073682174391,-0.026211481297462102,-0.005807361313070863,0.086715407779247,0.05324096570767792,-0.015355836563689258,-0.1332894094994865,-0.0015783782076009294,0.020302712946508133,-0.13709771753599403,-0.09616864486716543,0.016462169044532536
373,8.809505299999728,0.18392728266870356,-0.025952716834885477,-0.005881760074000612,0.08606592163467028,0.05323215783322321,-0.015256958731661137,-0.1339482661328615,-0.0020476917468582987,0.0203819070072459,-0.13400378633169405,-0.09694154032475799,0.016127348866308677
374,8.813449199995375,0.18434403244402767,-0.025694000727716677,-0.005955677293831555,0.08541326960006569,0.05322105968216704,-0.015157699924486082,-0.13459208740174675,-0.002520766522506806,0.020459490165759087,-0.13091134174600683,-0.09771616914854236,0.01579940442817482
375,8.81766040000366,0.18475760233289865,-0.025435344152510496,-0.006029111139826799,0.08475752473875461,0.05320765295216336,-0.015058067890886876,-0.13522088175601743,-0.0029976103851887684,0.020535496212303966,-0.12782088325641144,-0.09849229475354757,0.015478486464457129
376,8.821967800002312,0.1851679774798355,-0.025176758374874878,-0.006102059816513702,0.08409876006709105,0.05319191930550107,-0.014958070213565069,-0.13583466005304004,-0.003478230034774763,0.020609959662402807,-0.12473290148724787,-0.0992696802680003,0.015164742692809161
377,8.82975940000324,0.18557514338413217,-0.024918254749629217,-0.006174521564868346,0.08343704854284972,0.053173840374703324,-0.014857714305711074,-0.1364334355121482,-0.003962631019228704,0.020682915742305057,-0.12164787727472932,-0.10004808914518476,0.014858317820029988
378,8.836841500000446,0.18597908589954495,-0.024659844720935412,-0.006246494661483213,0.08277246305387682,0.05315339776812613,-0.014757007407584946,-0.13701722366501445,-0.004450817738902714,0.02075440037425704,-0.11856628254231699,-0.10082728641675175,0.014559353495805618
379,8.84120769999572,0.1863797912339253,-0.024401539822401747,-0.006317977417718415,0.08210507640696055,0.053130573075515934,-0.014655956583169679,-0.1375860423186358,-0.0049427934575858755,0.020824450161513446,-0.11548858178040594,-0.10160703979543166,0.014267988324916228
380,8.84957750000467,0.18677724594879902,-0.02414335167715992,-0.006388968178836842,0.08143496131684166,0.0531053478735008,-0.014554568716897687,-0.13813991152008984,-0.0054385603175187945,0.02089310237372569,-0.11241523150399353,-0.10238712022719876,0.013984357994740773
381,8.85361410000769,0.18717143695889224,-0.023885291997915534,-0.006459465323123566,0.08076219039542668,0.053077703731002006,-0.014452850510446149,-0.13867885351424816,-0.0059381193558100545,0.020960394933192905,-0.10934667973811404,-0.10316730183032709,0.013708595444191382
382,8.857477300000028,0.18756235153160578,-0.023627372586972534,-0.006529467260989835,0.08008683614120946,0.05304762221456568,-0.01435080847959714,-0.1392028927035303,-0.006441470518858332,0.021026366401892555,-0.10628336610831013,-0.10394736141900224,0.013440830948796723
383,8.861720500004594,0.1879499772864383,-0.023369605336231856,-0.006598972434061957,0.07940897092887565,0.05301508489363418,-0.014248448951159056,-0.1397120556064967,-0.006948612674137779,0.02109105596855853,-0.10322572166012686,-0.1047270782477256,0.013181192028093149
384,8.866058500003419,0.1883343021943596,-0.02311200222716462,-0.006667979314255363,0.07872866699912685,0.05298007334576313,-0.01414577805995237,-0.14020637081584772,-0.007459543622135447,0.021154503434811487,-0.10017416931143446,-0.10550623400316368,0.012929803228485234
385,8.870045200004824,0.18871531457713478,-0.02285457533076007,-0.006736486402834191,0.07804599644869328,0.0529425691617768,-0.014042801745865877,-0.14068586896141394,-0.007974260108057431,0.0212167492001261,-0.09712912388341825,-0.10628461263754432,0.01268678582684211
386,8.87468350000563,0.18909300310660052,-0.022597336807448645,-0.006804492229456733,0.07736103122051775,0.05290255395087134,-0.013939525750988583,-0.1411505826684564,-0.008492757832146704,0.021277834245079993,-0.09409099101283173,-0.10706200015373857,0.012452257476291815
387,8.87864310000441,0.18946735680389384,-0.022340298907000313,-0.006871995351207134,0.07667384309417373,0.05286000934566981,-0.013835955616828804,-0.14160054651008253,-0.0090150314593,0.021337800112877687,-0.09106016703025821,-0.10783818457148515,0.012226331929735225
388,8.882602099998621,0.18983836503863516,-0.022083473968398496,-0.00693899435161381,0.07598450367651186,0.05281491700723198,-0.013732096681625656,-0.1420357969643631,-0.009541074629057312,0.021396688889911756,-0.08803703950478953,-0.10861295613151474,0.012009118827367625
389,8.886569299997063,0.19020601752806618,-0.02182687441968971,-0.007005487839655007,0.0752930843924949,0.05276725863001224,-0.013627954077757121,-0.1424563723720431,-0.010070879967203102,0.021454543185221227,-0.08502198654926883,-0.109386107585582,0.01180072351544645
390,8.890983200006303,0.1905703043361438,-0.021570512777809286,-0.0070714744487520255,0.07459965647625535,0.05271701594675659,-0.013523532729251234,-0.14286231288690465,-0.010604439098575264,0.021511406109290945,-0.08201537654788271,-0.11015743445735002,0.011601247053761797
391,8.895521900005406,0.19093121587259115,-0.02131440164838341,-0.007136952835750584,0.07390429096241297,0.05266417073333606,-0.013418837349400234,-0.1432536604308299,-0.011141742661202448,0.02156732125358259,-0.0790175692739873,-0.11092673533741527,0.01141078646482719
392,8.899701700007427,0.19128874289190703,-0.021058553725507856,-0.007201921679890849,0.07320705867756915,0.052608704813506275,-0.013313872438470743,-0.14363045865503057,-0.01168278032198101,0.021622332671756478,-0.07602891673628022,-0.11169381213207494,0.0112294351296624
393,8.903667899998254,0.19164287649233427,-0.020802981791503757,-0.007266379681766542,0.07250803023200136,0.05255060006358846,-0.013208642281500463,-0.1439927529033365,-0.012227540793230659,0.021676484863050065,-0.07304976360188946,-0.11245847024850833,0.011057283139873067
394,8.908621800001129,0.19199360811478847,-0.020547698716650832,-0.007330325562273547,0.0718072760115145,0.052489838417068044,-0.01310315094616993,-0.14434059017753822,-0.012776011850171595,0.021729822756922382,-0.0700804476794976,-0.11322051867422372,0.010894417356244274
395,8.912437100007082,0.19234092954174709,-0.020292717458898456,-0.007393758061548329,0.07110486616947212,0.05242640186910582,-0.012997402280748489,-0.14467401910537211,-0.013328180348252474,0.021782391697002138,-0.0671213003127656,-0.11397976988982751,0.010740921172565008
396,8.916274700008216,0.19268483289610075,-0.02003805106355503,-0.0074566759378965775,0.07040087061895904,0.05236027248096806,-0.012891399912122093,-0.14499308990968746,-0.013884032239779555,0.02183423742343625,-0.06417264592612844,-0.11473603980903484,0.010596874134218228
397,8.920076599999447,0.19302531063996617,-0.019783712662955987,-0.00751907796671245,0.06969535902511236,0.05229143238437603,-0.01278514724391087,-0.14529785437201612,-0.014443552590661496,0.02188540605313018,-0.06123480217604995,-0.11548914764643094,0.010462351453089025
398,8.924335000003339,0.19336235557346285,-0.01952971547611088,-0.007580962939388915,0.06898840079763814,0.05221986378577332,-0.012678647454689013,-0.1455883658032101,-0.015006725595752984,0.021935944057380787,-0.05830808040552132,-0.11623891546384388,0.010337423539071256
399,8.92799820000073,0.19369596083345328,-0.019276072808329898,-0.007642329662219692,0.06828006508342792,0.0521455489705262,-0.012571903496319776,-0.14586467901142947,-0.015573534591189729,0.021985898237562345,-0.05539278491699775,-0.1169851677630492,0.010222155610120319
400,8.932322499997099,0.19402611989224788,-0.019022798050830132,-0.0077031769552934086,0.06757042075938656,0.05206847030707107,-0.012464918092411726,-0.1461268502657119,-0.016143962065772694,0.022035315698968647,-0.05248921327580475,-0.11772773176119244,0.010116607144750036
401,8.936950100003742,0.19435282655627548,-0.018769904680321768,-0.007763503651380535,0.06685953642540289,0.0519886102510041,-0.012357693736908034,-0.14637493726691014,-0.016717989675980524,0.022084243821176627,-0.0495976565220366,-0.11846643827035956,0.01002083113051741
402,8.940801000004285,0.19467607496471986,-0.018517406258574592,-0.007823308594813824,0.06614748039746013,0.05190595134908276,-0.01225023269283082,-0.1466089991133215,-0.01729559826590426,0.02213273022458283,-0.04671839877596772,-0.11920112246106186,0.0099348735210378
403,8.944943599999533,0.19499585958812335,-0.01826531643196529,-0.007882590640363042,0.0654343207009406,0.0518204762431217,-0.012142536991195751,-0.14682909626778937,-0.017876767889681757,0.022180822735488583,-0.04385171733013724,-0.11993162401341899,0.00985877315002109
404,8.94921130000148,0.19531217522695823,-0.018013648931006078,-0.007941348652104855,0.064720125064056,0.05173216767377615,-0.012034608430095801,-0.14703529052422787,-0.018461477832902085,0.022228569351800773,-0.04099788192402445,-0.12065778679158838,0.009792561806017966
405,8.953372300005867,0.19562501701016646,-0.01776241756985522,-0.007999581502288656,0.06400496091147752,0.05164100848422972,-0.01192644857394928,-0.1472276449676724,-0.019049706631875003,0.022276018208843652,-0.03815715483482002,-0.12137945866666229,0.009736264207842339
406,8.95753749999858,0.1959343803936692,-0.017511636245809818,-0.008057288070199136,0.06328889535815446,0.051546981623790525,-0.01181805875291594,-0.14740622394168673,-0.019641432093313708,0.022323217544820702,-0.03532979145111592,-0.12209649172093796,0.00968989789957076
407,8.961663099995349,0.19624026115884638,-0.017261318938781356,-0.00811446724101644,0.06257199520326123,0.051450070151387604,-0.011709440062480763,-0.14757109301399038,-0.020236631315590062,0.022370215665605687,-0.03251603969816194,-0.12280874246261594,0.009653473120523823
408,8.96608009999909,0.19654265541098745,-0.01701147971075451,-0.008171117904674691,0.06185432692435008,0.051350257238960424,-0.011600593363212336,-0.14772231893827859,-0.020835280710504465,0.022417060908940595,-0.029716139767547833,-0.12351607187147116,0.00962699283729928
409,8.970302000001539,0.19684155957771407,-0.01676213270522975,-0.008227238954719796,0.061135956671669225,0.051247526174743686,-0.011491519280694674,-0.1478599696172219,-0.021437356024985064,0.02246380160953809,-0.026930324509136672,-0.12421834537990938,0.009610452912520473
410,8.974124400003348,0.19713697040737563,-0.016513292146650194,-0.008282829287167306,0.06041695026267534,0.05114186036644587,-0.011382218205624852,-0.14798411406809614,-0.022042832362673462,0.022510486064919878,-0.024158819944522316,-0.12491543277105115,0.009603842169399695
411,8.978807000006782,0.1974288849674186,-0.016264972339813336,-0.008337887799361171,0.05969737317668575,0.051033243344324214,-0.011272690294076909,-0.14809482239077348,-0.022651684204633194,0.022557162501146814,-0.02140184484427177,-0.12560720812755352,0.009607142297163905
412,8.982681800000137,0.19771730064273002,-0.016017187669267997,-0.008392413388834173,0.058977290549702084,0.05092165876416194,-0.01116293546793263,-0.14819216572924268,-0.023263885430437913,0.02260387903773788,-0.018659610334846914,-0.12629354996003364,0.009620327641366874
413,8.988743599998998,0.19800221513395663,-0.015769952598697103,-0.008446404952170857,0.058256767169436584,0.05080709041013822,-0.011052953415486485,-0.1482762162357789,-0.023879409340128294,0.022650683651361865,-0.01593232017131784,-0.12697434135480065,0.009643365017077929
414,8.993090100004338,0.19828362645579994,-0.015523281670286748,-0.008499861383873852,0.05753586747048402,0.05068952219759199,-0.010942743592229357,-0.14834704703511517,-0.024498228676736365,0.022697624138940335,-0.01322017058551981,-0.12764947012239725,0.009676213616288797
415,8.99690610000107,0.1985615329352884,-0.0152771895040821,-0.008552781575234421,0.056814655529696306,0.05056893817567293,-0.010832305221812177,-0.14840473218713598,-0.025120315649686403,0.02274474808043918,-0.010523350316237972,-0.12831882892609564,0.009718824921125356
416,9.001215299998876,0.19883593321002752,-0.015031690797330698,-0.008605164413208147,0.05609319506171711,0.05044532252987776,-0.010721637297191361,-0.14844934665134224,-0.025745641958568398,0.022792102801127895,-0.007842040972651973,-0.12898231540708804,0.009771142582915223
417,9.005237100005616,0.1991068262264287,-0.014786800323813692,-0.008657008779296618,0.05537154941470188,0.050318659584470175,-0.010610738581959324,-0.14848096625307802,-0.026374178817755962,0.022839735333195537,-0.005176417456325537,-0.12963983237311894,0.009833102280585109
418,9.009486099996138,0.1993742112379177,-0.014542532933165622,-0.008708313548436047,0.054649781566180784,0.0501889338047778,-0.010499607611863065,-0.14849966765209768,-0.027005896982013517,0.022887692376633444,-0.0025266478407159304,-0.13029128792999065,0.009904631624379845
419,9.013864499996998,0.19963808780312323,-0.01429890355018333,-0.008759077587893726,0.0539279541190843,0.050056129799363164,-0.010388242696514938,-0.14850552830762137,-0.0276407667723926,0.022936020259915223,0.00010710674940796735,-0.13093659554639953,0.009985650142610183
420,9.017809600001785,0.19989845578404677,-0.01405592717412463,-0.008809299756173266,0.05320612929794584,0.04992023232206896,-0.010276641921293484,-0.1484986264457299,-0.02827875810246933,0.02298476490075065,0.0027246917760942744,-0.13157567402955778,0.01007606927794643
421,9.022014000001946,0.2001553153442143,-0.013813618877997346,-0.008858978901929536,0.052484368945244345,0.04978122627393392,-0.010164803149435716,-0.14847904102793807,-0.028919840504003737,0.02303397176672962,0.005325958834095105,-0.1322084474922985,0.01017579235145416
422,9.02694579999661,0.20040866694681056,-0.013571993807839347,-0.008908113862894244,0.05176273451791238,0.049639096704988665,-0.010052724024320538,-0.14844685172300415,-0.02956398315285745,0.023083685835726446,0.00791076513782595,-0.13283484585450292,0.010284714249158453
423,9.032360199998948,0.20065851135279678,-0.013331067181990128,-0.008956703464813068,0.051041287083952766,0.04949382881591961,-0.009940401971945954,-0.14840213888049048,-0.030211154899527495,0.023133951553496818,0.010478973189253605,-0.13345480587715872,0.010402720687601416
424,9.03668760000437,0.20090484961901212,-0.01309085429035468,-0.009004746520395322,0.05032008731920373,0.04934540795956799,-0.00982783420362469,-0.14834498350580147,-0.03086132430511627,0.02318481278694244,0.013030450203272634,-0.13406827187224435,0.01052968771894823
425,9.041011499997694,0.20114768309625988,-0.012851370493660492,-0.00905224182827729,0.04959919550419819,0.0491938196422441,-0.00971501771891573,-0.14827546723933036,-0.03151445967876629,0.023236312776897045,0.01556506750377933,-0.1346751954729779,0.010665482059568465
426,9.045684099997745,0.2013870134273785,-0.01261263122270864,-0.009099188172000392,0.04887867152113159,0.0490390495248624,-0.00960194930877891,-0.14819367233736797,-0.03217052911139668,0.023288494094585215,0.018082700342232087,-0.13527553458735087,0.010809962011719862
427,9.050088000003598,0.2016228425452982,-0.012374651977619765,-0.009145584319005187,0.048158574850906806,0.04888108342392782,-0.009488625558929733,-0.14809968165301332,-0.03282950050296503,0.023341398603368275,0.02058322798846543,-0.13586925226728974,0.01096297855287564
428,9.053782800008776,0.20185517267108327,-0.012137448327075567,-0.009191429019642143,0.04743896457028757,0.04871990731240583,-0.009375042853365835,-0.1479935786161996,-0.03349134158521078,0.023395067425792695,0.023066533217169737,-0.13645631613387912,0.011124376177940997
429,9.059471600005054,0.20208400631196113,-0.011901035907556323,-0.009236721006199928,0.0467198993491375,0.04855550732048764,-0.009261197378042128,-0.14787544721959678,-0.03415601994332952,0.02344954091352333,0.025532501521857456,-0.1370366982288955,0.011293993324282407
430,9.063668600007077,0.2023093462593377,-0.01166543042257495,-0.009281458991951907,0.0460014374477106,0.04838786973624958,-0.009147085124689557,-0.14774537200627874,-0.03482350303727316,0.023504858618523625,0.027981020782899515,-0.13761037487536598,0.011471662696303484
431,9.0676730999985,0.20253119558680005,-0.011430647641908109,-0.009325641670221554,0.04528363671401017,0.04821698100621126,-0.009032701894770399,-0.14760343805885304,-0.035493758222068655,0.023561059266144112,0.030411981207389957,-0.13817732663498639,0.011657211548799153
432,9.07294900000852,0.20274955764810626,-0.01119670340082484,-0.009369267713467402,0.04456655458118499,0.048042827735797385,-0.008918043303558637,-0.1474497309877126,-0.036166752768704215,0.023618180729057168,0.03282527569107159,-0.13873753881652234,0.011850461550988348
433,9.080517900001723,0.20296443607516268,-0.010963613599313176,-0.009412335772388114,0.04385024806500242,0.047865396689692905,-0.008803104784348642,-0.14728433691664714,-0.036842453889390336,0.023676259999023747,0.035220799637179,-0.13929100253593324,0.012051228233247058
434,9.084452199997031,0.20317583477598916,-0.010731394201305334,-0.009454844475048355,0.04313477376138446,0.04768467479205926,-0.00868788159281001,-0.14710734247285587,-0.03752082876875168,0.02373533315544971,0.03759845005059377,-0.13983771563867772,0.012259320499928303
435,9.088903500000017,0.20338375793267247,-0.010500061233902217,-0.009496792426026194,0.04242018784397795,0.0475006491265863,-0.00857236881150191,-0.14691883478136486,-0.03820184459805401,0.023795435332416588,0.039958125779125366,-0.14037768288658317,0.012474540619834475
436,9.09279239999887,0.20358820999930782,-0.010269630786598103,-0.009538178205582858,0.04170654606174489,0.04731330693637581,-0.008456561354548427,-0.14671890145269426,-0.03888546860821267,0.023856600687145287,0.04229972832903586,-0.14091091560422492,0.012696684664497044
437,9.099701600003756,0.20378919569992893,-0.010040119010506283,-0.009579000368855587,0.04099390373665256,0.047122635623672526,-0.008340453972459482,-0.14650763056934765,-0.03957166810058191,0.023918862371287465,0.044623161230949136,-0.14143743161336048,0.012925543031043228
438,9.10848540000734,0.20398672002642704,-0.009811542117586362,-0.009619257445074256,0.04028231576139511,0.04692862274944838,-0.00822404125708525,-0.1462851106796435,-0.040260410479325985,0.02398225250447212,0.04692832994923955,-0.14195725567663903,0.013160900935051695
439,9.11203740000201,0.20418078823645883,-0.009583916379873937,-0.009658947936802387,0.03957183659714372,0.04673125603281883,-0.008107317646694244,-0.14605143078508534,-0.04095166328652187,0.024046802150388118,0.04921514212367262,-0.14247041949708744,0.013402539028212637
440,9.115834900003392,0.2043714058513436,-0.009357258128713575,-0.009698070319203136,0.03886252027139094,0.04653052335028583,-0.007990277431160238,-0.14580668033184413,-0.041645394234525346,0.024112541296335187,0.05148350669292835,-0.14297696054623335,0.013650234155348129
441,9.120052099999157,0.20455857865395025,-0.009131583753995849,-0.009736623039330735,0.03815442037578362,0.04632641273483956,-0.007872914757239141,-0.1455509492066489,-0.042341571229681685,0.024179498836665588,0.05373333395509067,-0.14347692019812588,0.013903760107885318
442,9.124223300008452,0.20474231268657328,-0.008906909703399047,-0.00977460451544777,0.03744759006400725,0.046118912374970886,-0.007755223633916886,-0.1452843277276811,-0.04304016238655217,0.024247702559659773,0.05596453620263755,-0.14397034217828591,0.014162888228170753
