,time,x,y,z,vx,vy,vz,ax,ay,az,jx,jy,jz
0,14.995978200007812,0.03034918495857183,-0.025781034996216045,0.0319690816763849,-0.0021826738552684416,-0.007592866775473256,0.001100660662943444,0.023947574767565146,0.02350404903811942,-0.002351167851610038,0.09277406674885925,0.11032193329257957,-0.0035370539858132657
1,14.999998800005416,0.0303394829406309,-0.02581540689523483,0.03197407519960368,-0.0020725318331924415,-0.00748456443516254,0.0010899048504499711,0.02437088986317375,0.024008655159440558,-0.002368402192378527,0.09292633232844116,0.11103926080813008,-0.004024446413417376
2,15.003925400000298,0.030330287463491593,-0.025849279795801747,0.03197901950760151,-0.001960458319702492,-0.007373954122122218,0.0010790654005394134,0.024794883783463954,0.02451651304529591,-0.002387863044938426,0.09307182375764421,0.11174836546439756,-0.004513751657961227
3,15.008273600004031,0.03032160733994856,-0.02588264314199011,0.031983914195932404,-0.0018464502904103842,-0.007261021096894769,0.001068132142585457,0.025219525480441738,0.025027584834134708,-0.0024095589062989816,0.09321046872938796,0.11244908317344895,-0.005004871686824432
4,15.012653099998715,0.03031345139626208,-0.025915486311068974,0.031988758813693834,-0.0017305048632296613,-0.007145750794337977,0.0010570948682426004,0.02564478357560707,0.025541831914716703,-0.0024334978267855634,0.09334219460250529,0.11314124910132288,-0.005497708677909407
5,15.019449500003248,0.03030582847150588,-0.025947798614305632,0.03199355286335938,-0.0016126192998835462,-0.007028128827054398,0.0010459433334810812,0.02607062635861852,0.026059214922523152,-0.002459687411458461,0.09346692836054468,0.1138246977687897,-0.005992165193558868
6,15.0245345000003,0.030298747416908044,-0.025979569297783806,0.0319982958006207,-0.0014927910074227673,-0.006908140988830343,0.0010346672606119085,0.02649702178520677,0.026579693737462228,-0.0024881348221994404,0.09358459669414321,0.11449926313367435,-0.006488144180566151
7,15.029250999999933,0.030292217095184995,-0.026010787543237508,0.032002987034238664,-0.001371017539752512,-0.006785773258086269,0.0010232563403027642,0.02692393747659032,0.027103227481030633,-0.002518846779130637,0.0936951261978235,0.11516477852674699,-0.0069855488786259405
8,15.033261000004131,0.03028624637986849,-0.026041442468900684,0.0320076259259037,-0.0012472965991555788,-0.0066610118013416325,0.001011700233590098,0.027351340719183406,0.02762977451343445,-0.0025518295618663584,0.09379844323270956,0.11582107664726084,-0.007484282811182577
9,15.037406400006148,0.030280844154625702,-0.02607152313037267,0.03201221179010526,-0.0011216260378219952,-0.006533842976691542,0.0009999885738836143,0.02777919846275993,0.02815929243071008,-0.0025870890108485307,0.09389447383954372,0.11646798951251666,-0.00798424968476034
10,15.047497200008364,0.030276019312572275,-0.026101018521499538,0.03201674389401044,-0.0009940038593889105,-0.00640425333729786,0.0009881109689661913,0.028207477319368266,0.028691738061385214,-0.0026246305276805887,0.0939831439034592,0.11710534838006947,-0.008485353269950046
11,15.051663799997186,0.030271780755578362,-0.02612991757527138,0.03202122145735172,-0.0008644282204801087,-0.0062722296348963,0.000976057002995323,0.02863614356299761,0.029227067462890437,-0.0026644590753777493,0.09406437920891941,0.11773298362422693,-0.008987497328182829
12,15.056082900002366,0.030268137393567644,-0.02615820916473564,0.03202564365232379,-0.0007328974322489436,-0.006137758823320251,0.0009638162385007558,0.029065163128993706,0.029765235917094113,-0.002706579178033219,0.0941381053435756,0.11835072469932413,-0.00949058541952423
13,15.05987460000324,0.030265098143809302,-0.026185882103926517,0.032030009603489513,-0.0005994099619231793,-0.00600082806204858,0.0009513782183889748,0.029494501612848573,0.03030619792637913,-0.002750994919315921,0.09420424758844027,0.11895840039150832,-0.009994520966741026
14,15.064070899999932,0.030262671930202944,-0.026212925148810653,0.03203431838769505,-0.0004639644343589607,-0.00586142471976524,0.000938732467954538,0.029924124268614828,0.030849907211473564,-0.002797709942720867,0.09426273108265946,0.11955583899724889,-0.01049920750243748
15,15.067536200003817,0.03026086768255641,-0.026239326998248998,0.03203856903399414,-0.0003265596336001118,-0.005719536377926846,0.0009258684968822797,0.03035399600919781,0.031396316709155096,-0.002846727452320292,0.09431348097910393,0.120142868387352,-0.01100454865074715
16,15.071313000007647,0.03025969433585649,-0.026265076294975015,0.03204276052358149,-0.0001871945044294431,-0.005575150834343212,0.0009127758012517956,0.0307840814061886,0.03194537857066537,-0.0028980502128470916,0.09435642229791574,0.12071931621297767,-0.011510448191411794
17,15.075207400004729,0.030259160829532564,-0.026290161626589204,0.032046891789735334,-4.586815392957227e-05,-0.0054282561067593915,0.0008994438655388855,0.031214344688820776,0.03249704416129289,-0.0029516805510302296,0.09439148000432172,0.12128501004748812,-0.012016810233702328
18,15.078936899997643,0.03025927610671311,-0.02631457152656996,0.032050961717769076,9.7420146956256e-05,-0.005278840436440014,0.0008858621646078621,0.03164474974451293,0.03305126406008075,-0.0030076203572640013,0.09441857918254282,0.1218397774504626,-0.012523539225557979
19,15.083098900009643,0.0302600491134751,-0.026338294475300783,0.032054969144992,0.0002426709618682962,-0.005126892291753992,0.0008720201656977736,0.03207526011941115,0.033607988059993224,-0.0030658710870267733,0.09443764502663952,0.12238344603640128,-0.01303054008173952
20,15.090318400005344,0.030261488798086326,-0.026361318901113824,0.03205891286067903,0.00038988468747442836,-0.004972400371757334,0.0008579073304017757,0.032505839018848064,0.03416716516824996,-0.003126433763718756,0.09444860293662298,0.1229158435800681,-0.013537718311982297
21,15.093780299997889,0.030263604110240608,-0.026383633181349758,0.032062791606049496,0.00053906155191847,-0.004815353609774811,0.0008435131166274793,0.03293644930876167,0.03472874360745309,-0.0031893089812492516,0.09445137881593772,0.12343679818110971,-0.014044979737231298
22,15.09782370000903,0.030266404000285962,-0.02640522564343399,0.03206660407425476,0.0006902016132772392,-0.004655741176972489,0.0008288269805527324,0.033367053518866846,0.0352926708174224,-0.003254496904287039,0.09444589917673067,0.12394613830527676,-0.01455223034319293
23,15.10179290000815,0.030269897418445765,-0.026426084565969107,0.03207034891037482,0.0008433047580377852,-0.004493552485922661,0.0008138383785836839,0.03379761384503403,0.035858893456698335,-0.003321997269512295,0.09443209099797398,0.12444369283947353,-0.015059376472556238
24,15.108184199998504,0.03027409331403301,-0.02644619817984358,0.032074024711423794,0.0009983706995761398,-0.004328777194162678,0.000798536769299151,0.0342280921511671,0.03642735740487912,-0.0033918093876196664,0.09440988190852016,0.124929291297554,-0.0155663246785384
25,15.112592000004952,0.030279000634657615,-0.026465554669356676,0.03207763002636423,0.0011553989766516707,-0.004161405207738568,0.0007829116153904188,0.03465844997325113,0.03699800776600018,-0.0034639321432348093,0.09437920031983493,0.12540276397135464,-0.01607298145943533
26,15.11686200000986,0.03028462832542695,-0.026484142173359464,0.03208116335613031,0.0013143889519227413,-0.003991426684733055,0.0007669523856063682,0.03508864852244057,0.03757078887224844,-0.003538363994497073,0.09433997523379331,0.125863942068125,-0.016579253423384135
27,15.123535200007607,0.030290985328139605,-0.026501948786411895,0.03208462315365987,0.0014753398104692212,-0.0038188320387753123,0.0007506485566970813,0.03551864868735446,0.038145644288594835,-0.0036151029744783563,0.09429213625180419,0.12631265782944762,-0.017085047370740725
28,15.128389100005734,0.03029808058047245,-0.026518962559955818,0.03208800782393533,0.001638250558329075,-0.0036436119425267387,0.0007339896153460315,0.035948411037247795,0.0387225168175929,-0.0036941466915169164,0.09423561353819823,0.12674874457696433,-0.01759027001948108
29,15.133169400010956,0.030305923015161055,-0.026535171503503836,0.03209131572403336,0.001803120021049789,-0.003465757331146958,0.0007169650601106456,0.036377895823972946,0.039301348504428256,-0.0037754923281324137,0.09417033768752942,0.1271720368497249,-0.01809482803266762
30,15.137465200008592,0.030314521559173548,-0.026550563585843928,0.03209454516318347,0.001969946842242844,-0.0032852594057335566,0.0006995644033643866,0.036807062983941034,0.03988208064296953,-0.003859136641610161,0.09409623981152042,0.1275823703996116,-0.018598628073356296
31,15.142368900007568,0.030323885132877853,-0.02656512673625967,0.03209769440283538,0.0021387294821530265,-0.003102109636732908,0.000681777173231988,0.03723587214087613,0.040464653780776134,-0.003945075963416815,0.0940132515436295,0.12797958197622245,-0.019101576548302978
32,15.146766800011392,0.030334022649202496,-0.026578848845765952,0.03210076165673528,0.002309466216238015,-0.0029162997673342506,0.000663592915536865,0.037664282607818296,0.04104900772318773,-0.0040333061974477235,0.09392130507566007,0.1283635091895647,-0.01960357967205393
33,15.150640899999416,0.0303449430127909,-0.026591717768360154,0.03210374509101097,0.002482155133755954,-0.0027278218168432216,0.0006450011957523297,0.03809225339021156,0.04163508153708003,-0.004123822820026996,0.0938203332813494,0.12873399028123508,-0.020104543613384884
34,15.154762799997116,0.030356655119149308,-0.02660372132228862,0.03210664282426587,0.0026567941363731967,-0.0025366680840416913,0.000625991600949001,0.03851974318903385,0.04222281355286789,-0.0042166208794900935,0.09371026975299572,0.12909086390930533,-0.02060437429392634
35,15.158415400001104,0.030369167853788386,-0.026614847291328462,0.03210945292768192,0.0028333809367804192,-0.002342831150543033,0.000606553741749826,0.038946710404218994,0.04281214136629965,-0.004311694994347752,0.09359104896617008,0.1294339690751005,-0.021102977388173728
36,15.162337000001571,0.030382490091358526,-0.02662508342608464,0.03211217342513146,0.0030119130573315637,-0.0021463038841355946,0.0005866772542942319,0.039373113139288436,0.04340300183979261,-0.004409039352868663,0.09346260646281931,0.12976314501793457,-0.02160025860723193
37,15.166540200007148,0.030396630694779037,-0.026634417445302247,0.032114802293298,0.0031923878287021864,-0.0019470794421257928,0.0005663518021969521,0.0397989092064428,0.04399533110326755,-0.004508647713830601,0.09332487896568382,0.1300782312013804,-0.022096123762893854
38,15.170499800005928,0.03041159851436122,-0.026642837037194066,0.03211733746180597,0.0033748023885748248,-0.001745151274673975,0.0005455670785053291,0.04022405613223692,0.044589064555359034,-0.004610513406687375,0.09317780439657315,0.13037906720342188,-0.022590478795100625
39,15.174758400011342,0.03042740238692556,-0.02665032986078328,0.03211977681335935,0.0035591536803490915,-0.0015405131281264783,0.0005243128076566188,0.04064851116283798,0.0451841368632483,-0.004714629332570343,0.09302132195880171,0.13066549263865238,-0.02308322997331458
40,15.17899749999924,0.03044405113491306,-0.026656883547261402,0.03212211818388923,0.003745438451874986,-0.0013331590483530143,0.0005025787474261611,0.04107223127045224,0.045780481963164164,-0.004820987966291498,0.0928553722744231,0.1309373473550944,-0.023574283951439543
41,15.1832349000033,0.030461553565490868,-0.026662485701361427,0.03212435936271025,0.003933653254221587,-0.0011230833840741613,0.00048035469086641996,0.04149517315983448,0.04637803306201057,-0.004929581357845743,0.09267989724240847,0.13119447158519792,-0.024063547813585072
42,15.187728800010518,0.03047991846965238,-0.026667123902746098,0.03212649809268582,0.004123794440469718,-0.0009102807901839099,0.0004576304682414568,0.041917293273421585,0.04697672263924426,-0.005040401134831265,0.09249483997914668,0.1314367060373877,-0.02455092927544574
43,15.191952100009075,0.030499154621311877,-0.02667078570741134,0.03212853207040219,0.004315858164527449,-0.0006947462310600325,0.0004343959489439004,0.04233854779729945,0.04757648244933708,-0.005153438505788,0.09230014497855196,0.13166389197387754,-0.02503633671176284
44,15.19629020000866,0.030519270776393808,-0.026673458649104732,0.032130458946351165,0.004509840379977166,-0.0004764749838641791,0.0004106410433989806,0.04275889266779646,0.04817724352436316,-0.005268684262868401,0.09209575805266078,0.13187587142117713,-0.025519679073934896
45,15.200550300010946,0.030540275671916924,-0.02667513024075902,0.032132276325121514,0.004705736838951197,-0.0002554626418286559,0.0003863557049571458,0.043178283576908734,0.04877893617838064,-0.005386128784424674,0.09188162618973178,0.13207248740809763,-0.026000865807642087
46,15.204106899996988,0.03056217802507331,-0.02667578797594055,0.032133981765598965,0.004903543091028346,-3.170511751656832e-05,0.00036152993177450583,0.043596675977599766,0.04938149001218901,-0.005505762036928439,0.09165769764117007,0.1322535839520125,-0.026479806862005188
47,15.208147299999837,0.030584986532302457,-0.026675419330312526,0.03213557278117476,0.00510325448215784,0.00019480135393477776,0.00033615376868794636,0.04401402509001826,0.049984833917585535,-0.005627573577641474,0.0914239220130616,0.13241900612293192,-0.02695641284518343
48,15.213693199999398,0.03060870986836048,-0.026674011763113008,0.03213704683996272,0.005304866153612564,0.0004240602115925441,0.0003102173090712192,0.04443028590763235,0.05058889608270686,-0.005751552557954133,0.09118025017011532,0.13256860010300092,-0.02743059506099222
49,15.218210999999428,0.03063335668538464,-0.02667155271864753,0.03213840136502476,0.005508373040968932,0.0006560745655336632,0.000283710696679617,0.044845413202571606,0.051193603996827944,-0.005877687726389971,0.09092663407542993,0.13270221318649816,-0.027902265572980846
50,15.221741300003488,0.03065893561195327,-0.026668029627796252,0.032139633734604746,0.005713769873108837,0.0008908471936672641,0.00025662412747866716,0.04525936153030022,0.05179888445570361,-0.006005967432528427,0.09066302681337576,0.1328196939400271,-0.028371337314266373
51,15.225384100005613,0.030685455252141204,-0.02666342990953553,0.0321407412823707,0.005921051171242131,0.00112838053858868,0.00022894785145303927,0.04567208523516766,0.05240466356782816,-0.006136379631010925,0.09038938274984402,0.13292089213843275,-0.028837724096688035
52,15.229676100003417,0.030712924184570767,-0.026657740972473757,0.03214172129766514,0.006130211247959184,0.001368676704458949,0.000200672174398711,0.04608353845654301,0.053010866759192594,-0.006268911885547021,0.09010565745435192,0.13300565876937448,-0.029301340629119207
53,15.233589399998891,0.030741350961458577,-0.026650950216401403,0.032142571025763636,0.006341244206309302,0.0016117374539021993,0.00017178745969534718,0.0464936751336554,0.053617418779585924,-0.006403551373087482,0.08981180750328117,0.13307384634913605,-0.02976210259984231
54,15.237786400000914,0.03077074410765814,-0.026643045033855128,0.03214328766814131,0.006554143938897416,0.0018575642049426053,0.0001422841300604154,0.04690244900993421,0.05422424371023197,-0.006540284888581529,0.08950779053025723,0.1331253088814248,-0.030219926740623043
55,15.241946300011476,0.0308011121196984,-0.02663401281169575,0.032143868382747375,0.006768904127002075,0.002106158027971406,0.00011215266927818816,0.047309813638308905,0.05483126496971498,-0.006679098849734147,0.0891935653496702,0.1331599018344761,-0.030674730698567094
56,15.246646400002646,0.030832463464818306,-0.026623840932700028,0.03214431028428741,0.0069855182397204636,0.0023575196427378904,8.13836239104808e-05,0.047715722386675506,0.0554384053214077,-0.006819979300594915,0.08886909183314405,0.13317748253925196,-0.031126432953735326
57,15.252696399998968,0.030864806579997562,-0.026612516777166053,0.032144610444513486,0.0072039795331362375,0.002611649415384147,4.996760499293068e-05,0.04812012844207003,0.056045586883027784,-0.006962911915564119,0.08853433079511347,0.13317791046401456,-0.03157495290152604
58,15.258268800011138,0.030898149870983597,-0.02660002772453207,0.03214476589252194,0.007424281049502591,0.002868547355523184,1.7895289709206922e-05,0.048522984815091694,0.05665273113656943,-0.007107882003732752,0.08818924411173848,0.13316104744316778,-0.032020210989975866
59,15.262338500004262,0.030932501711314876,-0.026586361155008526,0.03214477361505872,0.007646415616450426,0.003128213113364237,-1.4842576952282761e-05,0.04892424434516058,0.057259758939946385,-0.007254874514140549,0.08783379478509358,0.13312675801137713,-0.032462128902826536
60,15.26865510000789,0.03096787044134065,-0.02657150445122308,0.0321446305568323,0.007870375846219359,0.003390645976897051,-4.825518057212551e-05,0.04932385970552614,0.05786659053997015,-0.007403874041785198,0.08746794689735457,0.133074909577466,-0.03290062961444552
61,15.275068000002648,0.031004264367237248,-0.026555444999878334,0.032144333620833854,0.00809615413491156,0.0036558448691355223,-8.235163569798886e-05,0.04972178340810715,0.058473145585578534,-0.007554864833381148,0.08709166569773183,0.1330053724427225,-0.03333563758204646
62,15.279226800004835,0.031041691760021032,-0.02653817019342199,0.032143879668664735,0.00832374266176689,0.003923808345422603,-0.00011714098427086351,0.05011796780929285,0.0590793431409808,-0.007707830795121499,0.08670491780388775,0.13291801968645717,-0.033767079093517276
63,15.284650100002182,0.031080160854558076,-0.02651966743172914,0.032143265520871045,0.008553133388469629,0.004194534590793798,-0.00015263219409392223,0.05051236511661943,0.05968510169784275,-0.007862755501608334,0.08630767124766846,0.13281272694637344,-0.03419488241387559
64,15.288542399997825,0.031119679848570798,-0.026499924123796457,0.03214248795728507,0.008784318058484498,0.004468021417393176,-0.0001888341573401901,0.05090492739498821,0.06029033918642923,-0.008019622204949999,0.08589989546596875,0.1326893721714199,-0.03461897773949982
65,15.292455300004804,0.031160256901641585,-0.026478927689448064,0.032141543717373426,0.009017288196420083,0.004744266261938465,-0.0002257556891043531,0.05129560657325878,0.06089497298553573,-0.008178413843274107,0.08548156130982763,0.13254783540205417,-0.035039296960141096
66,15.297583699997633,0.031201900134213624,-0.02645666556105283,0.03214042950059173,0.009252035107424972,0.005023266183227617,-0.00026340552598805045,0.05168435445055011,0.06149891993162731,-0.008339113047654834,0.08505264103539212,0.13238799880233348,-0.03545577355823983
67,15.304926600001636,0.03124461762658902,-0.026433125185252968,0.032139141966745645,0.009488549876608634,0.005305017859687237,-0.0003017923247148468,0.05207112270275135,0.06210209632906282,-0.008501702149707874,0.08461310839084604,0.13220974689786816,-0.03586834284691127
68,15.308562799997162,0.03128841741792434,-0.026408294024703693,0.032137677736358145,0.009726823368496918,0.00558951758697237,-0.0003409246607847761,0.0524558628896155,0.0627044179614035,-0.008666163190687711,0.08416293864373847,0.13201296673603483,-0.03627694209808994
69,15.312511600001017,0.03133330750522378,-0.026382159559823704,0.03213603339104286,0.00996684622651762,0.0058767612756180435,-0.0003808110271722631,0.05283852646151943,0.063305800103098,-0.008832477930251006,0.08370210859934904,0.1317975479409295,-0.036681510386924764
70,15.316787100004149,0.03137929584233,-0.026354709290556253,0.032134205473883216,0.010208608872517618,0.006166744448745602,-0.0004214598330605725,0.05321906476672502,0.06390615753129208,-0.009000627854135045,0.08323059661460518,0.13156338265375042,-0.037081988454482226
71,15.320880100000068,0.0314263903389129,-0.026325930738140543,0.0321321904898173,0.010452101506314641,0.006459462239821928,-0.00046287940260974326,0.05359742905826603,0.06450540453697007,-0.009170594181669248,0.08274838258873017,0.13131036535438514,-0.03747831877181273
72,15.324881799999275,0.03147459885945639,-0.026295811446893226,0.03212998490602825,0.010697314105277205,0.006754909390467363,-0.0005050779737595281,0.05397357050112401,0.0651034549351377,-0.00934235787403778,0.0822554481325293,0.1310383927562321,-0.03787044560402672
73,15.329118499998003,0.03152392922224327,-0.02626433898599979,0.03212758515234002,0.01094423642394181,0.007053080248307782,-0.0005480636970726668,0.05434744018065871,0.06570022207500457,-0.009515899642375312,0.08175177662351023,0.13074736384724384,-0.03825831486384763
74,15.33339130000968,0.031574389198338576,-0.026231500951315646,0.03212498762161833,0.011192857993669746,0.007353968764875356,-0.0005918446346116437,0.05471898911028658,0.0662956188505413,-0.009691199954694309,0.08123735304096795,0.13043717983959718,-0.03864187414821593
75,15.337266600006842,0.031625986510571316,-0.026197284967176646,0.03212218867017665,0.011443168122334304,0.007657568493556887,-0.0006364287588451242,0.055088168238407516,0.06688955771020298,-0.009868239044314556,0.08071216398438594,0.1301077440004506,-0.03902107294881671
76,15.341443400000571,0.03167872883251493,-0.026161678688218885,0.03211918461818717,0.011695155894040738,0.00796387258758323,-0.0006818239516015734,0.055454928456251086,0.06748195066594316,-0.010046996918710053,0.08017619784728373,0.1297589616107462,-0.03939586235002726
77,15.34544289999758,0.03173262378746651,-0.026124669801207555,0.032115971750096284,0.01194881016888502,0.00827287379805982,-0.0007280380030563594,0.05581922060638845,0.06807270930256172,-0.010227453365184401,0.07962944478976604,0.129390740047476,-0.03976619455293426
78,15.35005400000955,0.03178767894742505,-0.026086246026874694,0.03211254631504478,0.012204119582751412,0.008584564472041324,-0.0007750786107371204,0.0561809954903283,0.06866174478746893,-0.010409587955377652,0.07907189668367867,0.12900298867392074,-0.040132022893642406
79,15.354086500010451,0.03184390183206881,-0.0260463951217656,0.03210890452729245,0.01246107254714049,0.008898936550651201,-0.0008229533785519617,0.05654020387652871,0.06924896787903252,-0.010593380051108636,0.07850354716738485,0.12859561856056503,-0.04049330188904524
80,15.358073600000353,0.03190129990773201,-0.026005104880093735,0.032105042566647105,0.012719657249039755,0.009215981567232467,-0.0008716698158480936,0.0568967965084925,0.069834288933797,-0.010778808809299153,0.07792439149027831,0.12816854242993844,-0.04084998686152529
81,15.362162800010992,0.03195988058638101,-0.025962363135603985,0.032100956578897756,0.012979861650825479,0.009535690645533073,-0.0009212353364849276,0.05725072411136136,0.07041761791432782,-0.010965853184394287,0.07733442648534453,0.127721674734565,-0.041202033673517637
82,15.369372100001785,0.0320196512245901,-0.025918157763444118,0.032096642676252105,0.013241673490193447,0.009858054497928195,-0.0009716572579147829,0.05760193739976106,0.07099886439714143,-0.011154491930866331,0.07673365061479129,0.12725493174404204,-0.041549398690897764
83,15.375050900009228,0.03208061912251707,-0.025872476682044256,0.03209209693777811,0.013505080280132324,0.010183063423677925,-0.0010229428002788135,0.057950387084811594,0.07157793758134338,-0.011344703605301267,0.07612206370468494,0.12676823161349854,-0.041892038599908275
84,15.37893079999776,0.03214279152287874,-0.025825307855004215,0.03208731540984971,0.013770069308918324,0.010510707307228322,-0.0010750990855067394,0.05829602387955278,0.0721547462971827,-0.011536466567233415,0.07549966699991087,0.12626149422800623,-0.04222991027900456
85,15.384553500000038,0.032206175609926474,-0.02577663929298847,0.03208229410659658,0.014036627640138046,0.010840975616547096,-0.0011281331364203842,0.058638798506455564,0.07272919901327124,-0.011729758980063398,0.07486646329220184,0.12573464112028163,-0.04256297080801598
86,15.388308900000991,0.03227077850842194,-0.02572645905562867,0.03207702901035807,0.014304742112751631,0.01117385740149049,-0.0011820518758417762,0.058978661704014994,0.07330120384438764,-0.011924558811976318,0.07422245675555256,0.12518759561710016,-0.042891177404088876
87,15.391691299999366,0.03233660728261321,-0.025674755253433486,0.032071516072141065,0.014574399341175716,0.011509341292210127,-0.001236862125705058,0.0593155642327608,0.07387066856003176,-0.012120843836275643,0.07356765303761013,0.12462028281182087,-0.04321448735757897
88,15.402879400004169,0.03240366893521121,-0.02562151604970567,0.032065751212082015,0.014845585715401392,0.011847415497597881,-0.001292570606167632,0.05964945688268368,0.07443750059197807,-0.012318591631716853,0.07290205923213118,0.12403262949575608,-0.043532858004614705
89,15.407637800002703,0.03247197040636697,-0.025566729662466075,0.03205973031991294,0.015118287401144874,0.012188067803761601,-0.0013491839347251125,0.05998029047899475,0.07500160704220432,-0.01251777958259115,0.07222568387013348,0.1234245643137997,-0.043846246663027506
90,15.412103700000443,0.03254151857264943,-0.025510384366384597,0.03205344925543147,0.015392490340017972,0.01253128557254228,-0.0014067086253232344,0.060308015889471156,0.07556289469186397,-0.012718384878474915,0.07153853715770386,0.12279601787429505,-0.04415461072385703
91,15.416489700000966,0.032612320246024215,-0.025452468494717738,0.03204690384897501,0.015668180249745742,0.012877055740071586,-0.0014651510874705202,0.06063258403238384,0.07612127001021664,-0.012920384515147772,0.07084063082934884,0.12214692271224643,-0.04445790775206367
92,15.420704100004514,0.03268438217283345,-0.02539297044125269,0.03204008990189883,0.01594534262440924,0.013225364815370459,-0.0015245176253585605,0.06095394588250603,0.07667663916326506,-0.01312375529526034,0.07013197815740976,0.12147721320707729,-0.044756095394996843
93,15.424979700008407,0.03275771103277673,-0.02533187866225768,0.03203300318705824,0.01622396273471796,0.013576198878985394,-0.0015848144369807692,0.061272052479126836,0.07722890802193569,-0.013328473828417713,0.06941259419017574,0.1207868256376463,-0.04504913142815472
94,15.429030500003137,0.03283231343789345,-0.025269181678438484,0.03202563944929478,0.01650402562832566,0.013929543581661638,-0.0016460476132534251,0.06158685493423087,0.0777779821712173,-0.013534516532264453,0.0686824957057516,0.12007569826903992,-0.04533697383754816
95,15.433262500009732,0.03290819593154665,-0.025204868076900866,0.032017994405926335,0.016785516130177373,0.014285384143062787,-0.0017082231371443207,0.06189830444009122,0.07832376691913294,-0.013741859633319062,0.06794170109323085,0.11934377133890325,-0.045619580792255074
96,15.439817500009667,0.03298536498740846,-0.02513892651311878,0.03201006374724131,0.01706841884289447,0.014643705350525796,-0.0017713468828014116,0.06220635227636558,0.07886616730575391,-0.01395047916780873,0.067190230261216,0.11859098720379642,-0.04589691079089646
97,15.446785699998143,0.0330638270084475,-0.02507134571290815,0.032001843136996694,0.017352718147186388,0.015004491557862766,-0.0018354246146890776,0.06251094981685512,0.0794050881135062,-0.014160350983839387,0.06642810477493571,0.11781729047665022,-0.04616892267075554
98,15.45035949999874,0.03314358832591809,-0.025002114474406006,0.03199332821292008,0.0176383982022973,0.01536772668420993,-0.0019004619867365583,0.06281204853785084,0.07994043387743782,-0.014371450742313593,0.06565534784747036,0.11702262802684679,-0.046435575397248914
99,15.453954000011436,0.0332246551983517,-0.02493122167005475,0.031984514587215525,0.017925442946493952,0.015733394212923055,-0.0019664645414825834,0.06310960002481246,0.08047210889552595,-0.014583753917180982,0.06487198419303265,0.11620694901187592,-0.04669682804565406
100,15.45808229999966,0.033307033810550606,-0.024858656248591366,0.03197539784707335,0.018213836097573245,0.01610147719052041,-0.0020334377092260923,0.06340355597937695,0.08100001723923289,-0.014797235796189535,0.06407804027380702,0.11537020491420868,-0.04695263973700898
101,15.462142900010804,0.033390730272583956,-0.02478440723704133,0.03196597355518376,0.018503561153413957,0.016471958225674425,-0.0021013868071777142,0.06369386822828815,0.0815240627641495,-0.015011871480551555,0.06327354437371838,0.11451234950487739,-0.047202969619799216
102,15.466475799999898,0.0334757506187865,-0.024708463742717002,0.031956237250254364,0.018794601392565755,0.016844819488251693,-0.0021703170386074425,0.06398048873107791,0.08204414912021903,-0.015227635885527962,0.062458526570942384,0.11363333880648911,-0.04744777705307037
103,15.470473599998511,0.03356210080676,-0.02463081495522031,0.03194618444753157,0.019086939874870958,0.01722004270839786,-0.002240233492001442,0.06426336958874503,0.08256017976204326,-0.015444503741763897,0.06163301890215602,0.11273313114820384,-0.047687021615519784
104,15.47387320001144,0.03364978671637761,-0.024551450148449467,0.0319358106393258,0.019380559442132676,0.0175976091756716,-0.002311141140221902,0.0645424630529341,0.08307205795960772,-0.015662449595955922,0.06079705537213086,0.11181168718436374,-0.047920663096363406
105,15.477405600002385,0.03373881414879142,-0.024470358682609553,0.031925111295540556,0.019675442718820272,0.017977499738227293,-0.002383044839669926,0.06481772153470189,0.08357968680875764,-0.015881447812104342,0.059950672109346285,0.11086896983920475,-0.04814866172421581
106,15.481064899999184,0.03382918882544325,-0.024387530006226697,0.03191408186420524,0.019971572112817432,0.018359694802044527,-0.002455949329456805,0.06508909761511508,0.08408296924141906,-0.01610147257426735,0.05909390760356445,0.10990494438017322,-0.04837097831347784
107,15.48531709999952,0.03392091638707899,-0.024302953658165673,0.031902717772011785,0.020268929816224256,0.018744174330203967,-0.002529859230592019,0.06535654405618288,0.08458180803674327,-0.01632249788914813,0.058226802578133736,0.10891957857379489,-0.04858757422777128
108,15.489417700009652,0.03401400239276674,-0.02421661926965069,0.031891014424854904,0.020567497806205016,0.019130917842218473,-0.0026047790451780998,0.0656200138102904,0.08507610583274915,-0.01654449758851558,0.05734939990765563,0.10791284264865654,-0.048798411471445424
109,15.496523499998148,0.03410845231891887,-0.02412851656628908,0.03187896720837603,0.020867257845876258,0.019519904413415126,-0.002680713155620704,0.06587946003038055,0.0855657651371301,-0.01676744533262579,0.05646174485551559,0.10688470931393039,-0.04900345276279964
110,15.500733400011086,0.03420427155831826,-0.024038635370097736,0.03186657148851079,0.0211681914852474,0.01991111267436489,-0.0027576658238546744,0.06613483608155327,0.08605068833906526,-0.016991314613310427,0.05556388516555817,0.10583515391044875,-0.04920266145173694
111,15.509325500010164,0.03430146541914894,-0.02394696560153199,0.031853822612039985,0.0214702800622146,0.02030452081037232,-0.002835641190582273,0.0663860955520833,0.08653077772140397,-0.017216078756647345,0.05465587085185956,0.10476415429167978,-0.04939600148311899
112,15.513339500001166,0.034400039124031376,-0.023853497281516704,0.03184071590714401,0.021773504703601808,0.02070010656101634,-0.002914643274523591,0.06663319226310255,0.08700593547139167,-0.017441710925714848,0.05373775404293776,0.10367169078704411,-0.04958343735101601
113,15.5167819000053,0.034499997809062606,-0.023758220533479337,0.0318272466839607,0.022077846326242923,0.02109784721973774,-0.0029946759716798993,0.06687608027819734,0.08747606369251994,-0.017668184122845158,0.052809589073144696,0.10255774633463094,-0.049764933952246154
114,15.520852500005276,0.03460134652286141,-0.023661125585384798,0.031813410235146417,0.02238328563811036,0.021497719633488,-0.0030757430546046027,0.06711471391392414,0.08794106441646249,-0.01789547119104323,0.051871432611079585,0.10142230637139424,-0.049940456449071635
115,15.526856500000576,0.03470409022561873,-0.02356220277177172,0.03179920183644058,0.02268980313949307,0.02189970020242563,-0.0031578481716795274,0.06734904775057765,0.08840083961392399,-0.018123544814988273,0.05092334362281268,0.10026535881024348,-0.05010997013189717
116,15.530849500006298,0.03480823378815357,-0.02346144253579007,0.03178461674723336,0.022997379124223317,0.022303764879663904,-0.003240994846395009,0.06757903664237122,0.08885529120636719,-0.018352377521200645,0.04996538344500104,0.09908689399902544,-0.05027344046504441
117,15.535304100005304,0.034913781990974606,-0.023358835431239736,0.03176965021113672,0.023305993680947507,0.022709889171074145,-0.0033251864766277,0.06780463572887165,0.08930432107648772,-0.018581941679460742,0.04899761599563196,0.09788690456933402,-0.05043083328812968
118,15.539127299998654,0.03502073952334768,-0.02325437212460992,0.03175429745655875,0.023615626694457225,0.023118048135128952,-0.0034104263339335963,0.06802580044710109,0.08974783107856268,-0.018812209504812074,0.04802010767323863,0.09666538559654936,-0.0505821146787533
119,15.543332800007192,0.035129110982369545,-0.023148043397119154,0.03173855369728113,0.023926257847070427,0.02352821638279985,-0.003496717562844109,0.06824248654205298,0.09018572305038466,-0.019043153057728145,0.04703292728387258,0.09542233473286456,-0.050727250815205606
120,15.5473367000086,0.03523890087204795,-0.02303984014675564,0.03172241413303988,0.02423786662005835,0.023940368077509332,-0.003584063180160611,0.06845465007812802,0.09061789882482328,-0.01927474424486367,0.04603614624216563,0.0941577523170484,-0.05086620807715319
121,15.551739200003794,0.0353501136023884,-0.0229297533903177,0.03170587395010928,0.024550432295130976,0.024354476935133935,-0.0036724660742573603,0.06866224745148343,0.09104426024276005,-0.019506954820139526,0.0450298385804224,0.09287164156177108,-0.05099895303646269
122,15.555856799997857,0.03546275348848777,-0.022817774265454064,0.03168892832188893,0.024863933955976553,0.024770516224074217,-0.003761929004385939,0.06886523540155182,0.09146470916635795,-0.019739756385410288,0.04401408085752502,0.09156400858606878,-0.051125452429770006
123,15.56191210000543,0.035576824749635125,-0.02270389403270371,0.03167157240949406,0.025178350489852085,0.025188458765378816,-0.0038524545999842614,0.0690635710225598,0.0918791474922923,-0.019973120391299073,0.04298895216781861,0.09023486271738779,-0.05124567313105563
124,15.566303300001891,0.03569233150841983,-0.022588104077535018,0.03165380136234887,0.025493660589227873,0.025608276932935086,-0.003944045359988628,0.06925721177512797,0.09228747716777441,-0.02020701813761502,0.04195453413189246,0.08888421677497799,-0.051359582233927434
125,15.570575100005954,0.03580927778984734,-0.022470395912383853,0.0316356103187831,0.025809842753483785,0.02602994265373925,-0.004036703652146537,0.06944611549770538,0.09268960020636646,-0.020441420774938383,0.04091091087838444,0.08751208712952982,-0.05146714709743245
126,15.574778900001547,0.03592766752046282,-0.022350761178690275,0.03161699440663166,0.026126875290658054,0.02645342740823124,-0.004130431712343195,0.0696302404180036,0.0930854187045489,-0.02067629930545573,0.03985816899820202,0.08611849403296767,-0.05156833513559151
127,15.579057299997658,0.03604750452748286,-0.02222919164893356,0.03159794874383733,0.026444736319247802,0.026878702230715906,-0.004225231643921942,0.06980954516401384,0.0934748348605424,-0.020911624582626,0.03879639758111892,0.08470346174631087,-0.05166311386307514
128,15.584641200010084,0.03616879253793548,-0.022105679228665066,0.03157846843905659,0.026763403770058293,0.027305737709869486,-0.004321105417007714,0.06998398877577469,0.09385775099204113,-0.02114736731243218,0.03772568832565509,0.08326701859463337,-0.05175145098677905
129,15.589081600002828,0.03629153517780876,-0.02198021595853865,0.03155854859226846,0.02708285538811076,0.02773450398932251,-0.004418054867838888,0.07015353071739108,0.09423406955553587,-0.021383498053882354,0.03664613547493465,0.08180919728300846,-0.051833314296002395
130,15.592543100006878,0.03641573597120823,-0.021852794016338203,0.031538184295386476,0.02740306873460125,0.028164970768342443,-0.004516081698095306,0.07031813088821721,0.094603693166928,-0.021619987219260006,0.03555783578926539,0.08033003486875503,-0.051908671699007224
131,15.5967837000062,0.03654139833952332,-0.021723405719001852,0.031517370632873624,0.027724021188910406,0.028597107302604563,-0.0046151874742324074,0.07047774963462551,0.0949665246205996,-0.021856805074958432,0.034460888564424176,0.07882957280755125,-0.051977491131514536
132,15.60019050000119,0.03666852560060312,-0.021592043524642467,0.031496102682360375,0.02804568995066963,0.029030882405048485,-0.00471537362681686,0.07063234776135624,0.09532246691044792,-0.022093921740896704,0.033355395540138555,0.07730785728285831,-0.05203974032791626
133,15.60799990000669,0.03679712096794166,-0.02145870003456404,0.03147437551526571,0.028368052041874352,0.02946626444684083,-0.004816641449855363,0.07078188654245202,0.09567142325195918,-0.02233130718926797,0.03224146099164018,0.07576493921016983,-0.05209538672964462
134,15.612183600009304,0.03692718754987291,-0.021323367995273432,0.031452184197421254,0.0286910843090499,0.02990322135843302,-0.004918992100118872,0.07092632773344221,0.0960132971032818,-0.02256893124311993,0.031119191793680456,0.07420087423275931,-0.05214439748522615
135,15.616231400010292,0.03705872834877585,-0.0211860403004871,0.03142952378969847,0.029014763425475855,0.030341720630716093,-0.005022426596458454,0.07106563358286114,0.09634799218726137,-0.02280676357510362,0.029988697292509862,0.07261572284086726,-0.05218673955102806
136,15.620327199998428,0.037191746260289725,-0.02104670999313231,0.03140638934863901,0.02933906589345695,0.030781729316279417,-0.005126945819118103,0.07119976684326519,0.09667541251360069,-0.02304477370697251,0.028850089552828428,0.07100955029804039,-0.05222237985589696
137,15.624947500007693,0.03732624407253983,-0.020905370267342387,0.03138277592708823,0.029663968046647882,0.03122321403076756,-0.005232550509046032,0.07132869078500273,0.09699546240022311,-0.023282931009832464,0.027703483943809434,0.06938242658178857,-0.05225128549344035
138,15.633113100004266,0.03746222446537397,-0.020762014470445567,0.03135867857483175,0.029989446052449766,0.0316661409543338,-0.005339241267209764,0.0714523692125746,0.09730804649489141,-0.023521204705394087,0.026548999285372073,0.06773442644305884,-0.0522734238868237
139,15.637220300006447,0.037599690009610075,-0.020616636104946982,0.03133409233923526,0.030315475914484125,0.03211047583319412,-0.005447018553918843,0.07157076647973777,0.09761306979711348,-0.023759563867725316,0.02538675769252408,0.06606562947024955,-0.0522887629077013
140,15.641344300005583,0.03773864316629524,-0.020469228830503346,0.031309012265887254,0.030642033475127048,0.03255618398128043,-0.005555882688155909,0.07168384750444656,0.09791043768034488,-0.023997977425588173,0.02421688482289822,0.06437612019515439,-0.05229727098150244
141,15.645541899997625,0.03787908628597642,-0.020319786465889868,0.0312834333992449,0.03096909441811943,0.03300323028199704,-0.005665833846920712,0.07179157778621333,0.09820005591486049,-0.024236414165151376,0.023039510086876283,0.06266598819262355,-0.05229891715152927
142,15.649581000005128,0.03802102160798332,-0.020168302990958918,0.03125735078328281,0.03129663427125942,0.033451579190082424,-0.005776872064585921,0.07189392342296559,0.09848183069086583,-0.02447484273291154,0.021854766556241148,0.06093532815855902,-0.05229367104232697
143,15.65380690000893,0.038164451259723585,-0.020014772548589972,0.031230759462144733,0.03162462840916637,0.033901194733576404,-0.005888997232267777,0.07199085112757385,0.09875566864207987,-0.024713231638071792,0.020662790945723958,0.059184240025208334,-0.05228150268116278
144,15.658157400001071,0.03830937725599091,-0.019859189446630333,0.03120365448079809,0.03195305205612397,0.03435204051589695,-0.006002209097203586,0.07208232824454043,0.09902147686989758,-0.0249515492538352,0.019463723539646302,0.057412829156971025,-0.052262382461458215
145,15.662318100003176,0.038455801498286174,-0.01970154815982614,0.03117603088569134,0.03228188028899638,0.03480407971802769,-0.006116507262134167,0.07216832276585841,0.09927916296875815,-0.025189763819449967,0.01825770816537794,0.05562120661622659,-0.05223628130753015
146,15.666343700009747,0.038603725774152116,-0.019541843331743153,0.031147883725414143,0.03261108804021598,0.035257275100826005,-0.0062318911846999964,0.07224880334745848,0.09952863505273135,-0.025427843443004982,0.017044892329593102,0.05380948923208975,-0.05220317069743999
147,15.670908800006146,0.03875315175652173,-0.019380069776676705,0.03111920805136023,0.032940650100849435,0.03571158900745297,-0.006348360176849142,0.07232373932631023,0.09976980178151268,-0.02566575610368335,0.015825427163097674,0.05197779951771666,-0.05216302270884383
148,15.674954500005695,0.03890408100308086,-0.019216222481550332,0.03108999891839297,0.03327054112374139,0.036166983365918476,-0.006465913404253957,0.07239310073636596,0.10000257238625573,-0.025903469654976013,0.014599467385602312,0.050126265822035485,-0.05211581016538342
149,15.678996300004655,0.03905651495564532,-0.01905029660780253,0.031060251385513552,0.033600735626725935,0.036623419691746685,-0.006584549885748315,0.07245685832534077,0.1002268566969508,-0.026140951828270073,0.013367171625307773,0.04825502251192784,-0.052061506645835774
150,15.6834291999985,0.039210454939552726,-0.01888228749326106,0.031029960516531688,0.03393120799592326,0.03708085909077082,-0.006704268492777025,0.07251498357357036,0.10044256516991844,-0.02637817023614585,0.012128702546511693,0.04636420999528267,-0.052000086580271374
151,15.687517900005332,0.03936590216306967,-0.01871219065400425,0.030999121380738816,0.034261932489123084,0.03753926226204931,-0.006825067948863127,0.07256744871195467,0.1006496089153982,-0.02661509237684198,0.010884226713143725,0.04445397482230878,-0.05193152536440613
152,15.692031900005531,0.03952285771681444,-0.01854000178620869,0.030967729053583658,0.03459288323924495,0.03799858950091211,-0.006946946829098018,0.07261422673957134,0.10084789972596604,-0.026851685638595146,0.009633914744179404,0.04252446975831116,-0.05185579943286789
153,15.69833810000273,0.039681322573195725,-0.018365716767982748,0.03093577861735007,0.03492403425788221,0.038458800702135976,-0.007069903559648325,0.07265529144303645,0.10103735010478662,-0.027087917304773217,0.008377941569774469,0.04057585387975725,-0.05177288645147253
154,15.702624300000023,0.03984129758586764,-0.018189331661185346,0.030903265161837102,0.03525535943893887,0.0389198553632484,-0.007193936417292828,0.07269061741645347,0.10121787329490661,-0.027323754559968164,0.00711648647701036,0.03860829282140848,-0.05168276535370694
155,15.708381800010102,0.04000278348920159,-0.018010842713229325,0.030870183785041066,0.035586832562355494,0.039381712587969964,-0.007319043528984889,0.07272018008119104,0.10138938330976041,-0.027559164495461873,0.005849733109886619,0.03662195907853043,-0.051585416377407906
156,15.712539700005436,0.040165780897775304,-0.01783024635886884,0.030836529593839583,0.035918427297926346,0.03984433108979644,-0.007445222871439219,0.07274395570583188,0.10155179496521899,-0.02779411411565348,0.004577869579572164,0.034617032290736816,-0.05148082120216107
157,15.718819300003815,0.04033029030587947,-0.017647539221970057,0.03080229770467743,0.036250117209207205,0.04030766919573336,-0.0075724722707529064,0.07276192142695588,0.10170502391268373,-0.02802857034477801,0.0033010885369427192,0.032593699264703985,-0.05136896298115317
158,15.722659500010195,0.04049631208704241,-0.01746271811726451,0.030767483244254032,0.036581875757522024,0.04077168485017987,-0.007700789402053446,0.07277405526975038,0.10184898667134237,-0.028262500033624138,0.0020195870447914225,0.03055215397399891,-0.05124982643739004
159,15.726758000004338,0.040663846493573234,-0.017275780052084376,0.03073208135021252,0.03691367630605865,0.04123633561895744,-0.00783017178918102,0.07278033616762805,0.10198360066126132,-0.028495869967130147,0.0007335665874296535,0.02849259774260454,-0.051123397813370566
160,15.731098900010693,0.040832893656123886,-0.017086722228079092,0.030696087171830123,0.03724549212405437,0.0417015786934954,-0.007960616804405789,0.07278074398292475,0.10210878423731494,-0.028728646870642825,-0.0005567667467769055,0.02641523921245841,-0.05098966471083177
161,15.73559510000632,0.04100345358327046,-0.016895542042912482,0.030659495870709805,0.03757729639108035,0.04216737089516906,-0.008092121668167243,0.07277525952818177,0.1022244567219819,-0.0289607974160522,-0.0018512022748477712,0.02432029427025923,-0.05084861620066596
162,15.73918630000844,0.041175526161114286,-0.0167022370919398,0.030622302621473026,0.03790906220142125,0.042633668679784284,-0.008224683448847426,0.07276386458675761,0.1023305384386071,-0.029192288229052663,-0.0031495248012300293,0.022207986263044235,-0.05070024285032681
163,15.74324520000664,0.0413491111529032,-0.016506805169863983,0.030584502612453456,0.038240762568547575,0.04310042814221887,-0.008358299062576497,0.07274654193336218,0.10242695074616362,-0.0294230858955276,-0.004451514544012864,0.020078546112278963,-0.05054453660487825
164,15.746636199997738,0.0415242081986734,-0.016309244272370363,0.030546091046391503,0.03857237042968254,0.04356760502122413,-0.00849296527306417,0.07272327535534132,0.102513616073555,-0.02965315696772592,-0.0057569471173985745,0.017932212199015612,-0.050381490759408475
165,15.750535700004548,0.04170081681491237,-0.01610955259773914,0.030507063141129564,0.03890385865046851,0.044035154704378986,-0.00862867869146159,0.07269404967337086,0.10259045795332998,-0.029882467970395135,-0.007065593632366737,0.015769230442183643,-0.05021109994085787
166,15.753996100000222,0.041878936394243275,-0.015907728548434925,0.03046741413030782,0.03923520002972252,0.044503032233199,-0.0087654357762487,0.07265885076182328,0.10265740105669867,-0.030110985406792204,-0.008377220686908986,0.013589854445477343,-0.05003336012183204
167,15.75812680000672,0.04205856620513125,-0.015703770732672633,0.030427139264060498,0.03956636730428844,0.04497119230840975,-0.008903232833150919,0.07261766556955081,0.10271437122858663,-0.03033867576494257,-0.009691590375527873,0.011394345418649714,-0.049848268556312886
168,15.762305600001127,0.04223970539161203,-0.015497677965958936,0.030386233809712445,0.039897333153981994,0.04543958929537546,-0.009042066015083583,0.07257048214016544,0.10276129552193339,-0.0305655055230648,-0.011008460307946928,0.009182972113757024,-0.04965582372939845
169,15.766295399997034,0.04242235297304333,-0.015289449272608651,0.030344693052475887,0.040228070206627844,0.04590817722968515,-0.009181931322118088,0.07251728963265146,0.10279810223216518,-0.03079144115537135,-0.012327583617874383,0.006956010850603756,-0.049456025393897755
170,15.770489300004556,0.04260650784387941,-0.015079083887235275,0.030302512296147305,0.04055855104319255,0.046376909822895544,-0.009322824601479214,0.07245807834156556,0.10282472093172547,-0.031016449137826883,-0.013648708980856338,0.004713745546126515,-0.049248874478899855
171,15.774467499999446,0.042792168773469266,-0.014866581256214997,0.03025968686380423,0.040888748203005844,0.04684574046843211,-0.009464741547563778,0.07239283971748657,0.10284108250481566,-0.031240495953115358,-0.014971580578555212,0.002456467728500007,-0.049034373016495235
172,15.778849700000135,0.042979334405878776,-0.01465194103912343,0.030216212098501945,0.04121863418908004,0.047314622247648735,-0.00960767770198325,0.07232156638754128,0.10284711918205419,-0.03146354809573018,-0.01629593814416192,0.0001844765664311453,-0.048812524095954976
173,15.782833500008564,0.04316800325973741,-0.01443516311014437,0.03017208336396989,0.04154818147351848,0.04778350793604476,-0.009751628453628815,0.07224425217544009,0.10284276457548436,-0.03168557207652351,-0.017621516870163664,-0.002101921128089157,-0.048583331868302077
174,15.787033600005088,0.0433581737281097,-0.01421624755944984,0.030127296045307773,0.04187736250301762,0.04825235000964388,-0.009896589038755474,0.07216089212284384,0.10282795371325851,-0.031906534427838085,-0.01894804734557778,-0.004402410984666906,-0.048346801555508974
175,15.791187399998307,0.043549844078392096,-0.013995194694550689,0.030081845549681203,0.042206149704470314,0.04872110065152744,-0.010042554541093892,0.07207148250997174,0.10280262307387192,-0.03212640170814038,-0.020275255829715524,-0.0067166710815915,-0.04810293915306884
176,15.794970400005695,0.04374301245223555,-0.013772005041617059,0.030035727307016785,0.04253451549065579,0.04918971175852546,-0.01018951989197675,0.07197602087447202,0.10276671062078237,-0.03234514050444047,-0.021602864371023548,-0.0090443719339945,-0.04785175118730818
177,15.799779100008893,0.04393767686549425,-0.013546679346767981,0.029988936770696608,0.04286243226601499,0.049658134948065605,-0.010337479870472658,0.07187450603094626,0.10272015583675198,-0.032562717434712354,-0.022930590634068028,-0.011385176505693904,-0.0475932447017999
178,15.80392849999771,0.04413383520820083,-0.013319218577329392,0.029941469418252105,0.043189872432518595,0.05012632156517735,-0.010486429103534567,0.07176693809139759,0.10266289975835881,-0.032779099150189915,-0.024258147980746003,-0.013738740128571809,-0.04732742706956258
179,15.808035000009111,0.04433148524456865,-0.013089623923059858,0.029893320752057195,0.043516808395628805,0.05059422268965561,-0.010636362066154627,0.0716533184840145,0.10259488501107379,-0.032994252336074864,-0.025585245846274876,-0.01610471047545069,-0.04705430575056033
180,15.812391800005573,0.04453062461302136,-0.012857896797343282,0.029844486300020734,0.04384321257033863,0.051061789143384766,-0.010787273081519052,0.07153364997019084,0.10251605584401965,-0.03320814371162158,-0.026911589830914746,-0.01848272764956774,-0.04677388823229799
181,15.816538400002171,0.044731250826250235,-0.012624038838347847,0.02979496161627824,0.04416905738728885,0.051528971497819195,-0.010939156321163747,0.0714079366624732,0.10242635816423204,-0.033420740030303375,-0.028236881516277165,-0.02087242428505486,-0.04648618206170425
182,15.820563500004935,0.044933361271299516,-0.012388051910150506,0.02974474228188292,0.04449431529897098,0.05199572008161972,-0.011092005805130692,0.07127618404325588,0.10232573957050221,-0.033632008080188076,-0.029560818447625675,-0.023273425679307777,-0.04619119489101706
183,15.824638100006268,0.045136953209680294,-0.012149938103826302,0.02969382390549599,0.04481895878601466,0.05246198498844271,-0.011245815402126992,0.07113839898288962,0.10221414938643125,-0.03384191468452266,-0.03088309426157542,-0.025685349923696175,-0.045888934399932205
184,15.829246900000726,0.04534202377751321,-0.01190969973850184,0.029642202124076224,0.045142960363555765,0.052927716084877924,-0.011400578829686597,0.07099458975721219,0.10209153869308092,-0.03405042670139897,-0.032203398859933965,-0.028107808020566612,-0.04557940807584954
185,15.837208299999476,0.04554856998570037,-0.011667339362372221,0.029589872603568816,0.04546629258768362,0.05339286301853531,-0.011556289654326297,0.0708447660640721,0.10195786036096102,-0.03425751102233463,-0.03352141868479983,-0.03054040398832203,-0.045262622980601484
186,15.841574600010064,0.04575658872012686,-0.011422859753680781,0.029536831039593512,0.045788928061959784,0.053857375226274526,-0.011712941291694505,0.0706889390383507,0.10181306908172215,-0.03446313456981179,-0.034836836919868004,-0.032982734881702495,-0.04493858556738127
187,15.845612800010713,0.045966076741892084,-0.011176263921660991,0.029483073158132093,0.04611083944400224,0.05432120194258072,-0.011870527006704813,0.07052712126665049,0.10165712139995811,-0.03466726429418875,-0.036149333435085085,-0.035434390855972914,-0.04460730170346346
188,15.84963380001136,0.0461770306875713,-0.010927555107439821,0.02942859471621531,0.046431999452138085,0.054784292208084014,-0.01202903991365661,0.0703593268028218,0.10148997574431343,-0.0348698671714459,-0.03745858468584515,-0.03789495523819262,-0.044268776597114805
189,15.853752399998484,0.04638944706950765,-0.01067673678490196,0.029373391502609265,0.04675238087212934,0.05524659487821893,-0.012188472976348093,0.0701855711835702,0.1013115924586359,-0.03507091019943089,-0.03876426379602291,-0.04036400451093442,-0.04392301449554547
190,15.861264600011054,0.046603322276135006,-0.010423812661514225,0.029317459338501304,0.0470719565639679,0.05570805863202793,-0.01234881900816264,0.07000587144322619,0.10112193383323256,-0.035270360392850475,-0.04006604086018536,-0.04284110849332911,-0.04357001838724593
191,15.875111400004243,0.046818652572331955,-0.010168786679109504,0.029260794078185614,0.04739069946873604,0.056168631981105825,-0.012510070672136156,0.06982024612659693,0.10092096413437149,-0.03546818477680159,-0.04136358355586556,-0.045325830798334785,-0.043209789260774734
192,15.879099099998712,0.0470354340998072,-0.009911663014629615,0.029203391609748514,0.04770858261551855,0.056628263278672326,-0.01267222048098447,0.06962871529815318,0.1007086496313683,-0.03566435037500472,-0.04265655788536997,-0.04781772925146436,-0.04284232535422383
193,15.883256800007077,0.04725366287751657,-0.009652446080826523,0.02914524785575379,0.048025579128347005,0.057086900728763434,-0.01283526079706339,0.06943130054811722,0.10048495862227001,-0.035858824196491605,-0.04394462842356766,-0.05031635613382603,-0.0424676223609159
194,15.887339400011117,0.047473334802111744,-0.00939114052692139,0.02908635877392835,0.0483416622331674,0.057544492395538153,-0.01299918383227471,0.0692280249993904,0.10024986145872547,-0.03605157322571414,-0.04522745800582515,-0.052821258303141265,-0.042085674125073476
195,15.894142200006172,0.0476944456484208,-0.009127751239220933,0.029026720357848427,0.04865680526484759,0.05800098621269668,-0.013163981647936081,0.06901891331648652,0.10000333057056573,-0.03624256441557523,-0.04650470752721238,-0.055331977312845025,-0.04169647301741049
196,15.901103000011062,0.04791699106996081,-0.0088622833416906,0.028966328637626406,0.0489709816742264,0.058456329993011216,-0.01332964615462348,0.06880399171429018,0.09974534048958858,-0.036431764680962396,-0.047776036262736375,-0.05784804970252924,-0.04130001007232534
197,15.906724600004964,0.04814096659948267,-0.008594742196484024,0.02890517968059847,0.04928416503520089,0.058910471437961055,-0.013496169111982108,0.06858328796407029,0.09947586787149057,-0.03661914089302954,-0.04904110260829943,-0.06036900740047613,-0.04089627502875471
198,15.91220050000993,0.04836636764954835,-0.008325133404428345,0.02884326959201316,0.04959632905183032,0.05936335814746336,-0.01366354212851673,0.06835683139548232,0.09919489151598124,-0.03680465987310306,-0.05029956471293395,-0.06289437809964461,-0.04048525588204844
199,15.916959200010751,0.04859318951314046,-0.00805346280546494,0.028780594515720914,0.04990744756544167,0.05981493762969163,-0.013831756661347002,0.06812465289681702,0.09890239238528689,-0.03698828838287759,-0.051551080789768736,-0.0654236854998007,-0.040066938504073786
200,15.921721899998374,0.04882142736430429,-0.007779736479045217,0.028717150634864876,0.05021749456173588,0.06026515731097524,-0.014000804015908417,0.06788678491416725,0.09859835362205703,-0.0371699931148582,-0.05279530928061137,-0.06795644928331439,-0.03964130701823315
201,15.925134600009187,0.049051076258822185,-0.007503960744481083,0.028652934172573155,0.050526444177885745,0.060713964545781145,-0.014170675345620488,0.06764326145017605,0.09828276056808884,-0.03734974068597555,-0.05403190874637579,-0.07049218492218731,-0.0392083442390895
202,15.929405300004872,0.04928213113492031,-0.0072261421612497215,0.028587941392652652,0.05083427070963075,0.061161306626784165,-0.014341361651529464,0.06739411806420255,0.09795560078399312,-0.03752749763203666,-0.05526053779370922,-0.07303040361704446,-0.0387680319102122
203,15.933592700006557,0.049514586814007715,-0.006946287529252241,0.028522168600284586,0.05114094861837651,0.06160713079502801,-0.01451285378192593,0.06713939187173906,0.09761686406847511,-0.03770323040350874,-0.05648085527646819,-0.07557061239479544,-0.038320351033785616
204,15.937364600002184,0.049748438001447806,-0.006664403889025802,0.028455612142721808,0.05144645253828425,0.06205138425017136,-0.014685142431949069,0.06687912154273992,0.09726654247710989,-0.03787690536297533,-0.057692520469572996,-0.07811231420785875,-0.03786528210859877
205,15.941364600002998,0.04998367928736208,-0.006380498521908843,0.02838826840998793,0.051750757283355014,0.06249401416082007,-0.014858218143181069,0.06661334729945334,0.09690463034071846,-0.038048488783090216,-0.05889519337981715,-0.08065500811485478,-0.03740280525344223
206,15.94724190000852,0.05022030514746619,-0.006094578950158995,0.02832013383557834,0.05205383785449941,0.06293496767494085,-0.015032071303232735,0.06634211091191629,0.09653112428249562,-0.038217946845158626,-0.060088535305132654,-0.0831981894537936,-0.036932900431659206
207,15.951075600009062,0.05045830994393813,-0.005806652937023356,0.02825120489716311,0.05235566944658069,0.0633741919303496,-0.01520669214532495,0.06606545569068692,0.09614602323480688,-0.03838524563913865,-0.061272209282614634,-0.08574134979366599,-0.036455547730095586
208,15.954915399997844,0.05069768792631851,-0.005516728486760775,0.028181478117291825,0.05265622745541826,0.06381163406527825,-0.015382070747874307,0.06578342647825433,0.09574932845675774,-0.03855035116476595,-0.06244588024351511,-0.08828397678395937,-0.03597072736364767
209,15.958703000011155,0.05093843323244264,-0.005224813844615772,0.028110950064100273,0.052955487484752435,0.06424724122902332,-0.01555819703408482,0.06549606964035774,0.09534104355236271,-0.0387132293315966,-0.06360921516095398,-0.09082555401761913,-0.03547841956106508
210,15.962437100009993,0.05118053988940427,-0.00493091749674373,0.028039617352018993,0.05325342535316878,0.06468096059267842,-0.015735060771533946,0.06520343305604942,0.09492117448936416,-0.038873845959090575,-0.06476188333269459,-0.09336556088315198,-0.03497860475703742
211,15.966811799997233,0.05142400181455081,-0.004635048170086958,0.02796747664248374,0.05355001710097227,0.06511273935995436,-0.01591265157176507,0.06490556610643548,0.09448972961874982,-0.03903216677840604,-0.06590355673819484,-0.09590347249643848,-0.03447126369287216
212,15.970702700011316,0.0516688128165098,-0.004337214832201218,0.027894524644647756,0.053845238997008965,0.06554252477808965,-0.01609095888988987,0.06460251966148321,0.09404671969419341,-0.039188157433400816,-0.06703391035975721,-0.09843875975340358,-0.033956377389010896
213,15.974874899999122,0.05191496659624626,-0.004037426691032314,0.027820758116095846,0.05413906754541988,0.0659702641488479,-0.01626997202418994,0.06429434606583359,0.09359215789109188,-0.03934178348217608,-0.06815262256620129,-0.10097088936622835,-0.033433927328228315
214,15.979121299998951,0.05216245674815079,-0.0037356931946423374,0.02774617386356029,0.0544314794923333,0.06639590483960184,-0.016449680115733237,0.06398109912211025,0.0931260598256758,-0.03949301039974826,-0.06925937569876119,-0.10349932387504049,-0.0329038955745406
215,15.983174300010432,0.05241127676115793,-0.0034320240308851908,0.02767076874363843,0.05472245183246644,0.06681939429450498,-0.01663007214800006,0.06366283407138977,0.09264844357394011,-0.039641803580676926,-0.07035385648322115,-0.10602352180048051,-0.032366265043041686
216,15.987488300001132,0.05266142001989444,-0.003126429127030974,0.027594539663511965,0.05501196181563972,0.06724068004574828,-0.016811136946523458,0.06333960757275273,0.09215932968936334,-0.0397881283441971,-0.07143575660662307,-0.10854293798873055,-0.03182101994873227
217,15.991757700001472,0.05291287980585709,-0.0028189186493388653,0.02751748358166783,0.05529998695319196,0.06765970972489337,-0.016992863178562006,0.06301147767849553,0.09165874121869233,-0.0399319499409396,-0.0725047734857836,-0.11105702402748541,-0.03126814603077568
218,15.995686700000078,0.0531656492986194,-0.0025095030025781714,0.027439597508620486,0.055586505024268595,0.0680764310742731,-0.017175239352801495,0.06267850380667411,0.09114670371586865,-0.04007323356010809,-0.07356061044156341,-0.11356522857378429,-0.0307076308313915
219,15.999923499999568,0.05341972157706678,-0.0021981928294972576,0.027360878507635498,0.055871494081986585,0.06849079195845179,-0.01735825381909314,0.06234074671472672,0.09062324525482413,-0.04021194433874246,-0.07460297674475876,-0.11606699752393997,-0.0301394641857675
220,16.003917900001397,0.05367508962065948,-0.0018849990102401016,0.027281323695454225,0.05615493245948208,0.06890274037574243,-0.017541894768239745,0.061998268471599165,0.0900883964418578,-0.04034804737336287,-0.0756315879542935,-0.11856177405493286,-0.0295636385378346
221,16.01052170000912,0.053931746310722874,-0.0015699326617102105,0.02720093024301935,0.056436798775821174,0.06931222446977979,-0.01772615023184007,0.061651132428284,0.08954219042805404,-0.04048150773211243,-0.07664616567018101,-0.12104899859871043,-0.028980149054442662
222,16.014319100009743,0.05418968443176432,-0.0012530051368816486,0.027119695376200976,0.05671707194177895,0.06971919254115085,-0.017911008082185723,0.06129940319219825,0.08898466292189386,-0.0406122904674423,-0.07764643702114284,-0.1235281088101352,-0.028388993804343426
223,16.018556700000772,0.05444889667281612,-0.0009342280240569086,0.027037616376523108,0.05699573116551659,0.07012359305908288,-0.018096456032221188,0.060943146602394506,0.08841585220196523,-0.04074036062988631,-0.07863213481117447,-0.12599853958400836,-0.027790173739620474
224,16.02292660000967,0.05470937562880413,-0.0006136131460713656,0.026954690581890112,0.05727275595813442,0.07052537467318978,-0.01828248163556631,0.06058242970260227,0.0878357991294192,-0.0408656832805768,-0.07960299797699649,-0.12845972320563917,-0.02718369259916417
225,16.02716940001119,0.05497111380194139,-0.0002911725594440448,0.026870915387312986,0.057548126139103206,0.07092448622527378,-0.01846907228659046,0.060217320712267985,0.08724454715930736,-0.04098822350413906,-0.08055877194492915,-0.13091108965213258,-0.026569557078808693
226,16.031001199997263,0.055234103603146234,3.3081446525532895e-05,0.026786288245635146,0.057821821841553114,0.07132087676117507,-0.018656215220552566,0.05984788899634238,0.08664214235029073,-0.041107946422758536,-0.08149920885081585,-0.13335206692056192,-0.02594777708718326
227,16.035397500003455,0.05549833735348414,0.0003591363507146297,0.026700806668257422,0.05809382351742954,0.07171449554266207,-0.018843897513803564,0.05947420503431519,0.08602863337298491,-0.041224817211408124,-0.0824240680160017,-0.13578208127184638,-0.025318366171029144
228,16.03918550000526,0.05576380728563287,0.0006869794011888614,0.026614468225861998,0.058364111942499734,0.07210529205935717,-0.019032106084065272,0.05909634038566252,0.08540407151744535,-0.041338801115793425,-0.08333311641371521,-0.1382005574782906,-0.024681341987337544
229,16.044557500004885,0.05603050554536996,0.0010165976162682157,0.02652727054913486,0.05863266822119357,0.07249321604069522,-0.019220827690796454,0.058714367654629056,0.08476851069925535,-0.04144986347188506,-0.08422612935603228,-0.1406069193612419,-0.024036726664488795
230,16.04942640000081,0.056298424193081995,0.0013479777856476608,0.026439211329486408,0.05889947379128905,0.07287821746790481,-0.019410048935649803,0.05832836044941163,0.08412200746210897,-0.04155796972715681,-0.08510289227894774,-0.14300059072669052,-0.023384547246011606
231,16.053425600010087,0.05656755520529483,0.0016811064715724112,0.026350288319769724,0.059164510428380904,0.07326024658599026,-0.01959975626303165,0.05793839333066504,0.08346462097536816,-0.04166308546416413,-0.08596320233456105,-0.145380996256304,-0.02272483616681509
232,16.058448800002225,0.056837890476223604,0.002015970010067788,0.02626049933499609,0.05942776025009658,0.07363925391569068,-0.019789935960773945,0.057544541756167945,0.08279641302852112,-0.04176517642612466,-0.08680686839124224,-0.14774756168803158,-0.022057631363106747
233,16.06258810000145,0.05710942181934141,0.0023525545122235272,0.02616984225304713,0.059689205720060284,0.07401519026541142,-0.019980574160927196,0.05714688202932716,0.08211744802709267,-0.041864208541498936,-0.08763370999020041,-0.1500997132398916,-0.021382975778091867
234,16.066458400004194,0.05738214096896544,0.0026908458655324342,0.026078315015383092,0.059948829651639446,0.07438800674314583,-0.020171656840656593,0.05674549125335764,0.08142779299235661,-0.041960147945063836,-0.08844355616476393,-0.15243687695546648,-0.020700916807752254
235,16.0708372000081,0.05765603958185983,0.003030829735283394,0.02598591562774682,0.06020661521149096,0.07475765476840407,-0.020363169823227095,0.05634044729055268,0.08072751756321389,-0.0420529609974399,-0.08923624468981008,-0.1547584784900802,-0.02001150623724754
236,16.075227200009977,0.05793110923885414,0.0033724915660087937,0.02589264216086306,0.060462545922936275,0.07512408608415201,-0.020555098779077595,0.055931828723307625,0.08001669399785456,-0.04214261430558483,-0.0900116222188083,-0.15706394331811277,-0.019314800373746253
237,16.078976300006616,0.05820734144647695,0.0037158165829863925,0.025798492751132628,0.06071660566915225,0.07548725276875523,-0.02074742922699288,0.05551971481214052,0.07929539717374572,-0.042229074743532,-0.09076954479652563,-0.15935269716432676,-0.018610860215220393
238,16.083168800003477,0.05848472763860346,0.00406078979379565,0.025703465601321033,0.060968778696163455,0.07584710724791775,-0.020940146535366886,0.05510418545204093,0.07856370458536054,-0.04231230947442302,-0.09150987801492684,-0.16162416641432742,-0.01789975187647784
239,16.08730199999991,0.058763259178116374,0.004407395989928457,0.02560755898124114,0.06121904961563505,0.07620360230660536,-0.02113323592357555,0.05468532112906909,0.07782169634042363,-0.042392285975130874,-0.0922324968481765,-0.16387777834175132,-0.017181546703503255
240,16.09133660000225,0.05904292735857894,0.004755619748454176,0.025510771228429253,0.06146740340746932,0.0765566911009501,-0.021326682463464582,0.05426320287820917,0.07706945515556857,-0.04246897205933502,-0.0929372855701773,-0.16611296119923072,-0.0164563209072262
241,16.09556300000986,0.059323723405919515,0.005105445433738924,0.025413100748814227,0.061713825422214263,0.07690632717013401,-0.021520471080932725,0.05383791224072031,0.07630706635175379,-0.04254233589880519,-0.09362413771801291,-0.16832914424744128,-0.01572415513812649
242,16.09991699999955,0.059605638480126594,0.005456857199218968,0.025314546017379112,0.06195830138327127,0.0772524644482518,-0.021714586557613585,0.05340953122232327,0.07553461784965528,-0.04261234604259776,-0.09429295584490609,-0.17052575795023706,-0.014985133895493788
243,16.104350300010992,0.059888663676953474,0.005809838989228169,0.025215105578814928,0.06220081738892242,0.07759505727615258,-0.021909013532633925,0.052978142252803936,0.07475220016330322,-0.0426789714329531,-0.09494365163898115,-0.17270223457138784,-0.01423934513398907
244,16.10826680000173,0.06017279002963178,0.006164374540879356,0.025114778048166277,0.06244135991416985,0.07793406041324454,-0.022103736504440454,0.05254382814311713,0.07395990639003361,-0.04274218142090453,-0.09557614628047859,-0.17485800884578953,-0.013486880314309247
245,16.11233699999866,0.0604580085105929,0.006520447385999403,0.025013562111468463,0.06267991581237192,0.07826942904924501,-0.02229873983270044,0.05210667204173302,0.0731578321980047,-0.04280194578263767,-0.09619037029553122,-0.17699251822048193,-0.012727834599442607
246,16.116640899999766,0.060744310033196434,0.0068780408531177424,0.02491145652637577,0.06291647231668453,0.07860111881587138,-0.022494007740277672,0.05166675739307416,0.07234607581395104,-0.04285823473688885,-0.09678626296075189,-0.17910520249060238,-0.01196230710196865
247,16.12015610000526,0.06103168545346476,0.00723713806950804,0.024808460122780575,0.0631510170413183,0.07892908579847946,-0.0226895243152917,0.05122416789929095,0.07152473801401933,-0.04291101896355935,-0.0973637714520158,-0.18119550323752565,-0.011190400879841356
248,16.1248881000065,0.06132012557182295,0.007597721963282828,0.024704571803422837,0.0633835379826314,0.0792532865476708,-0.022885273513263533,0.050778987486460134,0.0706939221166455,-0.04296026962107538,-0.0979228505877318,-0.18326286407874415,-0.01041222263851224
249,16.128963900002418,0.06160962113484332,0.007959775265541015,0.024599790544489648,0.06361402352007849,0.0795736780908662,-0.023081239159333168,0.05033130026870113,0.06985373397111219,-0.04300595836228624,-0.09846346420319589,-0.1853067319820437,-0.009627882598316193
250,16.133636900005513,0.06190016283699396,0.008323280512568051,0.024494115396204514,0.06384246241697634,0.07989021794380861,-0.02327740495055024,0.04988119050184307,0.06900428193844303,-0.043048057350615114,-0.09898558678868469,-0.1873265585624879,-0.00883749449901772
251,16.13786919999984,0.0621917413223903,0.008688220048088318,0.024387545483406006,0.06406884382103038,0.08020286412196248,-0.023473754458238832,0.049428742532604875,0.06814567686813415,-0.0430865392759987,-0.09948920313040732,-0.1893218003907376,-0.008041175522069777
252,16.141608999998425,0.06248434718654842,0.009054576025569234,0.024280080006115486,0.06429315726463686,0.08051157515180449,-0.023670271130433445,0.04897404075553611,0.06727803207623718,-0.04312137737032915,-0.09997430680252413,-0.19129191859141872,-0.007239046400526388
253,16.14570540000568,0.06277797097813938,0.009422330410576598,0.02417171824009354,0.06451539266501678,0.08081631008202302,-0.023866938294384618,0.04851716957594697,0.06640146332575288,-0.04315254542439587,-0.10044089962749243,-0.19323637861428042,-0.00643123178043304
254,16.149711200007005,0.06307260320074376,0.009791464983180809,0.024062459537384867,0.06473554032418014,0.08111702849463016,-0.02406373915914938,0.04805821337176973,0.0655160888068007,-0.043180017806622666,-0.10088899167356064,-0.1951546503410281,-0.005617860344435111
255,16.15378170000622,0.06336823431460564,0.01016196134041353,0.023952303326851086,0.06495359092871202,0.08141369051598037,-0.0242606568182677,0.04759725645651156,0.06462202911603832,-0.043203769481136606,-0.1013186011464346,-0.1970462081826254,-0.004799064743248657
256,16.15808800001105,0.06366485473838522,0.010533800898774376,0.023841249114691217,0.06516953554939905,0.08170625682769476,-0.024457674252517707,0.0471343830421038,0.06371940723594403,-0.04322377602588031,-0.1017297546279804,-0.1989105311287228,-0.003974981586444645
257,16.162331500003347,0.06396245485090936,0.01090696489678719,0.023729296484949376,0.06538336564067683,0.08199468867749092,-0.02465477433275729,0.046669677199678246,0.06280834851378556,-0.0432400136505968,-0.10212248708406425,-0.20074710282175925,-0.003145751204334462
258,16.1666477000108,0.06426102499291918,0.011281434397605474,0.02361644510000934,0.06559507303989863,0.08227894788991542,-0.024851939822843297,0.04620322282234493,0.06188898064022675,-0.043252459212770614,-0.1024968415262053,-0.20255541166846114,-0.0023115173276821435
259,16.17065040000307,0.06456055546881394,0.011657190291666529,0.023502694701075626,0.06580464996644347,0.08255899687697854,-0.025049153382618483,0.045735103589053513,0.06096143362727977,-0.04326109023269227,-0.10285286932305251,-0.20433495127418733,-0.001472427083245653
260,16.174950700005866,0.0648610365483905,0.012034213299393848,0.023388045108640815,0.06601208902065536,0.08283479864868579,-0.02524639757096808,0.045265402924530976,0.06002583978295144,-0.043265884909358725,-0.10319063150955052,-0.2060852215903451,-0.0006286310441401596
261,16.182536899999832,0.06516245846857752,0.012412483973947288,0.02327249622293877,0.066217383182586,0.0831063168234414,-0.02544365484895172,0.04479420395120594,0.05908233367873312,-0.04326682213599704,-0.10351020048855102,-0.20780573070997246,0.00021971684827679178
262,16.186869700002717,0.06546481143516346,0.012791982704020322,0.023156048024383397,0.06642052581049572,0.08337351563828348,-0.025640907583001558,0.044321589433630945,0.05813105210787487,-0.04326388151525261,-0.10381166129524762,-0.20949599655482212,0.0010724592750601437
263,16.19105639999907,0.06576808562451712,0.013172689716683533,0.023038700573992706,0.06662151063908939,0.083636359958907,-0.025838138048192672,0.043847641718877575,0.05717213403749238,-0.043257043374798,-0.10409511165108763,-0.2111555473142007,0.0019294356814380036
264,16.19546529999934,0.06607227118529956,0.013554585080273265,0.022920454013797754,0.06682033177747387,0.08389481528946229,-0.02603532843158351,0.04337244268046715,0.0562057205628397,-0.04324628878122862,-0.10436066064542544,-0.21278392048416328,0.002790482652212872
265,16.19960990000982,0.06637735824016597,0.013937648707324448,0.022801308567236236,0.06701698370688275,0.08414884778216103,-0.026232460835612998,0.042896073670786634,0.055231954868176926,-0.043231599552248624,-0.10460842718113963,-0.21438066166867945,0.0036554339483674822
266,16.203750700005912,0.0666833368874569,0.014321860357546843,0.022681264539530465,0.06721146127819982,0.08439842424671798,-0.026429517281552097,0.042418615479192304,0.054250982191973975,-0.0432129582702328,-0.10483853892919698,-0.21594532390793658,0.004524120182230033
267,16.20819570000458,0.06699019720287754,0.014707199640843964,0.022560322318049487,0.06740375970930186,0.08464351215963971,-0.02662647971302457,0.041940148293958014,0.053262949793902815,-0.04319034829737434,-0.10505113189048813,-0.21747746746768454,0.005396368684603568
268,16.212358200005838,0.06729792924116468,0.015093646020374005,0.022438482372654958,0.06759387458223515,0.0848840796733653,-0.026823329999596652,0.041460751664374094,0.05226800692196205,-0.04316375379045824,-0.10524635021237534,-0.21897665983272538,0.006272003742715339
269,16.216559200009215,0.0676065230377403,0.015481178815652117,0.02231574525603053,0.06778180184021262,0.08512009562525535,-0.027020049940432524,0.04098050446436833,0.05126630477952848,-0.04313315971383947,-0.10542434596868833,-0.2204424756817096,0.0071508472044322915
270,16.220661100000143,0.06791596861035111,0.015869777205693297,0.0221921116039944,0.06796753778445876,0.08535152954643228,-0.02721662126800232,0.040499484856610875,0.05025799649271153,-0.043098551848707055,-0.10558527934384396,-0.2218744969053295,0.008032718963463071
271,16.225168500008294,0.06822625596069339,0.016259420232195267,0.022067582135794874,0.06815107907087936,0.08557835167047163,-0.027413025651822083,0.04001777025445642,0.0492432370772389,-0.04305991680163814,-0.10572931855839267,-0.22327231258111388,0.008917436876815666
272,16.229026600005454,0.06853737507602214,0.016650086802760613,0.021942157654388825,0.06833242270655947,0.08580053294194041,-0.027609244702239744,0.03953543728672799,0.04822218340604079,-0.04301724201461472,-0.10585663919232105,-0.22463551876560922,0.009804816572625517
273,16.233138800002052,0.06884931593074405,0.01704175569415752,0.02181583904670274,0.06851156604611204,0.08601804502479289,-0.027805259974266427,0.039052561765829254,0.04719499417803053,-0.04297051577532994,-0.10596742407521612,-0.22596371835399942,0.01069467133598277
274,16.237420100005693,0.06916206848799328,0.017434405555618458,0.02168862728387623,0.06868850678788509,0.08623086031062424,-0.028001052971456407,0.038569218653529844,0.04616182988696874,-0.04291972722824583,-0.1060618635605153,-0.22725652110380962,0.011586812090155257
275,16.24196280000615,0.06947562270118987,0.01782801491217618,0.021560523421487714,0.0688632429699984,0.08643895192678244,-0.028196605149839227,0.038085482026577036,0.04512285279002784,-0.042864866385070845,-0.10614015499469666,-0.22851354373522245,0.012481047639414364
276,16.246368899999652,0.06978996851557945,0.01822256216803638,0.021431528599762068,0.06903577296623714,0.0866422937443353,-0.0283918979218952,0.037601425047321,0.04407822687574153,-0.0428059241336035,-0.10620250238827549,-0.2297344097885306,0.013377184984978993
277,16.250305599998683,0.0701050958697541,0.018618025609986315,0.021301644043760056,0.06920609548182069,0.08684086038589009,-0.02858691266056815,0.037117119932326394,0.04302811783386906,-0.04274289224532908,-0.106249116031213,-0.23091874867150985,0.014275029535255975
278,16.254453600005945,0.07042099469715353,0.019014383410838772,0.0211708710635494,0.06937420954901005,0.08703462723328582,-0.028781630703310204,0.03663263792650431,0.04197269303203083,-0.04267576338234632,-0.10628021077111563,-0.2320661941027037,0.015174385087727412
279,16.258864700008417,0.07073765492754593,0.01941161363291084,0.021039211054357323,0.06954011452264088,0.08722357043519985,-0.028976033356157675,0.036148049287423406,0.04091212149976687,-0.04260453110512925,-0.10629600519080988,-0.2331763835532312,0.016075053613702834
280,16.26293940001051,0.07105506648848835,0.019809694231537223,0.02090666549670446,0.06970381007558775,0.08740766691469473,-0.029170101897846617,0.03566342326694076,0.03984657391026213,-0.042529189881416504,-0.1062967229433831,-0.23424896016539712,0.016976835162383932
281,16.26655070000561,0.07137321930676621,0.020208603058617824,0.020773235956519875,0.06986529619412976,0.08758689437665826,-0.02936381758396979,0.035178828083340004,0.03877622254691092,-0.04244973509484796,-0.10628259524283326,-0.2352835761293587,0.017879528025447008
282,16.27079710000544,0.07169210330981148,0.020608317866198905,0.02063892408523706,0.07002457317316074,0.08776123131504544,-0.029557161651170942,0.034694330880252276,0.03770124125425346,-0.04236616305235333,-0.10625386236619966,-0.23627989477466058,0.018782929011714584
283,16.27495120000094,0.07201170842709842,0.021008816310086696,0.020503731619870718,0.07018164161118026,0.08793065701987116,-0.02975011532136915,0.03420999768509779,0.036621805385469615,-0.042278470990284325,-0.10621077286368977,-0.23723759028746816,0.019686833602896518
284,16.27902940000058,0.07233202459151616,0.021410075953492314,0.02036766038307424,0.07033650240512494,0.08809515158397338,-0.02994265980600902,0.033725893375208926,0.03553809175589371,-0.04218665708038322,-0.10615358238871783,-0.23815634645932116,0.02059103596698062
285,16.283367800002452,0.07265304174071732,0.021812074270707048,0.02023071228317774,0.07048915674505056,0.08825469590958199,-0.03013477631033944,0.033242081646939585,0.0344502786019172,-0.0420907204357929,-0.10608255289250709,-0.23903585589291726,0.021495329045493235
286,16.287478900005226,0.07297474981844203,0.022214788650807168,0.020092889314206504,0.0706396061086817,0.08840927171470726,-0.03032644603771859,0.03275862498913196,0.033358545541745235,-0.04199066111622976,-0.10599795187327597,-0.23987581984069403,0.022399504764114855
287,16.291557100004866,0.0732971387758169,0.022618196401387458,0.01995419355587978,0.07078785225585191,0.08855886153935086,-0.030517650193939854,0.03227558465907185,0.032263073535771146,-0.04188648013207337,-0.10590005237673501,-0.2406759483689189,0.023303354224555206
288,16.295670000006794,0.07362019857262835,0.02302227475232266,0.0198146271735898,0.07093389722283414,0.088703448751533,-0.030708369991574128,0.031793020655950924,0.03116404484583682,-0.041778179447789845,-0.10578913310408482,-0.24143596054731095,0.02420666790140001
289,16.299855000004754,0.07394391917856988,0.023427000859555968,0.019674192418360943,0.0710777433165389,0.08884301755313201,-0.030898586654326942,0.031310991695837294,0.030061642993878188,-0.041665761984226626,-0.10566547770026263,-0.242155584497781,0.025109236013047397
290,16.30407290000585,0.07426829057446249,0.023832351808913705,0.019532891626789048,0.07121939310861651,0.08897755298553438,-0.031088281421401687,0.03082955519162758,0.028956052720741213,-0.04154923161865364,-0.10552937455180127,-0.24283455735804263,0.026010849089290154
291,16.30865740000445,0.07459330275344818,0.024238304619945344,0.019390727220960798,0.07135884942947242,0.0891070409350988,-0.03127743555185712,0.03034876722986064,0.027847459945159157,-0.04142859318188282,-0.10538111711499293,-0.24347262540129808,0.026911298465363657
292,16.312441200003377,0.07491894572215578,0.02464483624978801,0.019247701708353288,0.07149611536215804,0.08923146813843225,-0.03146603032894433,0.029868682547677407,0.026736051721477267,-0.0413038524538045,-0.10522100333266601,-0.24406954434270373,0.02781037646013353
293,16.316510900011053,0.07524520950183877,0.025051923597054597,0.01910381768171387,0.07163119423617605,0.08935082218746844,-0.03165404706442353,0.029389354514952493,0.025622016195835668,-0.041175016158882215,-0.10504933506514662,-0.24462507959009047,0.028707876454466194
294,16.320556500009843,0.07557208412948464,0.025459543505744586,0.018959077818920363,0.07176408962120823,0.08946509153434445,-0.03184146710285994,0.028910835116442556,0.024505542561607963,-0.04104209196097449,-0.104866417924505,-0.24513900649684953,0.02960359299200714
295,16.32478419999825,0.07589955965889549,0.025867672769176623,0.01881348488282172,0.07189480532075802,0.08957426549607288,-0.032028271825893406,0.028433174935429257,0.023386821013278297,-0.04090508845791075,-0.1046725607639413,-0.24561111054487758,0.03049732182888673
296,16.329018500007805,0.0762276261617394,0.026276288133941936,0.018667041721059312,0.07202334536572924,0.08967833425899784,-0.03221444265648478,0.027956423140523448,0.022266042700211847,-0.0407640151758599,-0.10446807509171963,-0.24604118723341006,0.031388860135480715
297,16.333312300004764,0.07655627372857257,0.026685366303877547,0.01851975126586888,0.07214971400794827,0.08977728888304565,-0.03239996106313419,0.02748062747465192,0.02114339968154551,-0.04061888256206653,-0.10425327442835215,-0.24642904211307143,0.03227800681223093
298,16.33739549999882,0.07688549246983155,0.027094883944058446,0.01837161653386335,0.07227391571364238,0.08987112130576953,-0.03258480856406123,0.027005834247722828,0.02001908487964793,-0.04046970197633985,-0.10402847379648299,-0.24677449110068952,0.03316456265873668
299,16.341501300004893,0.07721527251679589,0.027504817684807684,0.018222640625796673,0.07239595515689504,0.08995982434617592,-0.032768966731345585,0.02653208833026372,0.018893292032139675,-0.040316485682248125,-0.1037939897389186,-0.24707736075338305,0.03404833047941943
300,16.346366700003273,0.07754560402252078,0.02791514412572343,0.018072826726308885,0.07251583721306623,0.09004339170833164,-0.03295241719502695,0.026059433145922566,0.017766215642854116,-0.040159246837644096,-0.10355014027939921,-0.2473374885989011,0.034929115275477075
301,16.35002959999838,0.07787647716273967,0.028325839839721964,0.017922178103652563,0.0726335669521794,0.09012181798474315,-0.03313514164715927,0.025587910665463454,0.01663805093084555,-0.03999799948410919,-0.10329724446790206,-0.24755472350552205,0.035806724318000506
302,16.354069799999706,0.07820788213673659,0.028736881377095538,0.017770698109400917,0.07274914963228699,0.09019509865949875,-0.03331712184581439,0.025117561403413594,0.015508993777977315,-0.039832758536812285,-0.10303562206916606,-0.24772892593494028,0.03668096700158369
303,16.358142900004168,0.07853980916818827,0.029148245269584018,0.017618390178137745,0.07286259069282681,0.09026323011116985,-0.03349833961904384,0.024648424414899076,0.014379240675624065,-0.03966353977528868,-0.10276559370691084,-0.24785996822052675,0.03755165482629173
304,16.362583100009942,0.07887224850597595,0.029559908034459213,0.017465257827129398,0.07297389574795879,0.09032620961546732,-0.03367877686879841,0.024180537290976852,0.013248988669722687,-0.03949035983346328,-0.10248748088403772,-0.24794773496527137,0.03841860167216884
305,16.366668800008483,0.07920519042496667,0.029971846178620722,0.017311304655978993,0.07308307057987871,0.09038403534764168,-0.03385841557479896,0.023713936155286316,0.012118435303846119,-0.0393132361879266,-0.10220160581837404,-0.24799212350565847,0.039281624229141957
306,16.37294000000111,0.07953862522676414,0.030384036202702157,0.01715653434626309,0.07319012113212445,0.09043670638462037,-0.0340372377983491,0.02324865566087898,0.010987778560024603,-0.039132187144038044,-0.10190829149558923,-0.2479930448843242,0.0401405425922701
307,16.37767660000827,0.07987254324042901,0.030796454605186475,0.017000950661151135,0.07329505350286082,0.09048422270686837,-0.03421522568607928,0.022784728986387552,0.009857216792950754,-0.03894723181877438,-0.10160786181625482,-0.24795042601570577,0.0409951811355807
308,16.38293550000526,0.08020693482316851,0.031209077886529164,0.016844557445008002,0.07339787393815086,0.09052658519992555,-0.03439236147360308,0.02232218783151472,0.008726948651054257,-0.03875839011886533,-0.10130064229290957,-0.24786421281800142,0.04184536945092232
309,16.38744060001045,0.08054179036099535,0.0316218825532876,0.0166873586229801,0.07349858882519959,0.09056379565554765,-0.03456862748906195,0.021861062406846328,0.007597172982149506,-0.038565682715081505,-0.10098696081806913,-0.24773437298374693,0.04269094313016242
310,16.391674700003932,0.08087710026935573,0.03203484512225463,0.016529358200565586,0.07359720468553234,0.09059585677238326,-0.034744006156547054,0.021401381422337405,0.00646808872924798,-0.03836913101323786,-0.10066714720585852,-0.24756089660861225,0.04353174416738881
311,16.39582910000172,0.0812128549937261,0.0324479421245941,0.016370560263169274,0.07369372816813356,0.09062277215616488,-0.034918479999379616,0.020943172081304764,0.00533989483047247,-0.038168757124814344,-0.10034153218613773,-0.24734379435258472,0.044367620488519895
312,16.39979390001099,0.08154904501017861,0.03286115010997619,0.01621096897564294,0.07378816604257041,0.0906445463194733,-0.03509203164326487,0.02048646007808466,0.00421279013163592,-0.03796458384224838,-0.10001044657990615,-0.24708309512642768,0.04519842495786808
313,16.404002000010223,0.0818856608259151,0.03327444565071078,0.01605058858181148,0.07388052519211015,0.09066118468113152,-0.03526464381934712,0.020031269599544113,0.0030869733072506913,-0.03775663461861374,-0.09967422021931663,-0.24677884495761096,0.04602401459744583
314,16.40826989999914,0.08222269297976983,0.033687805345877266,0.015889423403985338,0.07397081260685753,0.09067269356524889,-0.03543629936717844,0.019577623332585968,0.0019626427834479303,-0.03754493355003149,-0.09933318086885529,-0.24643110693122044,0.046844250319303664
315,16.412483400010387,0.08256013204268095,0.034101205825449225,0.015727477842459616,0.07405903537694065,0.09067908019991221,-0.0356069812376133,0.01912554247549697,0.0008399966595256244,-0.03732950535778937,-0.09898765380319682,-0.24603996129461783,0.04765899726922485
316,16.41734300000826,0.08289796861813101,0.03451462375441227,0.015564756375000105,0.07414520068575177,0.09068035271551456,-0.03577667249561425,0.01867504674930196,-0.0002807673700863237,-0.03711037536761895,-0.09863796165997858,-0.24560550534844064,0.04846812527032106
317,16.420965900004376,0.08323619334255683,0.03492803583687348,0.015401263556316797,0.0742293158032367,0.09067652014273483,-0.03594535632295764,0.018226154410454387,-0.0013994520932841756,-0.03688756948777025,-0.09828442396473941,-0.2451278536841329,0.049271509108717984
318,16.425096699997084,0.08357479688572887,0.03534141882016086,0.015237004017525263,0.07431138807925138,0.09066759241016034,-0.03611301602083929,0.017778882266522127,-0.0025158608604910976,-0.036661114185683984,-0.0979273566374991,-0.24460713922670788,0.05006902900811545
319,16.433333300010418,0.08391376995110048,0.03575474949891107,0.0150719824655964,0.07439142493699423,0.09065358034153503,-0.0362796350123676,0.017333245693377047,-0.0036297976716232316,-0.03643103646173915,-0.09756707222928514,-0.24404351525801252,0.05086057130198727
320,16.43783730000723,0.08425310327612735,0.036168004719143776,0.014906203682795074,0.0744694338665195,0.09063449565258914,-0.0364451968449298,0.016889258648724165,-0.0047410672747387065,-0.036197363819796054,-0.09720388034377783,-0.24343715731246357,0.05164602894611164
321,16.441688200007775,0.0845927876325577,0.03658116138232052,0.014739672526108295,0.07454542241829298,0.09061035094738795,-0.03660968519241646,0.01644693368544661,-0.005849475270289164,-0.03596012423627065,-0.09683808697813853,-0.242788263213603,0.05242530150755335
322,16.445831600009114,0.08493281382669293,0.036994196449385765,0.014572393926663575,0.07461939819682702,0.09058115971421082,-0.036773083857305815,0.016006281971145158,-0.006954828210102091,-0.03571934613077802,-0.09646999401038764,-0.24209705195521858,0.05319829497421097
323,16.454463900008705,0.08527317269961973,0.03740708694478814,0.014404372889138099,0.0746913688544144,0.09054693632099746,-0.03693537677262053,0.015567313306157326,-0.008056933691430316,-0.03547505833694324,-0.0960998996397453,-0.2413637631997427,0.05396492219440274
324,16.46010940000997,0.08561385512741367,0.037819809960480025,0.014235614491159239,0.07476134208492763,0.09050769601036938,-0.03709654800374591,0.015130036139081846,-0.00915560045136071,-0.03522729006903673,-0.09572809831151882,-0.24058865758104955,0.05472510368952499
325,16.464101400008076,0.08595485202131471,0.03823234265989338,0.014066123882697148,0.07482932561769445,0.09046345489421537,-0.037256581750082465,0.014694457585482636,-0.01025063846362461,-0.03497607088537522,-0.09535488064499109,-0.23977201628113892,0.055478767921551285
326,16.46771589999844,0.086296154327875,0.03864466228188994,0.013895906285450208,0.0748953272114676,0.09041422994783019,-0.03741546234653036,0.014260583444070796,-0.011341859029146686,-0.03472143065251803,-0.09498053380014805,-0.23891413890805577,0.05622585094015467
327,16.4711277000024,0.08663775302907939,0.039056746144683636,0.013724966992224084,0.07495935464844788,0.09036003900367442,-0.03757317426481555,0.013828418212064734,-0.012429074853506087,-0.034463399511885595,-0.09460534076258467,-0.23801534133608257,0.05696629585481711
328,16.474989000009373,0.08697963914243867,0.03946857164973387,0.013553311366305084,0.07502141572839399,0.09030090074480693,-0.03772970211466986,0.01339796510789244,-0.013512100117792027,-0.03420200784876908,-0.09422957977663746,-0.23707595445949742,0.05770005239098353
329,16.479432899999665,0.08732180372105645,0.03988011628560806,0.013380944840828449,0.07508151826285259,0.09023683469799854,-0.037885030644874515,0.012969226091720343,-0.014590750544701603,-0.03393728626299596,-0.09385352494914105,-0.23609632342439918,0.058427076639676875
330,16.485319700004766,0.0876642378536698,0.0402913576318121,0.013207872918142204,0.07513967006945531,0.09016786122656187,-0.03803914474417278,0.012542201882650502,-0.01566484346239111,-0.03366926554022263,-0.09347744582845081,-0.23507680780247223,0.059147331074274424
331,16.489175700000487,0.08800693266466403,0.040702273362587575,0.01303410116916712,0.07519587896630564,0.09009400152288284,-0.03819202944205173,0.012116891983087958,-0.016734197872158255,-0.033397976622447006,-0.09310160663626689,-0.2340177820767313,0.059860784745226825
332,16.493224899997585,0.08834987931406224,0.04111284125067409,0.012859635232753443,0.07525015276649812,0.09001527760063333,-0.038343669909386,0.011693294702942203,-0.017798634516722533,-0.03312345057752572,-0.092726266742027,-0.23291963555889458,0.06056741342794481
333,16.497071000005235,0.08869306899749013,0.04152303917103547,0.01268448081503498,0.07530249927272585,0.08993171228668008,-0.03849405145894162,0.011271407179668996,-0.018857975947154045,-0.032845718568338254,-0.09235168086571759,-0.23178277249788176,0.06126719965301416
334,16.501788800000213,0.0890364929461163,0.041932845104548346,0.012508643688781237,0.07535292627198249,0.08984332921268715,-0.038643159545738624,0.01085122540062258,-0.019912046592143157,-0.03256481182202861,-0.09197809851100508,-0.23060761236525332,0.061960132690675705
335,16.505741000000853,0.08938014242656883,0.042342237141651765,0.012332129692748202,0.07540144153037356,0.08975015280639317,-0.03879097976727439,0.010432744228266245,-0.02096067282753198,-0.032280761599310995,-0.09160576326649894,-0.2293945895898036,0.06264620847695548
336,16.509230100011337,0.08972400874082823,0.04275119348595625,0.012154944731028438,0.07544805278804828,0.08965220828257983,-0.03893749786360641,0.010015957428895685,-0.022003683043164034,-0.03199359916438502,-0.09123491271678409,-0.22814415324508128,0.06332542943030749
337,16.513397700007772,0.0900680832260978,0.04315969245781104,0.011977094772401123,0.0754927677542728,0.08954952163373958,-0.03908269971730129,0.00960085769866077,-0.023040907709566513,-0.031703355755913244,-0.09086577866292359,-0.22685676698545887,0.06399780439760974
338,16.517042500010575,0.09041235725465172,0.043567712497828086,0.011798585849682597,0.0755355941025993,0.08944211962043608,-0.03922657135325291,0.009187436690278343,-0.02407217944421702,-0.031410062557428814,-0.0904985863142213,-0.22553290880058968,0.06466334879780164
339,16.521269700009725,0.09075682223366129,0.04397523217036139,0.011619424059078065,0.07557653946618281,0.08933002976136772,-0.03936909893836158,0.008775685046423561,-0.025097333075986963,-0.03111375066700329,-0.0901335538502183,-0.22417307080325083,0.06532208466278264
340,16.525143999999273,0.09110146960500033,0.04438223016694037,0.011439615559535071,0.07561561143325475,0.08921328032314046,-0.03951026878107564,0.008365592430436438,-0.026116205709473823,-0.030814451067281354,-0.08977089260414073,-0.22277775907377106,0.06597404049418999
341,16.529036100007943,0.09144629084503021,0.044788685309656,0.011259166572099378,0.07565281754271973,0.08909190030974476,-0.039650067330797414,0.007957147558040499,-0.02712863678802603,-0.030512194596454583,-0.08941080653108496,-0.2213474928379379,0.06661925091686818
342,16.5330030000041,0.09179127746436502,0.04519457655449817,0.011078083379273858,0.07568816527991831,0.08896591945175371,-0.039788481177160086,0.007550338232898444,-0.028134468150579333,-0.030207011921455827,-0.08905349197098807,-0.2198828034943427,0.06725775619387812
343,16.537174800003413,0.092136421007618,0.04559988299464336,0.010896372324380968,0.07572166207254803,0.08883536819528179,-0.03992549704918929,0.007145151380492059,-0.02913354408581293,-0.02989893351335516,-0.08869913770354608,-0.21838423435064416,0.06788960183164232
344,16.541293000002042,0.09248171305312952,0.046004583863691356,0.010714039810929285,0.07575331528673505,0.08870027769068918,-0.04006110181435563,0.006741573083177128,-0.03012571138658108,-0.02958798962415458,-0.0883479248190148,-0.21685234044011895,0.06851483834308146
345,16.5453370000032,0.0928271452126777,0.04640865853884986,0.010531092301984618,0.07578313222327482,0.08856067978104419,-0.04019528247752469,0.0063395886152413945,-0.03111081940239652,-0.0292742102643437,-0.08800002646215208,-0.21528768800837753,0.0691335211651547
346,16.549594099997194,0.09317270913117208,0.04681208654406605,0.01034753631954612,0.07581112011402338,0.08841660699034903,-0.04032802617980489,0.005939182480294223,-0.03208872008918192,-0.028957625180446322,-0.08765560774157916,-0.21369085355339493,0.0697457105410131
347,16.55428589999792,0.09351839648633137,0.047214847553103845,0.0101633784439279,0.07583728611847898,0.08826809251154862,-0.04045932019729275,0.005540338447151012,-0.03305926805300023,-0.028638263833650646,-0.08731482640648248,-0.2120624229641878,0.07035147118515424
348,16.558366700002807,0.09386419898834594,0.04761692139256609,0.009978625313146585,0.07586163732050055,0.08811517019435758,-0.04058915193972595,0.005143039581052641,-0.03402232059195253,-0.028316155380409005,-0.08697783264547335,-0.21040299108198032,0.07095087188956783
349,16.562550900009228,0.09421010837952563,0.04801828804486084,0.009793283622315206,0.07588418072517397,0.08795787453288706,-0.04071750894905164,0.004747268281383893,-0.03497773773590705,-0.02799132865465927,-0.08664476850102426,-0.2087131609402091,0.07154398520174285
350,16.56694640000933,0.0945561164339337,0.048418927651110756,0.009607360123043815,0.0759049232558745,0.08779624065310948,-0.040844378897917435,0.0043530063182321155,-0.03592538228146734,-0.027663812151360524,-0.08631576856403216,-0.20699354332467534,0.07213088719298127
351,16.5706319000019,0.09490221495700782,0.04881882051400504,0.009420861622847136,0.07592387175146635,0.08763030430016647,-0.04096974958808959,0.003960234863772563,-0.03686511982769072,-0.027333634010827005,-0.08599096008432157,-0.2052447565366892,0.07271165729840147
352,16.574715000009746,0.0952483957851685,0.04921794710059313,0.009233794984559595,0.07594103296365132,0.08746010182550795,-0.041093608948801125,0.003568934527819483,-0.037796818808896786,-0.027000822003722644,-0.08567046267836323,-0.2034674255048742,0.07328637810686629
353,16.57899300000281,0.09559465078541592,0.049616288045019385,0.009046167125758044,0.0759564135544925,0.08728567017390094,-0.04121594503503322,0.0031790853918765042,-0.03872035052228722,-0.02666540351731046,-0.0853543886584448,-0.20166218111597414,0.07385513510158753
354,16.583313399998588,0.09594097185491576,0.0500138241511983,0.008857985018192453,0.07597002009407339,0.0871070468703168,-0.04133674602573795,0.0027906670416863156,-0.039635589154652554,-0.026327405542812276,-0.08504284303166959,-0.19982965998717495,0.07441801641808725
355,16.587356000003638,0.09628735092057471,0.05041053639542964,0.008669255687224844,0.07598185905831842,0.08692427000669646,-0.041456000222004394,0.0024036586012901864,-0.040542411807916,-0.02598685466386505,-0.08473592355604209,-0.19797050420920861,0.07497511254440614
356,16.59138389999862,0.09663377993860639,0.05080640592895296,0.008479986211276703,0.07599193682696259,0.08673737822860483,-0.04157369604517615,0.002018038765066254,-0.04144069852349779,-0.02564377704661411,-0.08443372127144788,-0.1960853612002974,0.07552651599810857
357,16.59565709999879,0.09698025089408836,0.051201414080441085,0.008290183721285076,0.07600025968166413,0.08654641072177387,-0.04168982203492711,0.0016337858269475296,-0.0423303323065273,-0.025298198431114576,-0.08413632110240969,-0.19417488368729083,0.07607232096756741
358,16.599798100010958,0.09732675580051088,0.05159554235843191,0.008099855400167534,0.07600683380424055,0.08635140719853615,-0.04180436684730055,0.001250877706964213,-0.043211199150035365,-0.02495014412469538,-0.08384380154811275,-0.1922397295230543,0.0766126228686185
359,16.606637100005173,0.09767328669931775,0.05198877245369817,0.00790900848229614,0.0760116652750233,0.08615240788414742,-0.041917319252724426,0.0008692919832880696,-0.04408318805750133,-0.02459963899740315,-0.08355623395028396,-0.19028056150351977,0.07714751783569633
360,16.61203970000497,0.09801983565944014,0.05238108624155456,0.007717650252980511,0.07601476007138606,0.08594945350301457,-0.042028668134008886,0.0004890059254502759,-0.04494619106537726,-0.0242467074800061,-0.08327368302350384,-0.1882980478520963,0.07767710207651557
361,16.616371700001764,0.09836639477682398,0.0527724657841019,0.007525788047960054,0.07601612406640224,0.08574258526481277,-0.0421384024843434,0.0001099965215503741,-0.04580010327005186,-0.02389137356532196,-0.08299620736749078,-0.18629286303541756,0.07820147124945025
362,16.620481800011476,0.09871295617395152,0.053162893332407674,0.007333429252905281,0.07601576302762131,0.08553184485046761,-0.04224651140530636,-0.00026775949319692797,-0.0466448228578127,-0.023533660811898973,-0.08272385895464987,-0.1842656878079113,0.07872071988831757
363,16.624706800008425,0.09905951199935766,0.0535523513286224,0.007140581302928192,0.07601368261598669,0.08531727439799906,-0.04235298410489578,-0.0006442856045802348,-0.04748025113221657,-0.02317359235058869,-0.08245668303943407,-0.1822172079677292,0.07923494066758956
364,16.629191100000753,0.09940605442714152,0.053940822408031074,0.006947251682101556,0.07600988838490276,0.08509891648825403,-0.042457809895598844,-0.0010196054900182122,-0.048306292532708184,-0.02281119089492682,-0.08219471861554425,-0.1801481129834724,0.07974422354658044
365,16.63936929999909,0.09975257565647434,0.054328289401039453,0.006753447922986886,0.07600438577942051,0.08487681413058053,-0.04256097819251722,-0.001393742990846848,-0.04912285464946887,-0.02244647875550938,-0.08193799861690347,-0.17805909616829557,0.08024865486105719
366,16.646167500002775,0.10009906791110364,0.05471473533509488,0.006559177606170819,0.07599718013555729,0.08465101074842486,-0.0426624785115677,-0.0017667220847786993,-0.049929848243622794,-0.022079477858656316,-0.08168655037519094,-0.17595085565022803,0.08074831637361829
367,16.650073099997826,0.10044552343885481,0.05510014343654124,0.006364448359809497,0.07598827667973357,0.08442155016482157,-0.04276230046777774,-0.002138566862361981,-0.05072718727093314,-0.021710209769446365,-0.0814403956932877,-0.17382409465493553,0.08124328442088762
368,16.655520400003297,0.10079193451113026,0.05548449713240746,0.006169267859180488,0.07597768052830735,0.08418847658777454,-0.04286043377369609,-0.0025093015001094953,-0.05151478890458652,-0.021338695718156615,-0.08119955059021941,-0.1716795208388658,0.08173362922529523
369,16.665581300010672,0.10113829342240672,0.0558677800521292,0.005973643826241658,0.07596539668725591,0.08395183459553916,-0.04295686823792939,-0.0028789502346320914,-0.05229257355280877,-0.02096495662957261,-0.08096402612358246,-0.16951784502615083,0.08221941421662123
370,16.671417800011113,0.10148459248973146,0.05624997602920316,0.005777584029196436,0.07595143005194607,0.08371166912184289,-0.04305159376382009,-0.0032475373432665345,-0.053060464870132336,-0.020589013155614115,-0.08073382888313269,-0.16733978009924175,0.08270069542239579
371,16.67552689999866,0.10183082405221751,0.05663106910277396,0.005581096282064741,0.07593578540699261,0.0834680254410646,-0.04314460034828054,-0.0036150871227095442,-0.05381838976489676,-0.020210885710203606,-0.08050896075425656,-0.16514604007566,0.0831775211573405
372,16.679243999999017,0.1021769804705386,0.057011043519153363,0.005384188444258879,0.07591846742622331,0.08322094915338679,-0.04323587808078882,-0.003981623867488976,-0.054566278402097865,-0.019830594504723725,-0.08028941864371833,-0.1629373384619778,0.0836499320203643
373,16.68442240000877,0.10252305412642405,0.05738988373327175,0.005186868420163624,0.07589948067273368,0.08297048616994897,-0.04332541714254611,-0.004347171846097201,-0.05530406419587971,-0.01944815958291316,-0.08007519387439974,-0.16071438574247474,0.08411796096834204
374,16.689687000005506,0.10286903742215425,0.05776757441006197,0.0049891441587197995,0.07587882959906964,0.08271668269806826,-0.043413207805790756,-0.004711755273943485,-0.056031683789485136,-0.019063600855651383,-0.0798662718367661,-0.1584778875042637,0.0845816332253925
375,16.694147800008068,0.10321492278005716,0.05814410042577607,0.0047910236530106145,0.07585651854752884,0.08245958522657566,-0.04349924043327278,-0.005075398286309405,-0.0567490770306525,-0.018676938136681746,-0.07966263195398034,-0.15622854402699998,0.08504096610393816
376,16.7011199999979,0.10356070264200652,0.058519446869235416,0.004592514939850033,0.07583255175058996,0.08219924051126098,-0.043583505477893664,-0.005438124910983138,-0.05745618694782518,-0.018288191179027805,-0.07946424793829487,-0.15396705038102965,0.08549596892232936
377,16.705053500001668,0.10390636946892236,0.05889359904301472,0.004393626099372399,0.07580693333146356,0.081935695560426,-0.04366599348251293,-0.005799959043552679,-0.05815295972644318,-0.017897379711467515,-0.07927108833838996,-0.1516940962911817,0.08594664306042897
378,16.70874360000016,0.10425191574027415,0.05926654246456045,0.004194365254622566,0.0757796673047466,0.08166899762054555,-0.04374669507992049,-0.006160924425030798,-0.05883934468391073,-0.017504523474442743,-0.07908311679660046,-0.14941036575217786,0.08639298213304407
379,16.712492000006023,0.1045973339535873,0.05963826286724409,0.003994740571145779,0.07575075757717736,0.081399194162049,-0.043825600992970636,-0.006521044619493671,-0.05951529424238116,-0.017109642254952095,-0.07890029203172332,-0.14711653658061405,0.0868349722579202
380,16.720246199998655,0.1049426166239532,0.06000874620135092,0.0037947602565765763,0.07572020794849388,0.08112633286522941,-0.04390270203487256,-0.006880342991549073,-0.06018076389963942,-0.01671275592001684,-0.0787225680206288,-0.14481327992955198,0.08727259238883528
381,16.724645399997826,0.10528775628354355,0.06037797863500477,0.003594432560226024,0.07568802211239424,0.08085046160629057,-0.043977989109629495,-0.007238842685630958,-0.06083571219746097,-0.016313884448536556,-0.07854989449268386,-0.1425012600037477,0.08770581467873767
382,16.729064300001482,0.10563274548112915,0.06074594655502961,0.003393765772666617,0.07565420365758385,0.08057162844354465,-0.04405145321261968,-0.007596566607975834,-0.061480100689897746,-0.01591304796144394,-0.07838221740681629,-0.14018113387854214,0.08813460487042796
383,16.733179700007895,0.10597757678160377,0.06111263656774844,0.003192768225314214,0.07561875606890009,0.08028988160374835,-0.04412308543131048,-0.00795353741026725,-0.062113893909985674,-0.015510266749998197,-0.07821947906001375,-0.13785355111393624,0.08855892266712702
384,16.737449000007473,0.10632224276551322,0.061478035499720286,0.0029914482900064267,0.07558168272850867,0.08000526946860419,-0.04419287694609729,-0.00830977747260148,-0.06273705933451172,-0.015105561302560966,-0.07806161773962522,-0.1355191535347541,0.0889787220946132
385,16.7414848000044,0.10666673602859009,0.06184213039841601,0.002789814378576906,0.07554298691718363,0.07971784056141787,-0.04426081903126183,-0.008665308883961657,-0.06334956734871697,-0.014698952329587725,-0.07790856739535877,-0.13317857480199047,0.0893939519151897
386,16.74581130000297,0.10701104918129452,0.062204908532833635,0.0025878749424249944,0.07550267181568174,0.07942764353392143,-0.044326903056038945,-0.009020153422192718,-0.06395139120715514,-0.01429046078662914,-0.07776025815089742,-0.13083244008179737,0.08980455597596776
387,16.750060300008045,0.10735517484836148,0.06256635739405404,0.0023856384720802827,0.07546074050620508,0.07913472715328748,-0.04439112048578457,-0.009374332539140488,-0.06454250699537747,-0.013880107896146788,-0.07761661714468751,-0.12848136632074336,0.09021047342386204
388,16.754121600009967,0.10769910566835485,0.06292646469573786,0.0021831134967616145,0.07541719597391093,0.07883914028930174,-0.044453462883241486,-0.00972786734829299,-0.06512289359330112,-0.013467915168554166,-0.07747756816588054,-0.1261259622271185,0.09061163880925016
389,16.758327400006237,0.10804283429322847,0.0632852183745642,0.0019803085839301027,0.07537204110848707,0.07854093190171126,-0.04451392190989914,-0.010080778606600022,-0.0656925326367235,-0.013053904423087239,-0.07734303095810094,-0.12376682847223845,0.09100798203915046
390,16.76332050000201,0.10838635338789462,0.06364260659061222,0.0017772323388357326,0.0753252787058274,0.07824015102774787,-0.04457248932744968,-0.010433086695766173,-0.06625140848252625,-0.012638097809272377,-0.07721292187711969,-0.12140455823194628,0.09139942824777368
391,16.767216899999767,0.1087296556298003,0.06399861772768604,0.0015738934040571038,0.07527691146977786,0.07793684676979372,-0.044629156999343535,-0.010784811610067117,-0.06679950817512702,-0.012220517828977226,-0.07708715411269337,-0.1190397369377275,0.09178589776230436
392,16.770932700004778,0.10907273370851164,0.0643532403935839,0.0013703004590338486,0.07522694201392309,0.07763106828321058,-0.04468391689244651,-0.011135972939665364,-0.06733682140941402,-0.011801187358190645,-0.07696563677216205,-0.11667294226786108,0.09216730629820014
393,16.774806900008116,0.1094155803253065,0.06470646342031205,0.001166462219591265,0.0751753728634845,0.07732286476434334,-0.04473676107879396,-0.011486589850070745,-0.06786334049711723,-0.01138012966729283,-0.07684827515436783,-0.11430474462398633,0.09254356532633581
394,16.779144300002372,0.10975818819277616,0.06505827586424456,0.00096238743745674,0.07512220645729424,0.07701228543865599,-0.04478768173743269,-0.011836681067953768,-0.06837906033408825,-0.010957368439487605,-0.07673497128180366,-0.11193570677355869,0.09291458236979193
395,16.78333279999788,0.11010055003443593,0.06540866700622905,0.0007580848997675883,0.07506744514982258,0.0766993795490334,-0.04483667115634322,-0.01218626486545827,-0.06888397836341138,-0.010532927788366401,-0.07662562340535424,-0.10956638361230818,0.09328026108923676
396,16.787348600002588,0.11044265858434532,0.06575762635163973,0.000553563428569948,0.07501109121329495,0.0763841963442537,-0.04488372173444183,-0.01253535904149897,-0.06937809454051762,-0.010106832275562035,-0.07652012565693134,-0.10719732242064169,0.09364050132682433
397,16.791411199999857,0.11078450658673795,0.06610514363037816,0.0003488318803083645,0.07495314683988982,0.07606678506760815,-0.04492882598366378,-0.012883980902906825,-0.06986141129863357,-0.009679106927912417,-0.07641836863603894,-0.10482906299133946,0.0939951994099948
398,16.799946099999943,0.11112608679566179,0.06645120879682244,0.0001438991453056917,0.07489361414402769,0.07574719494568855,-0.04497197653112187,-0.013232147251074923,-0.07033393351505983,-0.009249777252344259,-0.07632024037842182,-0.10246213803232893,0.09434424875172608
399,16.80428870000469,0.11146739197462988,0.06679581202972575,-6.122585276700648e-05,0.0748324951646907,0.07542547517731457,-0.04501316612132537,-0.013579874371936045,-0.0707956684802924,-0.008818869247563645,-0.0762256267777122,-0.10009707334997264,0.09468754037383473
400,16.808409000004758,0.11180841489628177,0.06713894373206458,-0.00026653415743078723,0.07476979186780305,0.07510167492260274,-0.04505238761844514,-0.01392717802645317,-0.07124662586597227,-0.00838640941416824,-0.07613441226363453,-0.097734387683982,0.09502496290564177
401,16.812491200005752,0.11214914834205596,0.06748059453083761,-0.00047201677994958074,0.07470550614863729,0.07477584329218602,-0.045089634008624827,-0.014274073446780952,-0.07168681769250167,-0.007952424766350032,-0.07604647972822491,-0.09537459281774778,0.0953564020729387
402,16.816523500005133,0.11248958510187322,0.06782075527681565,-0.0006776646998915949,0.0746396398342297,0.07444802933657803,-0.045124898402352655,-0.01462057532608349,-0.07211625829799953,-0.007516942846667179,-0.07596170931714846,-0.09301819396293798,0.09568174023678262
403,16.820820400011144,0.11282971797383111,0.06815941704424348,-0.0008834688657016935,0.07457219468587953,0.07411828203567573,-0.04515817403690729,-0.014966697803674949,-0.07253496430942458,-0.007079991741952053,-0.07587997846625524,-0.09066568992324173,0.09600085649223009
404,16.824983800004702,0.11316953976391005,0.06849657113049416,-0.0010894201952851023,0.07450317240169976,0.07378665028838693,-0.04518945427887474,-0.015312454455170646,-0.07294295461302386,-0.006641600097182829,-0.07580116268995282,-0.08831757296666812,0.09631362723820967
405,16.829021600002307,0.1135090432856911,0.06883220905567626,-0.001295509576602737,0.07443257461920619,0.07345318290240244,-0.045218732626720645,-0.015657858284816115,-0.07334025032429138,-0.0062017971261953825,-0.0757251360015168,-0.08597432913803901,0.09661992672344141
406,16.833174400002463,0.11384822136008568,0.06916632256219488,-0.0015017278682783628,0.07436040291793816,0.07311792858409744,-0.04524600271340488,-0.016002921719470615,-0.07372687476126602,-0.0057606126205771505,-0.07565177104078813,-0.08363643853139975,0.09691962728296544
407,16.837289800008875,0.11418706681507722,0.06949890361426683,-0.0017080659002177633,0.07428665882210246,0.07278093592854717,-0.04527125830903493,-0.01634765660210054,-0.074102853416974,-0.0053180769582223415,-0.07558093927597956,-0.08130437512626161,0.09721259942318884
408,16.841535600004136,0.11452557248547494,0.06982994439739064,-0.0019145144742400938,0.07421134380325342,0.0724422534096796,-0.04529449332355851,-0.016692074187603025,-0.07446821393123362,-0.004874221111450333,-0.07551251173579725,-0.07897860667894406,0.09749871203696475
409,16.845945900000515,0.11486373121268002,0.0701594373177719,-0.0021210643647216003,0.07413445928297485,0.07210192937054807,-0.04531570180949096,-0.01703618514297488,-0.07482298606210706,-0.004429076653599777,-0.07544635981567643,-0.07665959459254194,0.09777783285461646
410,16.84992800001055,0.1152015358444638,0.07048737500170457,-0.0023277063192518434,0.07405600663555864,0.07176001201374439,-0.045334877964667966,-0.01737999955048752,-0.07516720165651941,-0.003982675763034526,-0.07538235582628651,-0.0743477939910321,0.09804982900479642
411,16.854402299999492,0.11553897923475832,0.07081375029490898,-0.0025344310593025153,0.07397598719065772,0.07141654939193937,-0.04535201613500952,-0.017723526912857213,-0.07550089462238614,-0.003535051224623783,-0.07532037348745388,-0.07204365381041887,0.09831456744264114
412,16.858451899999636,0.11587605424345881,0.07113855626182682,-0.0027412292809088665,0.07389440223591752,0.07107158939854995,-0.045367110817286116,-0.018066776160923618,-0.0758241009000633,-0.003086236429844084,-0.07526028827653028,-0.06974761700087662,0.09857191516376575
413,16.862541900001816,0.11621275373623817,0.07146178618487403,-0.0029480916553637445,0.07381125301955893,0.07072517975854019,-0.04538015666188364,-0.018409755661996496,-0.07613685843631805,-0.002636265376308229,-0.07520197724544402,-0.06746012098411353,0.09882173931994119
414,16.86665520000679,0.11654907058437297,0.071783433563652,-0.0031550088299242317,0.07372654075293365,0.07037736801932568,-0.04539114847556529,-0.0187524732258661,-0.07643920715994922,-0.0021851726668125093,-0.07514531922217539,-0.06518159792729813,0.09906390735004462
415,16.870987500005867,0.11688499766458131,0.07210349211411743,-0.003361971428530867,0.07364026661305234,0.07002820154179679,-0.045400081224227735,-0.019094936114986954,-0.07673118895825545,-0.0017329935076716267,-0.07509019513959593,-0.06291247507305371,0.09929828716300632
416,16.875435699999798,0.11722052785887184,0.07242195576771172,-0.003568970052539415,0.07355243174504711,0.06967772749143769,-0.045406950035647896,-0.019437151053486628,-0.07701284765566468,-0.001279763706097795,-0.07503648788873991,-0.06065317490438013,0.0995247473555595
417,16.8806806000066,0.11755565405440405,0.0727388186704499,-0.003775995281465132,0.07346303726461753,0.06932599282954446,-0.045411750202215204,-0.019779124236011632,-0.07728422899170612,-0.0008255196665502016,-0.07498408274195512,-0.058404115145165275,0.09974315738033111
418,16.885106300003827,0.11789036914335961,0.07305407518196984,-0.003983037673739449,0.07337208426041249,0.06897304430454494,-0.04541447718364506,-0.020120861340594508,-0.07754538059964428,-0.0003702983865814453,-0.07493286703992229,-0.056165708722118034,0.0999533876047654
419,16.889423700005864,0.1182246660228244,0.0733677198745421,-0.004190087767478979,0.07327957379635884,0.06861892844341165,-0.045415126609673256,-0.020462367534645948,-0.07779635198410395,8.586254735027178e-05,-0.07488272925705829,-0.05393836336281488,0.10015530932764924
420,16.89336290000938,0.11855853759468106,0.07367974753204087,-0.004397136081266769,0.07318550691398865,0.06826369154318568,-0.04541369428273124,-0.020803647479300164,-0.07803719449603919,0.0005429249641853858,-0.07483355935155185,-0.051722481083425156,0.1003487948846904
421,16.897892900000443,0.11889197676551222,0.07399015314887648,-0.0046041731149456975,0.07308988463472821,0.06790737966261784,-0.04541017618060128,-0.02114470533859866,-0.07826796130568726,0.001000850113413449,-0.07478524916747772,-0.049518457859036295,0.1005337179108358
422,16.902248300000792,0.11922497644651396,0.07429893192889013,-0.0048111893504239394,0.07299270796214155,0.06755003861393916,-0.04540456845904478,-0.0214855447875021,-0.0784887073745317,0.0014595986717692085,-0.0747376920500448,-0.04732668344037198,0.10070995362804548
423,16.906357600004412,0.11955752955341949,0.07460607928421138,-0.005018175252492329,0.07289397788414642,0.06719171395475766,-0.04539686745439639,-0.021826169017565896,-0.07869948942658506,0.0019191307510070278,-0.07469078257033675,-0.04514754106050866,0.1008773790959263
424,16.910333000007086,0.11988962900643278,0.074911590834079,-0.005225121269653474,0.07279369537520601,0.06683245098009073,-0.04538706968612141,-0.02216658074244223,-0.07890036591767774,0.0023794059068822622,-0.074644417002044,-0.04298140692359311,0.10103587367736164
425,16.91630760001135,0.12022126773017228,0.0752154624036258,-0.005432017834962443,0.07269186139849479,0.06647229471454191,-0.045375171859328045,-0.022506782207902525,-0.07909139700207891,0.0028403831511713247,-0.07459849425572872,-0.040828650038432106,0.10118531985217352
426,16.92051250000077,0.12055243865362425,0.07551769002262812,-0.005638855366878782,0.07258847690799884,0.0661112899046376,-0.04536117086721518,-0.02284677520585816,-0.07927264450026797,0.0033020209680720922,-0.07455291671977748,-0.03868963245683747,0.10132560402936647
427,16.924644500002614,0.12088313471010564,0.07581826992422085,-0.005845624270129521,0.07248354285055386,0.06574948101129775,-0.0453450637934351,-0.02318656109205081,-0.07944417186772866,0.0037642773336300692,-0.07450759080990846,-0.03656470912924987,0.10145661674493027
428,16.92938870000944,0.12121334883723606,0.07611719854357821,-0.006052314936582738,0.07237706016778418,0.06538691220245707,-0.04532684791436415,-0.02352614080508361,-0.07960604416140415,0.0042271097339423745,-0.07446242643902833,-0.03445422777404233,0.10157825200608586
429,16.93340110000281,0.12154307397691823,0.0764144725165615,-0.006258917746131266,0.07226902979796725,0.06502362734584159,-0.04530652070129945,-0.0238655148792776,-0.07975832800729947,0.0046904751786046904,-0.0744173360824676,-0.03235852909734554,0.10169040630903173
430,16.937523900007363,0.12187230307532704,0.07671008867833405,-0.006465423067586287,0.07215945267785541,0.0646596700018853,-0.04528407982260697,-0.024204683455179656,-0.0799010915689409,0.0051543302099589915,-0.07437223446666784,-0.030277947051291686,0.10179297826628968
431,16.946692299999995,0.1222010290829066,0.07700404406194435,-0.006671821259580626,0.0720483297444446,0.06429508341679427,-0.04525952314583388,-0.024543646289580348,-0.08003440451733315,0.005618630913142604,-0.07432703906561258,-0.028212809216749478,0.10188586941369059
432,16.950741699998616,0.1225292449543754,0.07729633589687775,-0.006878102671481605,0.07193566193670477,0.06392991051573722,-0.045232848739765054,-0.024882402770548366,-0.08015833800290856,0.0060833329326940916,-0.07428167116044734,-0.026163436968421015,0.10196898560000212
433,16.954271900001913,0.12285694364873913,0.07758696160757753,-0.007084257644313092,0.07182145019721148,0.06356419389616545,-0.04520405487638397,-0.025220951937110075,-0.08027296462698959,0.006548391495273037,-0.07423605574767209,-0.024130145475345574,0.10204223769526283
434,16.958419700007653,0.12318411812931075,0.07787591881193569,-0.007290276511686228,0.07170569547369691,0.06319797582126357,-0.04517314003272205,-0.02555929249344683,-0.08037835841374266,0.007013761432724571,-0.0741901204613244,-0.022113244030061457,0.10210554117831759
435,16.9626688999997,0.12351076136373747,0.07816320531975428,-0.007496149600738343,0.071588398720552,0.06283129821352518,-0.04514010289260927,-0.025897422818746917,-0.08047459478464197,0.007479397201038275,-0.07414379482032821,-0.020113036524670606,0.1021588153221534
436,16.96678129999782,0.12383686632403443,0.07844881913117763,-0.007701867233079647,0.07146956090028761,0.062464202648436426,-0.045104942348350635,-0.026235340974540146,-0.0805617505347641,0.00794525289598454,-0.0740970101373552,-0.018129821908040956,0.10220198301637841
437,16.975265200002468,0.12416242598662508,0.07873275843509607,-0.007907419725747425,0.07134918298496977,0.06209673034826785,-0.04506765750233421,-0.02657304471371878,-0.08063990381142061,0.008411282270454819,-0.07404970027063927,-0.016163895083683672,0.10223497157420604
438,16.980523200007156,0.12448743333238795,0.07901502160752158,-0.008112797392167395,0.07122726595759864,0.06172892217595277,-0.04502824766854947,-0.02691053149472722,-0.08070913409863963,0.008877438757456129,-0.0740018028124651,-0.014215548080873608,0.1022577139254492
439,16.98703899999964,0.12481188134670954,0.07929560720993567,-0.008317990543121751,0.07110381081341434,0.06136081862902061,-0.0449867123739857,-0.02724779850141967,-0.08076952220647676,0.009343675498329108,-0.07395326002309721,-0.012285070768409102,0.10227014937518215
440,16.991149200010113,0.12513576301954304,0.07957451398760972,-0.008522989487723266,0.07097881856109485,0.060992459833572765,-0.04494305135989301,-0.02758484266576545,-0.08082115026200479,0.009809945372660053,-0.07390401859325027,-0.010372751020119805,0.10227222347462435
