,time,x,y,z,vx,vy,vz,ax,ay,az,jx,jy,jz
0,7.096305800019763,0.06150551307754887,-0.07000106084755627,-0.04837246679057219,0.008777659525987327,0.00048725521341468195,0.003399502508834918,0.017784484123824343,0.040435587789440244,-0.0026191666705172307,0.04883887786634266,0.19314125057192727,0.01572937121489102
1,7.101106100017205,0.06154256254131463,-0.06999865578298488,-0.048358201864023384,0.008852838851087338,0.0006589114158163503,0.003388633122482056,0.017990747797621394,0.041250046454584154,-0.0025523296115592675,0.0493111979743732,0.19441212089879334,0.01607383959634352
2,7.105319100024644,0.06157992980463149,-0.06999552205578255,-0.04834398203099386,0.00892888927176582,0.0008340020028673468,0.0033780476942468296,0.018198992737784424,0.04206981088847504,-0.0024840504039126427,0.04978159476473976,0.1956658468334524,0.016415548947475253
3,7.108680000004824,0.06161761854620354,-0.06999164518440992,-0.04832980608527226,0.009005819098274376,0.0010125491232191829,0.003367752261090939,0.018409210554445485,0.042894808340361294,-0.0024143409452699583,0.05024992160184429,0.19690209748806253,0.016754355740247275
4,7.1131090999697335,0.06165563247958863,-0.06998701059487969,-0.04831567279537904,0.009083636604308587,0.0011945746168299366,0.003357752808704381,0.018621392237500655,0.043724964664256884,-0.002343213736766709,0.050716029735683156,0.19812054017571468,0.017090116212976767
5,7.117342400015332,0.0616939753530393,-0.06998160362206639,-0.04830158090478729,0.00916235002438136,0.00138010000908194,0.0033480552689646443,0.018835528146693425,0.044560204312852916,-0.0022706818845523655,0.051179768430340514,0.19932084064408,0.017422686113345975
6,7.121489799988922,0.0617326509493325,-0.06997540951104092,-0.048287529132154276,0.009241967551152537,0.0015691465048846092,0.003338665517391783,0.01905160800483779,0.04540045033044721,-0.002196759102343555,0.051640985454477484,0.2005026629352151,0.017751920511440766
7,7.12657510000281,0.06177166308558806,-0.06996841341842992,-0.04827351617156362,0.009322497332745277,0.0017617349827326976,0.0033295893705861494,0.01926962089202467,0.046245624345677375,-0.002121459714566738,0.05209952716327957,0.20166566971267913,0.01807767377641538
8,7.130336600006558,0.06181101561307584,-0.06996060041380023,-0.048259540692778394,0.009403947470026956,0.001957885988748041,0.0033208325836570516,0.01948955523953385,0.047095646567200104,-0.0020447986591075437,0.05255523858006203,0.2028095224484486,0.0183997994363235
9,7.133948599977884,0.06185071241701132,-0.06995195548106832,-0.04824560134150493,0.009486326013874379,0.0021576197307014906,0.0033124008476373744,0.019711398824726372,0.04795043577799547,-0.001966791491631704,0.05300796353657405,0.20393388153971437,0.01871815009630481
10,7.138199699984398,0.061890757416339835,-0.06994246351993505,-0.04823169673966762,0.009569640962411747,0.0023609560720067807,0.0033042997868759144,0.019935138766135875,0.048809909332028036,-0.0018874543890221099,0.053457544918401614,0.2050384067995725,0.019032577882519396
11,7.141619700007141,0.06193115456350889,-0.06993210934734558,-0.048217825485694685,0.0096539002582346,0.002567914525714395,0.0032965349564231107,0.020160761520423832,0.04967398315267583,-0.001806804149968044,0.05390382469985276,0.20612275752709855,0.01934293476927234
12,7.145919599977788,0.06197190784422904,-0.06992087769897457,-0.04820398615481491,0.0097391117856222,0.002778514248492227,0.003289111839418426,0.02038825287776413,0.05054257172998053,-0.0017248581956524382,0.05434664396735601,0.20718659253070848,0.019649072321998043
13,7.150236000015866,0.06201302127722285,-0.06990875323073674,-0.048190177299365373,0.009825283367722665,0.0029927740345963333,0.0032820358444703014,0.020617597958995006,0.051415588119272826,-0.0016416345725015712,0.054785842977863285,0.20822957012816612,0.019950841580407885
14,7.154615200008266,0.06205449891396205,-0.06989572052032275,-0.04817639744911026,0.009912422763741421,0.0032107123098400383,0.0032753123030204215,0.020848781211494548,0.05229294393842264,-0.001557151953854585,0.05522126049312305,0.2092513479830175,0.020248093455729976
15,7.158691100019496,0.062096344838392874,-0.06988176406876043,-0.04816264511157069,0.010000537666091665,0.003432347125541572,0.0032689464667096367,0.02108178640073655,0.053174549365089564,-0.0014714296393739956,0.05565273362764281,0.21025158317471798,0.02054067909283008
16,7.162163899978623,0.06213856316664927,-0.06986686830200152,-0.048148918772365684,0.010089635697511824,0.003657696152470063,0.003262943504747184,0.021316596604888,0.054060313134562575,-0.00138448755367123,0.056080098549619525,0.21122993217524014,0.02082845002206667
17,7.165762999968138,0.06218115804675401,-0.06985101757253384,-0.04813521689556414,0.01017972440817062,0.003886776674775016,0.003257308501288162,0.021553194212256932,0.05495014253681384,-0.0012963462444406477,0.056503190901607055,0.2121860510126276,0.02111125832288698
18,7.170580799982417,0.06222413365830756,-0.06983419616101905,-0.0481215379240478,0.010270811272763069,0.0041196055839075405,0.0032520464528184375,0.021791560919426026,0.05584394341571324,-0.0012070268797098943,0.056921845893806,0.21311959555136106,0.021388956775663544
19,7.175101000000723,0.06226749421216478,-0.06981638827795586,-0.04810788027988524,0.010362903687599853,0.004356199372543225,0.0032471622655552332,0.02203167772948466,0.056741620168438964,-0.001116551244697588,0.057335898362715174,0.21403022125874363,0.02166139903695788
20,7.1794096999801695,0.06231124395009932,-0.06979757806536895,-0.04809424236471667,0.010456008967688467,0.004596574128498411,0.00324266075285845,0.022273524950655533,0.05764307574272824,-0.0010249417375904123,0.0577451826775697,0.21491758273760156,0.02192843982640228
21,7.183759799983818,0.0623553871444558,-0.06977774959852327,-0.04808062256014968,0.010550134343811038,0.004840745528629955,0.0032385466326667516,0.022517082193740233,0.05854821163235983,-0.0009322213648298783,0.058149531992518884,0.21578133412343337,0.022189934774814197
22,7.188060300017241,0.06239992809778964,-0.06975688688766427,-0.04806701922816563,0.010645286959584001,0.005088728832713533,0.003234824524948505,0.022762328364459693,0.05945692787774319,-0.0008384137381661646,0.05854877758087742,0.21662112976204634,0.0224457401438887
23,7.191982500022277,0.062444871142494494,-0.06973497387978363,-0.04805343071153677,0.010741473868471539,0.005340538877348353,0.0032314989491626324,0.02300924165530349,0.060369123067097165,-0.0007435430723011369,0.0589427491973833,0.21743662395250463,0.022695713013080376
24,7.196274899994023,0.062490220640417024,-0.06971199446041072,-0.048039855334254006,0.010838702030776736,0.005596190069845364,0.0032285743217293633,0.023257799540915423,0.06128469433487838,-0.0006476341803712636,0.05933127544019276,0.21822747134433795,0.02293971192210546
25,7.200361099967267,0.06253598098245901,-0.06968793245542979,-0.048026291401965286,0.01093697831061623,0.005855696382118762,0.003226054953529057,0.023507978772985747,0.06220353736629884,-0.0005507124661897801,0.059714183902675064,0.2189933276385332,0.02317759747843545
26,7.20455409999704,0.06258215658816668,-0.06966277163292264,-0.04801273720242437,0.011036309472868436,0.0061190713446121715,0.003223945047438167,0.02375975537691273,0.06312554640164686,-0.00045280391462302857,0.06009130165267689,0.21973384933039725,0.023409233034875205
27,7.210603800020181,0.06262875190530721,-0.06963649570503698,-0.04799919100594993,0.01113670218012013,0.006386328040226477,0.0032222486959089594,0.02401310465072356,0.06405061423864315,-0.00035393507813691934,0.06046245516218843,0.22044869387318808,0.02363448543723794
28,7.214687399973627,0.06267577140943237,-0.06960908832988011,-0.04798565106589469,0.011238162989605602,0.006657479098265804,0.0032209698786185687,0.024268001161144682,0.06497863223813727,-0.00025413306088833466,0.06082746959465287,0.22113752026227942,0.023853225304677338
29,7.219056400004774,0.06272321960342925,-0.06958053311343812,-0.04797211561912426,0.011340698350120209,0.006932536688413238,0.0032201124601824414,0.024524418736531856,0.06590949033137414,-0.00015342550291512554,0.06118616855990492,0.2217999890817539,0.024065327275023356
30,7.22333200002322,0.06277110101705802,-0.0695508136115203,-0.04795858288650551,0.011444314598900097,0.007211512514737888,0.0032196801879362915,0.02478233046088051,0.06684307702608216,-5.1840562165229425e-05,0.06153837437113851,0.22243576206058718,0.024270670542234238
31,7.227225499984343,0.06281942020647642,-0.06951991333172863,-0.04794505107340404,0.011549017958485409,0.00749441780972178,0.0032196766898006067,0.02504170866891585,0.06777927941000908,5.059310583114019e-05,0.06188390810306661,0.22304450232965198,0.024469138926413548
32,7.231416900001932,0.06286818175375113,-0.06948781573545247,-0.04793151837019052,0.01165481453355873,0.007781263328296643,0.003220105472233479,0.025302524940592118,0.0687179831591704,0.0001538463665209375,0.062222589825735364,0.22362587526277816,0.024660620313047815
33,7.235081400023773,0.06291739026635568,-0.06945450423988814,-0.04791798295275537,0.011761710307762055,0.008072059341940142,0.0032209699182511207,0.025564750098148133,0.06965907254845519,0.00025788962194234135,0.06255423897847388,0.2241795484300855,0.024845005940456667
34,7.238583399972413,0.06296705037665508,-0.0694199622200832,-0.0479044429830317,0.011869711140510488,0.008366815632801814,0.003222273285511947,0.025828354203749956,0.07060243045948227,0.00036269282329452377,0.0628786746032659,0.22470519155115623,0.025022189733894452
35,7.241930600022897,0.06301716674137696,-0.06938417301100551,-0.04789089660952615,0.011978822763789393,0.008665541487865335,0.0032240187044427523,0.02609330655850815,0.07154793839081233,0.000468225480954183,0.06319571592911818,0.22520247668209206,0.025192067919996165
36,7.245989200018812,0.06306774404106924,-0.06934711990963649,-0.047877341967857534,0.012089050778959826,0.008968245693160308,0.003226209176406992,0.026359575705032633,0.07249547646737654,0.0005744566738043547,0.06350518293273867,0.22567107837902847,0.025354538547810047
37,7.250564999994822,0.06311878697954444,-0.06930878617708885,-0.047863777181303115,0.01220040065357717,0.00927493652800378,0.0032288475719093775,0.02662712943116298,0.07344492345206316,0.0006813550552247581,0.06380689647856672,0.22611067402505947,0.02550950064773387
38,7.254499599977862,0.06317030028331061,-0.06926915504074832,-0.04785020036135233,0.012312877718227921,0.009585621759309429,0.00323193662881451,0.026895934773700367,0.07439615675789424,0.0007888888553506474,0.06410067841238642,0.22652094366694786,0.025656853659029765
39,7.258606799994595,0.06322228870098903,-0.06922820969643913,-0.04783660960826802,0.012426487163379693,0.009900308635931436,0.0032354789505704656,0.027165958022924788,0.07534905245823967,0.0008970258822508634,0.06438635186498605,0.22690157048231574,0.02579649699755747
40,7.263019800011534,0.06327475700271869,-0.06918593331061332,-0.04782300301165511,0.012541234036255976,0.010219003883059534,0.003239477004437332,0.027437164728879544,0.07630348530292105,0.0010057335205530622,0.06466374113549483,0.2272522412935718,0.025928329530143207
41,7.267082699981984,0.06332770997954769,-0.06914230902256337,-0.04780937865103671,0.012657123237738965,0.01054171369669825,0.0032439331196992363,0.027709519704907797,0.07725932873274581,0.0011149787282033253,0.06493267138755243,0.22757264631099794,0.02605224963298447
42,7.2712696000235155,0.0633811524428117,-0.06909731994665787,-0.04779573459643785,0.012774159519274053,0.010868443738184122,0.0032488494858656423,0.027982987031383074,0.07821645489345144,0.0012247280355823374,0.06519296871920165,0.22786247950652305,0.026168155892526225
43,7.2753173999954015,0.06343508922349936,-0.06905094917460025,-0.04778206890897668,0.012892347479804014,0.011199199128782157,0.0032542281508759503,0.028257530059833325,0.07917473465338157,0.0013349475481565433,0.0654444598593492,0.22812143889423803,0.02627594802837501
44,7.2799131000065245,0.06348952517160492,-0.0690031797777099,-0.04776837964146331,0.013011691562708164,0.011533984444351636,0.0032600710193230803,0.02853311141411989,0.0801340376197882,0.001445602953352317,0.06568697193427236,0.22834922646014982,0.026375527570907737
45,7.284213299979456,0.06354446515546794,-0.06895399480922568,-0.047754664839005936,0.013132196052746452,0.01187280371007961,0.0032663798507158543,0.028809692992598824,0.08109423215591728,0.00155665952890308,0.06592033253743783,0.22854554799851348,0.026466798118274935
46,7.287905999983195,0.06359991406110026,-0.06890337730663136,-0.047740922539624274,0.01325386507301679,0.012215660395290316,0.0032731562577727464,0.029087235969886747,0.08205518539593519,0.0016680821518838325,0.06614436979961515,0.22871011276179415,0.026549665558334143
47,7.292231799976435,0.06365587679150009,-0.06885131029400278,-0.04772715077487005,0.013376702581913995,0.012562557408304155,0.0032804017047602086,0.02936570079961155,0.08301676325907185,0.0017798353089238388,0.06635891255265451,0.2288426332266706,0.026624038325641017
48,7.296105000015814,0.06371235826595342,-0.06879777678437643,-0.04771334757045441,0.013500712370110229,0.01291349709136599,0.0032881175058722682,0.029645047217554954,0.08397883046258028,0.001891883107401418,0.0665637901189671,0.228942825140671,0.026689827822079445
49,7.300417500024196,0.06376936341932277,-0.0687427597821393,-0.04769951094688199,0.013625898057540362,0.013268481215613062,0.0032963048236629576,0.029925234242633596,0.08494125053627172,0.002004189289192435,0.06675883235831731,0.22901040824690758,0.026746948615416835
50,7.304501099977642,0.06382689720132319,-0.06868624228543975,-0.04768563892009153,0.013752263090390666,0.013627510976125471,0.0033049646675414805,0.03020622018043492,0.08590388584156725,0.0021167172435341427,0.06694387020532382,0.22904510637712194,0.026795318264047043
51,7.308571800007485,0.06388496457578574,-0.06862820728861896,-0.04767172950210262,0.013879810738113892,0.013990586987054235,0.0033140978923127747,0.030487962628716475,0.0868665975868151,0.0022294300193004646,0.06711873559927299,0.22904664698452776,0.0268348570950935
52,7.312906900013331,0.06394357051990843,-0.06856863778466275,-0.04765778070166852,0.014008544090464193,0.014357709276800534,0.0033237051967758644,0.030770418480351835,0.08782924584241536,0.0023422903360005797,0.0672832618812645,0.22901476128417864,0.026865487409947795
53,7.316957800008822,0.06400272002349469,-0.06850751676767357,-0.047643790524934726,0.014138466054536966,0.014728877283270905,0.0033337871223568767,0.031053543932168283,0.08879168955731717,0.0024552605893759837,0.06743728493918036,0.22894918420598745,0.026887132876825467
54,7.3210621000034735,0.0640624180881795,-0.06844482723536217,-0.0476297569761033,0.014269579351878062,0.01510408984919516,0.0033443440517544427,0.03133729449751731,0.08975378657374854,0.0025683028572929126,0.06758064320756643,0.22884965451155853,0.02689971855416203
55,7.325538999983109,0.06412266972664354,-0.06838055219155899,-0.047615678058102774,0.0144018865156293,0.015483345217505398,0.003355376207622245,0.031621625015111295,0.09071539364469562,0.0026813789055360714,0.06771317748077664,0.22871591523831633,0.02690317031812177
56,7.329658699978609,0.06418347996181531,-0.06831467464874465,-0.04760155177326359,0.014535389887711954,0.015866641026800857,0.0033668836512631218,0.031906489660023324,0.09167636645236588,0.0027944501888887115,0.0678347312868996,0.22854771353589023,0.026897414196730137
57,7.334093299985398,0.06424485382606161,-0.06824717763059944,-0.04758737612399898,0.014670091616064727,0.016253974306882125,0.0033788662813206923,0.03219184195566707,0.092636559624292,0.0029074778513290944,0.06794515114467364,0.2283448005957746,0.0268823763231794
58,7.338012899970636,0.06430679636036646,-0.06817804417457142,-0.04757314911349137,0.014805993651927949,0.016645341474351358,0.003391323832475113,0.03247763478695623,0.09359582675120379,0.0030204227267180573,0.0680442866568765,0.22810693193190973,0.026857983227846445
59,7.342451200005598,0.06436931261349874,-0.06810725733446282,-0.04755886874638427,0.014943097747192168,0.017040738328296726,0.003404255874140483,0.03276382041306943,0.09455402040549064,0.003133245341450171,0.0681319906271873,0.22783386747431694,0.026824162317253986
60,7.346344200021122,0.0644324076411688,-0.06803480018303446,-0.047544533029479606,0.015081405451789643,0.01744016004604783,0.0034176618091828854,0.03305035048159203,0.09551099215986053,0.00324590591916744,0.06820811920055654,0.2275253717090358,0.026780842306368353
61,7.350330399989616,0.06449608650517422,-0.06796065581462779,-0.04753013997244037,0.015220918111161814,0.01784360117901698,0.0034315408726574154,0.033337176042460955,0.09646659260697879,0.003358364387044345,0.06827253151246707,0.22718121372477149,0.0267279537209018
62,7.354544300003909,0.06456035427253509,-0.06788480734780432,-0.0475156875884986,0.015361636863768017,0.01825105564861971,0.003445892130579054,0.03362424755915818,0.0974206713785192,0.003470580384723882,0.06832508926848099,0.2268011673299913,0.026665429387959245
63,7.358925800013822,0.06462521601461886,-0.06780723792800193,-0.047501173895168336,0.015503562638647043,0.018662516742276196,0.0034607144787348132,0.03391151491912129,0.09837307716578712,0.003582513274726969,0.06836565623033469,0.2263850114265399,0.026593205008462267
64,7.363059900002554,0.06469067680625509,-0.06772793073020789,-0.047486596914963604,0.015646696153013367,0.019077977109505123,0.0034760066415421096,0.03419892744061705,0.09932365774191114,0.0036941221562002647,0.06839409826248724,0.22593253010316675,0.026511219671192687
65,7.367159300018102,0.06475674172484011,-0.06764686896164802,-0.04747195467612096,0.015791037909876484,0.01949742875811165,0.0034917671709764737,0.034486433883543256,0.1002722599832524,0.0038053658796466127,0.06841028351923666,0.2254435123318417,0.026419415934581025
66,7.371303899970371,0.06482341584943177,-0.06756403586449178,-0.047457245213326484,0.015936588195727935,0.01992086305046124,0.003507994445553747,0.03477398245787523,0.1012187298890435,0.0039162030613603726,0.06841408157992261,0.22491775159386257,0.0263177396046937
67,7.375706300023012,0.06489070425983463,-0.06747941471857272,-0.04744246656844688,0.01608334707823165,0.02034827069983271,0.0035246866693791354,0.03506152082719819,0.10216291259965489,0.004026592096291628,0.06840536323889347,0.2243550454828724,0.02620613933807249
68,7.379378399986308,0.06495861203567534,-0.0673929888441242,-0.047427616791264476,0.01623131440394067,0.020779641766845613,0.0035418418712375413,0.035348996115388186,0.10310465241289674,0.004136491169143,0.06838400071602875,0.223755195540817,0.026084566408090832
69,7.382753500016406,0.06502714425546857,-0.06730474160452997,-0.04741269394021596,0.016380489796043632,0.021214965655950314,0.0035594579037358967,0.03563635491191415,0.10404379280090638,0.004245858265269849,0.0683498678428269,0.22311800749185684,0.02595297420259665
70,7.386167599994224,0.06509630599567351,-0.06721465640908929,-0.04739769608313458,0.016530872652126077,0.021654231111997328,0.0035775324424851228,0.035923543280083084,0.10498017642841646,0.004354651177554291,0.0683028407407756,0.22244329119592646,0.02581131786176019
71,7.391860899981111,0.06516610232974096,-0.06712271671579638,-0.04738262129799578,0.016682462141986248,0.022097426216880964,0.003596062985300245,0.03621050676804445,0.10591364516925202,0.0044628275142611544,0.0682427985223085,0.2217308609287952,0.025659554768776804
72,7.396270599972922,0.06523653832715144,-0.06702890603413379,-0.04736746767366611,0.01683525720548888,0.022544538386247332,0.0036150468514483908,0.036497190422927595,0.10684404012695276,0.004570344710036832,0.06816962408446174,0.22098053685399272,0.025497644935347116
73,7.400280200003181,0.0653076190524443,-0.06693320792787949,-0.04735223331065519,0.01698925655049985,0.022995554366311337,0.003634481180941359,0.03678353880851759,0.10777120166364314,0.004677160037005576,0.06808320424964573,0.22019214553684974,0.025325550989948205
74,7.404855599976145,0.0653793495642384,-0.06683560601792699,-0.047336916321870544,0.01714445865088855,0.023450460230807366,0.0036543629338768933,0.037069496020575986,0.10869496942497568,0.004783230615669755,0.06798342948513174,0.21936551912697425,0.025143238096136764
75,7.4090849999920465,0.06545173491424447,-0.06673608398511806,-0.04732151483337513,0.017300861744591323,0.02390924137801596,0.003674688889822881,0.03735500570215866,0.10961518236212893,0.004888513425319409,0.0678701934591403,0.21850049568506208,0.02495067381233115
76,7.412889299972448,0.06552478014626953,-0.06663462557308789,-0.04730602698514734,0.017458463831742595,0.024371882527899413,0.003695455647246126,0.037640011055205064,0.11053167875949793,0.004992965313753836,0.06774339238672594,0.21759691988404792,0.024747827974964828
77,7.417570599995088,0.06559849029521349,-0.06653121459112184,-0.04729045093184333,0.017617262672835726,0.024838367719361206,0.0037166596229782677,0.03792445485035759,0.11144429626258606,0.005096543006708941,0.0676029253800074,0.2166546426819988,0.02453467266350216
78,7.421207999985199,0.06567287038605812,-0.06642583491702364,-0.04727478484356151,0.017777255786936688,0.025308680307616068,0.0037382970517238017,0.03820827944149486,0.11235287190294586,0.005199203117284746,0.06744869463524107,0.21567352087781383,0.0243111821770116
79,7.427340599999297,0.06574792543284869,-0.06631847049999429,-0.04725902690660901,0.017938440449967084,0.025782802961659062,0.003760363985605244,0.038491426777123604,0.11325724212233608,0.00530090215517581,0.06728060470844474,0.2146534174855047,0.024077333034153534
80,7.431921200011857,0.06582366043766842,-0.06620910536352147,-0.04724317532427,0.018100813693013584,0.026260717661838705,0.003782856293748744,0.03877383840882287,0.11415724280080869,0.005401596536098642,0.06709856263235532,0.21359420234157112,0.023833103809713017
81,7.436004100018181,0.06590008038960597,-0.06609772360827888,-0.04722722831757561,0.018264372300681925,0.026742405697562158,0.0038057696619084934,0.039055455503619066,0.11505270928597153,0.005501242589648016,0.06690247861733208,0.21249575189470707,0.023578474970990967
82,7.440258699993137,0.06597719026371607,-0.06598430941503497,-0.047211184126075445,0.01842911280951037,0.027227847665114324,0.0038290995921183807,0.03933621885832191,0.11594347641930759,0.005599796567349093,0.0666922665651451,0.2113579490186745,0.02331342899460222
83,7.444316199980676,0.06605499501997358,-0.06586884704757054,-0.04719504100861043,0.018595031506444218,0.02771702346558428,0.0038528414023840866,0.0396160689162184,0.11682937856386469,0.00569721465149554,0.06646784416275961,0.21018068347973992,0.023037950238034913
84,7.448074500018265,0.06613349960222141,-0.06575132085560494,-0.04717879724408689,0.018762124427389594,0.02820991230291713,0.0038769902264090294,0.039894945782197065,0.117710249634504,0.0057934529621219795,0.06622913255507523,0.20896385193697173,0.022752024670918233
85,7.452482299995609,0.06621270893711236,-0.06563171527773005,-0.047162451132251704,0.01893038735581509,0.028706492682094704,0.003901541013345072,0.040172789236691035,0.1185859231255922,0.005888467563583157,0.06597605685881601,0.20770735810520138,0.022455639980152563
86,7.4568912999820895,0.06629262793304526,-0.06551001484435179,-0.04714600099446849,0.019099815821422755,0.0292067424074202,0.003926488527573772,0.040449538755122035,0.11945623214261993,0.005982214472410109,0.06570854656004459,0.20641111385354646,0.022148785464828444
87,7.460771000012755,0.06637326147909572,-0.06538620418063847,-0.04712944517449459,0.019270405098913194,0.029710638580964656,0.003951827348523125,0.040725133525184906,0.12032100943912802,0.00607464966300602,0.06542653488307505,0.20507503908859817,0.021831451638956226
88,7.465027600002941,0.06645461444394185,-0.06526026800947536,-0.04711278203925882,0.019442150206801845,0.030218157601161998,0.0039775518704966975,0.040999512460986744,0.12118008744734404,0.006165729072162952,0.06512995895397733,0.2036990610066215,0.021503630032879514
89,7.468979600002058,0.06653669167478501,-0.06513219115442494,-0.04709600997963985,0.019615045906302923,0.030729275161513043,0.004003656302528336,0.04127261422170581,0.12203329830882259,0.0062554086030883835,0.06481876019809396,0.20228311428068962,0.02116531293635832
90,7.473414300009608,0.06661949799626622,-0.06500195854269225,-0.047079127411245196,0.019789086700302556,0.031243966249438104,0.004030134668245145,0.0415443772290722,0.12288047390665482,0.006343644127762304,0.06449288417609557,0.2008271408965257,0.020816493480222267
91,7.477731699997093,0.06670303820937826,-0.06486955520809484,-0.04706213277519077,0.01996426683238967,0.03176220514525175,0.004056980805742014,0.04181473968464862,0.12372144589472887,0.006430391491650131,0.06415228074782466,0.1993310900830823,0.020457165928487196
92,7.482218699995428,0.06678731709037389,-0.06473496629403676,-0.047045024538880896,0.020140580285974374,0.03228396542126137,0.004084188367484207,0.04208363958868833,0.12455604572935583,0.006515606518515323,0.06379690362828337,0.1977949184761433,0.02008732573677216
93,7.487620099971536,0.0668723393896706,-0.06459817705648602,-0.04702780119678869,0.02031802078347738,0.032809219941007786,0.004111750820222348,0.0423510147536836,0.12538410469990538,0.0065992450156233525,0.06342670968653064,0.19621858988396748,0.019706970019525333
94,7.491862599970773,0.06695810983075201,-0.06445917286695502,-0.04701046127123679,0.020496581785562268,0.03333794085862133,0.004139661444938756,0.04261680281733014,0.1262054539584618,0.006681262782481807,0.06304165920306999,0.19460207552140396,0.019316098251066775
95,7.495369800017215,0.06704463310906611,-0.06431793921548341,-0.04699300331317821,0.02067625649043388,0.03387009961831175,0.004167913336835895,0.04288094125823919,0.12701992455242758,0.0067616156219373075,0.06264171596283655,0.1929453536129013,0.01891471249918229
96,7.499032300023828,0.0671319138909208,-0.06417446171362282,-0.046975425902977125,0.02085703783320268,0.034405666953998354,0.004196499405375991,0.0431433674096836,0.1278273474508423,0.006840259350879193,0.06222684685832414,0.1912484086211585,0.01850281731993882
97,7.5032965000136755,0.0672199568123768,-0.06402872609742277,-0.04695772765118941,0.021038918485298666,0.03494461288902115,0.00422541237435946,0.04340401847197379,0.12862755357050226,0.006917149810452263,0.06179702214667859,0.18951123169074197,0.018080419839460748
98,7.508367999980692,0.06730876647813826,-0.0638807182304179,-0.046939907199342795,0.021221890853939787,0.035486906735990545,0.00425464478205037,0.04366283152836497,0.12942037380600854,0.006992242877447866,0.06135221626715987,0.18773382041534198,0.017647530174584734
99,7.512665699992794,0.06739834746044117,-0.06373042410661511,-0.0469219632207163,0.02140594708167957,0.03603251709675108,0.004284188981350623,0.04391974356430466,0.1302056390539301,0.007065494478052661,0.06089240819157887,0.1859161783230085,0.017204162051977823
100,7.51691090001259,0.06748870429794018,-0.0635778298534811,-0.04690389442111896,0.021591079046037315,0.036581411862434236,0.004314037140040988,0.04417469148628569,0.13098318023852465,0.007136860604443995,0.06041758123771352,0.18405831520317004,0.016750332983314725
101,7.521300899970811,0.06757984149459395,-0.06342292173492906,-0.046885699539667224,0.021777278359204212,0.037133558213638375,0.004344181241094785,0.04442761213952525,0.13175282833865085,0.007206297330011195,0.05992772281231464,0.18216024713097198,0.01628606386810577
102,7.525884700007737,0.06767176351854942,-0.06326568615430468,-0.04686737734956103,0.02196453636782214,0.03768892262070778,0.004374613083046866,0.044678442324657654,0.13251441441369366,0.007273760822612335,0.05942282431703438,0.180221996162367,0.015811378643267957
103,7.5296242000185885,0.06776447480102535,-0.06310610965737058,-0.04684892665885813,0.02215284415283011,0.0382474708441305,0.004405324280418735,0.04492711881462262,0.13326776962791348,0.007339207356849827,0.05890288117238467,0.17824359012427357,0.015326304131257395
104,7.533790900022723,0.06785797973519529,-0.06294417893528886,-0.046830346311246565,0.022342192529385022,0.03880916793502211,0.00443630626419072,0.0451735783715594,0.1340127252746076,0.007402593326050595,0.05836789263091154,0.17622506290710335,0.014830869876430595
105,7.538071700022556,0.06795228267507046,-0.06277988082760153,-0.04681163518681505,0.022532572046850115,0.039373978235726616,0.004467550282327795,0.04541775776212464,0.13474911280291835,0.007463875253166124,0.0578178615430368,0.17416645461589186,0.014325108004973445
106,7.542237900022883,0.06804738793438261,-0.06261320232520798,-0.04679279220282099,0.02272397298884449,0.039941865380525576,0.004499047400343378,0.04565959377241815,0.13547676384326485,0.007523009801575199,0.05725279470777706,0.17206781151235373,0.013809053353359798
107,7.546108999988064,0.06814329978546732,-0.06244413057333948,-0.04677381631445615,0.022916385373357034,0.040512792296452806,0.004530788501915963,0.04589902322624893,0.13619551023366414,0.007579953787063774,0.056672702966235076,0.16992918596806508,0.013282743351468273
108,7.550343699986115,0.06824002245814782,-0.06227265287452981,-0.046754706515609507,0.02310979895294947,0.04108672120422471,0.004562764289553617,0.04613598300084683,0.13690518404476945,0.007634664187645194,0.05607760073426376,0.16775063631213444,0.012746217613760847
109,7.554424799978733,0.06833756013862,-0.062098756691581866,-0.04673546183962728,0.023304203215002362,0.04166361361926551,0.004594965285293161,0.04637041004120011,0.13760561760491075,0.007687098152103523,0.05546750651659073,0.16553222685564978,0.012199517869216499
110,7.558578399999533,0.06843591696833828,-0.06192242965052975,-0.04671608136006996,0.02349958738203869,0.04224343035284802,0.004627381831436486,0.04660224138008885,0.13829664352533855,0.007737213009224791,0.05484244349082055,0.1632740278439796,0.011642688089839112
111,7.562805900000967,0.06853509704290338,-0.06174365954359576,-0.04669656419146612,0.02369594041213825,0.042826131513331096,0.004660004091327328,0.04683141415733166,0.1389780947248635,0.007784966277420552,0.054202439343833723,0.16097611550338548,0.011075774443840735
112,7.566856999997981,0.06863510441095164,-0.061562434332142056,-0.0466769094900629,0.02389325099942301,0.043411676507507546,0.004692822050168479,0.0470578656384438,0.13964980445549205,0.007830315673565593,0.05354752641206319,0.15863857187852312,0.010498825108764886
113,7.571867500024382,0.06873594307304684,-0.06137874214961636,-0.04665711645457302,0.024091507574628364,0.04400002404205704,0.004725825515872852,0.04728153323506306,0.14031160632570003,0.007873219121050615,0.05287774191516392,0.15626148462130654,0.009911890259838312
114,7.576861499983352,0.06883761698057442,-0.061192571304491385,-0.04663718432691802,0.02429069830576018,0.044591132125089666,0.004759004119948384,0.047502354525572124,0.14096333432429353,0.00791363475852202,0.05219312779236321,0.15384494731809845,0.009315022478866177
115,7.580711700022221,0.06894013003463872,-0.06100391028319755,-0.046617112392967876,0.0244908110988394,0.04518495806779944,0.004792347318422569,0.04772026727414881,0.14160482284643286,0.007951520951371761,0.05149373058569759,0.1513890594898327,0.008708277022858951
116,7.5848157000145875,0.06904348608496352,-0.060812747753048534,-0.0465968999832765,0.024691833598719234,0.045781458486226584,0.00482584439282394,0.047935209450406926,0.14223590671749442,0.007986836302735195,0.050779601510229186,0.14889392619507105,0.008091711555331546
117,7.588606800010893,0.06914768892879614,-0.060619072565159166,-0.04657654647381304,0.02489375318999485,0.04638058930311163,0.00485948445119905,0.04814711924903673,0.14285642121575798,0.00801953966272224,0.050050796266774195,0.14635965822816946,0.007465386134715841
118,7.592308500024956,0.06925274230981557,-0.06042287375735539,-0.04655605128668888,0.02509655699798568,0.046982305749848435,0.004893256429171555,0.0483559351078716,0.14346620209793434,0.008049590139317832,0.04930737501887306,0.14378637221286994,0.006829363482988208
119,7.597021299996413,0.06935864991704492,-0.06022414055707574,-0.04653541389088003,0.025300231889796958,0.04758656236855281,0.004927149091050822,0.04856159572733492,0.14406508562263934,0.008076947109871146,0.048549402439492385,0.14117419034551276,0.006183709219276786
120,7.6006937000202015,0.06946541538376844,-0.06002286238426393,-0.04651463380294477,0.02550476447546551,0.04819331301421291,0.004961151030987587,0.04876404008889929,0.14465290857376295,0.008101570233959757,0.047776947220164664,0.13852324104884325,0.005528491941711133
121,7.60503759997664,0.06957304228645354,-0.05981902885425223,-0.04649371058773639,0.025710141109176462,0.048802510856954286,0.004995250674190703,0.048963207470407284,0.14522950828943917,0.008123419465566887,0.04699008153382746,0.13583365955670335,0.004863783052195827
122,7.608651200018357,0.06968153414367813,-0.059612629780635015,-0.046472643859110555,0.025916347890537803,0.04941410838443378,0.005029436278185159,0.04915903746001529,0.14579472269033006,0.008142455064472615,0.046188881081423674,0.13310558744629938,0.004189657060047262
123,7.613022300007287,0.0697908944150633,-0.05940365517813206,-0.04645143328062747,0.026123370665914313,0.050028057404342366,0.005063695934124579,0.04935146997190599,0.14634839030466382,0.008158637610983488,0.045373425792907145,0.13033917242757145,0.003506191710573879
124,7.617671400017571,0.06990112650021185,-0.059192095265440996,-0.04643007856624827,0.026331195029834206,0.05064430904700948,0.005098017568173061,0.049540445266124826,0.1468903502947483,0.008171928018404571,0.044543800387723056,0.1275345688229973,0.0028134671907327096
125,7.621540499967523,0.07001223373765289,-0.05897794046807874,-0.04640857948102549,0.0265398063264898,0.05126281376812874,0.005132388942922516,0.04972590396900387,0.14742044248604239,0.008182287541091834,0.04370009437529419,0.1246919378711149,0.0021115656850897225
126,7.625679499993566,0.07012421940379289,-0.058761181421211055,-0.04638693584178758,0.026749189651315838,0.05188352135160667,0.005166797658842192,0.0499077870930024,0.14793850739622075,0.00818967778319161,0.04284240221838098,0.12181144790133762,0.0014005716679181828
127,7.629583299974911,0.07023708671187356,-0.05854180897246999,-0.046365147517817215,0.026959329852656946,0.05250638091253272,0.005201231155769477,0.05008603605850392,0.1484443862657148,0.008194060709148352,0.04197082340275787,0.11889327467285002,0.0006805720551269392
128,7.633823600015603,0.07035083881093698,-0.0583198141847585,-0.046343214431523234,0.027170211533529175,0.05313134090028472,0.005235676714447756,0.050260592714242464,0.14893792108962625,0.008195398653721205,0.04108546246126683,0.11593760170198997,-4.834421638184055e-05
129,7.637886699987575,0.07046547878479822,-0.058095188339041794,-0.04632113655910604,0.027381819053459162,0.05375834910176716,0.005270121458101408,0.050431399359301826,0.14941895465101995,0.008193654328955849,0.040186429370549746,0.11294462028562598,-0.0007860865858849194
130,7.641346300020814,0.07058100965102596,-0.05786792293712472,-0.0462989139312163,0.027594136530430597,0.05438735264479651,0.005304552354032269,0.05059839876687676,0.149887330553034,0.008188790830862448,0.039273839434143504,0.10991452934885111,-0.0015325628921119612
131,7.646292100020219,0.07069743435993145,-0.05763800970441465,-0.04627654663360694,0.027807147842923118,0.05501829800160941,0.005338956215250765,0.050761534205289505,0.15034289325089223,0.008180771646191862,0.03834781297933041,0.1068475357375301,-0.0022876795369456693
132,7.6503042000113055,0.0708147557935663,-0.057405440592669374,-0.04625403480777811,0.028020836632035445,0.05565113099251709,0.005373319702129333,0.05092074945920274,0.15078548808647357,0.008169560657737532,0.037408475637062295,0.10374385445181217,-0.003051341508744252
133,7.654619299981277,0.0709329767647293,-0.057170207782729285,-0.04623137865161527,0.028235186303702593,0.05628579678970416,0.005407629324078124,0.05107598885298913,0.1512149613222874,0.008155122150915642,0.036455958411779704,0.10060370868078436,-0.003823451926653752
134,7.658592100022361,0.07105210001598278,-0.05693230368723333,-0.04620857842002013,0.028450180031015446,0.05692223992116861,0.005441871441253739,0.051227197272531194,0.15163116017633413,0.008137420822897505,0.03549039712127403,0.09742732998975782,-0.0046039115733827515
135,7.662874499976169,0.07117212821867896,-0.056691720953318064,-0.046185634425534305,0.028665800756621215,0.05756040427481364,0.005476032266311694,0.05137432018388232,0.15203393285765496,0.008116421793117208,0.034511932396444796,0.09421495855398532,-0.005392618719937171
136,7.666393099993002,0.07129306397199654,-0.056448452465299226,-0.046162547038955545,0.028882031195199886,0.05820023310268648,0.005510097866203481,0.05151730365506461,0.15242312860315707,0.008092090613877273,0.03352070996151594,0.09096684348576269,-0.006189469102335355
137,7.670622400008142,0.07141490980198781,-0.05620249134733515,-0.04613931668994631,0.029098853836047905,0.0588416690253798,0.005544054164018191,0.05165609437708539,0.15279859771591298,0.008064393281052035,0.032516880003584256,0.08768324293939249,-0.006994355664506839
138,7.6751792000140995,0.07153766816063693,-0.05595383096607133,-0.04611594386763448,0.029316250945731287,0.05948465403659246,0.005577886940869545,0.05179063968043549,0.15316019160286803,0.008033296246854487,0.03150059689166755,0.08436442437948885,-0.007807168196140534
139,7.679586899990682,0.07166134142492944,-0.05570246493326553,-0.04609242912120609,0.02953420457080799,0.06012912950784788,0.005611581837844832,0.05192088755374409,0.15350776281539516,0.007998766433583895,0.030472019574272525,0.08101066510751942,-0.008627793379488768
140,7.683695700019598,0.07178593189593335,-0.05544838710839265,-0.04606877306048967,0.02975269654063783,0.060775036193395686,0.005645124358007502,0.052046786663618914,0.15384116509142845,0.007960771245999216,0.029431312070251646,0.07762225230844787,-0.009456115022963223
141,7.688038399966899,0.07191144179789227,-0.05519159160122865,-0.04604497635653211,0.029971708470271648,0.06142231423528428,0.005678499868450117,0.052168286377427237,0.15416025339640996,0.007919278583103106,0.02837864388885192,0.07419948299123384,-0.01029201445838064
142,7.691938799980562,0.07203787327733083,-0.054932072774412775,-0.046021039742165766,0.030191221763452698,0.06207090316860667,0.005711693602396003,0.05228533678666699,0.15446488396492317,0.007874256847176101,0.027314189609515087,0.07074266414172031,-0.011135371043209174
143,7.696577199967578,0.07216522840217299,-0.054669825245987375,-0.045996964012566664,0.030411217615702278,0.062720741926923,0.005744690661328135,0.05239788872621558,0.15475491434292493,0.007825674951338762,0.026238128694957754,0.0672521129449694,-0.01198606231246088
144,7.700410899997223,0.07229350916087343,-0.054404843891914564,-0.04597275002580369,0.03063167701748294,0.06337176884786139,0.005777476017154358,0.052505893796129736,0.1550302034312479,0.007773502327309045,0.02515064584134894,0.06372815692401099,-0.012843963745121678
145,7.704476299986709,0.07242271746156247,-0.05413712384856894,-0.04594839870337862,0.030852580757467354,0.06402392167890615,0.005810034514401485,0.052609304383837936,0.15529061152899878,0.00771770893492783,0.024051930861750153,0.06017113401094557,-0.013708948215013146
146,7.708894899988081,0.07255285513120487,-0.053866660515205604,-0.04592391103075684,0.03107390942588806,0.06467713758336344,0.005842350872460587,0.052708073684960444,0.15553600037765844,0.007658265274532335,0.022942178405650604,0.05658139304963345,-0.014580885243215765
147,7.712815599981695,0.07268392391477295,-0.053593449556402724,-0.04589928805788851,0.03129564341798136,0.06533135314652012,0.0058744096878850975,0.05280215572314414,0.15576623320870575,0.0075951424027657565,0.021821587445134967,0.05295929433186511,-0.015459640110089802
148,7.716996099974494,0.07281592547443437,-0.05331748690447779,-0.04587453089971998,0.03151776293750381,0.06598650438200983,0.005906195436769002,0.05289150536656332,0.15598117479222476,0.007528311952415008,0.02069036108776376,0.04930520959845409,-0.016345073633354038
149,7.721290200017393,0.07294886138875475,-0.05303876876187665,-0.04584964073669496,0.031740248000314775,0.06664252673838036,0.0059376924772117,0.0529760783461816,0.1561806914845377,0.007457746150085826,0.01954870666971053,0.045619522096762524,-0.017237042682228178
150,7.7255185000249185,0.0730827331519156,-0.05275729160353459,-0.04582461881524519,0.03196307843804647,0.06729935510586016,0.005968885051844766,0.05305583127303562,0.1563646512772957,0.007383417831718643,0.01839683552283514,0.04190262703695589,-0.018135400480970003
151,7.729683200013824,0.07321754217294778,-0.05247305217920845,-0.04579946644827039,0.03218623390183181,0.06795692382333837,0.0059997572904272375,0.053130721654538964,0.15653292384894713,0.0073053004577121675,0.017234962927598897,0.03815493155783506,-0.01903999685432783
152,7.733616199984681,0.07335328977498075,-0.052186047515779065,-0.045774185015607136,0.03240969386611146,0.06861516668556394,0.00603029321249951,0.05320070791137008,0.15668538061354098,0.007223368126375989,0.016063307832499034,0.0343768542216674,-0.019950678648159383
153,7.73711300001014,0.07348997719450807,-0.05189627491952285,-0.04574877596448646,0.03263343763250365,0.06927401695053596,0.0060604767300917045,0.05326574939141779,0.15682189476794886,0.007137595585518446,0.014882093251535874,0.030568825296630173,-0.0208672900213445
154,7.741949499992188,0.07362760558066918,-0.051603731978352115,-0.045723240809979984,0.03285744433372849,0.06993340734709966,0.006090291650474966,0.053325806390010264,0.1569423413430426,0.007047958243445427,0.013691547642857226,0.02673128716690497,-0.021789672457483016
155,7.746095500013325,0.07376617599454782,-0.05130841656402281,-0.04569758113543439,0.03308169293764781,0.07059327008276696,0.006119721678962291,0.05338084017544941,0.15704659725436343,0.006954432180449899,0.012491905048495884,0.02286469416649698,-0.02271766472996109
156,7.750399600015953,0.07390568940848784,-0.05101032683430908,-0.04567179859289399,0.03330616225140409,0.07125353685173842,0.0061487504217564055,0.053430813010414496,0.1571345413519027,0.006856994160104361,0.011283404837275622,0.01896951282534779,-0.02365110269160449
157,7.7544324999907985,0.07404614670542639,-0.05070946123514362,-0.0456458949035113,0.033530830925640256,0.07191413884314224,0.0061773613888455176,0.053475688175335365,0.15720605447283983,0.006755621642518547,0.010066292219584489,0.015046221928640574,-0.024589819204538867
158,7.759014800016303,0.07418754867824519,-0.05040581850272291,-0.045619871857945235,0.03375567745883506,0.07257500674949947,0.006205537996962637,0.05351542999412326,0.1572610194918217,0.006650292796221466,0.008840818106749075,0.011095312107095315,-0.025533644595890137
159,7.766013299988117,0.07432989602914018,-0.050099397665576466,-0.0455937313167468,0.033980680201739166,0.07323607077538573,0.006233263572581209,0.05355000385636194,0.15729932137025646,0.006540986507588502,0.007607238620422785,0.007117285884129666,-0.026482406739487176
160,7.769879199971911,0.07447318936901007,-0.04979019804659925,-0.045567475210732136,0.0342058173618971,0.07389726064631073,0.006260521354953679,0.05357937623891443,0.15732084720698938,0.006427682392036665,0.006365815185586791,0.0031126574303372307,-0.02743593065870187
161,7.77512210002169,0.074617429216864,-0.04947821926504627,-0.04554110554134264,0.03443106700826494,0.074558505617806,0.006287294499201231,0.0536035147288959,0.15732548628553295,0.006310360806790204,0.00511681453103541,-0.0009180475413836882,-0.02839403823436304
162,7.779469900007825,0.0747626159992489,-0.04916346123848859,-0.04551462438099206,0.034656407075925356,0.07521973448470141,0.006313566079459662,0.053622388045284505,0.157313130123861,0.006189002864531128,0.003860508409604723,-0.004974291356113993,-0.029356548123017592
163,7.783781000005547,0.07490875004969681,-0.04884592418472997,-0.045488033873400155,0.03488181537088699,0.07588087559063147,0.006339319092083866,0.0536359660595425,0.15728367252516703,0.006063590446851912,0.002597173433198737,-0.009055524750093084,-0.030323275721896994
164,7.787925400014501,0.07505583160819257,-0.048525608623683,-0.04546133623391285,0.03510726957497284,0.07654185683773855,0.006364536458906789,0.053644219815840326,0.15723700962452142,0.0059341062182005095,0.001327091003354824,-0.01316118685833018,-0.031294033110401624
165,7.792313600017223,0.07520386082066222,-0.048202515379204086,-0.045434533749808534,0.0353327472507896,0.07720260569657131,0.006389201030561137,0.053647121551094044,0.15717303993973378,0.0058005336398249405,5.054756902453175e-05,-0.01729070438677827,-0.03226862905023628
166,7.796218300005421,0.07535283773848245,-0.047876645580886446,-0.04540762878059025,0.03555822584678454,0.07786304921621554,0.006413295589855548,0.05364464471735633,0.15709166442496894,0.005662856983717163,-0.0012321649770860408,-0.021443491692860542,-0.03324686916058785
167,7.8000766999903135,0.07550276231801156,-0.047548000665809935,-0.045380623758263634,0.035783682702403015,0.07852311403464325,0.006436802855213514,0.05363676400518556,0.1569927865209324,0.005521061345085124,-0.0025207493222857012,-0.025618951300033183,-0.034228556397037445
168,7.804733500001021,0.07565363442014224,-0.047216582380247014,-0.04535352118760021,0.036009095053341794,0.07918272638926539,0.006459705484154388,0.05362345536583694,0.15687631220416087,0.005375132652270908,-0.003814903106668022,-0.029816473873836784,-0.03521349135538026
169,7.808776699996088,0.07580545380987665,-0.046882392781323896,-0.04532632364638603,0.03623444003689314,0.07984181212769526,0.00648198607681568,0.053604696031498145,0.15674215003740904,0.005225057676668883,-0.005114318900325016,-0.03403543786071281,-0.03620147233001881
170,7.812924399971962,0.07595822015592416,-0.046545434238636024,-0.045299033785655404,0.03645969469736819,0.08050029671872473,0.006503627179517439,0.053580464537672,0.15659021122197625,0.005070824042153003,-0.006418683619249069,-0.03827520937113661,-0.03719229526721925
171,7.816927400010172,0.07611193303032203,-0.046205709435816956,-0.04527165432990956,0.03668483599162922,0.08115810526352761,0.006524611288363788,0.05355074074832198,0.1564204096490756,0.004912420235387877,-0.007727678220917106,-0.0425351424695066,-0.038185753730077945
172,7.821884899982251,0.07626659190807963,-0.04586322137205967,-0.04524418807732008,0.03690984079472438,0.08181516250706762,0.006544920852893987,0.05351550588081384,0.15623266194972388,0.00474983561555056,-0.009040977542255422,-0.04681457908360319,-0.03918163901533182
173,7.825458400009666,0.0764221961668465,-0.04551797336358955,-0.045216637899916895,0.03713468590562963,0.0824713928497211,0.006564538279765686,0.05347474253242319,0.1560268875468717,0.00458306042365972,-0.010358250017999442,-0.051112848840610514,-0.04017974029351459
174,7.829531499999575,0.07657874508660482,-0.04516996904508799,-0.04518900674376076,0.03735934805310627,0.08312672035912326,0.006583445936484408,0.05342843470764453,0.1558030087066718,0.004412085791119277,-0.011679157633656685,-0.055429269332822544,-0.041179844901103727
175,7.833765999996103,0.07673623784938671,-0.044819212371065814,-0.04516129762909988,0.03758380390167247,0.08378106878222179,0.00660162615515862,0.05337656784509427,0.1555609505883758,0.004236903746591795,-0.013003355856573267,-0.059763146121192656,-0.04218173824699675
176,7.837869399983901,0.07689467353901691,-0.04446570761718553,-0.04513351365051083,0.037808030057686945,0.08443436155754255,0.006619061236286995,0.05331912884539922,0.15530064129557253,0.004057507225328272,-0.014330493495501327,-0.06411377257114725,-0.04318520341526503
177,7.84220929996809,0.07705405114088122,-0.04410945938153167,-0.045105657977023365,0.03803200307555487,0.08508652182767394,0.0066357334525919106,0.05325610609928004,0.15502201192746495,0.0038738900793807776,-0.015660213190523985,-0.06848042983802448,-0.04419002060453912
178,7.846203900000546,0.07721436954172134,-0.0437504725858281,-0.045077733852229074,0.038255699464047666,0.08573747245196356,0.006651625052892553,0.053187489511321455,0.15472499663023095,0.0036860470916447565,-0.016992151950706573,-0.07286238674239494,-0.045195966169987625
179,7.850286300003063,0.07737562752945643,-0.04338875247660161,-0.04504974459437366,0.03847909569270872,0.08638713601943432,0.006666718266056457,0.05311327052353623,0.15440953264934826,0.0034939739941247604,-0.01832594113160501,-0.07725889959328194,-0.04620281179381643
180,7.85463419998996,0.07753782379303178,-0.04302430462629067,-0.04502169359643238,0.038702168198371245,0.08703543486192099,0.006680995305026153,0.05303344213932446,0.15407556038244125,0.003297667488949517,-0.019661206901328835,-0.08166921217500353,-0.047210323749390555
181,7.858677899988834,0.07770095692229523,-0.0426571349342986,-0.04499358432616846,0.03892489339176539,0.0876822910674305,0.006694438370947359,0.0529479989431198,0.15372302343171648,0.003097125272823433,-0.020997570988531732,-0.08609255599463898,-0.04821826273768078
182,7.862946600012947,0.07786502540790129,-0.04228724962799001,-0.04496542032617387,0.039147247664201267,0.08832762649371928,0.0067070296574011645,0.05285693711806118,0.15335186865472933,0.0028923460594164887,-0.022334651314140988,-0.09052815076026756,-0.049226384880182335
183,7.86706050002249,0.07803002764124375,-0.04191465526362983,-0.04493720521389211,0.03936920739432459,0.08897136278208029,0.00671875135472043,0.05276025446032874,0.1529620462127994,0.0026833295954692923,-0.023672062597840687,-0.09497520497664874,-0.050234443085757176
184,7.871376299997792,0.07819596191441669,-0.04153935872726386,-0.04490894268162273,0.039590748954920214,0.08961342137132733,0.0067295856543573545,0.052657950391717466,0.15255350961676994,0.0024700766716933345,-0.02500941621774152,-0.09943291619073412,-0.05124218783339105
185,7.875567700015381,0.07836282642020415,-0.041161367235540265,-0.04488063649650741,0.03981184871977349,0.09025372351196675,0.006739514753291498,0.05255002597515273,0.15212621577335947,0.0022525891322962097,-0.026346319954476255,-0.10390047086262624,-0.05224936746422991
186,7.879629599978216,0.07853061925209885,-0.040780688336471,-0.04485229050049742,0.04003248307060418,0.0908921902805714,0.0067485208584774185,0.052436483929415044,0.15168012503200587,0.0020308698834270184,-0.027682378060721814,-0.10837704435397919,-0.053255728216564
187,7.883964399981778,0.07869933840435023,-0.040397329910132444,-0.0448239086103023,0.040252628404051645,0.09152874259434604,0.006756586191323689,0.052317328644071216,0.1512152012313156,0.0018049229024075138,-0.02901719013876481,-0.11286180104624896,-0.054261014062360405
188,7.887959100014996,0.07886898177204178,-0.04001130016930442,-0.044795494817319675,0.04047226113873423,0.09216330122589181,0.006763692992218127,0.05219256620363425,0.15073141174491372,0.001574753247551607,-0.030350350020428775,-0.11735389457303086,-0.05526496648531754
189,7.892069800000172,0.07903954715119847,-0.0396226076600467,-0.04476705318754593,0.04069135772243753,0.09279578681815705,0.006769823525089358,0.052062204411909806,0.1502287275259401,0.001340367069262182,-0.03168144644435973,-0.12185246801764107,-0.056267324071859554
190,7.897216400015168,0.07921103223892452,-0.03923126126221237,-0.04473858786146763,0.04090989463937849,0.09342611989957575,0.0067749600820253214,0.05192625281046285,0.14970712315123857,0.0011017716232886911,-0.03301006361587108,-0.1263566542187096,-0.05726782204390997
191,7.900727299973369,0.07938343463357184,-0.03883727018989708,-0.04471010305393339,0.041127848417548844,0.09405422089938989,0.006779084987946279,0.051784722698258075,0.14916657686328433,0.0008589752857514618,-0.03433578120812402,-0.1308655762843667,-0.05826619134779872
192,7.904561500006821,0.07955675183493957,-0.03844064399182356,-0.044681603054006015,0.041345195636144326,0.09468001016314029,0.006782180605349615,0.05163762715011664,0.14860707061005085,0.0006119875740579151,-0.03565817466497169,-0.1353783478715132,-0.05926215757932118
193,7.908968899981119,0.07973098124450498,-0.03804139255166072,-0.04465309222479451,0.04156191293306327,0.09530340796832407,0.006784229339158662,0.05148498103381088,0.14802859008458977,0.00036081917096279824,-0.03697681548142394,-0.139894073313303,-0.06025544077349077
194,7.912811600021087,0.079906120165686,-0.03763952608827653,-0.04462457500326542,0.04177797701247951,0.09592433454021822,0.006785213641669757,0.05132680102616345,0.14743112476382617,0.00010548194725173678,-0.038291271835473345,-0.14441184767982523,-0.061245755638268624
195,7.917139699973632,0.08008216580413581,-0.037235055155924096,-0.04459605590003328,0.04199336465247631,0.09654271006786318,0.0067851160175917405,0.051163105624830965,0.14681466794762835,-0.00015401101616325843,-0.03960110952158414,-0.14893075701199998,-0.062232811426006736
196,7.921135500015225,0.08025911526806953,-0.03682799064436018,-0.04456753949912959,0.0422080527127183,0.09715845472021481,0.006783919029178745,0.05099391515655623,0.14617921679563703,-0.00041764540447959334,-0.04090589281515598,-0.1534498789962496,-0.06321631174652308
197,7.925722100015264,0.08043696556862329,-0.03641834377889551,-0.044539030457750095,0.0424220181421548,0.09777148866243757,0.006781605301469459,0.0508192517816852,0.14552477236066383,-0.0006854056453372982,-0.042205185548017124,-0.15796828309448088,-0.06419595467224988
198,7.92962810001336,0.0806157136202457,-0.03600612612037635,-0.04451053350597977,0.04263523798672973,0.09838173207233722,0.006778157527618859,0.0506391394933787,0.14485133962442784,-0.0009572748859387034,-0.04349855190247135,-0.16248503042862456,-0.06517143290182367
199,7.933655400003772,0.08079535624112169,-0.03559134956509665,-0.04448205344649524,0.04284768939707828,0.09898910515695442,0.006773558474329801,0.05045360411545461,0.14415892753192466,-0.00123323497075678,-0.044785556948558736,-0.1669991741180585,-0.066142434168833
200,7.9392920000245795,0.08097589015362874,-0.035174026344640175,-0.0444535951542441,0.043059349636218686,0.09959352816928632,0.0067677909873721355,0.050262673297083386,0.14344754902432663,-0.0015132664220907392,-0.04606576727528571,-0.17150975899931387,-0.06710864198965302
201,7.943016099976376,0.08115731198482533,-0.03475416902565205,-0.04442516357610099,0.043270196087204324,0.10019492142515674,0.006760837997177752,0.05006637650532415,0.14271722107570797,-0.0017973484240606488,-0.0473387506161869,-0.17601582143892402,-0.06806973653956688
202,7.947001599997748,0.08133961826697146,-0.03433179050953909,-0.04439676373049984,0.043480206260752746,0.10079320532024644,0.006752682524494233,0.049864745022967734,0.14196796472751821,-0.002085458810527687,-0.048604075125291434,-0.1805163898951384,-0.06902539526013657
203,7.95070470002247,0.08152280543808131,-0.033906904032098215,-0.04436840070704242,0.043689357802879636,0.10138830034725309,0.006743307686081439,0.04965781194715896,0.1411998051205856,-0.0023775740541943017,-0.049861308770243536,-0.18501048491712668,-0.0699752926373678
204,7.955442600010429,0.0817068698425079,-0.03347952316307249,-0.044340079666082735,0.04389762850251626,0.1019801271131906,0.006732696700456786,0.0494456121923411,0.14041277152959722,-0.0026736692526597235,-0.05111001860699508,-0.18949711941286423,-0.07091909920861919
205,7.960904199979268,0.08189180773155974,-0.03304966180563416,-0.04431180583828725,0.04410499629916818,0.10256860635683887,0.0067208328937090524,0.049228182494975105,0.1396068973928505,-0.0029737181091722305,-0.05234977183153016,-0.19397530043934597,-0.0718564805930677
206,7.964668900007382,0.08207761526414993,-0.03261733419579399,-0.044283584524170416,0.044311439290572366,0.10315365896629325,0.006707699705405448,0.04900556140764325,0.13878222033168494,-0.0032776929105347804,-0.05358013736943897,-0.1984440310927385,-0.07278709690756226
207,7.968181599979289,0.08226428850747715,-0.032182554901736785,-0.04425542109360526,0.044516935740306365,0.10373520599657761,0.0066932806945911435,0.04877778929040646,0.137938782164345,-0.0035855645029469556,-0.054800686225221995,-0.20290231114433024,-0.07371060278994623
208,7.971823300002143,0.0824518234377387,-0.031745338823082676,-0.04422732098530846,0.044721464085372746,0.10431316868731035,0.006677559545899418,0.04854490830197173,0.13707662892006597,-0.0038973022701066437,-0.05601099169331854,-0.20734913652891382,-0.07462664881266787
209,7.975447000004351,0.08264021594087528,-0.03130570119007413,-0.04419928970629958,0.04492500294373401,0.10488746848043586,0.0066605200757352614,0.048306962389275544,0.1361958108572377,-0.004212874120934754,-0.05721062952170867,-0.2117834985141931,-0.0755348836322444
210,7.979566499998327,0.08282946181334737,-0.030863657562688194,-0.04417133283133416,0.04512753112180951,0.10545802703804322,0.006642146238488706,0.048063997277276053,0.13529638248447223,-0.004532246485745235,-0.05839917781735126,-0.2162043832802944,-0.07643495568328433
211,7.983588800008874,0.08301955676294298,-0.030419223829673724,-0.04414345600231074,0.04532902762192453,0.10602476626027477,0.006622422132750627,0.04781606045933138,0.1343784025823022,-0.0048553843182097,-0.05957621693089204,-0.22061077214131006,-0.07732651407794333
212,7.987929399998393,0.0832104964096167,-0.029972416207513092,-0.044115664927651684,0.0455294716497263,0.10658760830332717,0.006601332007509557,0.047563201187960945,0.13344193422238618,-0.005182251099088244,-0.060741329269098185,-0.22500164218222565,-0.07820920858256554
213,7.9921152999741025,0.08340227628635977,-0.02952325123930808,-0.0440879653816581,0.045728842621555486,0.10714647559752144,0.006578860268336127,0.04730547046680044,0.13248704478385312,-0.005512808837997717,-0.06189409793930325,-0.22937596620726547,-0.07908268924391887
214,7.995751400012523,0.08359489184010108,-0.029071745793589714,-0.04406036320383872,0.045927120171794525,0.1077012908654414,0.006554991483565018,0.04704292105275792,0.1315138059729419,-0.005847018074000687,-0.06303410520794916,-0.23373271202615975,-0.0799466063423658
215,8.000684799975716,0.08378833843263904,-0.028617917063051675,-0.04403286429821282,0.046124284160257226,0.1082519771401688,0.006529710390474447,0.046775607460926204,0.1305222938453453,-0.006184837876980065,-0.0641609328504724,-0.23807084285089292,-0.08080061112790222
216,8.00457719998667,0.08398261134160467,-0.028161782563206846,-0.04400547463258716,0.04632031467957845,0.1087984577836096,0.006503001901456566,0.04650358596379787,0.1295125888225146,-0.006526225854415193,-0.06527416296990779,-0.24238931928328444,-0.08164435746737406
217,8.008835899992846,0.08417770576145561,-0.02770336013096668,-0.04397820023780704,0.04651519206259708,0.10934065650486609,0.006474851110139989,0.046226914589296474,0.1284847756972959,-0.006871138166602928,-0.06637337844026431,-0.2466871015576802,-0.08247750312948131
218,8.012813300010748,0.08437361680450124,-0.027242667923143317,-0.043951047206981786,0.046708896889729144,0.10987849737861063,0.006445243297432244,0.045945653116264536,0.12743894363138286,-0.007219529544235439,-0.06745816304626265,-0.2509631507482379,-0.08329970998335245
219,8.017036999983247,0.08457033950195869,-0.026779724414874483,-0.043924021694685,0.046901409996312884,0.11041190486343637,0.0064141639374945365,0.045659863071320146,0.12637518615080448,-0.007571353305290503,-0.06852810122732658,-0.2552164286422403,-0.08411064405707196
220,8.021328500006348,0.08476786880503971,-0.026314548397971364,-0.04389712991612981,0.047092712479955445,0.11094080382019295,0.006381598703642227,0.04536960772649693,0.12529360114444277,-0.007926561373101281,-0.06958277810026788,-0.2594458970214827,-0.08490997564271775
221,8.025686100008897,0.08496619958606842,-0.025847158979189384,-0.043870378146319555,0.047282785707858085,0.11146511953032483,0.006347533474167702,0.04507495209590999,0.12419429086556127,-0.008285104294129557,-0.07062177973974766,-0.26365051726454836,-0.08569737942482032
222,8.029605799994897,0.08516532663962977,-0.02537757557842191,-0.043843772719174064,0.04747161132413487,0.11198477771421987,0.006311954338091443,0.0447759629310383,0.1230773619336659,-0.00864693125711534,-0.07164469355271463,-0.2678292506217623,-0.08647253480761624
223,8.033759900019504,0.08536524468374877,-0.024905817926816804,-0.04381732002663199,0.047659171257098204,0.11249970454956326,0.00627484760082393,0.04447270871424313,0.12194292533372225,-0.009011990113600982,-0.07265110869762337,-0.27198105878084405,-0.08723512597335457
224,8.037872700020671,0.08556594836110026,-0.02443190606481584,-0.043791026517729516,0.047845447726523056,0.11300982668967952,0.006236199789744188,0.04416525965052653,0.12079109641326154,-0.009380227397570908,-0.07364061638925133,-0.27610490432332546,-0.08798484167204917
225,8.0422275000019,0.08576743224024917,-0.023955860340117076,-0.04376489869765579,0.04803042325086321,0.11351507128186208,0.0061959976596965985,0.043853687658487434,0.1196219948777613,-0.009751588344208396,-0.07461281013290254,-0.2801997509119332,-0.08872137531491729
226,8.046131599985529,0.08596969081692091,-0.023477701405560193,-0.043738943126785425,0.048214080654439447,0.11401536598567653,0.006154228198411773,0.043538066360111455,0.11843574478617623,-0.010126016910320746,-0.075567287101283,-0.2842645629333328,-0.08944442561690528
227,8.049699199968018,0.0861727185153021,-0.02299745021693501,-0.04371316641968835,0.04839640307457,0.11451063899125258,0.006110878631831676,0.043218471060153016,0.11723247454932191,-0.010503455798497116,-0.07650364885961332,-0.2882983052706845,-0.0901536975897187
228,8.054050399980042,0.08637650968937091,-0.022515128030713063,-0.04368757524411757,0.04857737396858541,0.11500081903757367,0.0060659364293274235,0.04289497872982984,0.11601231692731755,-0.010883846485881076,-0.07742150080519516,-0.29229994420925715,-0.09084890402540036
229,8.058380100002978,0.08658105862425673,-0.02203075640170237,-0.043662176319975154,0.048756977120821915,0.11548583543074754,0.006019389308782549,0.04256766799091611,0.11477540902035717,-0.011267129260799364,-0.07832045340523279,-0.29626844980169514,-0.09152976668798185
230,8.06290479999734,0.08678635953762928,-0.021544357180625442,-0.04363697641825724,0.048935196649502584,0.11596561806221822,0.005971225241502902,0.04223661908903183,0.11352189224626996,-0.011653243261551425,-0.07920012292165075,-0.30020279839097735,-0.09219601625505465
231,8.066949200001545,0.08699240658111616,-0.021055952511620946,-0.04361198235997878,0.04911201701350619,0.11644009742684794,0.005921432456973845,0.04190191387164319,0.11225191231008355,-0.01204212651254702,-0.08006013075619449,-0.30410197288597135,-0.09284739190886268
232,8.070742100011557,0.08719919384174885,-0.020565564829669723,-0.043587201015078555,0.04928742301906343,0.11690920464087329,0.005869999447466385,0.041563635766857024,0.11096561917926803,-0.0124337159596585,-0.08090010340398085,-0.3079649612841077,-0.09348364093910576
233,8.075750100018922,0.08740671534343651,-0.02007321685794552,-0.04356263930130517,0.04946139982634751,0.11737287145977905,0.0058169149724971985,0.04122186976181161,0.10966316706571762,-0.012827947503019585,-0.08171967226740719,-0.31179075630665526,-0.0941045178784795
234,8.079743399983272,0.08761496504846744,-0.019578931605090753,-0.0435383041830846,0.04963393295598874,0.1178310302961029,0.005762168063159058,0.04087670238303538,0.10834471440406053,-0.013224756025111018,-0.08251847486951965,-0.31557835718814436,-0.09470978415228196
235,8.08390430000145,0.08782393685903762,-0.01908273236241757,-0.04351420267036981,0.04980500829550002,0.11828361423712686,0.005705748026344768,0.040528221664638216,0.10701042381859881,-0.013624075420613944,-0.08329615723803112,-0.3193267719960481,-0.0952992085806127
236,8.087848299997859,0.08803362461880615,-0.018584642701034906,-0.043490341817472744,0.049974612105524036,0.11873055706240414,0.005647644448826646,0.04017651710863015,0.10566046208211902,-0.014025838628717032,-0.08405237392957195,-0.32303501837573934,-0.0958725670629532
237,8.092341899988241,0.08824402211447634,-0.01808468646890222,-0.04346672872187967,0.050142731025925195,0.11917179326110437,0.005587847201208889,0.039821679652908795,0.10429500007656997,-0.014429977660318451,-0.0847867871636618,-0.3267021222210569,-0.09642964209932664
238,8.095899200008716,0.08845512307740233,-0.017582887787810742,-0.04344337052304997,0.050309352081767726,0.11960725804920987,0.005526346441778389,0.0394638016388579,0.10291421276304863,-0.01483642362630787,-0.08549906684677144,-0.3303271158805583,-0.0969702230472281
239,8.100186600000598,0.08866692118522049,-0.017079271050292652,-0.0434202744011991,0.05047446268913524,0.12003688738660856,0.005463132620219364,0.039102976779132465,0.101518279157556,-0.015245106766928184,-0.0861888896844848,-0.3339090381765837,-0.09749410593470019
240,8.104492000013124,0.08887941006350489,-0.016573860916458648,-0.043397447576066124,0.05063805066083804,0.12046061799408649,0.005398196481217363,0.03873930013272047,0.10010738230082279,-0.015655956478486232,-0.08685593894758925,-0.3374469368842266,-0.09800109356548144
241,8.108792399987578,0.0890925832874467,-0.0160666823107643,-0.043374897305666425,0.05080010421202306,0.12087838737016708,0.005331529067949365,0.038372868074694234,0.09868170921322716,-0.0160689013435984,-0.08749990601510271,-0.34093987160644895,-0.09849099632506109
242,8.113193899975158,0.08930643438355683,-0.015557760418706044,-0.0433526308850299,0.05096061196562688,0.12129013380772469,0.005263121725433539,0.038003778258301465,0.09724145084045223,-0.01648386916467701,-0.08812049121398323,-0.3443869145915111,-0.09896363251954364
243,8.11717059998773,0.08952095683139116,-0.015047120683447905,-0.04333065564492546,0.05111956295766703,0.12169579641036705,0.005192966103737858,0.037632129577658074,0.0957868020015325,-0.016900786997024412,-0.08871740388973817,-0.3477871500567603,-0.09941882821205013
244,8.121241600019857,0.08973614406529767,-0.014534788802379768,-0.04330897895057232,0.051276946642381395,0.12209531510861213,0.005121054161051674,0.03725802212924568,0.09431796134019563,-0.017319581180944166,-0.08929036287454685,-0.35113967385532824,-0.09985641681374542
245,8.126020799973048,0.08995198947618484,-0.014020790723608118,-0.04328760820033863,0.05143275289719585,0.12248863067586153,0.005047378166624401,0.036881557170669384,0.09283513127571057,-0.017740177371397322,-0.0898390966259174,-0.35444359389329466,-0.10027623821947836
246,8.129862300003879,0.09016848641331054,-0.013505152642380046,-0.04326655082442809,0.05158697202751701,0.12287568474416419,0.004971930703587804,0.036502837080989746,0.09133851795072265,-0.01816250056284781,-0.09036334348525188,-0.35769803104099696,-0.10067813808349209
247,8.133822500007227,0.09038562818609078,-0.012987900997441475,-0.04324581428355485,0.0517395947713664,0.12325641981975129,0.004894704671685832,0.03612196531730706,0.0898283311744413,-0.01858647511283037,-0.09086285212102224,-0.3609021201929934,-0.1010619680647011
248,8.138027500011958,0.09060340806592748,-0.012469062467330583,-0.04322540606760716,0.05189061230380826,0.12363077929832236,0.004815693289898793,0.035739046371368,0.08830478436156512,-0.01901202476885773,-0.0913373807102721,-0.36405501103678406,-0.10142758657428297
249,8.142060699989088,0.09082181928805447,-0.011948663966607532,-0.04320533369430025,0.05204001624121894,0.12399870748006687,0.004734890098947009,0.03535418573303018,0.08676809446900771,-0.01943907269827276,-0.09178669679995481,-0.36715586843245485,-0.10177485993229778
250,8.146435100003146,0.09104085505340116,-0.01142673264202162,-0.0431856047078189,0.05218779864540762,0.12436014958441838,0.004652288963664053,0.034967489848034376,0.08521848193163148,-0.019867541524878185,-0.09221057866131727,-0.3702038727447917,-0.10210366359442084
251,8.150330599979497,0.09126050853047316,-0.010903295868616988,-0.043166226677450396,0.052333952027530696,0.1247150517645359,0.004567884075192497,0.03457906607008418,0.08365617059618177,-0.02029735336910061,-0.09260881573347209,-0.3731982204872802,-0.10241388246716689
252,8.155054699978791,0.09148077285724886,-0.010378381245778043,-0.04314720719620861,0.05247846935180971,0.12506336112150276,0.004481669953019528,0.03418902261488957,0.08208138765160719,-0.020728429887269986,-0.09298120789936394,-0.3761381252665974,-0.10270541109491513
253,8.15933860000223,0.09170164114309129,-0.009852016593215806,-0.04312855387944987,0.05262134403905945,0.12540502571822223,0.004393641446842516,0.03379746851833276,0.08049436355505436,-0.02116069231335579,-0.09332756490216347,-0.379022818405011,-0.10297815402210818
254,8.16326180001488,0.0919231064706744,-0.009324229946896535,-0.04311027436348135,0.05276256997005416,0.12573999459299426,0.004303793738253801,0.033404513595417566,0.07889533195695639,-0.02159406150129111,-0.09364770690560001,-0.38185154883137257,-0.10323202622534684
255,8.16716399998404,0.09214516189792318,-0.00879504955491394,-0.043092376304162794,0.052902141488710606,0.1260682177727814,0.004212122342250478,0.03301026839372509,0.07728452962794392,-0.022028457970340993,-0.09394146531148408,-0.38462358280871145,-0.1034669536742392
256,8.171488799969666,0.09236780045996669,-0.008264503873306298,-0.043074867375502195,0.05304005340506306,0.12638964628617122,0.004118623108537823,0.03261484414549102,0.07566219638622346,-0.022463801952141028,-0.09420868334389876,-0.38733820403420316,-0.10368287313283965
257,8.17566100001568,0.09259101517110319,-0.007732621561819706,-0.043057755268246546,0.053176300998043505,0.12670423217603172,0.004023292222643673,0.03221835271615064,0.07402857502364807,-0.022900013434396592,-0.0944492174515062,-0.3899947139765824,-0.10387973126003142
258,8.179577799979597,0.09281479902677657,-0.00719943147961881,-0.043041047688468205,0.05331088001802406,0.12701192851185228,0.003926126206854516,0.031820906544628345,0.07238391123025942,-0.02333701220035927,-0.09466293800830801,-0.3925924323396571,-0.10405748387356284
259,8.183685299998615,0.09303914500556285,-0.006664962680946328,-0.04302475235614773,0.0534437866890953,0.12731268940176485,0.0038271219209980376,0.03142261858599211,0.07072845351646222,-0.023774717866339615,-0.09484972851890858,-0.39513069779998966,-0.10421609562295377
260,8.188070599979255,0.09326404607116572,-0.006129244410732725,-0.04300887700375368,0.053575017711126646,0.12760647000423064,0.003726276563063872,0.031023602258423513,0.06906245313136529,-0.024213049918434017,-0.09500948510472668,-0.397608868931549,-0.1043555400128786
261,8.192059200024232,0.09348949517442037,-0.005592306100157495,-0.04299342937482024,0.053704570261598875,0.1278932265393749,0.003623587669677429,0.030623971390191105,0.06738616397718344,-0.024651927750234025,-0.09514211624700661,-0.40002632505809466,-0.10447580004568807
262,8.196873300010338,0.0937154852553045,-0.005054177362163563,-0.042978417222523026,0.05383244199721879,0.1281729162999541,0.003519053116403662,0.03022384016878069,0.06569984252041342,-0.025091270704954247,-0.0952475419693952,-0.4023824668824503,-0.10457686839661555
263,8.20042090001516,0.09394200924495563,-0.004514887986926373,-0.04296384830825417,0.05395863105532413,0.12844549766194396,0.0034126711178667653,0.029823323094739902,0.06400374770094608,-0.02553099811461444,-0.0953256930428106,-0.40467671677835004,-0.10465874674791105
264,8.20496840000851,0.09416906006769396,-0.003974467937279284,-0.04294973040019712,0.05408313605511024,0.1287109300947428,0.003304440227724581,0.02942253493749236,0.06229814084078914,-0.025971029336570157,-0.09537651096226893,-0.4069085187181653,-0.10472144570702833
265,8.209096100006718,0.09439663064305001,-0.0034329473440968985,-0.0429360712719019,0.05420595609866358,0.12896917417099218,0.00319435933848122,0.029021590689377038,0.060583285553786885,-0.02641128379200713,-0.09539994850859165,-0.40907733814053115,-0.104764985309005
266,8.212880000006407,0.09462471388779614,-0.0028903565016378985,-0.042922878700861554,0.05432709077180202,0.12922019157602133,0.0030824276811378865,0.028620605516740703,0.05885944765545558,-0.026851681006694907,-0.09539597012097664,-0.41118266223669997,-0.10478939543705802
267,8.217281599994749,0.09485330271798127,-0.002346725862848984,-0.04291016046709029,0.054446540144697256,0.12946394511690995,0.0029686448246629246,0.02821969471084548,0.057126895070296155,-0.02729214065301674,-0.09536455138311592,-0.4132240005939482,-0.10479471561220456
268,8.221581899968442,0.09508239005096762,-0.0018020860346315338,-0.042897924351704385,0.05456430477230244,0.12970039873115347,0.002853010675289341,0.027818973643280974,0.05538589773622114,-0.027732582588954793,-0.09530567804305605,-0.41520088551728473,-0.10478099437413983
269,8.22529959998792,0.09531196880746903,-0.0012564677730726988,-0.042886178135506256,0.05468038569459976,0.1299295174949225,0.002735525475657142,0.02741855772511085,0.05363672750916308,-0.0281729268949157,-0.09521934547456498,-0.41711287122892027,-0.10474828907100805
270,8.229616899974644,0.09554203191358979,-0.0007099019786426351,-0.042874929597572546,0.05479478443668469,0.13015126763092613,0.0026161898038013034,0.027018562366812694,0.05187965807423071,-0.028613093910948597,-0.09510555839726244,-0.41895953100355454,-0.10469666570748432
271,8.233532799989916,0.09577257230286364,-0.0001624196913594989,-0.042864186513846735,0.05490750300867681,0.13036561651592474,0.002495004571981252,0.026619102939777175,0.05011496487439804,-0.029053004272293653,-0.09496432933457591,-0.4207404524366815,-0.10462619784664315
272,8.237264900002629,0.09600358291829188,0.00038594791407647134,-0.04285395665573703,0.05501854390548044,0.1305725326879937,0.0023719710253700165,0.026220294749210282,0.04834292506143508,-0.029492578937369243,-0.09479567735166516,-0.422455234865054,-0.10453696506791664
273,8.241463700018357,0.09623505671438036,0.0009351695331790212,-0.04284424778872003,0.05512791010646763,0.13077198585362376,0.002247090740648449,0.02582225300624146,0.046563817446280416,-0.029931739210358122,-0.09459963062631467,-0.4241034939605107,-0.10442905327085479
274,8.246297499979846,0.0964669866591749,0.0014852137366014818,-0.0428350676709504,0.05523560507500437,0.1309639468945676,0.002120365624504517,0.02542509277921499,0.044777922411356315,-0.030370406771747988,-0.09437623049018298,-0.42568487130531735,-0.10430255634564313
275,8.249966299976222,0.09669936573629431,0.0020360489750903894,-0.04282642405187716,0.05534163275772416,0.13114838787420313,0.001991797911970803,0.025028928931827503,0.042985521780451265,-0.030808503714959988,-0.09412553287804977,-0.4271990407056848,-0.10415757646515708
276,8.25433799996972,0.09693218694695971,0.002587643584464575,-0.04281832467086736,0.055445997583534155,0.13132528204328628,0.001861390164615897,0.024633876062237017,0.041186898677963824,-0.031245952579344285,-0.09384760802358819,-0.4286457085162264,-0.10399422341912037
277,8.258679300022777,0.09716544331201918,0.0031399657906171436,-0.04281077725583755,0.055548704462376905,0.13149460384513106,0.001729145268604536,0.024240048443757774,0.03938233739605776,-0.031682676381211514,-0.09354254017861034,-0.4300246125330351,-0.10381261412342888
278,8.262998100020923,0.09739912787396668,0.0036929837145381057,-0.042803789521893745,0.05564975878373799,0.13165632892024579,0.001595066432628148,0.023847559966329313,0.037572123263210674,-0.032118598642703736,-0.0932104274510355,-0.43133552175368317,-0.10361287214115904
279,8.267170900013298,0.09763323369895417,0.0042466653773553294,-0.04279736916998032,0.055749166414915764,0.13181043411040802,0.0014591571857223028,0.023456524078573324,0.03575654251338658,-0.03255364341879951,-0.09285138171022526,-0.4325782350825465,-0.10339512709847312
280,8.271224199968856,0.09786775387879597,0.004800978705391426,-0.04279152388553833,0.05584693369904189,0.13195689746220113,0.0013214213749702512,0.02306705373005848,0.03393588216546752,-0.032987735321274955,-0.09246552793237882,-0.43375257820330915,-0.10315951401874043
281,8.27532329998212,0.09810268153296423,0.005355891535234429,-0.04278626133717365,0.05594306745286577,0.13209569823007575,0.0011818631631189608,0.022679261318859875,0.032110429918715815,-0.03342079954011147,-0.0920530022157003,-0.43485839926717396,-0.10290617299540653
282,8.279037499974947,0.09833800981057467,0.0059113716188204145,-0.042781589175335394,0.0560375749643343,0.13222681687900756,0.0010404870261027021,0.02229325865050831,0.03028047406845044,-0.03385276186470694,-0.09161394853221852,-0.43589556329031637,-0.10263524853781714
283,8.28250339999795,0.09857373189236174,0.0064673866285265245,-0.04277751503100487,0.05613046399003119,0.13235023508684995,0.0008972977504807831,0.02190915691285385,0.02844630344860414,-0.034283548699784464,-0.09114851538660813,-0.43686394599435135,-0.10234688840298821
284,8.28606579999905,0.0988098409926428,0.00702390416227336,-0.04277404651439549,0.05622174275254542,0.13246593574650894,0.0007523004308274075,0.021527066663100964,0.02660820739917668,-0.03471308707678346,-0.09065685415748327,-0.43776343028564463,-0.1020412429647399
285,8.289924499986228,0.09904633036127115,0.007580891748636286,-0.042771191213663705,0.05631141993780162,0.13257390296802224,0.0006055004670736559,0.021147097816615126,0.024766475738386765,-0.03514130466446534,-0.09013912110628639,-0.43859390901003503,-0.10171846502680812
286,8.294272599974647,0.09928319328557782,0.008138316851965305,-0.04276895669363126,0.05639950469233441,0.13267412208050006,0.0004569035618081929,0.02076935961707129,0.022921398706969184,-0.03556812977873366,-0.08959548298552879,-0.43935529501800646,-0.10137871062891195
287,8.300175199983642,0.09952042309230162,0.008696146877512675,-0.0427673504945188,0.05648600662036782,0.13276657963373598,0.0003065157175367005,0.020393960578117775,0.021073266855719145,-0.03599349140001554,-0.08902612353367867,-0.44004753429686067,-0.10102214104441269
288,8.304680300003383,0.09975801314950643,0.009254349176566323,-0.04276638013069115,0.056570935780599296,0.13285126339920245,0.00015434323383647718,0.020021008398928872,0.01922237087940074,-0.03641731919987409,-0.0884312484979271,-0.4406706138079123,-0.10064892350461596
289,8.308752999990247,0.09999595686848421,0.009812891051585828,-0.04276605308941489,0.05665430268256927,0.13292816237026547,3.9270439216825215e-07,0.019650609863647504,0.017369001438412014,-0.03683954356447835,-0.08781108619619078,-0.4412245596823465,-0.10025922977353506
290,8.313005700008944,0.10023424770564175,0.010371739761337647,-0.042766376829628514,0.056736118282599834,0.13299726676168105,-0.0001553289860469228,0.01928287075221365,0.015513449007859014,-0.03726009560923513,-0.08716588352142679,-0.44170942975247296,-0.09985323418528068
291,8.316984299977776,0.10047287916436957,0.01093086252602686,-0.042767358780725566,0.05681639397941477,0.13305856800854118,-0.0003128146647540991,0.018917895773394623,0.013656003762002938,-0.037678907185761334,-0.0864959019217902,-0.4421253069117924,-0.09943111186835464
292,8.32127750001382,0.10071184479689183,0.011490226532423535,-0.0427690063413508,0.05689514160951528,0.13311205876479895,-0.0004720568741265678,0.018555788509404193,0.011796955479149275,-0.038095910881589305,-0.0858014157662799,-0.44247229598789684,-0.09899303767088231
293,8.325691899983212,0.10095113820609634,0.012049798938982078,-0.04277132687820935,0.05697237344233447,0.13315773290141505,-0.0006330478747702282,0.01819665136267119,0.009936593452381284,-0.03851104001810462,-0.08508271192444226,-0.44275052303620943,-0.09853918647603777
294,8.329650099971332,0.1011907530473438,0.012609546880952015,-0.04277432772488883,0.057048102175165614,0.13319558550413252,-0.0007957796485836345,0.017840585503991632,0.00807520640038593,-0.038924228652902904,-0.08434008925140501,-0.44296013537455214,-0.0980697339847578
295,8.333820200001355,0.10143068303025515,0.013169437475478642,-0.04277801618069443,0.057122340927880835,0.13322561287087362,-0.0009602439018625951,0.017487690823626126,0.0062130823778967946,-0.039335411584307124,-0.08357385814420853,-0.44310130127440267,-0.09758485694937356
296,8.338045099982992,0.10167092192047636,0.013729437826691915,-0.042782399509497096,0.05719510323744828,0.13324781250876178,-0.001126432068422107,0.017138065883181453,0.004350508689115292,-0.03974452435568829,-0.08278434037849694,-0.4431742089513918,-0.09708473281146203
297,8.342247599968687,0.10191146354141976,0.014289515030782077,-0.042787484938594904,0.0572664030522463,0.13326218313079072,-0.0012943353127372762,0.01679180786808074,0.0024877718066394342,-0.04015150325693852,-0.08197186892154416,-0.4431790651983512,-0.09656953886074886
298,8.346490199968684,0.10215230177598103,0.014849636181060546,-0.04279327965758762,0.05733625472618111,0.13326872465216488,-0.0014639445330776333,0.016449012541016758,0.0006251572963756137,-0.04055628532172152,-0.0811367881426003,-0.4431160940894577,-0.09603945131218555
299,8.350384999997914,0.10239343056823105,0.015409768373004774,-0.042799790817264406,0.05740467301260971,0.13326743818633738,-0.0016352503646249418,0.016109774192653907,-0.0012370502526397075,-0.040958808321187604,-0.08027945435024482,-0.4429855362645473,-0.09549464398585324
300,8.354791200021282,0.10263484392508182,0.015969878709285835,-0.04280702552850462,0.05747167305804312,0.1332583260407605,-0.0018082431825546831,0.015774185590564545,-0.0030985672973121753,-0.041359010750127434,-0.07940023595540041,-0.4427876490838792,-0.09493528713875998
301,8.358670499990694,0.1028765359179254,0.016529934304777564,-0.04281499086119141,0.05753727039564007,0.133241391712343,-0.001982913105037473,0.015442337928560694,-0.004959111411968797,-0.04175683181086718,-0.07849951309817006,-0.4425227070649325,-0.09436154764007276
302,8.36330009996891,0.10311850068424508,0.017089902291545958,-0.04282369384313773,0.05760148093848434,0.13321663988259988,-0.002159249996185169,0.015114320778767152,-0.006818401361101821,-0.04215221140089528,-0.07757767739094419,-0.4421910017354979,-0.09377358968370847
303,8.3680192999891,0.1033607324291979,0.01764974982381754,-0.042833141459024726,0.05766432097267555,0.13318407641249808,-0.0023372434689482788,0.01479022204311264,-0.00867615716961308,-0.042545090102747575,-0.07663513212815744,-0.4417928410244408,-0.09317157548927664
304,8.371800899971277,0.10360322542716767,0.018209444082925443,-0.0428433406493521,0.05772580715019874,0.13314370833701575,-0.002516882887977043,0.014470127903639704,-0.010532100190436648,-0.04293540917752622,-0.07567229186579302,-0.4413285487487014,-0.09255566571099683
305,8.375658000004478,0.10384597402328756,0.018768952282232024,-0.042854298309400525,0.05778595648159748,0.13309554385941966,-0.002698157372464361,0.014154122777530535,-0.012385953170470913,-0.04332311055822213,-0.07468958202406371,-0.44079846410304424,-0.09192601876007281
306,8.379467999970075,0.10408897263493157,0.019328241672026857,-0.04286602128820593,0.05784478632846539,0.13303959234527013,-0.0028810557989507454,0.013842289270756723,-0.014237440313912084,-0.04370813683753782,-0.07368743919212817,-0.44020294118201836,-0.09128278984677721
307,8.383837400004268,0.10433221575317395,0.019887279544398954,-0.04287851638754548,0.05790231439572963,0.1329758643161661,-0.0030655668040648855,0.013534708130543648,-0.01608628734416788,-0.04409043125315761,-0.07266631117395038,-0.4395423488990391,-0.09062613126085108
308,8.388171700004023,0.10457569794421584,0.020446033238082164,-0.04289179036093491,0.05795855872374286,0.13290437144322959,-0.0032516787872047827,0.013231458198634732,-0.01793222156651083,-0.04446993767792751,-0.07162665598292256,-0.43881707107948137,-0.08995619344619545
309,8.392131500004325,0.10481941385077823,0.02100447014327264,-0.042905849912637045,0.05801353768017381,0.13282512654032413,-0.0034393799131957684,0.012932616372207002,-0.01977497193077451,-0.04484660061415926,-0.07056894011461261,-0.43802750612326447,-0.0892731255149406
310,8.39652379998006,0.10506335819346038,0.02156255770641723,-0.04292070169668145,0.05806726995177076,0.13273814355701224,-0.003628658114923758,0.01263825757165459,-0.021614269091170535,-0.045220365188131446,-0.06949363833553625,-0.4371740662616696,-0.08857707544609
311,8.401275800017174,0.10530752577206359,0.022120263434971733,-0.0429363523158951,0.05811977453598128,0.13264343757127095,-0.003819501095947045,0.012348454703279865,-0.02344984546273763,-0.04559117714606338,-0.0684012344773058,-0.4362571771256468,-0.08786819048264245
312,8.404796399991028,0.10555191146687917,0.02267755490212807,-0.04295280832094401,0.058171070732402075,0.1325410247819748,-0.0040118963330957125,0.012063278620401338,-0.025281435277529817,-0.04595898285195436,-0.06729222150733215,-0.43527727779845465,-0.08714661733014359
313,8.408661599969491,0.1057965102399403,0.023234399751509347,-0.04297007620938573,0.05822117813407183,0.13243092250113908,-0.004205831079065264,0.011782798085450482,-0.027108774641507967,-0.046323729285226586,-0.06616710103752965,-0.4342348206915323,-0.08641250177133754
314,8.412943799979985,0.10604131713623685,0.023790765701831824,-0.04298816242473276,0.0582701166186024,0.1323131491459246,-0.004401292364996221,0.011507079735209445,-0.028931601589684587,-0.04668536403532522,-0.06502638260067499,-0.4331302708637728,-0.08566598811699537
315,8.418462499976158,0.10628632728489268,0.02434662055153277,-0.04300707335552677,0.05831790633917949,0.13218772423041733,-0.0045982670030223615,0.01123618804899078,-0.03074965613729319,-0.047043835294744964,-0.06387058362683763,-0.43196410490400106,-0.08490721878528192
316,8.422641900018789,0.1065315359003048,0.02490193218336333,-0.04302681533442341,0.05836456771542634,0.1320546683572031,-0.0047967415887917005,0.01097018531407328,-0.032562680325539224,-0.047399091850094256,-0.06270022951320288,-0.43073681007269987,-0.08413633385800771
317,8.427180400001816,0.10677693828324387,0.02545666856894556,-0.04304739463728772,0.05841012142411385,0.1319140032087626,-0.0049967025039396136,0.010709131593294783,-0.034370418265554814,-0.04775108307139176,-0.061515852876370326,-0.4294488840863607,-0.0833534713725439
318,8.431879699986894,0.1070225298219153,0.026010797773292956,-0.043068817482299744,0.05845458838975187,0.13176575153867665,-0.005198135918519844,0.010453084696773165,-0.03617261618233695,-0.04809975890558438,-0.06031799362276441,-0.4281008349819685,-0.0825587683615972
319,8.435675800021272,0.10726830599298062,0.02656428795929357,-0.04309109002907036,0.05849798977506161,0.13160993716265187,-0.005401027793423139,0.010202100148907269,-0.03796902245756309,-0.048445069874584044,-0.059107199813389584,-0.4266931809135283,-0.08175236128547571
320,8.439728299970739,0.1075142623625385,0.027117107392155095,-0.043114218377767244,0.05854034697128954,0.13144658494936598,-0.005605363882791754,0.009956231152828796,-0.03975938767181896,-0.04878696707241937,-0.0578840266820201,-0.425226449597035,-0.08093438562309319
321,8.443890599999577,0.10776039458706471,0.02766922444381102,-0.043138208568250964,0.05858168158838097,0.13127572081113853,-0.005811129736414147,0.009715528565656304,-0.04154346464274859,-0.04912540215983442,-0.056649034438648084,-0.4237011775688657,-0.0801049755333382
322,8.448011600004975,0.10800669841431056,0.0282206075972873,-0.0431630665792211,0.058622015445085954,0.1310973716944555,-0.006018310702094077,0.009480040881411253,-0.04332100846104817,-0.04946032735859385,-0.05540278761586049,-0.42211791007500593,-0.07926426392513115
323,8.452381499984767,0.10825316968415964,0.028771225451028875,-0.04318879832737226,0.05866137055898925,0.13091156557033756,-0.0062268919279974315,0.009249814211766344,-0.04509177652768493,-0.04979169544667055,-0.05414585441502004,-0.4204772013031952,-0.07841238262084868
324,8.456514600024093,0.10849980432944249,0.029321046723185352,-0.0432154096665599,0.058699769136454395,0.13071833142455166,-0.006436858364980871,0.009024892274457548,-0.0468555285918424,-0.05011945975392456,-0.0528788051862169,-0.41877961442496087,-0.07754946230976868
325,8.460767399985343,0.10874659837670882,0.029870040255855247,-0.04324290638697593,0.05873723356255628,0.1305176992476604,-0.006648194768902331,0.008805316386809932,-0.04861202678849264,-0.05044357415689936,-0.05160221242944703,-0.41702572178808933,-0.0766756321975164
326,8.46574369998416,0.10899354794695748,0.030418175019288042,-0.04327129421433395,0.05877378639097077,0.13030970002491785,-0.0068608857029059285,0.008591125454139781,-0.0503610356779594,-0.05076399307155401,-0.050316652313286137,-0.4152161062022662,-0.075791019725617
327,8.470546600001398,0.10924064925632379,0.03096542011604347,-0.04330057880906407,0.058809450333809805,0.1300943657259862,-0.007074915539671367,0.008382355950514495,-0.0521023222942974,-0.05108067144570207,-0.04902270686996648,-0.41335136349740215,-0.07489575096886444
328,8.474770399974659,0.10948789861672402,0.03151174478510714,-0.04333076576551707,0.05884424825134929,0.12987172929442506,-0.007290268463635286,0.00817904188870295,-0.05383565620636071,-0.051393564755083936,-0.04772096535192094,-0.41143210467775987,-0.0739899510441059
329,8.4791212999844,0.10973529243645634,0.03205711840596147,-0.04336186061117784,0.05887820314161159,0.1296418246368947,-0.007506928473207653,0.007981214789532322,-0.05556080958428957,-0.051702628999242044,-0.04641202425486073,-0.4094589554914462,-0.07307374367794872
330,8.483506700024009,0.10998282722075779,0.032601510502610544,-0.04339386880588822,0.05891133812983584,0.1294046866120864,-0.007724879382958435,0.007788903651644462,-0.057277557256959946,-0.052007820693959365,-0.04509648656919113,-0.40743255364268643,-0.07214725063442376
331,8.488270699977875,0.11023049957231669,0.03314489074755801,-0.04342679574107882,0.05894367645780621,0.12916035101944293,-0.007944104825770432,0.0076021349271452945,-0.05898567675503677,-0.05230909686232352,-0.04377496030847591,-0.4053535457546805,-0.07121059145789871
332,8.49392340000486,0.11047830619173989,0.03368722896573712,-0.04346064673900992,0.05897524147311754,0.12890885458772686,-0.008164588254950832,0.0074209325037308815,-0.06068494834289336,-0.05260641502500424,-0.04244805818350851,-0.40322258564205676,-0.07026388368338195
333,8.498073700000532,0.11072624387797496,0.03422849513839252,-0.04349542705202108,0.05900605661835334,0.12865023496347275,-0.008386312946302318,0.007245317683076572,-0.06237515504714297,-0.05289973319308529,-0.04111639750745135,-0.40104033383675664,-0.06930724375955273
334,8.502230399986729,0.11097430952868649,0.03476865940691321,-0.04353114186178941,0.05903614542016976,0.12838453069931569,-0.00860926200017437,0.007075309163760463,-0.06405608268457279,-0.053189009866100895,-0.039780599564994724,-0.39880745735982226,-0.06834078798313496
335,8.506354900018778,0.1112225001405865,0.03530769207661627,-0.04356779627859647,0.05906553147833005,0.1281117812422086,-0.008833418343517864,0.006910923024955379,-0.06572751988875714,-0.053474204032721975,-0.03844128980011583,-0.39652462957566104,-0.0673646324405306
336,8.510731099988334,0.11147081280971856,0.03584556362048074,-0.04360539534060378,0.059094238454651456,0.1278320269215271,-0.009058764731942143,0.00675217270777404,-0.06738925813676644,-0.053755275168301954,-0.03709909748848203,-0.39419253014451744,-0.0663788923069545
337,8.515531999990344,0.11171924473169528,0.03638224468283134,-0.043643944013136995,0.059122290061882875,0.12754530893706229,-0.009285283751748983,0.006599069001714807,-0.0690410917753809,-0.05403218322967153,-0.035754654593020754,-0.3918118448025038,-0.06538368158944592
338,8.520025899983011,0.11196779320188897,0.036917706082971465,-0.043683447187978564,0.05914971005253779,0.12725166934690527,-0.009512957821945915,0.0064516200356269,-0.07068281804595039,-0.054304888650524255,-0.03440859534244221,-0.38938326499944187,-0.06437911290484571
339,8.523792100022547,0.11221645561557525,0.03745191881876502,-0.04372390968266879,0.059176522207695974,0.12695115105523094,-0.0097417691962414,0.006309831267699071,-0.07231423710756386,-0.05457335233434499,-0.03306155672243931,-0.3869074880948661,-0.06336529698908619
340,8.5297230000142,0.11246522946802953,0.03798485407016675,-0.04376533623981526,0.059202750325752306,0.12664379779998777,-0.009971699964998708,0.006173705472295808,-0.07393515206355683,-0.05483753564567057,-0.03171417899035659,-0.3843852187257578,-0.062342342825851695
341,8.534314399992581,0.11271411235457611,0.0385164832027006,-0.043807731526410355,0.059228418211107796,0.12632965414045877,-0.010202732057157627,0.006043242725619715,-0.07554536899617789,-0.05509740040409981,-0.030367106024784613,-0.38181716978973845,-0.06131035761135902
342,8.53786579996813,0.11296310197058956,0.03904677777088544,-0.043851100133156816,0.059253549662797875,0.12600876544465983,-0.01043484724213799,0.005918440389609033,-0.07714469700136094,-0.055352908875258074,-0.029020985115214594,-0.37920406149762553,-0.06026944615874072
343,8.542066299996804,0.11321219611144824,0.03957570952160754,-0.04389544657380125,0.05927816846304808,0.12568117787660846,-0.010668027131685444,0.005799293099368181,-0.07873294821542748,-0.055604023759800565,-0.02767646593466322,-0.37654661944398704,-0.05921971130675433
344,8.54616749996785,0.11346139267243947,0.0401032503974393,-0.043940775284475216,0.05930229836579667,0.1253469383834976,-0.010902253181682524,0.005685792755701362,-0.08030993783363997,-0.055850708187812514,-0.026334199978259355,-0.3738455727415252,-0.058161255099740676
345,8.550405099987984,0.11371068964861658,0.04062937253990382,-0.04398709062304397,0.059325963085187554,0.1250060946828085,-0.011137506693947355,0.005577928517262332,-0.08187548412122185,-0.05609292571773112,-0.024994840330116383,-0.3711016528862725,-0.05709417920836187
346,8.554980300017633,0.11396008513460736,0.04115404829268537,-0.04403439686846266,0.05934918628402693,0.12465869524939173,-0.01137376881803567,0.00547568679504767,-0.08342940842237169,-0.056330640334282485,-0.023659040798970146,-0.36831559332335057,-0.05601858420495678
347,8.558691399986856,0.11420957732437403,0.04167725020478536,-0.0440826982201402,0.059371991562229914,0.12430478930250442,-0.011611020553022162,0.005379051251812348,-0.08497153516763303,-0.056563816441312205,-0.02232745484239068,-0.3654881288430287,-0.054934568594248924
348,8.562607200001366,0.11445916451092467,0.04219895103362382,-0.04413199879731047,0.05939440244527225,0.12394442679282938,-0.011849242749242242,0.005288002805606054,-0.08650169187783185,-0.05679241885157446,-0.02100073505388118,-0.3626199952397741,-0.05384222812392978
349,8.567199599987362,0.11470884508597601,0.042719123748086264,-0.044182302638410824,0.05941644237266668,0.12357765838947903,-0.012088416109987553,0.0052025196335001925,-0.08801970916858035,-0.057016412773767386,-0.01967953341957393,-0.3597119294642725,-0.052741655305539245
350,8.571669699973427,0.11495861753956803,0.043237741531515925,-0.044233613700467515,0.05943813468644601,0.12320453546697681,-0.01232852119313875,0.005122577172966425,-0.08952542075549227,-0.057235763798294696,-0.018364501364482543,-0.3567646699162577,-0.05163293949665951
351,8.575763800006825,0.11520848045962999,0.0437547777846512,-0.04428593585848796,0.059459502619651015,0.12282511009221726,-0.012569538412741329,0.005048148125214879,-0.09101866346114829,-0.057450437884991976,-0.01705628937943832,-0.3537789563502378,-0.050516167029138095
352,8.579511999967508,0.11545843253149818,0.04427020612850824,-0.04433927290485941,0.0594805692848416,0.12243943501138888,-0.012811448040535231,0.004979202459708652,-0.0924992772195188,-0.057660401349966146,-0.015755546272899844,-0.35075552868471566,-0.049391420753317615
353,8.583873499999754,0.11570847253738542,0.044784000407208494,-0.04439362854875405,0.059501357662622656,0.12204756363689695,-0.013054230207420046,0.004915707423791286,-0.09396710507291964,-0.05786562084949056,-0.014462917511852698,-0.347695125879364,-0.04825877988646017
354,8.587825499998871,0.11595859935580236,0.04529613469075137,-0.04444900641554,0.059521890590236125,0.12164955003431208,-0.01329786490484924,0.004857627561147626,-0.09542199316699651,-0.05806606336557033,-0.013179044498267853,-0.34459848564454704,-0.04711832005949134
355,8.59213980002096,0.11620881196093105,0.04580658327773206,-0.04450541004619814,0.059542190750242065,0.12124544890933515,-0.013542331986174019,0.0048049247275133685,-0.09686379074523888,-0.058261696190230354,-0.011904564732114903,-0.341466344102332,-0.04597011321168402
356,8.596198200015351,0.11645910942195115,0.046315320698004626,-0.0445628428967444,0.059562280659242746,0.12083531559479198,-0.013787611167905481,0.004757558107765628,-0.09829235014111488,-0.05845248691019535,-0.010640110690106596,-0.3382994357849176,-0.04481422880556551
357,8.60054349998245,0.11670949090231866,0.04682232171529053,-0.04462130833765719,0.059582182656707394,0.12041920603766437,-0.014033682030929707,0.004715484241057736,-0.09970752677257205,-0.05863840340139036,-0.009386309218230736,-0.33509849417375615,-0.04365073540426867
358,8.604945499973837,0.11695995565899822,0.04732756132973266,-0.04468080965330992,0.05960191889390756,0.119997176786131,-0.01428052402172368,0.004678657043016166,-0.10110917913870404,-0.05881941382687997,-0.008143781975027192,-0.3318642518156298,-0.042479700858310585
359,8.608682799967937,0.11721050304164884,0.04783101478039496,-0.04474135004140863,0.059621511322928464,0.11956928497662654,-0.014528116453553048,0.004647027827149156,-0.10249716881522707,-0.05899548663293886,-0.006913145455745229,-0.32859743984381745,-0.04130119238719377
360,8.612928199989256,0.11746113249176379,0.04833265754770767,-0.04480293261243459,0.0596409816857843,0.11913558832092049,-0.014776438507655023,0.0046205453268405704,-0.10387136044712161,-0.059166590547676964,-0.005695011249334756,-0.3252987872064355,-0.04011527676665369
361,8.61708950001048,0.11771184354176488,0.04883246535585832,-0.04486556038909188,0.05966035150361448,0.11869614509323818,-0.015025469234424582,0.004599155714598258,-0.10523162173762231,-0.05933269457868401,-0.004489985617558476,-0.32196902007173994,-0.0389220195808837
362,8.621249300020281,0.11796263581405149,0.049330414175128734,-0.04492923630575995,0.059679642065960735,0.11825101411743222,-0.01527518755457756,0.004582802627585888,-0.10657782343586061,-0.0594937680053689,-0.003298668490203266,-0.3186088615129015,-0.037721484241019315
363,8.625537700019777,0.11821350902000476,0.049826480224178175,-0.044993963207950974,0.05969887442017798,0.11780025475420729,-0.015525572260272466,0.004571427195317535,-0.10790983932320493,-0.05964978036835369,-0.0021216537221685145,-0.31521903156417286,-0.03651373210224383
364,8.629785700002685,0.11846446295894757,0.05032063997227297,-0.045059743851771854,0.059718069360944225,0.11734392688840642,-0.01577660201618442,0.004564968063028435,-0.10922754620137543,-0.059800701462797305,-0.0009595289773941627,-0.31180024786587235,-0.035298823853817565
365,8.63376050000079,0.11871549751706056,0.050812870141462775,-0.0451265809033906,0.059737247419867856,0.11688209091633577,-0.01602825536057084,0.004563361420345268,-0.11053082388420586,-0.0599465013394741,0.00018712459922781073,-0.3083532263877267,-0.034076820757339234
366,8.638145499979146,0.11896661266625479,0.05130314770870365,-0.04519447693850727,0.05975642885523859,0.11641480773312006,-0.016280510706354452,0.004566541027414822,-0.11181955519183882,-0.06008715030850638,0.0013177315174923761,-0.3048786819194856,-0.032847785441383066
367,8.642550199991092,0.11921780846300152,0.05179144990792805,-0.04526343444182948,0.05977563364185438,0.11594213872007621,-0.01653334634222036,0.004574438236308473,-0.11309362594661163,-0.06022261894712261,0.002431722384765439,-0.30137732807131584,-0.031611782742345045
368,8.64667470002314,0.11946908504711942,0.05227775423206174,-0.04533345580655256,0.05979488146095228,0.11546414573210333,-0.01678674043376426,0.0045869820208737245,-0.11435292496725487,-0.06035287811045811,0.0035285348877935998,-0.2978498768517281,-0.030368879973338637
369,8.650812399981078,0.11972044264051973,0.05276203843498781,-0.04540454333384471,0.0598141916902863,0.1149808910851051,-0.017040671024680293,0.004604099006391756,-0.1155973440612304,-0.06047789894157358,0.00460761325554747,-0.29429703852970784,-0.02911914722790409
370,8.6547243000241,0.11997188154590999,0.053244280533457845,-0.045476699232337124,0.05983358339430758,0.11449243754344425,-0.017295116037993497,0.00462571349491363,-0.11682677801777096,-0.06059765288480877,0.005668408095618838,-0.29071952163373677,-0.027862658034002456
371,8.658860999974422,0.1202234021454567,0.05372445880895049,-0.045549925617619544,0.05985307531445519,0.11399884830742335,-0.0175500532773599,0.004651747493542608,-0.11804112460020989,-0.06071211170129846,0.006710377515573442,-0.28711803289207616,-0.026599489400904064
372,8.66302119998727,0.12047500489940743,0.0542025518094774,-0.0456242245117413,0.059872685859574046,0.1135001870008038,-0.017805460428429384,0.0046821207491964155,-0.11924028453851884,-0.060821247482720275,0.007732988010586883,-0.28349327707133454,-0.02532972142206722
373,8.6673226999701,0.12072669034467297,0.054678538351336854,-0.04569959784271829,0.05989243309649796,0.11299651765834941,-0.01806131506026137,0.004716750784350999,-0.12042416152028046,-0.06092503266347246,0.008735714417191997,-0.27984595646150523,-0.024053436702772605
374,8.671333400008734,0.1209784590933702,0.055152397520815015,-0.04577604744404597,0.05991233474076798,0.11248790471342117,-0.01831759462679003,0.004755552931413996,-0.12159266217889732,-0.06102344002961042,0.009718040964418027,-0.2761767703032508,-0.02277071971730607
375,8.675469600013457,0.12123031183132625,0.055624108675835275,-0.045853575054218595,0.0599324081475044,0.11197441298562001,-0.018574276468315085,0.004798440377304341,-0.12274569607975042,-0.06111644272562101,0.010679463329621027,-0.27248641414528135,-0.021481656797321145
376,8.679478799982462,0.12148224931654471,0.05609365144755564,-0.04593218231625479,0.05995267030249982,0.11145610766849794,-0.018831337813023985,0.004845324215106988,-0.12388317570300622,-0.06120401426326119,0.011619489830933473,-0.26877557901535176,-0.020186336319005686
377,8.683592899993528,0.12173427237763482,0.056561005741914756,-0.04601187077722957,0.05997313781352539,0.11093305431734525,-0.01908875577855699,0.0048961134986762155,-0.1250050164228066,-0.0612861285299057,0.012537642197157682,-0.2650449499256454,-0.018884848773101707
378,8.687263600004371,0.12198638191220464,0.05702615174112665,-0.04609264188781304,0.05999382690188283,0.11040531883707666,-0.01934650737359951,0.004950715300762057,-0.12611113647751213,-0.061362759797974266,0.013433455568256546,-0.2612952039790613,-0.017577287243683133
379,8.691493600024842,0.12223857888521925,0.05748906990512492,-0.046174497001815855,0.0600147533941993,0.10987296747026863,-0.01960456949952646,0.005009034767617728,-0.12720145693297358,-0.06143388273730386,0.014306478589429461,-0.2575270096333175,-0.01626374791060068
380,8.696146700007375,0.12249086432732491,0.05794974097295693,-0.046257437375741686,0.060035932714438474,0.10933606678535422,-0.019862918952098577,0.005070975177916854,-0.12827590164658928,-0.061499472428799475,0.015156275209166549,-0.25374102729701914,-0.014944330633670727
381,8.700730099983048,0.12274323933314013,0.058408145964128744,-0.04634146416834697,0.06005737987619061,0.10879468366496257,-0.02012153242322152,0.005136438012475298,-0.1293343972355871,-0.06155950438171703,0.015982425848031397,-0.2499379100661546,-0.013619139688647808
382,8.704576699994504,0.12299570505951501,0.058864266179901314,-0.04642657844020816,0.060079109475269746,0.10824888529438037,-0.020380386502787493,0.0052053230229931425,-0.1303768730472728,-0.06161395455350072,0.01678452660421854,-0.24611830417918112,-0.012288284035798461
383,8.70898210001178,0.12324826272376009,0.05931808320453844,-0.04651278115329695,0.060101135682581616,0.10769873915014141,-0.02063945768060107,0.005277528295098454,-0.13140326113113748,-0.06166279936932357,0.017562188622516583,-0.2422828490168038,-0.010951877097968186
384,8.712863399996422,0.12350091360184572,0.05976957890650702,-0.04660007317056372,0.06012347223725077,0.10714431298872255,-0.020898722348385083,0.005352950311784789,-0.13241349620910406,-0.061706015740059184,0.018315038281281795,-0.2384321764479673,-0.00961003622342714
385,8.716565800015815,0.12375365902657313,0.06021873543962998,-0.04668845525552962,0.060146132440021746,0.10658567483538336,-0.021158156801857533,0.005431484018026649,-0.1334075156421371,-0.061743581077307,0.019042717333159292,-0.23456691080728756,-0.008262881937724396
386,8.721149899996817,0.12400650038571841,0.060665535244192735,-0.04677792807188747,0.06016912914692935,0.10602289297314275,-0.02141773724286376,0.0055130228853998865,-0.13438525940029963,-0.061775473305075185,0.019744883114643893,-0.23068766979296368,-0.0069105371613280755
387,8.725385300000198,0.12425943912015026,0.06110996104800345,-0.04686849218311176,0.060192474763243034,0.10545603593187035,-0.021677439781551563,0.005597458978458725,-0.1353466700369108,-0.061801670868229346,0.020421208989946434,-0.22679506578779696,-0.005553126392149056
388,8.729678399977274,0.12451247672192313,0.0615519958674078,-0.04696014805207785,0.06021618123769513,0.10488517247748032,-0.0219372404385744,0.005684683023087293,-0.13629169266970714,-0.061822152737303765,0.021071384748902734,-0.22288970712225187,-0.004190775471288594
389,8.733113800000865,0.12476561473234646,0.061991623008258376,-0.04705289604069048,0.06024026005699978,0.10431037160118113,-0.02219711514730694,0.005774584476221453,-0.13722027496561742,-0.06183689841498099,0.021695116466252332,-0.2189721978377735,-0.00282361249433855
390,8.737743099976797,0.1250188547400317,0.06242882606683911,-0.04714673640952161,0.06026472224066727,0.10373170250879736,-0.02245703975610274,0.00586705159301744,-0.13813236711993443,-0.061845887948563424,0.022292126431719485,-0.2150431366138525,-0.0014517689916995736
391,8.74119560001418,0.12527219837891798,0.06286358893074492,-0.047241669317457886,0.06028957833608758,0.10314923461019451,-0.02271699003061463,0.005961971495985951,-0.13902792183207077,-0.061849101946374656,0.022862154645510394,-0.21110311694381756,-7.53805593298835e-05
392,8.746096900023986,0.12552564732627786,0.06329589577971721,-0.04733769482135798,0.06031483841392583,0.10256303750880463,-0.022976941656190242,0.006059230254731894,-0.1399068942862083,-0.0618465215955331,0.023404960873848513,-0.20715272853595168,0.0013054131533363365
393,8.750793799990788,0.12577920330070422,0.06372573108643549,-0.047434812875720225,0.060340512063876126,0.1019731809912138,-0.02323687024034183,0.006158712972367254,-0.14076924213883174,-0.061838128678251746,0.023920326191215674,-0.203192559006855,0.002690468828582146
394,8.75467110000318,0.1260328680600803,0.06415307961726534,-0.047533023332360695,0.06036660839078343,0.10137973501679252,-0.0234967513152788,0.006260303878214875,-0.14161492551361238,-0.06182390558637392,0.024408054312934024,-0.19922319573922864,0.004079640099462168
395,8.758787899976596,0.12628664339953408,0.06457792643296287,-0.047632325940102124,0.06039313601117662,0.10078276970732623,-0.023756560340499704,0.00636388642542298,-0.14244390700455822,-0.061803835332469255,0.024867971781158533,-0.19524522674778128,0.005472778309531338
396,8.76407560001826,0.1265405311493791,0.06500025688933551,-0.04773272034447379,0.060420103050210935,0.1001823553366192,-0.024016272705418066,0.006469343385232398,-0.14325615167817654,-0.06177790155798318,0.02529992761430016,-0.19125923941540218,0.006869733248568105
397,8.76748919999227,0.1267945331730432,0.06542005663785912,-0.04783420608742249,0.060447517138993434,0.09957856232010688,-0.024275863732022864,0.006576556941644144,-0.14405162706600022,-0.06174608853814843,0.025703793120838012,-0.18726581909222995,0.008270354063725248
398,8.771605100017041,0.1270486513649868,0.06583731162625138,-0.0479367826070348,0.060475385412321205,0.0989714612045226,-0.024535308677545647,0.006685408784121557,-0.14483030315497417,-0.06170838118247546,0.026079461057739894,-0.18326554926003685,0.00967448993716133
399,8.776687400008086,0.12730288764861264,0.0662520080990021,-0.04804044923727047,0.0605037145067861,0.09836112265759075,-0.02479458273712514,0.006795780195183587,-0.14559215238136347,-0.06166476503396775,0.026426844836215335,-0.17925901134387942,0.01108199021468883
400,8.780658899981063,0.12755724397416815,0.06666413259785998,-0.04814520520770708,0.06053251055924923,0.0977476174577447,-0.02505366104646777,0.006907552136430511,-0.14633714961955654,-0.06161522626853082,0.026745877073355143,-0.17524678394161614,0.012492704429242295
401,8.784212299971841,0.12781172231664237,0.06707367196227645,-0.048251049643295775,0.06056177920566883,0.09713101648391403,-0.025312518684507287,0.007020605323962342,-0.14706527216949664,-0.0615597516939903,0.02703650800265596,-0.17122944324500047,0.013906482755790903
402,8.787891099986155,0.12806632467365844,0.06748061332980661,-0.04835798156412832,0.06059152558020874,0.0965113907053482,-0.02557113067605705,0.00713482030104346,-0.14777649974902465,-0.061498328745676914,0.027298705708032004,-0.1672075630628536,0.015323176350866573
403,8.792279399989638,0.12832105306336306,0.06788494413646748,-0.048465999885215126,0.06062175431467707,0.09588881117146808,-0.025829471994432546,0.007250077515488112,-0.14847081448150548,-0.06143094548259052,0.02753245593723432,-0.16318171355838296,0.016742636791890305
404,8.796262699994259,0.1285759095223142,0.0682866521170537,-0.0485751034162743,0.06065246953828516,0.09526334900179363,-0.0260875175640714,0.007366257390756653,-0.14914820087755673,-0.06135759058769807,0.02773776065299886,-0.15915246094615168,0.01816471532858813
405,8.800634099985473,0.12883089610336862,0.0686857253054111,-0.04868529086153175,0.060683674877683925,0.09463507537594908,-0.026345242263158413,0.007483240391162036,-0.1498086458201278,-0.06127825337039025,0.02791463719185957,-0.1551203677967074,0.019589262112802812
406,8.804650100006256,0.12908601487356983,0.06908215203466833,-0.04879656081953227,0.06071537345727092,0.09400406152371595,-0.02660262092626624,0.007600907085895059,-0.15045213854878928,-0.06119292377325364,0.028063117142403098,-0.1510859926146868,0.02101612514706069
407,8.808728999982122,0.12934126791203815,0.06947592093742685,-0.04890891178296186,0.060747567899764855,0.09337037871517034,-0.02685962834703734,0.00771913820480149,-0.15107867064126565,-0.06110159238336562,0.028183244710228126,-0.14704988958213366,0.022445149466361575
408,8.813130899972748,0.12959665730786363,0.06986702094590969,-0.049022342138481355,0.060780260326981556,0.09273409825089123,-0.027116239280919583,0.00783781468866321,-0.151688235995567,-0.06100425044594442,0.02827507625060863,-0.14301260907287658,0.02387617670610038
409,8.817183099978138,0.1298521851580025,0.07025544129206905,-0.04913685016657171,0.060813452360831126,0.09209529145224786,-0.027372428447962966,0.007956817741046916,-0.15228083081584548,-0.06090088987927608,0.0283386807354382,-0.13897469868067744,0.025309044868740076
410,8.821677699976135,0.13010785356517857,0.07064117150765349,-0.04925243404139118,0.06084714512452974,0.091454029651727,-0.02762817053568069,0.008076028882510385,-0.15285645360316974,-0.060791503290325795,0.028374140314151763,-0.1349367042232492,0.02674358848701741
411,8.825727800023742,0.13036366463578977,0.07102420142423421,-0.04936909183064463,0.06088133924405247,0.09081038418329788,-0.0278834402019771,0.008195330007166272,-0.15341510514982107,-0.060676083988292995,0.0283815505476392,-0.13089917123705344,0.028179639476625523
412,8.829812599986326,0.13061962047782183,0.0714045211731912,-0.04948682149546534,0.06091603484982056,0.09016442637278738,-0.028138212078122705,0.008314603438854642,-0.15395678854263303,-0.060554625993055076,0.028361020688314104,-0.1268626468260269,0.029617028118168794
413,8.833860500017181,0.13087572319876903,0.07178212118565865,-0.049605620890309315,0.060951231578626426,0.08951622752821688,-0.028392460771753097,0.008433731990061024,-0.15448150917282802,-0.06042712404046818,0.028312673259225537,-0.12282768059293168,0.0310555836873148
414,8.837924499996006,0.13113197490356396,0.07215699219242987,-0.049725487762862286,0.06098692857581618,0.08886585893009477,-0.028646160869888533,0.008552599014550964,-0.15498927474718574,-0.06029357358551389,0.028236643447472433,-0.11879482400868474,0.03249513501561822
415,8.84211480000522,0.1313883776925167,0.07252912522382111,-0.04984641975395943,0.061023124497657115,0.08821339182165948,-0.028899286941959302,0.008671088461189134,-0.1554800952925784,-0.060153970802885724,0.02813307947756287,-0.11476462931724751,0.033935510631390074
416,8.846646899997722,0.1316449336592645,0.07289851160949445,-0.0499684143975178,0.061059817513972596,0.08755889739913376,-0.029151813542830238,0.00878908492971234,-0.15595398315793368,-0.0600083125889517,0.028002141769638774,-0.11073764934529519,0.03537653827998878
417,8.850336499977857,0.131901644888733,0.07326514297823969,-0.05009146912048144,0.06109700531097838,0.08690244680195129,-0.02940371521584258,0.008906473717472684,-0.1564109530171701,-0.059856596566373266,0.027844002660388854,-0.10671443689652843,0.03681804435130846
418,8.854516699968372,0.1321585134551098,0.07362901125771507,-0.050215581242779396,0.061134685094310436,0.08624411110298626,-0.02965496649587732,0.009023140872864576,-0.15685102186606847,-0.05969882109088035,0.027658847290193068,-0.10269554440130019,0.038259853237991116
419,8.858555399987381,0.13241554141983122,0.07399010867414707,-0.05034074797729662,0.06117285359231037,0.08558396129880624,-0.029905541912454005,0.009138973249525215,-0.1572742090222621,-0.059534985261285166,0.027446873322073392,-0.09868152459259791,0.03970178679772666
420,8.86335409997264,0.13267273082958342,0.0743484277519892,-0.05046696642985797,0.06121150705950884,0.08492206829990194,-0.030155415992878267,0.009253858557399094,-0.1576805361277906,-0.059365088930777146,0.027208291550634478,-0.09467293085841758,0.0411436642476404
421,8.867047899984755,0.1329300837143184,0.07470396131353964,-0.05059423359922561,0.061250641280340246,0.08425850292091852,-0.03040456326543557,0.009367685422057232,-0.15807002715205193,-0.05918913271782452,0.026943327023025248,-0.09067031798887192,0.04258530255022096
422,8.871196200023405,0.13318760208528632,0.0750567024785179,-0.05072254637710985,0.061290251573124774,0.08359333587086056,-0.030652958262630366,0.00948034344518445,-0.1584427084006366,-0.05900711801422516,0.02665221922473361,-0.08667424294644789,0.044026517336502306
423,8.875552300014533,0.13344528793308516,0.07540664466360016,-0.05085190154819376,0.06133033279429152,0.08292663774324913,-0.03090057552444754,0.009591723265460386,-0.1587986085247544,-0.0588190469882479,0.026335222454712218,-0.08268526512351775,0.04546712361821645
424,8.879567799973302,0.13370314322572838,0.07575378158191319,-0.050982295790171446,0.061370879342872345,0.0822584790062475,-0.031147389601617958,0.00970171662220007,-0.15913775853223314,-0.058624922586697055,0.025992605872417977,-0.07870394634214736,0.046906935507431836
425,8.88401999999769,0.13396116990673232,0.07609810724248668,-0.0511137256738001,0.06141188516525991,0.08158892999272578,-0.031393375058897256,0.009810216416630348,-0.15946019179694393,-0.05842474854041045,0.025624652935416454,-0.07473084971002543,0.04834576572603904
426,8.888516000006348,0.134219369893224,0.07643961594966363,-0.05124618766296584,0.06145334376021664,0.08091806089030737,-0.031638506478377626,0.009917116770802982,-0.1597659440601828,-0.05821852937044719,0.0252316601388782,-0.07076653814826422,0.04978342562912152
427,8.892101700010244,0.13447774507407054,0.076778302302469,-0.051379678114763606,0.061495248184128,0.080245941731422,-0.03188275846281861,0.010022313078275308,-0.16005505342772067,-0.058006270393389237,0.02481393589432449,-0.06681157345575038,0.0512197250533387
428,8.89640710002277,0.1347362973080311,0.07711416119393653,-0.051514193279590996,0.06153759105643745,0.07957264238337695,-0.032126105639003436,0.010125702053598102,-0.16032756036332002,-0.057787977728803654,0.02437180034167218,-0.06286651572521611,0.05265447176739048
429,8.900379099999554,0.13499502842193206,0.07744718781039392,-0.05164972930125636,0.061580364565315716,0.07889823253846467,-0.03236852266113257,0.010227181781416296,-0.16058350768087634,-0.05756365830916358,0.023905583948498406,-0.05893192318104054,0.05408747119180332
430,8.90463429997908,0.13525394020886655,0.07777737763070644,-0.05178628221710118,0.06162356047350851,0.07822278170409999,-0.03260998421426343,0.010326651754182301,-0.16082294053657134,-0.057333319889665946,0.02341562606060027,-0.05500835185203604,0.05551852650405579
431,8.908834500005469,0.1355130344264188,0.07810472642547926,-0.05192384795813708,0.0616671701243228,0.07754635919299367,-0.03285046501778645,0.01042401290907276,-0.16104590641826386,-0.05709697105726875,0.022902274247586358,-0.05109635482195944,0.05694743839331931
432,8.912284899968654,0.135772312794914,0.07842923025621847,-0.05206242234919741,0.061711184447784846,0.07686903411337888,-0.03308993982894079,0.010519167660200935,-0.1612524551313429,-0.05685462124257042,0.02236588276210826,-0.047196482114068114,0.05837400471027652
433,8.916971599974204,0.13603177699569444,0.07875088547445118,-0.05220200110910382,0.061755593966897254,0.0761908753593036,-0.03332838344639025,0.010612019922581805,-0.16144263878714812,-0.056606280731790734,0.021806811417525784,-0.04330928127538567,0.05979802051327587
434,8.921038199972827,0.13629142866942193,0.07906968872080501,-0.052342579850847906,0.06180038880399846,0.07551195160095449,-0.03356577071383967,0.01070247513491013,-0.1616165117937342,-0.05635196067826217,0.02122542437218347,-0.039435298052911905,0.0612192780920953
435,8.925357399974018,0.13655126941440737,0.07938563692404685,-0.052484154081788165,0.061845558687211276,0.07483233127502686,-0.03380207652370747,0.010790440273306211,-0.16177413084997552,-0.05609167311421107,0.02062208905617611,-0.03557507758677294,0.06263756721295384
436,8.929538599972147,0.13681130078496748,0.07969872730008133,-0.05262671920386253,0.06189109295691788,0.07415208257509814,-0.03403727582084106,0.01087582386507238,-0.1619155549463601,-0.055825430960189486,0.01999717593704207,-0.031729165041449646,0.06405267503700454
437,8.933585499995388,0.13707152428980868,0.08000895735090874,-0.05277027051381657,0.061936980572324024,0.0734712734419912,-0.03427134360626868,0.010958536000469176,-0.16204084536440036,-0.05555324803754142,0.019351057070517774,-0.027898105416642192,0.06546438533787136
438,8.938012800004799,0.13733194139043906,0.08031632486354245,-0.05291480320344751,0.061983210118033025,0.07278997155415268,-0.03450425494101959,0.01103848833428952,-0.16215006567583728,-0.05527513908441206,0.01868410530727393,-0.024082443758194627,0.0668724781622672
439,8.942056100000627,0.13759255349960753,0.08062082790888597,-0.0530603123598646,0.06202976981062318,0.0721082443180231,-0.03473598495001047,0.011115594090966739,-0.16224328174382413,-0.05499111977106688,0.017996694665783224,-0.02028272492676136,0.06827672974839104
440,8.946321600000374,0.13785336197977105,0.08092246484056942,-0.053206792965765796,0.062076647505264704,0.0714261588584052,-0.03496650882599443,0.011189768069283049,-0.16232056172018597,-0.05470120671658679,0.017289200286264135,-0.016499492848116963,0.0696769123391526
441,8.95042090001516,0.13811436814158942,0.08122123429374559,-0.05335423989973127,0.062123830702336735,0.07074378200885707,-0.035195801833587705,0.011260926647090441,-0.1623819760403016,-0.05440541750575729,0.016561998384035395,-0.012733290464651452,0.07107279408897244
442,8.954629399988335,0.13837557324244812,0.08151713518384571,-0.05350264793653402,0.06217130655408395,0.07006118030210355,-0.03542383931336063,0.01132898778562706,-0.16242759741995536,-0.05410377070654703,0.01581546620169166,-0.008984659832799082,0.07246413891128173
443,8.959311600017827,0.13863697848500905,0.08181016670529488,-0.0536520117474677,0.06221906187126983,0.06937841996045578,-0.03565059668601128,0.011393871033836078,-0.16245750085103794,-0.053796285888278915,0.015049982384035474,-0.005254142449241679,0.0738507069461555
