,time,x,y,z,vx,vy,vz,ax,ay,az,jx,jy,jz
0,8.795611399997142,-0.07562824636078531,-0.12267344684908849,-0.06081354729857449,0.004850269968947603,-0.008958141861409741,0.01606226622979511,-0.0038838255600021146,0.019259306749186248,-0.0021845751378442627,0.020510217499624568,0.06978958743224373,-0.10517526897928155
1,8.800251900000148,-0.0756045295626514,-0.12271710524009241,-0.060734878026531984,0.004831487722943206,-0.008862945191433727,0.01605030079261803,-0.003782547155552142,0.019603667189744284,-0.0027016461683178274,0.020831733303009328,0.07078499812421772,-0.10589867205105087
2,8.803903899999568,-0.07558090357068345,-0.1227602930914767,-0.06065627358391961,0.004813205539458248,-0.008766049414070248,0.016035793334734483,-0.0036796995363471046,0.01995291490897565,-0.0032222552253194725,0.021150764223855787,0.07178454356586067,-0.10661951586182794
3,8.807861299996148,-0.0755573659160401,-0.12280300201997289,-0.060577746467580046,0.004795431076879519,-0.008667430534950121,0.016018726552645832,-0.0035752950111683315,0.02030706969710416,-0.003746389661349837,0.021467255848207703,0.07278803207682048,-0.10733775514293682
4,8.812776300008409,-0.07553391409250625,-0.12284522352451703,-0.06049930925898098,0.004778171932633128,-0.00856706446504749,0.0159990832053607,-0.003469346153297295,0.020666150401260314,-0.004274036602638548,0.02178115482418215,0.07379527028047722,-0.10805334281124006
5,8.817244000005303,-0.07551054555679484,-0.12288694898579708,-0.06042097462390614,0.004761435641902773,-0.008464927025313875,0.01597684611552798,-0.0033618657942998454,0.021030174916808777,-0.004805182940327916,0.022092409201203478,0.07480606252862082,-0.1087662301685612
6,8.82093139999779,-0.075487257728855,-0.12292816966582336,-0.06034275531214067,0.004745229676380592,-0.008360993951370292,0.015951998170607384,-0.003252867016510844,0.021399160173762036,-0.005339815323463795,0.022400968828170952,0.07582021007550134,-0.10947636707133351
7,8.83078459999524,-0.07546404799218608,-0.122968876707522,-0.060264664157150705,0.00472956144305908,-0.008255240898274428,0.01592452232407116,-0.003142363142916832,0.021773122120014563,-0.00587792015184163,0.022706785810787115,0.07683751073853358,-0.11018370174588354
8,8.834669300005771,-0.07544091369415751,-0.12300906113435207,-0.060186714075756924,0.004714438283081072,-0.00814764344537704,0.01589440159664473,-0.003030367725159394,0.022152075704431787,-0.006419483567187313,0.0230098146591014,0.07785775888351869,-0.11088818061159211
9,8.838743300002534,-0.07541785214633424,-0.1230487138499466,-0.060108918067802,0.004699867470649213,-0.008038177101254849,0.015861619077594816,-0.002916894531972076,0.022536034859939442,-0.0069644914442704275,0.023310012139939204,0.07888074548373952,-0.11158974838438172
10,8.843327399998088,-0.07539486062480727,-0.12308782563777805,-0.06003128921581154,0.0046858562119892495,-0.007926817308732636,0.01582615792605718,-0.002801957538629767,0.022925012487191608,-0.007512929383099155,0.023607337188392388,0.079906258326422,-0.11228834808379856
11,8.8478230000037,-0.07537193637052915,-0.12312638716084856,-0.0599538406846485,0.004672411644362879,-0.007813539449976169,0.015788001372401203,-0.002685570916252905,0.023319020439683126,-0.00806478270010291,0.023901750775144406,0.0809340823666742,-0.11298392095926359
12,8.852813200006494,-0.07534907658965426,-0.12316438896140532,-0.05987658572116078,0.004659540835135848,-0.007698318851660185,0.015747132719644043,-0.0025677490225569123,0.023718069510885825,-0.008620036419604599,0.0241932155966498,0.0819640003175884,-0.11367640669672191
13,8.857009300001664,-0.07532627845388344,-0.12320182146068144,-0.05979953765382176,0.004647250780881448,-0.007581130790187362,0.015703535344898774,-0.0024485063941922713,0.024122169425143225,-0.009178675267028175,0.024481696104646594,0.08299579278297062,-0.11436574361781239
14,8.861911700005294,-0.07530353910081304,-0.12323867495866249,-0.05972270989236371,0.004635548406523672,-0.007461950496945523,0.015657192700855093,-0.002327857737204774,0.024531328826107358,-0.009740683662322515,0.02476715869790033,0.0840292378295516,-0.11505186872387936
15,8.866410300004645,-0.07528085563428795,-0.12327493963387887,-0.05964611592740382,0.004624440564534184,-0.0073407531636399135,0.015608088317291907,-0.002205817917496736,0.024945555263441648,-0.010306045713600236,0.0250495716189699,0.08506411148852407,-0.11573471776249436
16,8.870552399996086,-0.0752582251247585,-0.12331060554322457,-0.05956976933006279,0.004613934034168946,-0.007217513947680702,0.015556205802620366,-0.002082401952298817,0.025364855186172198,-0.010874745211213411,0.0253289049247403,0.08610018856680218,-0.11641422533081716
17,8.87671739999496,-0.07523564460964098,-0.12334566262180238,-0.059493683751575745,0.0046040355207487595,-0.007092207977580406,0.015501528845454502,-0.001957625000919979,0.02578923393734004,-0.011446765622405196,0.025605130530596192,0.08713724226354273,-0.11709032490493679
18,8.881011999998009,-0.07521311109368163,-0.12338010068279553,-0.059417872922895416,0.004594751654986524,-0.006964810358393795,0.015444041216206671,-0.0018315023557864585,0.02621869574359479,-0.012022090085673051,0.025878222107223754,0.08817504362433397,-0.11776294872926524
19,8.887810600004741,-0.07519062154932371,-0.12341390941736619,-0.05934235065428744,0.004586088992355586,-0.006835296177217284,0.015383726768713425,-0.0017040494342029423,0.026653243704498602,-0.012600701404336561,0.02614815515435075,0.08921336188044673,-0.11843202767637526
20,8.891850700005307,-0.07516817291707766,-0.12344707839458095,-0.0592671308349176,0.004578054012497736,-0.0067036405087336475,0.01532056944189398,-0.0015752817686689755,0.027092879785444075,-0.013182582039527236,0.026414907266231007,0.09025196468490575,-0.11909749115868787
21,8.896975900002872,-0.075145762105894,-0.12347959706136376,-0.05919222743243088,0.004570653118686438,-0.006569818420780809,0.015254553261444785,-0.001445214996038709,0.027537604809271428,-0.01376771410289097,0.026678457925193702,0.09129061774369997,-0.11975926714307095
22,8.904389899995294,-0.0751233859935388,-0.1235114547424759,-0.059117654492522105,0.004563892637341049,-0.006433804979978696,0.015185662341569489,-0.0013138648498602756,0.027987418445572707,-0.014356079349720897,0.026938788118082306,0.0923290852582673,-0.12041728227611645
23,8.908899400004884,-0.07510104142697123,-0.12354264064052407,-0.059043426138498015,0.004557778817565114,-0.006295575257402832,0.015113880886740804,-0.0011812471532939765,0.028442319206644782,-0.014947659172887413,0.027195880203499053,0.09336713098754151,-0.12107146195075133
24,8.918333800000255,-0.07507872522272362,-0.12357314383599598,-0.058969556570830674,0.00455231783072998,-0.0061551043342508525,0.015039193193489954,-0.001047377812752503,0.028902304447200336,-0.015542434596623736,0.027449717528352277,0.09440451818893637,-0.12172173036513667
25,8.922108600003412,-0.07505643416728312,-0.12360295328732389,-0.058896060066702005,0.004547515770075409,-0.006012367307518928,0.014961583652229427,-0.0009122728145764993,0.029367370359742583,-0.016140386271033074,0.027700284000040553,0.09544100929385502,-0.12236801086185624
26,8.926848200004315,-0.0750341650174756,-0.12363205783097593,-0.058822950979539324,0.004543378650325766,-0.0058673392957135995,0.014881036749096249,-0.0007759482228668667,0.029837511971096638,-0.016741494469197826,0.027947563983218404,0.09647636660095393,-0.12301022611973343
27,8.932353600001079,-0.07501191450085114,-0.12366044618157555,-0.05875024373854182,0.0045399124073118744,-0.005719995444562192,0.01479753706780306,-0.0006384201771718992,0.030312723144577385,-0.017345739083566323,0.028191542373581558,0.09751035251213244,-0.12364829796208536
28,8.93657489999896,-0.07498967931607155,-0.12368810693204879,-0.05867795284819795,0.004537122897609865,-0.005570310932703407,0.014711069291516797,-0.0004997048895965804,0.030792996578833266,-0.01795309962118315,0.028432204406068463,0.0985427289720338,-0.12428214720187293
29,8.940333300008206,-0.07496745613329948,-0.1237150285537995,-0.05860609288779351,0.00453501589819136,-0.005418260977409065,0.014621618204756508,-0.00035981864436911474,0.03127832380452193,-0.018563555198558547,0.028669535654851242,0.09957325743854378,-0.12491169334663214
30,8.945930700007011,-0.07494524159458937,-0.12374119939691267,-0.058534678510910446,0.0045335971060665664,-0.005263820840307275,0.014529168695322305,-0.00021877779495031228,0.03176869518286495,-0.019177084534007405,0.028903522446381804,0.10060169907455921,-0.12553685438454015
31,8.952081499999622,-0.07492303231427999,-0.12376660769038575,-0.058463724444916,0.004532872137962787,-0.005106965833118335,0.014433705756268247,-7.659875955276372e-05,0.032264099904202564,-0.019793665940422374,0.029134151815145934,0.10162781461516907,-0.1261575467993434
32,8.955861499998719,-0.07490082487938857,-0.12379124154238819,-0.058393245490442204,0.004532846530011421,-0.0049476713233920664,0.014335214487902112,6.670198131621807e-05,0.03276452598524692,-0.02041327731775914,0.029361411474123876,0.10265136408745702,-0.12677368536374076
33,8.959779099997832,-0.07487861585000642,-0.12381508894054893,-0.05832325652085543,0.004533525737450547,-0.004785912740270629,0.014233680099831909,0.0002111078890459724,0.03326996026489124,-0.021035896143784927,0.029585290006561737,0.10367210695806132,-0.1273851831466831
34,8.966539400003967,-0.07485640175969599,-0.12383813775227247,-0.05825377248171583,0.004534915134352997,-0.004621665580266919,0.014129087913056308,0.000356602371258679,0.033780388402908965,-0.02166149946663531,0.02980577668900593,0.10468980239855154,-0.1279919517126897
35,8.972609799995553,-0.07483417911588912,-0.12386037572508293,-0.0581848083902264,0.004537020013371431,-0.004454905413040134,0.014021423362084088,0.0005031687842666819,0.034295794878363275,-0.02229006389751578,0.03002286110772422,0.10570420907897696,-0.12859390116594732
36,8.976818800001638,-0.07481194440028659,-0.12388179048699674,-0.05811637933467164,0.004539845585490486,-0.00428560788718975,0.013910671997096079,0.0006507904336500637,0.03481616298628328,-0.022921565603690658,0.03023653301123442,0.10671508527118159,-0.12919094036422282
37,8.98034199999529,-0.07478969406925884,-0.12390236954692349,-0.05804850047384547,0.004543396979777511,-0.004113748736063663,0.013796819486133309,0.0007994505752689275,0.035341474837085905,-0.023555980303280766,0.030446782369329035,0.1077221893797214,-0.12978297713286643
38,8.985392800008412,-0.07476742455424794,-0.12392210029509548,-0.05798118703646842,0.004547679243144637,-0.003939303783557826,0.013679851617309927,0.0009491324164193416,0.035871711358454406,-0.024193283260349314,0.030653599107518515,0.10872527985340313,-0.1303699183751848
39,8.994796700004372,-0.07474513226217064,-0.12394097000352547,-0.057914454320593854,0.004552697340110838,-0.0037622489499059848,0.013559754301049502,0.0010998191142434837,0.03640685229389346,-0.024833449280781086,0.03085697287111339,0.10972411500831307,-0.13095167005052138
40,9.000785399999586,-0.07472281357582267,-0.12395896582649289,-0.05784831769300326,0.00455845615254842,-0.0035825602574934734,0.01343651357233832,0.0012514937745738736,0.03694687620287359,-0.025476452707153548,0.03105689317265025,0.11071845321950761,-0.13152813696777246
41,9.004451800006791,-0.07470046485428428,-0.12397607480105861,-0.05778279258859041,0.00456496047943376,-0.0034002138366455333,0.013310115593011946,0.0014041394517881145,0.03749176046126456,-0.026122267412592732,0.03125334964261564,0.11170805267029524,-0.1320992226893436
42,9.008555699998396,-0.07467808243332698,-0.12399228384760787,-0.057717894509734226,0.004572215036592372,-0.003215185931436865,0.013180546654068724,0.0015577391501099202,0.03804148125902308,-0.02677086679470324,0.03144633222129886,0.11269267123424037,-0.132664829442782
43,9.013627899999848,-0.07465566262582159,-0.12400757977042191,-0.05765363902566026,0.0045802244564623895,-0.003027452905502602,0.013047793178015816,0.0017122758253437836,0.03859601359947,-0.027422223768558233,0.03163583115877367,0.11367206629813333,-0.1332248580395145
44,9.020694300008472,-0.07463320172214727,-0.12402194925827793,-0.05759004177179059,0.004588993287856636,-0.0028369912478549476,0.012911841721251392,0.0018677323861758248,0.03915533129524329,-0.02807631075983315,0.03182183738358117,0.11464599451126171,-0.13377920794881087
45,9.02507859999605,-0.07461069599060192,-0.12403537888507768,-0.05752711844908197,0.004598525995738849,-0.0026437775787338026,0.012772678976477953,0.00202409169952111,0.03971940696511842,-0.028733099698520462,0.03200434263552189,0.1156142119918876,-0.13432777745989954
46,9.02954070000851,-0.07458814167781343,-0.1240478551105047,-0.05746488482335204,0.00460882696103815,-0.0024477886554545593,0.012630291775146107,0.002181336593125702,0.040288212031984585,-0.029392562013651927,0.03218333900844473,0.11657647431250621,-0.13487046391051472
47,9.03539119999914,-0.07456553500915182,-0.1240593642807103,-0.057403356724593554,0.0046199004804507665,-0.002249001378278561,0.012484667089919606,0.002339449856433861,0.0408617167195206,-0.03005466862925283,0.032358819097691505,0.11753253649988488,-0.13540716384935317
48,9.039556000003358,-0.0745428721891425,-0.12406989262902825,-0.05734255004627645,0.004631750766262996,-0.002047392796293466,0.012335792037158769,0.0024984142446348723,0.041439890050171534,-0.030719389960656127,0.03253077622136243,0.1184821533005096,-0.13593777314653663
49,9.044344199995976,-0.07452014940188016,-0.12407942627671842,-0.057282480744637695,0.0046443819461925865,-0.0018429401133035356,0.012183653879421634,0.002658212481698385,0.04202269984442565,-0.03138669591153907,0.03269920422858974,0.11942507935760087,-0.13646218707480207
50,9.050989700001082,-0.07449736281144351,-0.1240879512337392,-0.057223164837958904,0.004657798063241439,-0.0016356206937170826,0.012028240027976417,0.002818827262542551,0.04261011272052559,-0.03205655587103294,0.032864097529005244,0.12036106912264687,-0.13698030028003863
51,9.057784899996475,-0.07447450856231065,-0.12409545339954876,-0.057164618405831535,0.004672003075558237,-0.0014254120684395889,0.01186953804533099,0.00298024125635811,0.043202094092878444,-0.032728938710470945,0.03302545137297608,0.12128987663413116,-0.13749200666323486
52,9.06245559999661,-0.07445158277977519,-0.1241019185639353,-0.057106857588409714,0.004687000856323718,-0.0012122919407767337,0.011707535647777201,0.0031424371115225036,0.04379860816959873,-0.03340381277934119,0.03318326198443302,0.12221125551751781,-0.13799719927720822
53,9.067072100006044,-0.07442858157036271,-0.12410733240787612,-0.05704989858565052,0.004702795193661456,-0.0009962381923515871,0.011542220707960012,0.0033053974602255177,0.04439961795091831,-0.034081145901022646,0.03333752666409566,0.12312495911800375,-0.13849577013486464
54,9.070784399998956,-0.07440550102224773,-0.12411168050442581,-0.05699375765654163,0.0047193897905684614,-0.0007772288890232192,0.011373581257463601,0.0034691049243948807,0.045005085228030206,-0.0347609053668593,0.03348824396640192,0.12403073994003538,-0.1389876098331306
55,9.07485249999445,-0.0743823372056709,-0.12411494831963336,-0.05693845111831626,0.004736788264884024,-0.0005552422868152228,0.011201605489438562,0.003633542122055602,0.045614970576006435,-0.03544305792821111,0.033635413566851784,0.12492834921953297,-0.1394726073980122
56,9.079263000006904,-0.07435908617335626,-0.12411712121348847,-0.05688399534565505,0.004754994149282628,-0.0003302568379037192,0.011026281761265905,0.0037986916719556993,0.04622923334845012,-0.0361275697890099,0.033779035996477406,0.1258175376908936,-0.13995065032145493
57,9.083655499998711,-0.07433574396092849,-0.12411818444089728,-0.05683040676987494,0.004774010891288122,-0.00010225119659828398,0.010847598597257193,0.00396453619732366,0.04684783167792907,-0.0368144065981715,0.03391911262701939,0.12669805563126046,-0.14042162456139548
58,9.092265700004646,-0.07431230658733,-0.12411812315268729,-0.05677770187810457,0.004793841853303451,0.00012879577467429597,0.010665544691392899,0.004131058330348917,0.04747072247106165,-0.037503533442152175,0.03405564550880292,0.12756965253601252,-0.1408854145269631
59,9.098104200005764,-0.07428877005523796,-0.12411692239664175,-0.05672589721244631,0.004814490312668733,0.000362904999340944,0.010480108910095477,0.004298240714350686,0.04809786140577057,-0.038194914837215745,0.03418863694289528,0.1284320777677702,-0.141341902857271
60,9.10410039999988,-0.07426513035148079,-0.12411456711856365,-0.05667500936912452,0.00483595946171224,0.0006000971806716268,0.010291280295043493,0.004466066004066103,0.04872920293272821,-0.03888851471982241,0.03431808942203593,0.12928508074815856,-0.14179097027391852
61,9.108349700007238,-0.07424138344745465,-0.12411104216336902,-0.05662505499762,0.004858252407811298,0.0008403927957644392,0.010099048066038879,0.004634516867240244,0.049364700274489484,-0.039584296437450595,0.03444400543906323,0.13012841100205977,-0.14223249573580404
62,9.1122835999995,-0.0742175252995394,-0.1241063322762098,-0.05657605079979013,0.004881372173458851,0.0010838120895264394,0.00990340162391099,0.004803575983037072,0.050004305427370756,-0.04028222274050275,0.03456638710330916,0.13096181845260446,-0.14266635615883444
63,9.116411599999992,-0.07419355184951439,-0.1241004221036262,-0.05652801352897488,0.004905321696308786,0.0013303750686771455,0.009704330553463177,0.00497322603987059,0.05064796916347328,-0.04098225577038068,0.03468523639126865,0.13178505334743124,-0.14309242612111142
64,9.120825999998488,-0.07416945902497397,-0.12409329619472831,-0.05648095998908807,0.004930103829221249,0.001580101495749198,0.009501824626493693,0.005143449736272043,0.05129564103183956,-0.04168435704850252,0.03480055545648331,0.13259786609644544,-0.14351057796611125
65,9.125113800007966,-0.0741452427397429,-0.12408493900240716,-0.0564349070336938,0.004955721340316467,0.001833010883103187,0.00929587380484988,0.005314229781757561,0.051947269358887015,-0.04238848746538912,0.03491234655577448,0.13340000722754294,-0.1439206815369373
66,9.130190299998503,-0.07412089889429128,-0.1240753348845751,-0.05638987156506775,0.004982176913028562,0.0020891224869325643,0.009086468243556025,0.0054855488969725325,0.05260280124913047,-0.04309460726707699,0.03502061228520614,0.13419122760787108,-0.14432260407335687
67,9.13421269999526,-0.07409642337614941,-0.12406446810543556,-0.056345870533242984,0.005009473146160792,0.00234845530128555,0.008873598294000673,0.005657389816871405,0.05326218258778392,-0.04380267604319579,0.03512535581607536,0.1349712781635989,-0.14471621032979673
68,9.139204100007191,-0.07407181206032223,-0.12405232283678196,-0.056302920935040024,0.005037612553970523,0.002611028052095539,0.008657254507181314,0.005829735293174479,0.05392535803873711,-0.044512652714537485,0.035226580585199646,0.13573990912761602,-0.14510136264150209
69,9.143588599996292,-0.07404706080970334,-0.12403888315932601,-0.056261039813080824,0.005066597566248538,0.0028768591911831802,0.00843742763701351,0.006002568094512893,0.05459227103978565,-0.045224495521782086,0.03532429025068916,0.13649687001003846,-0.145477921050105
70,9.147468099996331,-0.07402216547548865,-0.12402413306405542,-0.05622024425478646,0.0050964305284054365,0.003145966890240044,0.008214108643686047,0.006175871008452044,0.0552628638003186,-0.04593816201429727,0.03541848892787403,0.1372419099965033,-0.14584574327407587
71,9.151547300003584,-0.07399712189758953,-0.1240080564536211,-0.0561805513913582,0.00512711370157077,0.0034183690348080433,0.007987288697079813,0.006349626843948376,0.055937077300451346,-0.04665360903857456,0.03550918098281719,0.13797477788911142,-0.1462046847233996
72,9.15609430000768,-0.07397192590504553,-0.12399063714375387,-0.056141978396741704,0.005158649262703511,0.0036940832182546022,0.007756959180236265,0.00652381843134947,0.05661485128813455,-0.04737079272717274,0.03559637073737188,0.13869522210645582,-0.14655459859557624
73,9.16013990000647,-0.07394657331643645,-0.12397185886471072,-0.056104542486574115,0.005191039304691191,0.003973126735723751,0.007523111692884651,0.006698428621960752,0.05729612427828729,-0.048089668488094754,0.03568006252816087,0.13940299118515828,-0.14689533600828567
74,9.163589700008744,-0.07392105994029403,-0.12395170526275079,-0.05606826091711368,0.005224285836456125,0.004255516578102797,0.007285738055014565,0.00687344028862351,0.05798083355482045,-0.048810190995031054,0.03576026067701905,0.1400978340305908,-0.1472267459404003
75,9.169181000004755,-0.07389538157551305,-0.12393015990164073,-0.05603315098415183,0.005258390783060213,0.004541269425993252,0.007044830310498772,0.0070488363249919745,0.05866891517222663,-0.0495323141761585,0.035836969195997,0.14077949948909874,-0.14754867504027838
76,9.178351700000349,-0.07386953401176195,-0.12390720626418977,-0.05599923002190734,0.0052933559858040794,0.004830401643693076,0.006800380730775524,0.00722459964322072,0.05936030395341186,-0.050255991202505214,0.03591019131543454,0.14144773574327701,-0.14786096724955972
77,9.19139439999708,-0.07384351302989296,-0.12388282775381407,-0.055966515401902284,0.005329183202309216,0.005122929273146361,0.006552381818585398,0.007400713168617436,0.06005493348535993,-0.050981174473063134,0.035979928908646194,0.14210229009071804,-0.14816346291080765
78,9.197220000001836,-0.07381731440235195,-0.123857007696131,-0.05593502453181958,0.005365874106564723,0.005418868027883092,0.006300826311799483,0.007577159831692935,0.060752736114796084,-0.051707815594408825,0.03604618222635557,0.14274290832445669,-0.14845599828815198
79,9.206204100002653,-0.07379093389358805,-0.12382972934058298,-0.05590477485434148,0.005403430288931552,0.0057182332869263365,0.006045707187355915,0.007753922560211698,0.061453642937780474,-0.0524358653611189,0.03610895014754613,0.14336933399550392,-0.14873840600974997
80,9.211985900008584,-0.07376436726046351,-0.12380097586209138,-0.05587578384596848,0.005441853256111354,0.006021040088630038,0.00578701766527997,0.007930984273699919,0.06215758378814555,-0.05316527373972642,0.03616823035641698,0.14398130847180818,-0.1490105156061829
81,9.217333799999324,-0.07373761025266358,-0.12377073036274075,-0.055848069015818465,0.005481144431096905,0.006327303124472902,0.005524751212777805,0.008108327877230004,0.06286448722766728,-0.05389598985441197,0.036224019283403755,0.1445785714102806,-0.14927215402674165
82,9.222124699997948,-0.07371065861310688,-0.1237389758734936,-0.05582164790440549,0.005521305153080049,0.0066370367327998805,0.005258901548396763,0.008285936255350694,0.06357428053912782,-0.05462796197601904,0.036276312105160795,0.1451608613320726,-0.14952314617044396
83,9.227698500006229,-0.0736835080783562,-0.12370569535593587,-0.05579653808239814,0.00556233667734265,0.006950254892548081,0.004989462646226745,0.008463792265871389,0.06428688972212375,-0.055361137512948404,0.03632510265602345,0.14572791571104135,-0.14976331527684927
84,9.23388500000874,-0.0736561543790299,-0.12367087170405323,-0.055772757149357165,0.005604240175103626,0.007266971216947178,0.004716428740149746,0.008641878732924702,0.0650022394869956,-0.056095463004003046,0.03637038354609435,0.14627947125403046,-0.14999248336126023
85,9.238105700002052,-0.07362859324021423,-0.1236344877460383,-0.0557503227324522,0.005647016733341921,0.007587198947185835,0.004439794328111337,0.008820178441907895,0.06572025325338253,-0.05683088411354699,0.03641214608743927,0.14681526475640905,-0.15021047119260802
86,9.24237130000256,-0.07360082038187644,-0.12359652624612896,-0.055729252485157546,0.0056906673545939765,0.007910950946097957,0.004159554176417634,0.008998674131822239,0.06644085315253509,-0.057567345624133515,0.03645038020560469,0.14733503270378315,-0.15041709815324064
87,9.246764399998938,-0.07357283151927914,-0.12355696990647747,-0.055709564085926755,0.005735192956701632,0.008238239691851773,0.0038757033240790187,0.00917734848934742,0.06716396002196715,-0.05830479143029009,0.036485075014859945,0.14783851037219706,-0.1506121826151461
88,9.25061210000422,-0.07354462236339583,-0.1235158013690506,-0.05569127523684588,0.005780594372551536,0.008569077271583686,0.0035882370871680065,0.009356184146817595,0.0678894933989517,-0.059043164534833124,0.0365162190099324,0.14832543191672834,-0.15079554214642057
89,9.258091700001389,-0.07351618862132782,-0.12347300321756118,-0.05567440366226536,0.0058268723498032145,0.008903475375023617,0.0032971510631990783,0.009535163678174564,0.06861737151604094,-0.059782407044676036,0.03654379993332365,0.14879553041563887,-0.15096699345224487
90,9.26330429999507,-0.07348752599672245,-0.12342855797943063,-0.05565896710741032,0.0058740275505888275,0.009241445288084963,0.003002441135527625,0.009714269595643688,0.0693475112949947,-0.06052246016656565,0.03656780502600612,0.14924853776715383,-0.15112635244129946
91,9.268513200004236,-0.07345863019019293,-0.12338244812778333,-0.055644983336969385,0.005922060551208666,0.009582997886430446,0.002704103477771556,0.009893484348143588,0.07007982834128902,-0.06126326420354105,0.03658822110120015,0.1496841846452797,-0.151273434513377
92,9.274110400001518,-0.07342949689973954,-0.12333465608347227,-0.05563247013366165,0.0059709718418153234,0.009928143629008256,0.002402134558244945,0.010072790318684983,0.07081423693761174,-0.062004758553488235,0.036605034441129725,0.15010220064719726,-0.15140805480276906
93,9.278982799994992,-0.07340012182117259,-0.12328516421713666,-0.055621445296782014,0.006020761826083706,0.010276892551554171,0.002096531144393798,0.010252169821768728,0.07155065003981531,-0.06274688170798387,0.03661823082645409,0.15050231480961673,-0.1515300282814941
94,9.28313409999828,-0.07337050064853683,-0.1232339548512913,-0.055611926640724736,0.006071430820869708,0.010629254260088043,0.0017872903072410323,0.010431605101073042,0.07228897927547201,-0.06348957125186146,0.03662779558061232,0.1508842560069334,-0.1516391700100756
95,9.286856499995338,-0.07334062907453774,-0.1231810102624479,-0.055603931993485185,0.0061229790558575605,0.010985237924401753,0.0014744094258264935,0.010611078327286071,0.07302913494372826,-0.0642327638645124,0.036633713643573165,0.15124775305459154,-0.1517352953735735
96,9.29168500000378,-0.07331050279096947,-0.12312631268326832,-0.05559747919513988,0.006175406673197266,0.011344852271554276,0.001157886191639185,0.010790571596515773,0.07377102601487265,-0.06497639532176502,0.03663596968973063,0.15159253472382792,-0.15181822031015998
97,9.300988300004974,-0.07328011748914459,-0.12306984430474954,-0.05559258609630484,0.006228713727136367,0.011708105579355406,0.000837718613038876,0.01097006692927772,0.07451456013033474,-0.06572040049942537,0.03663454790671935,0.15191832996275204,-0.1518877615987755
98,9.306233499999507,-0.07324946886032568,-0.12301158727844079,-0.055589270556572264,0.0062829001836474645,0.012075005669860797,0.0005139050196536313,0.011149546266737637,0.07525964360441939,-0.06646471337797494,0.036629431464464075,0.15222486771957822,-0.15194373713201637
99,9.312075599998934,-0.07321855259615875,-0.1229515237186923,-0.055587550442925814,0.006337965920023165,0.012445559902872695,0.00018644406675539051,0.011328991464496526,0.07600618142257347,-0.06720926704878544,0.03662060269208187,0.15251187636725577,-0.15198596624800317
100,9.316108600003645,-0.07318736438910876,-0.12288963570493602,-0.05558744362813442,0.006393910724442702,0.012819775169417992,-0.0001446652604034012,0.011508384290566637,0.07675407723748223,-0.06795399372206842,0.03660804363841752,0.15277908390991932,-0.1520142695976433
101,9.320578900005785,-0.07315589993289731,-0.12282590528399841,-0.05558896798912505,0.006450734295547049,0.013197657885210701,-0.00047942364229211005,0.011687706424649159,0.07750323336935899,-0.06869882473178943,0.03659173588034372,0.1530262187499993,-0.1520284687094809
102,9.325489599999855,-0.07312415492294232,-0.1227603144724451,-0.055592141405334417,0.006508436241998464,0.013579213984132855,-0.0008178314208134357,0.01186693945423177,0.07825355080955829,-0.06944369053935359,0.03657166044895944,0.1532530100274056,-0.15202838606345623
103,9.336179300007643,-0.07309212505680002,-0.12269284525895761,-0.055596981757039726,0.006567016082017364,0.013964448911732383,-0.0011598885950418433,0.012046064873143162,0.07900492922418911,-0.07018852073924259,0.036547798168849295,0.1534591877671442,-0.15201384523841352
104,9.34422210000048,-0.0730598060346092,-0.12262347960674175,-0.055603506923668625,0.006626473242927705,0.014353367618739416,-0.0015055948169903199,0.01222506408097492,0.07975726695917458,-0.07093324406414564,0.036520129348317006,0.15364448352822851,-0.1519846708973406
105,9.349981100007426,-0.07302719355953763,-0.12255219945596778,-0.05561173478208846,0.006686807060688189,0.014745974554613744,-0.0018549493873990844,0.012403918378600708,0.08051046105022369,-0.0716777883904518,0.036488632997674915,0.15380863131814623,-0.15194068904550323
106,9.354991000000156,-0.07299428333823091,-0.12247898672624215,-0.05562168320487497,0.006748016779393741,0.015142273661158827,-0.002207951251556163,0.012582608959938324,0.08126440723685167,-0.0724220807459104,0.03645328660796057,0.15395136774048326,-0.15188172744345882
107,9.360415500006638,-0.07296107108126378,-0.12240382331911018,-0.05563337005856059,0.006810101550725995,0.01554226836620664,-0.002564598995161161,0.012761116905300572,0.0820189999737983,-0.07316604731917035,0.03641406663764175,0.15407243180317565,-0.15180761565130518
108,9.36633580000489,-0.07292755250359433,-0.12232669112058966,-0.055646813201862606,0.006873060433389611,0.015945961577343567,-0.0029248908402393116,0.012939423177926445,0.08277413244316932,-0.07390961346787418,0.036370948601206515,0.1541715652577386,-0.15171818468941353
109,9.37047550000716,-0.07289372332502086,-0.12224757200373507,-0.055662030483891435,0.006936892392528777,0.01635335567571422,-0.003288824641084561,0.013117508618200071,0.08352969656917882,-0.07465270372487293,0.03632390702486449,0.15424851284989152,-0.1516132668540465
110,9.374928500008537,-0.07285957927064184,-0.12216644783123182,-0.055679039742339016,0.007001596299106877,0.01676445250989179,-0.0036563978802345155,0.013295353939747822,0.08428558303274646,-0.07539524180451344,0.03627291585955585,0.1543030223786324,-0.15149269572478088
111,9.379183700002612,-0.07282511607131875,-0.12208330045802057,-0.05569785880164765,0.007067170929284748,0.0171792533898249,-0.004027607664475134,0.013472939727704256,0.08504168128681872,-0.07613715060892605,0.03621794855469199,0.15433484465220562,-0.15135630609807885
112,9.38344629999483,-0.07279032946414221,-0.12199811173395084,-0.05571850547115924,0.007133614963783359,0.01759775908085808,-0.004402450720877285,0.01365024643553179,0.08579787957053467,-0.0768783522336609,0.03615897804344019,0.1543437334436723,-0.1512039337512656
113,9.387309800004005,-0.07275521519290108,-0.12191086350646381,-0.0557409975432453,0.007200926987230899,0.018019969797817444,-0.004780923392856674,0.013827254383142458,0.08655406492411184,-0.07761876797166287,0.036095976978758305,0.1543294456824626,-0.1510354153614706
114,9.39706240000669,-0.07271976900855491,-0.12182153762330396,-0.05576535279141761,0.007269105487507059,0.018445885199177014,-0.005163021636249343,0.014003943756030432,0.087310123204889,-0.0783583183181137,0.0360289174825179,0.15429174182343544,-0.15085058879322463
115,9.403939299998456,-0.07268398666970953,-0.12173011593525902,-0.05579158896841971,0.007338148855081615,0.018875504381301596,-0.005548741015419049,0.014180294600935494,0.08806593910582833,-0.07909692297722497,0.03595777067356904,0.15423038625975796,-0.15064929343771957
116,9.40817120000429,-0.07264786394309596,-0.12163658029892802,-0.05581972380429945,0.007408055382316216,0.01930882587279442,-0.005938076699399328,0.014356286820351156,0.08882139617560396,-0.07983450087040454,0.035882506800567995,0.15414514732300302,-0.15043137039714655
117,9.413912300005904,-0.07261139660405283,-0.1215409125795166,-0.0558497750044627,0.00747882326274916,0.019745847628936837,-0.006331023458080888,0.014531900169489681,0.0895763768371051,-0.08057097014485588,0.03580309533037029,0.15403579726833797,-0.1501966625953889
118,9.42336040000373,-0.07257458043701233,-0.12144309465365959,-0.0558817602477085,0.007550450590367434,0.020186567026217288,-0.006727575658437945,0.014707114251656356,0.09033076240737944,-0.08130624818282914,0.0357195048005043,0.15390211256938283,-0.14994501503614263
119,9.428801800007932,-0.07253741123598974,-0.1213431084122699,-0.05591569718424583,0.007622935358846169,0.02063098085696641,-0.00712772726080626,0.01488190851376892,0.09108443311902552,-0.08204025161274972,0.035631702966787804,0.1537438740070505,-0.14967627508311737
120,9.435835099997348,-0.07249988480507681,-0.12124093576341367,-0.055951603433692244,0.007696275460776775,0.021079085324095626,-0.007531471815218521,0.015056262243178315,0.09183726814100664,-0.08277289632121504,0.03553965703930905,0.1535608665068451,-0.14939029247482677
121,9.441398299997672,-0.07246199695893892,-0.12113655863521075,-0.05598949658305477,0.0077704686868752424,0.021530876035936206,-0.007938802457799937,0.015230154565500437,0.09258914559844901,-0.083504097464268,0.03544333413958272,0.15335287881467116,-0.14908691921398592
122,9.4463412000041,-0.07242374352331614,-0.12102995897876034,-0.05602939418469323,0.007845512725189031,0.02198634800117185,-0.008349711907214086,0.015403564445916468,0.09333994259027896,-0.08423376947830996,0.03534270159561993,0.1531197036003138,-0.14876600964125536
123,9.450143299996853,-0.07238512033552821,-0.12092111877109123,-0.056071313754266265,0.007921405160318112,0.02244549562385058,-0.008764192461165441,0.015576470689895967,0.09408953521003503,-0.08496182609209685,0.035237726912541845,0.15286113773708185,-0.14842742057526942
124,9.45390910000424,-0.07234612324498325,-0.12081002001813623,-0.056115272768660435,0.007998143472628946,0.022908312698521255,-0.009182235992962768,0.01574885194420924,0.09483779856624538,-0.08568818033902421,0.03512837809691734,0.15257698178581836,-0.1480710112906189
125,9.4584307000041,-0.07230674811369038,-0.12069664475773012,-0.05616128866390255,0.008075725037485439,0.023374792405445127,-0.009603833948142028,0.015920686700828558,0.09558460679818381,-0.0864127445689076,0.03501462402550871,0.15226703981820186,-0.14769664343673256
126,9.462243800007856,-0.072266990816776,-0.12058097506263099,-0.05620937883305566,0.008154147124501153,0.023844927305886755,-0.010028977341145209,0.016091953301553795,0.0963298330945157,-0.08713543045947275,0.034896434312695894,0.1519311195343666,-0.1473041811337234
127,9.467059800008428,-0.07222684724300374,-0.1204629930435643,-0.05625956062409889,0.008233406896815587,0.024318709337508276,-0.010457656752055823,0.016262629940614556,0.0970733497102066,-0.08785614902907514,0.034773779000603654,0.1515690324251764,-0.146893491156714
128,9.471176599996395,-0.07218631329529784,-0.12034268085228939,-0.056311851337791395,0.008313501410371883,0.024796129809825984,-0.01088986232340237,0.016432694666259434,0.09781502798675826,-0.08857481064999635,0.03464662855907307,0.15118059433302075,-0.14646444300963696
129,9.479554599995026,-0.07214538489127018,-0.12022002068468804,-0.05636626822552088,0.008394427613208681,0.025277179399802906,-0.011325583757024119,0.016602125383357865,0.0985547383746123,-0.08929132506188678,0.034514954018506835,0.15076562551046738,-0.14601690904326592
130,9.483639300000505,-0.07210405796375054,-0.1200949947838742,-0.05642282848713687,0.008476182344763319,0.025761848147524906,-0.011764810311006305,0.016770899856291103,0.09929235045396104,-0.09000560138621855,0.034378727073033806,0.15032395090068837,-0.14555076447729803
131,9.487539099995049,-0.07206232846132052,-0.11996758544332486,-0.05648154926876917,0.00855876233519202,0.026250125451997175,-0.012207530796687524,0.016938995712564964,0.10002773295989896,-0.0907175481399446,0.03423792006579995,0.1498554003147382,-0.14506588716440846
132,9.492639799995231,-0.07202019234885047,-0.11983777501003103,-0.05654244766063185,0.008642164204708485,0.0267420000670668,-0.012653733575728774,0.017106390445556674,0.10076075380497064,-0.09142707324763967,0.03409250598902357,0.14935980829832626,-0.14456215756796514
133,9.502526399999624,-0.07197764560803985,-0.1197055458876685,-0.05660554069481293,0.008726384462931006,0.027237460097440186,-0.013103406557239818,0.017273061418128153,0.10149128010301679,-0.09213408405494093,0.033942458557583155,0.14883701460379575,-0.1440394590055516
134,9.506624400004512,-0.07193468423796055,-0.11957088053978791,-0.05667084534305024,0.008811419508256459,0.0277364929948393,-0.013556537194979925,0.017438985866093933,0.10221917819634697,-0.09283848734307525,0.03378775212066805,0.14828686450037692,-0.14349767768597832
135,9.51236140000401,-0.07189130425560343,-0.11943376149302316,-0.056738378514493676,0.008897265627241392,0.028239085554285344,-0.014013112484626587,0.017604140900968727,0.10294431368262577,-0.0935401893426625,0.033628361853578446,0.14770920877402993,-0.14293670288596869
136,9.516396000006353,-0.07184750169642769,-0.11929417134031783,-0.05680815705345429,0.008983918994002955,0.02874522391051845,-0.01447311896111151,0.017768503515314758,0.10366655144204395,-0.09423909574997413,0.03346426390502388,0.14710390380084173,-0.1423564273042671
137,9.521089000001666,-0.07180327261491323,-0.11915209274416877,-0.056880197737140446,0.009071375669652377,0.029254893534547605,-0.014936542696048652,0.01793205058693267,0.10438575566492386,-0.0949351117442063,0.03329543498418662,0.14647081153249944,-0.14175674695115537
138,9.531006400007756,-0.07175861308511566,-0.11900750843988625,-0.0569545172733817,0.009159631601736959,0.02976807923034084,-0.015403369295239465,0.018094758880162584,0.10510178987874823,-0.09562814200265579,0.03312185233136228,0.1458097994522399,-0.14113756098616334
139,9.537765800007037,-0.07171351920122407,-0.11886040123887003,-0.05703113229834053,0.009248682623686307,0.03028476513164001,-0.01587358389624964,0.018256605049787315,0.10581451697533391,-0.09631809071640302,0.032943494130897887,0.14512074069268374,-0.14049877161469376
140,9.5428724999947,-0.07166798707812144,-0.11871075403190069,-0.05711005937421244,0.00933852445429257,0.030804934698917246,-0.016347171166068028,0.018417565646379724,0.10652379923901534,-0.0970048616044749,0.03276033968803068,0.1444035138291131,-0.13984028368970491
141,9.546824400007608,-0.07162201285194758,-0.11855854979244555,-0.05719131498691476,0.009429152697209066,0.03132857071646591,-0.016824115298822155,0.018577617121938752,0.10722949837179264,-0.09768835792562484,0.03257236947333185,0.1436580024815313,-0.1391620044908344
142,9.550283500007936,-0.07157559268066441,-0.1184037715799785,-0.05727491554376439,0.009520562840485752,0.03185565528960345,-0.01730440001355258,0.018736735835672258,0.10793147551761575,-0.09836848249033134,0.032379564945707325,0.14288409500488827,-0.13846384360602823
143,9.55380760000844,-0.07152872274462342,-0.11824640254331328,-0.05736087737114478,0.009612750256124512,0.03238616984200033,-0.017788008552045983,0.01889489805789868,0.10862959128449709,-0.099045137671418,0.032181908611257436,0.14208168414945388,-0.1377457126365155
144,9.558470500007388,-0.07148139924713538,-0.11808642592394956,-0.05744921671216241,0.009705710199652858,0.03292009511309956,-0.01827492367671358,0.019052079976406622,0.10932370576546774,-0.09971822541316128,0.031979384436396946,0.14125066748907503,-0.13700752522664206
145,9.56243849999737,-0.07143361841504194,-0.11792382505943147,-0.057539949724293014,0.009799437809741537,0.03345741115565096,-0.01876512766851346,0.0192082577044046,0.11001367856488656,-0.10038764724220287,0.03177197796579454,0.1403909481291922,-0.13624919738080304
146,9.566522099994472,-0.07138537649928904,-0.11775858338671781,-0.0576330924770177,0.009893928107856128,0.03399809733338848,-0.01925860232493593,0.019363407288036295,0.11069936882633406,-0.10105330427976295,0.03155967645516448,0.13950243501595558,-0.13547064758130786
147,9.57473019999452,-0.07133666977550202,-0.11759068444556339,-0.057728660949449416,0.009989175997948291,0.03454213231883783,-0.01975532895804552,0.019517504715631493,0.1113806352619505,-0.10171509725370752,0.03134246906306863,0.13858504321680862,-0.1346717969138736
148,9.583442899995134,-0.07128749454456199,-0.11742011188191072,-0.057826671027949895,0.01008517626619801,0.03508949409128124,-0.020255288392584586,0.019670525927100772,0.11205733618307909,-0.10237292651199136,0.03112034670330467,0.13763869368489523,-0.133852569119476
149,9.587345399995684,-0.07123784713318346,-0.11724684945129124,-0.05792713850373754,0.010181923580796897,0.035640159934865356,-0.02075846096414703,0.019822446821740024,0.11272932952729561,-0.1030266920352334,0.03089330182367981,0.13666331300813975,-0.13301289054246582
150,9.59184439999808,-0.07118772389449289,-0.1170708810222356,-0.05803007907048647,0.010279412491766919,0.0361941064368309,-0.02126482651740512,0.019973243265457387,0.11339647288659294,-0.10367629344965133,0.03066132849457464,0.13565883348246432,-0.13215269020420806
151,9.595615300000643,-0.07113712120860805,-0.11689219057969225,-0.05813550832191702,0.010377637430814508,0.036751309485896694,-0.02177436440440997,0.020122891099445588,0.114058623535128,-0.10432163004035852,0.030424422497414613,0.13462519264016515,-0.1312718996853143
152,9.59993920000852,-0.07108603548321799,-0.11671076222845347,-0.058243441749378164,0.010476592711234266,0.03731174427076122,-0.022287053482948654,0.02027136614827579,0.11471563845278501,-0.10496260076314462,0.03018258113289306,0.13356233292564543,-0.13037045307409062
153,9.604095500006224,-0.07103446315416337,-0.11652658019658875,-0.05835389473942188,0.010576272527842394,0.03787538527871755,-0.022802872114960102,0.02041864422669075,0.11536737434974505,-0.10559910425726739,0.029935803397988122,0.13247020169491247,-0.12944828708436565
154,9.612374100004672,-0.0709824006860171,-0.11633962883888434,-0.05846688257137007,0.010676670956946955,0.03844220629439564,-0.02332179816501757,0.020564701149433217,0.11601368769004428,-0.10623103885838783,0.02968409008919811,0.13134875102420795,-0.12850534116601967
155,9.616804000004777,-0.07092984457266494,-0.11614989264028891,-0.058582420414874055,0.01077778195637761,0.03901218039860812,-0.023843808998871296,0.020709512739050678,0.11665443471426835,-0.1068583026124451,0.029427443537085055,0.13019793768045884,-0.1275415577484617
156,9.620924600007127,-0.0708767913378858,-0.11595735621936451,-0.05870052332746721,0.010879599365532356,0.03958527996731496,-0.02436888148206691,0.020853054833122598,0.11728947146282115,-0.10748079329097739,0.029165867856988117,0.1290177232390688,-0.12655688260966114
157,9.628884100005962,-0.07082323753593195,-0.1157620043317423,-0.05882120625211094,0.01098211690547809,0.04016147667069724,-0.024896991978638223,0.020995303294521855,0.11791865379977332,-0.10809840840861291,0.028899368860531245,0.127808074187183,-0.12555126516344592
158,9.632594900002005,-0.07076917975210835,-0.1155638218735826,-0.058944484014734455,0.011085328179097888,0.040740741472355554,-0.025428116349897032,0.021136234017774865,0.1185418374371429,-0.10871104524120602,0.028627953347600914,0.12656896195347386,-0.12452465840039427
159,9.639731600007508,-0.07071461460335134,-0.1153627938850385,-0.05907037132176895,0.011189226671253888,0.04132304462862166,-0.025962229953303616,0.021275822932385245,0.11915887795903579,-0.10931860084274891,0.028351629165369336,0.1253003631737178,-0.12347701897682496
160,9.64367879999918,-0.07065953873880641,-0.11515890555372263,-0.05919888275767628,0.011293805748967146,0.04190835568799343,-0.026499307641422255,0.021414046009772297,0.11976963084852864,-0.1099209720643798,0.028070405709830364,0.12400225976371353,-0.12240830736189856
161,9.64962640000158,-0.07060394884040516,-0.11495214221817629,-0.05933003278247289,0.011399058661648503,0.04249664349070995,-0.027039323760977986,0.021550879271509116,0.12037395151252382,-0.11051805557273603,0.027784293645404506,0.12267463887577988,-0.1213184877270192
162,9.655087100007222,-0.07054784162344077,-0.11474248937134043,-0.05946383572924929,0.011504978541359167,0.04308787616843002,-0.02758225215199196,0.021686298793513546,0.12097169530820612,-0.1111097478678785,0.027493304713336882,0.12131749365149545,-0.12020752801975838
163,9.659953599999426,-0.0704912138371424,-0.11452993266402793,-0.05960030580168549,0.01161155840308264,0.04368202114406645,-0.028128066147013832,0.021820280712408817,0.1215627175752736,-0.11169594530236918,0.027197451938220065,0.11993082335322225,-0.11907539989740627
164,9.664461899999878,-0.07043406226524801,-0.11431445790839614,-0.059739457071562925,0.011718791145047631,0.044279045131780416,-0.028676738570444064,0.02195280123173817,0.12214687366368306,-0.11227654409854436,0.026896749613072576,0.11851463268594986,-0.11792207850579499
165,9.675103200002924,-0.07037638372657562,-0.11409605108141928,-0.059881303476273295,0.011826669549060885,0.04487891413708766,-0.029228241737935565,0.022083836628179292,0.12272401895923583,-0.11285144036542495,0.026591213550196058,0.1170689318719473,-0.11674754260428623
166,9.67907080000441,-0.07031817507559285,-0.1138746983283599,-0.06002585881632462,0.01193518628089098,0.045481593457103495,-0.029782547455881693,0.022213363260217032,0.12329400891205472,-0.11342053011721445,0.026280860904264944,0.11559373679746336,-0.11555177483172062
167,9.683607500002836,-0.07025943320298438,-0.11365038596623891,-0.06017313675284503,0.012044333890686139,0.04608704768092808,-0.030339627020999158,0.022341357572624326,0.12385669906360725,-0.1139837092928152,0.02596570987718595,0.11408906874685677,-0.1143347620458518
168,9.688106400004472,-0.07020015503621745,-0.11342310048730327,-0.06032315080508477,0.012154104813401942,0.04669524069015621,-0.030899451220007257,0.0224677961022429,0.12441194507257741,-0.11454087377765244,0.025645779939326433,0.11255495444783606,-0.11309649558803249
169,9.691887900000438,-0.07014033754010511,-0.11319282856249094,-0.06047591434791682,0.012264491369275779,0.047306135659516114,-0.03146199032942463,0.02259265548463196,0.12495960274233227,-0.11509191942578414,0.02532109163787801,0.11099142642484693,-0.11183697106991371
170,9.69614499999443,-0.07007997771736708,-0.11295955704489243,-0.06063144060933692,0.012375485764319707,0.047919695057648384,-0.032027214115465136,0.022715912457971086,0.1254995280502564,-0.11563674207963498,0.02499166644934207,0.10939852311715689,-0.1105561882116029
171,9.700424199996633,-0.07001907260918816,-0.11272327297320806,-0.06078974266796319,0.01248708009083315,0.048535880648032194,-0.03259509183402799,0.022837543868263463,0.12603157717637564,-0.11617523759052031,0.024657526971181367,0.10777628879076304,-0.10925415091436552
172,9.704108400008408,-0.06995761929577404,-0.11248396357520041,-0.06095083345053602,0.01259926632794674,0.04915465349004473,-0.03316559223079475,0.02295752667511673,0.1265556065318283,-0.11670730183909254,0.024318697039889484,0.10612477383238074,-0.10793086719482069
173,9.708335200004512,-0.06989561489690443,-0.11224161627114125,-0.06111472572941865,0.012712036342191669,0.049775973940166376,-0.03373868354141979,0.02307583795810314,0.1270714727903696,-0.1172328307552203,0.02397520179001441,0.1044440349274991,-0.10658634915586085
174,9.714572299999418,-0.06983305657248329,-0.11199621867725215,-0.061281432120098955,0.012825381888105841,0.050399801653348876,-0.03431433349182208,0.023192454923118788,0.12757903291858774,-0.11775172033814982,0.02362706766886511,0.10273413461775419,-0.1052206131482005
175,9.718290200005868,-0.06976994152308595,-0.111747758609138,-0.061450965078692854,0.012939294608865542,0.05102609558451658,-0.03489250929857323,0.023307354908887863,0.12807814420307106,-0.11826386667796714,0.023274322628346555,0.10099514121160046,-0.10383367999180347
176,9.724132300005294,-0.06970626699050324,-0.11149622408521294,-0.061623336899449904,0.01305376603695533,0.051654813990200804,-0.03547317766939958,0.02342051539520163,0.12856866427974875,-0.11876916597792919,0.022916995947811825,0.09922712887363225,-0.10242557499077799
177,9.72862750000786,-0.069642030258282,-0.11124160333011782,-0.06179855971226164,0.013168787594880433,0.0522859144303286,-0.03605630480378903,0.02353191400768686,0.12905045116193328,-0.11926751457607196,0.0225551180128362,0.0974301772409917,-0.1009963280293419
178,9.73304819999612,-0.06957722865226222,-0.11098388477812862,-0.061976645480173106,0.01328435059588336,0.05291935377013189,-0.036641856393704896,0.023641528523877037,0.1295233632659024,-0.1197588089684819,0.022188720816931885,0.09560437143774392,-0.09954597391841606
179,9.737686599997687,-0.06951185954111057,-0.11072305707655526,-0.06215760599689819,0.013400446244715796,0.05355508818218691,-0.03722979762442075,0.023749336882897015,0.12998725943908246,-0.1202429458343003,0.02181783791708655,0.09374980236980748,-0.09807455247628546
180,9.74186579999514,-0.06944592033684992,-0.11045910908912995,-0.06234145288433932,0.013517065638450112,0.0541930731485995,-0.037820093175479304,0.02385531719109855,0.13044199898852024,-0.1207198220597851,0.021442504064984002,0.09186656665188615,-0.09658210821935292
181,9.745809000000008,-0.06937940849538496,-0.11019202989938462,-0.06252819759011224,0.013634199767306473,0.05483326346332355,-0.03841270722176302,0.023959447728131352,0.1308874417083504,-0.12118933476028498,0.02106275544320612,0.08995476671045452,-0.09506869032536132
182,9.749874400004046,-0.06931232151702361,-0.10992180881401656,-0.06271785138507617,0.013751839515523846,0.05547561323461543,-0.03900760343466831,0.02406170695489312,0.13132344790927647,-0.12165138130394085,0.02067862950277842,0.08801451121078734,-0.09353435306050067
183,9.754185600002527,-0.06924465694699411,-0.10964843536624179,-0.06291042536087005,0.013869975662265003,0.05612007588764131,-0.03960474498340841,0.02416207351800874,0.13174987845022257,-0.12210585933784501,0.020290164491243864,0.08604591492499679,-0.0919791558539071
184,9.75801330000104,-0.06917641237595752,-0.10937189931913517,-0.06310593042745552,0.013988598882531423,0.05676660416724175,-0.04020409453644387,0.024260526253155997,0.1321665947665214,-0.12255266681247269,0.01989739958548953,0.0840490987470676,-0.09040316314250851
185,9.762039399996866,-0.06910758544051589,-0.10909219066895666,-0.06330437731066718,0.014107699748100881,0.05741515014081523,-0.040805614263024884,0.024357044190846323,0.13257345890171326,-0.12299170200632088,0.01950037495059101,0.08202419038502987,-0.08880644447393392
186,9.76644419999502,-0.06903817382371556,-0.10880929964846317,-0.06350577654977066,0.014227268728498997,0.05806566520139431,-0.041409265834863165,0.02445160656032712,0.13297033354251653,-0.12342286355134822,0.019099131651484018,0.07997132418463282,-0.08718907453621128
187,9.772262800004684,-0.06896817525554581,-0.1085232167302047,-0.06371013849502925,0.01434729619197506,0.05871810007087186,-0.04201501042792356,0.024544192794496975,0.13335708204889885,-0.1238460504579049,0.01869371205103226,0.07789064083464382,-0.08555113309909412
188,9.776308600004995,-0.06889758751343261,-0.10823393262980455,-0.06391747330527957,0.01446777240652174,0.05937240480337185,-0.042622808724340246,0.024634782537708594,0.13373356848615991,-0.12426116213959752,0.01828415989862636,0.07578228771999625,-0.08389270490348597
189,9.781455600008483,-0.06882640842272723,-0.10794143830922245,-0.06412779094551693,0.014588687540927377,0.06002852878878998,-0.04323262091445194,0.02472335565155217,0.13409965765846313,-0.1246680984371356,0.01787052024185826,0.0736464188342269,-0.08221387989659981
190,9.78688699999475,-0.06875463585718974,-0.10764572498000011,-0.06434110118449098,0.014710031665852356,0.06068642075649304,-0.04384440669895178,0.024809892221792824,0.1344552151400603,-0.12506675964550065,0.017452839765399505,0.07148319430661615,-0.08051475355709364
191,9.791991100006271,-0.06868226773946705,-0.107346784106488,-0.06455741359231211,0.014831794754949378,0.061346028779165465,-0.044458125291188796,0.02489437256747459,0.13480010730418993,-0.1254570465409786,0.017031167027262616,0.06929278034358251,-0.07879542668881272
192,9.795531399999163,-0.0686093020415654,-0.10704460740905329,-0.06477673753806966,0.014953966686029043,0.06200730027679191,-0.04507373541958263,0.024976777250172926,0.13513420135372753,-0.1258388604063079,0.01660555235560431,0.06707534955381098,-0.0770560054645199
193,9.799238100007642,-0.06853573678531703,-0.10673918686726762,-0.064999082187462,0.015076537242270786,0.06267018202080413,-0.04569119533017143,0.025057087082087492,0.13545736535326985,-0.1262121030581403,0.01617604765672795,0.0648310809467348,-0.0752966015293035
194,9.803807799995411,-0.0684615700428408,-0.10643051472307433,-0.06522445650043968,0.015199496113467756,0.06333462013837791,-0.04631046278929568,0.02513528313341332,0.1357694682597704,-0.1265766768732023,0.015742706548054333,0.0625601600368299,-0.07351733195635264
195,9.80817040000693,-0.0683867999369966,-0.10611858348393417,-0.0654528692288618,0.015322832897309981,0.0640005601168802,-0.04693149508640244,0.025211346741736543,0.13607037995564547,-0.12693248481532263,0.01530558449078902,0.060262779463945704,-0.07171831961595193
196,9.81255489999603,-0.06831142464183347,-0.10580338592594898,-0.06568432891416667,0.01544653710072132,0.06466794680849038,-0.047554249036993984,0.02528525952070555,0.13635997128548824,-0.12727943046520937,0.014864738524410987,0.057939139065217825,-0.06989969324891523
197,9.816806100003303,-0.06823544238303088,-0.10548491509696208,-0.06591884388505709,0.015570598141227587,0.06533672443500715,-0.04817868098572385,0.025357003366825014,0.13663811408987947,-0.12761741804819696,0.014420227310899309,0.05558944563947378,-0.06806158730419287
198,9.820880400002352,-0.06815885143833342,-0.10516316431963481,-0.06615642225520126,0.01569500534836008,0.0660068365928012,-0.04880474680961737,0.025426560468560427,0.13690468123979305,-0.12794635246243205,0.013972111326531363,0.0532139134061369,-0.06620414232282631
199,9.825124299997697,-0.06808165013797837,-0.10483812719449848,-0.0663970719209497,0.015819747965112915,0.06667822625795909,-0.049432401921443866,0.025493913315011513,0.13715954667490338,-0.1282661393103829,0.013520452729164145,0.05081276431308744,-0.06432750507056531
200,9.829019500000868,-0.0680038368651161,-0.10450979760298046,-0.06664080055906918,0.015944815149431555,0.06735083579161137,-0.05006160127324598,0.025559044703716276,0.1374025854410076,-0.1285766849283246,0.013065315608949456,0.048386228037087496,-0.06243182822798984
201,9.837251899996772,-0.06792541005622303,-0.1041781697104039,-0.06688761562449423,0.016070195975746604,0.06802460694544317,-0.05069229936000077,0.025621937751781128,0.1376336737283372,-0.12887789641481218,0.01260676647509135,0.04593454205880101,-0.06051727043443458
202,9.842807599998196,-0.06784636820150701,-0.10384323796895988,-0.06713752434809693,0.016195879436571393,0.06869948086739765,-0.051324450223428034,0.025682575908454575,0.13785268890971525,-0.12916968166059611,0.012144874270446481,0.043457951749809653,-0.0585839963036783
203,9.851082399996812,-0.06776670984530464,-0.10350499712065116,-0.06739053373447572,0.016321854444158998,0.06937539810756055,-0.05195800745594457,0.02574094296640041,0.13805950957972066,-0.12945194937724916,0.011679710327619273,0.04095671037259586,-0.05663217620201659
204,9.856224400005884,-0.0676864335864704,-0.10316344220020673,-0.06764665055976397,0.016448109832210275,0.07005229862424739,-0.05259292420475297,0.025797023073841185,0.13825401559284536,-0.12972460912490738,0.011211348442495212,0.03843107893414253,-0.05466198621839831
205,9.859963299997617,-0.06760553807875726,-0.10281856853796595,-0.06790588136945887,0.016574634357649876,0.0707301217902619,-0.053229153176067745,0.025850800746551942,0.13843608810122396,-0.1299875713406042,0.010739864711892293,0.0358813265983039,-0.05267360831295306
206,9.86457920000248,-0.06752402203118835,-0.10247037176273166,-0.06816823247627135,0.01670141670245181,0.07140880639935294,-0.05386664663948174,0.02590226087841286,0.1386056095968316,-0.13024074736746694,0.010265337297749645,0.03330773139356011,-0.050667230360275366
207,9.86918290000176,-0.06744188420841972,-0.10211884780459113,-0.0684337099579978,0.01682844547551885,0.07208829067288641,-0.05450535643247835,0.025951388751092323,0.13876246395614883,-0.1304840494834749,0.009787846250000861,0.03071058033214287,-0.048643046194433846
208,9.874812900001416,-0.06735912343109363,-0.1017639928977038,-0.06870231965541422,0.016955709214602998,0.07276851226673982,-0.05514523396507973,0.025998170042863936,0.13890653648352674,-0.13071739093109697,0.009307473491976472,0.028090169275475238,-0.04660125587406371
209,9.87872170000628,-0.06727573857618241,-0.10140580358305462,-0.06897406717019343,0.01708319638827127,0.07344940827839914,-0.05578623022464944,0.026042590838146553,0.1390377139545333,-0.13094068594864738,0.008824302628385867,0.02544680353989219,-0.044542065829506323
210,9.88349950000702,-0.06719172857732254,-0.1010442767111723,-0.06924895786284632,0.017210895397919646,0.07413091525427815,-0.056428295780847876,0.026084637634439748,0.1391558846652538,-0.13115384980136502,0.008338418783331318,0.022780798591306,-0.0424656892325898
211,9.887374300000374,-0.06710709242513879,-0.10067940944481091,-0.06952699685068763,0.017338794579806818,0.0748129691972983,-0.05707138079073947,0.026124297350276573,0.13926093848244414,-0.13135679881639256,0.007849908983798146,0.020092479998653313,-0.04037234660057924
212,9.891592800006038,-0.06702182916755832,-0.10031119926159382,-0.06980818900582719,0.017466882207146064,0.07549550557469953,-0.057715435004090904,0.026161557335916772,0.13935276689237508,-0.13154945041977384,0.007358862439543034,0.017382183242392258,-0.038262265707721926
213,9.895847899999351,-0.06693593791011435,-0.09993964395661882,-0.07009253895318768,0.017595146492243783,0.0761784593260988,-0.05836040776884077,0.026196405384042113,0.13943126304910897,-0.13173172317056622,0.006865370779557602,0.014650253597996892,-0.036135681364172584
214,9.904469800007064,-0.0668494178162393,-0.09956474164502309,-0.07038005106854943,0.01772357558869616,0.0768617648717739,-0.05900624803673211,0.02622882974276666,0.13949632182220248,-0.13190353679567168,0.006369528243686389,0.01189704618003734,-0.033992835726097945
215,9.908292699998128,-0.06676226810754698,-0.0991864907645071,-0.07067072947662335,0.017852157593655195,0.07754535612118942,-0.05965290436912334,0.026258819128209727,0.13954783984541522,-0.13206481222698785,0.005871431770899312,0.009122925867046442,-0.03183397823634901
216,9.913134899994477,-0.06667448806410346,-0.09880489007781608,-0.07096457804915275,0.017980880550148563,0.07822916648175783,-0.06030032494298485,0.026286362738371122,0.13958571556367624,-0.13221547163565772,0.0053711813684371,0.006328267493439044,-0.029659365328669376
217,9.91756929999974,-0.06658607702468652,-0.09841993867517806,-0.07126160040304494,0.018109732449481608,0.07891312886782574,-0.06094845755704553,0.02631145026932128,0.13960984928367326,-0.13235543846632233,0.004868880155821659,0.003513456308129839,-0.027469260664943835
218,9.924589000002015,-0.06649703438703307,-0.0980316359766973,-0.07156179989853331,0.01823870123371584,0.07959717570993063,-0.061597249638124976,0.026334071929507756,0.13962014322531305,-0.1324846374736952,0.00436463401067215,0.0006788878706100101,-0.0252639350468115
219,9.928826000003028,-0.06640735960807423,-0.09763998173470158,-0.07186517963737102,0.018367774798211126,0.08028123896429136,-0.06224664824763844,0.02635421845247478,0.13961650157129232,-0.13260299475594894,0.0038585514953536795,-0.0021750316248563225,-0.0230436662370397
220,9.933337099995695,-0.06631705220415787,-0.09724497603604267,-0.07217174246105676,0.01849694099422881,0.08096525012255065,-0.06289660008825616,0.02637188111045099,0.1395988305217349,-0.13271043778953934,0.003350743709297106,-0.005047884744491615,-0.02080873931484444
221,9.937676800007466,-0.06622611175125821,-0.09684661930434817,-0.07248149094909372,0.018626187631607057,0.08164914022180098,-0.06354705151074957,0.026387051725621908,0.13956703834968834,-0.1328068954660737,0.0028413236988982173,-0.007939242903468204,-0.018559446868268565
222,9.941946999999344,-0.0661345378851721,-0.0964449123022237,-0.07279442741728244,0.018755502481474434,0.08233283985487085,-0.06419794852101188,0.026399722677935392,0.13952103545489417,-0.13289229812902,0.0023304064723684275,-0.010848666615520931,-0.0162960890654515
223,9.946169500006365,-0.06604233030170202,-0.09603985613340398,-0.07311055391604857,0.01888487327900172,0.08301627918087756,-0.06484923678726395,0.02640988691651962,0.13946073441683868,-0.13296657761127367,0.0018181092210180238,-0.013775705627073951,-0.014018973612631073
224,9.950522200000703,-0.06594948875682546,-0.09563145224485158,-0.07342987222880631,0.019014287726227392,0.08369938793603336,-0.06550086164744306,0.02641753796965686,0.13938605004720894,-0.1330296672714551,0.0013045508470952108,-0.01671989887329658,-0.011728415547891509
225,9.955981899998733,-0.06585601306685021,-0.09521970242880214,-0.07375238387035861,0.01914373349490715,0.08438209544471216,-0.06615276811676443,0.02642266995157484,0.1392968994433741,-0.13308150202945537,0.0007898521262083026,-0.01968077465386574,-0.009424737283082333
226,9.959878800000295,-0.06576190310855576,-0.09480460882475468,-0.07407809008533467,0.01927319822940595,0.08506433063077976,-0.06680490089545824,0.02642527757401206,0.1391932020391191,-0.1331220184031447,0.00027413620882727494,-0.022657851075681856,-0.007108268650215493
227,9.964509199999156,-0.06566715881932031,-0.09438617392140579,-0.07440699184666594,0.019402669549660873,0.0857460220291577,-0.0674572043766909,0.02642535615792329,0.13907487965378806,-0.13315115454437262,-0.0002424714980190155,-0.025650636185973127,-0.004779346679308625
228,9.968518499998028,-0.06557178019723314,-0.09396440055852662,-0.0747390898541013,0.019532135054187837,0.08642709779763504,-0.06810962265465483,0.026422901643885634,0.1389418565417136,-0.13316885027349967,-0.000759843286044163,-0.02865862800236302,-0.002438315347466632
229,9.972502200005692,-0.06547576730119214,-0.09353929192878133,-0.07507438453276227,0.01966158232314644,0.08710748572891655,-0.0687620995328281,0.026417910604242034,0.13879405944106551,-0.13317504711293884,-0.0012778490130942316,-0.031681314555947665,-8.552525514410812e-05
230,9.976255999994464,-0.06537912025098615,-0.09311085157948604,-0.07541287603173917,0.019790998921465672,0.08778711326291315,-0.06941457853239284,0.026410380254806756,0.13863141762285824,-0.13316968831851497,-0.001796356103363737,-0.03471817387727472,0.0022786665369074503
231,9.983549600001425,-0.06528183922736183,-0.09267908341430683,-0.07575456422272878,0.019920372402023444,0.0884659074992703,-0.07006700290080221,0.026400308467006767,0.13845386293993675,-0.13315271891140856,-0.0023152295325442438,-0.03776867387840179,0.004653896373946212
232,9.988238799996909,-0.06518392447207491,-0.09224399169489596,-0.07609944869871445,0.020049690308891283,0.08914379521013846,-0.0707193156205118,0.026387693779732758,0.13826132987713968,-0.13312408571082515,-0.002834332225948538,-0.040832272351873804,0.0070397940969921255
233,9.994158000001336,-0.06508537628792524,-0.09180558104246467,-0.07644752877268936,0.02017894018062998,0.08982070285319302,-0.07137145941786668,0.026372535407579372,0.13805375560029534,-0.13308373736505968,-0.0033535255452330067,-0.04390841692839348,0.00943598326367502
234,10.001954200008186,-0.0649861950387757,-0.09136385643929186,-0.07679880347642368,0.020308109553615027,0.09049655658488484,-0.07202337677213728,0.026354833247926937,0.13783108000679958,-0.13303162438200183,-0.0038726693329136086,-0.04699654480970353,0.011842080925788947
235,10.01042530000268,-0.06488638114955474,-0.09091882323016709,-0.07715327155927636,0.02043718596540167,0.09117128227395582,-0.07267500992470531,0.02633458788874549,0.13759324577722923,-0.13296769916238008,-0.004391621986043983,-0.05009608279808199,0.014257697158556702
236,10.01535960000183,-0.06478593510624225,-0.09047048712376675,-0.07751093148705232,0.0205661569581268,0.09184480551519517,-0.07332630088842536,0.02631180061495455,0.13734019842563094,-0.13289191603487965,-0.004910240588790382,-0.05320644726801107,0.016682435237964328
237,10.021489899998414,-0.06468485745583882,-0.0900188541939623,-0.07787178144090598,0.020695010081936333,0.09251705164344771,-0.07397719145715498,0.026286473414928065,0.13707188635141226,-0.13280423128764898,-0.00542838086824038,-0.05632704466654957,0.01911589256881994
238,10.03373609999835,-0.064583148806318,-0.08956393088105918,-0.07823581931629181,0.020823732898450846,0.0931879457478787,-0.074627623215425,0.026258608987287217,0.13678826088472743,-0.13270460319432376,-0.005945897165060507,-0.059457272620490935,0.02155766170287063
239,10.041819999998552,-0.06448080982656158,-0.08910572399296528,-0.07860304272196263,0.020952312984259508,0.09385741268642679,-0.07527753754822461,0.026228210747692878,0.13648927632751956,-0.13259299203555702,-0.006462642182584203,-0.06259651995051178,0.02400733092922437
240,10.045859300007578,-0.06437784124627766,-0.08864424070628818,-0.07897344897901604,0.021080737934452278,0.09452537710047103,-0.07592687565088263,0.026195282838097054,0.1361748899987679,-0.13246936011925786,-0.006978466986848629,-0.0657441668628363,0.026464484303831234
241,10.050179500001832,-0.06427424385590126,-0.08817948856735995,-0.07934703511998954,0.02120899536620449,0.09519176342972722,-0.07657557853905092,0.026159830133534987,0.13584506227365187,-0.1323336718018326,-0.007493221449159051,-0.0688995856727794,0.028928701221805436
242,10.054217400000198,-0.06417001850647734,-0.08771147549318843,-0.07972379788800482,0.021337072922375612,0.09585649592729865,-0.0772235870587938,0.02612185824703999,0.13549975662170846,-0.13218589351261414,-0.008006754349291299,-0.07206214006616277,0.031399555634489276
243,10.058497100006209,-0.0640651661095261,-0.0872402097723345,-0.08010373373596169,0.021464958275141974,0.09651949867494637,-0.07787084189681082,0.026081373535424297,0.13513893965323356,-0.13202599378277516,-0.008518913581957608,-0.07523118453953817,0.03387661544614589
244,10.063186800005496,-0.06395968763689039,-0.08676570006571377,-0.08048683882578256,0.021592639129652185,0.09718069559859456,-0.07851728359080949,0.02603838310217077,0.13476258116292444,-0.13185394327566902,-0.009029546466582205,-0.0784060647989564,0.036359442336616296
245,10.069204100000206,-0.06385358412056522,-0.0862879554073219,-0.08087310902770803,0.0217201032276882,0.0978400104840285,-0.07916285254002539,0.02599289480017833,0.13437065417237365,-0.13166971481748066,-0.009538499821233996,-0.08158611768466684,0.03884759199678059
246,10.074045000001206,-0.06374685665250927,-0.08580698520488247,-0.08126253991964444,0.021847338351347622,0.09849736699281632,-0.07980748901589521,0.025944917233929204,0.13396313497444934,-0.13147328342526043,-0.010045620316301688,-0.08477067145223646,0.04134061482230839
247,10.078991300004418,-0.06363950638443838,-0.08532279924041632,-0.08165512678656404,0.021974332326726024,0.0991526886784418,-0.08045113317285155,0.025894459758768768,0.13354000317303455,-0.13126462633077696,-0.010550754814008296,-0.08795904620080569,0.043838056075417214
248,10.08262050000485,-0.06353153452760091,-0.08483540767073126,-0.08205086461995834,0.022101073027592184,0.09980589900261558,-0.08109372505922971,0.025841532479745962,0.13310124172321114,-0.13104372300696593,-0.011053750029115452,-0.09115055337054613,0.04633945550226601
249,10.087076900003012,-0.0634229423525352,-0.08434482102783165,-0.0824497481173451,0.022227548379059044,0.10045692135180166,-0.08173520462832166,0.025786146254217813,0.13264683697592336,-0.13081055519553209,-0.011554452027203042,-0.09434449572921737,0.048844347523891565
250,10.091832100006286,-0.06331373118880906,-0.08385105021924617,-0.08285177168183003,0.022353746361284472,0.10110567905396628,-0.0823755117495533,0.025728312695606118,0.13217677871829353,-0.13056510693152706,-0.01205270637256644,-0.0975401681822813,0.05135226169353474
251,10.096454500002435,-0.06320390242474089,-0.08335410652827321,-0.08325692942172334,0.022479655013179025,0.1017520953954995,-0.08301458621977924,0.025668044174552748,0.13169106021034746,-0.1303073645664701,-0.012548358290132034,-0.10073685821518187,0.053862723198584886
252,10.099956799997017,-0.06309345750710281,-0.08285400161414291,-0.08366521515021207,0.02260526243611804,0.10239609363832386,-0.0836523677746866,0.025605353821089756,0.1311896782209963,-0.13003731678800745,-0.013041252665565222,-0.10393384620439282,0.056375253346965214
253,10.104804400005378,-0.0629823979408055,-0.08235074751209487,-0.08407662238508835,0.02273055679767065,0.10303759703716864,-0.08428879610028248,0.02554025552579362,0.13067263306171412,-0.12975495463826708,-0.01353123426648213,-0.10713040569694482,0.05888936941984594
254,10.108542900008617,-0.06287072528856473,-0.0818443566333709,-0.08449114434853437,0.0228555263353232,0.10367652885700845,-0.0849238108444776,0.025472763939787733,0.13013992861978063,-0.12946027153496134,-0.014018147772042659,-0.11032580361710521,0.06140458403726401
255,10.112280900008043,-0.06275844117054971,-0.08133484176512192,-0.08490877396696413,0.02298015936020828,0.10431281239066326,-0.08555735162878053,0.025402894475606688,0.12959157238993363,-0.1291532632959578,-0.014501837765653142,-0.11351930023603854,0.06392040461251207
256,10.116509800005588,-0.06264554726401311,-0.08082221607022817,-0.08532950387092292,0.023104444260836597,0.10494637097654712,-0.08618935806012211,0.025330663307270265,0.12902757550790903,-0.12883392816572828,-0.014982148963221894,-0.11671014873038796,0.06643633326340037
257,10.12079139999696,-0.06253204530290282,-0.08030649308703225,-0.08575332639504504,0.023228369506826756,0.10557712801659686,-0.08681976974280882,0.025256087368911072,0.12844795278641857,-0.1285022668407892,-0.015458926582375474,-0.11989759558074962,0.0689518675350749
258,10.12488580000354,-0.06241793707745543,-0.07978768672898365,-0.08618023357807038,0.023351923652623674,0.10620500699437337,-0.08744852629059653,0.025179184351230673,0.1278527227447854,-0.12815828248906783,-0.015932016607755128,-0.12308088149975412,0.07146650144730662
259,10.128301899996586,-0.06230322443377155,-0.07926581128419435,-0.08661021716292039,0.02347509534119363,0.10682993149328064,-0.08807556733883362,0.025099972697527638,0.12724190763582763,-0.12780198076508054,-0.01640126565070651,-0.12625924103429179,0.07397972511120525
260,10.13194609999482,-0.062187909273373095,-0.07874088141490494,-0.0870432685968337,0.023597873307703767,0.10745182521493053,-0.08870083255668344,0.025018471601528536,0.1266155334793916,-0.12743336983305473,-0.01686652041117597,-0.12943190107578798,0.07649102292959394
261,10.135314700004528,-0.06207199355274254,-0.07821291215686017,-0.08747937903156187,0.023720246383195885,0.10807061199769034,-0.08932426165949402,0.02493470100868876,0.12597363010383308,-0.12705246039974125,-0.017327626888510635,-0.1325980796514585,0.07899987241687914
262,10.13944349999656,-0.0619554792828442,-0.07768191891859336,-0.08791853932362619,0.02384220349827869,0.10868621583545407,-0.08994579442134203,0.024848681621756744,0.12531623119139465,-0.12665926574910022,-0.01778443041097921,-0.13575698612954615,0.08150574508376296
263,10.143142700006138,-0.06183836852862733,-0.07714791748061801,-0.08836074003463631,0.023963733686856104,0.10929856089663463,-0.09056537068774238,0.024760434901785502,0.12464337431767585,-0.12625380176644432,-0.01823677746461615,-0.1389078233581564,0.08400810904854929
264,10.147482500004116,-0.06172066340851084,-0.07661092399452614,-0.08880597143167167,0.02408482608982944,0.10990757154332187,-0.0911829303884288,0.02466998305577637,0.12395510097605261,-0.12583608694753695,-0.01868451778793545,-0.14204979100040557,0.08650643176598086
265,10.151872800008276,-0.061602366093850135,-0.07607095498199214,-0.0892542234877253,0.024205469958704623,0.11051317235051407,-0.0917984135501525,0.02457734901716487,0.1232514565844669,-0.12540614239599615,-0.019127505102017422,-0.14518208758322262,0.0890001820768978
266,10.156667799994466,-0.0614834788083865,-0.07552802733368263,-0.08970548588221064,0.02432565465910315,0.11111528812534248,-0.09241176030943737,0.02448255642631046,0.12253249048977034,-0.12496399181230859,-0.019565597081057255,-0.14830391076271213,0.09148883054861648
267,10.16400980000617,-0.061364003827679495,-0.07498215830807205,-0.09015974800153041,0.024445369674178142,0.1117138439263454,-0.09302291092527101,0.02438562961127101,0.12179825597191361,-0.1245096614878982,-0.019998655381924794,-0.15141445816592525,0.09397184858863368
268,10.16837349999696,-0.061243943478522904,-0.07443336553016353,-0.09061699893970772,0.02456460460793691,0.11230876508273374,-0.09363180579180175,0.02428659356800287,0.12104881024004176,-0.12404318030282477,-0.020426545865122752,-0.15451292809850517,0.09644870834158002
269,10.171899900000426,-0.06112330013834456,-0.07388166699011574,-0.09107722749907936,0.024683349188462995,0.11289997721362688,-0.09423838545100716,0.024185473938970237,0.12028421442974947,-0.12356457972086231,-0.020849138624739128,-0.15759851926457938,0.09891888248426377
270,10.176986799997394,-0.061002076234590724,-0.07332708104177534,-0.09154042219105106,0.02480159327102913,0.1134874062472913,-0.09484259060534285,0.024082296993051745,0.11950453360192116,-0.123073893789206,-0.02126630772991241,-0.16067043067743952,0.10138184363409042
271,10.180770999999368,-0.060880274244095395,-0.07276962640111521,-0.09200657123691475,0.02491932684112239,0.11407097844036507,-0.09544436213040812,0.023977089606683124,0.11870983674086144,-0.12257115913934731,-0.021677931446186356,-0.16372786201408138,0.10383706499773744
272,10.185876899995492,-0.06075789669243505,-0.0722093221445786,-0.09247566256872787,0.025036540017372367,0.1146506203970782,-0.0960436410876033,0.023869879241594803,0.11790019674966112,-0.12205641498042473,-0.022083893135532266,-0.16677001469315378,0.10628402209820259
273,10.19103489999543,-0.060634946153269295,-0.071646187707329,-0.0929476838302547,0.02515322305435819,0.11522625908843169,-0.09664036873673025,0.02376069391713543,0.11707569043776513,-0.12152970308317587,-0.022484082399154625,-0.16979609290506134,0.10872219450013303
274,10.197894400000225,-0.060511425247668046,-0.07108024288140631,-0.09342262237796914,0.025269366345265495,0.11579782187129607,-0.09723448654849248,0.023649562176811335,0.11623639850624468,-0.12099106775638203,-0.022878395630880316,-0.17280530377586567,0.11115106665072516
275,10.202645700002904,-0.06038733664342617,-0.07051150781378965,-0.09390046528211848,0.025384960424365565,0.11636523650744614,-0.09782593621686482,0.023536513055187513,0.11538240553375918,-0.12044055582258052,-0.02326673539746405,-0.17579685748581178,0.11357012730403908
276,10.207160000005388,-0.0602626830543664,-0.06994000300436697,-0.09438119932784746,0.02549999596934798,0.11692843118252193,-0.09841465967135553,0.023421576050499344,0.11451379996066703,-0.11987821660015022,-0.02364900933982958,-0.17876996664767036,0.1159788681636713
277,10.211079300002892,-0.06013746723963106,-0.06936574930381205,-0.09486481101638213,0.025614463803531388,0.11748733452490777,-0.09900059908920045,0.023304781102320093,0.11363067408107895,-0.11930410189232409,-0.024025128867516822,-0.18172384366824904,0.11837678128805726
278,10.2148237000074,-0.06001169200296336,-0.06878876791136916,-0.09535128656627341,0.025728354897977306,0.11804187562461539,-0.09958369690751745,0.023186158576965495,0.11273312405282283,-0.11871826599469967,-0.02439500773544301,-0.18465769835879398,0.12076335581500074
279,10.218687400003546,-0.05988536019197841,-0.068209080372545,-0.09584061191470011,0.025841660373557885,0.11859198405226061,-0.10016389583557417,0.023065739259107276,0.11182124991291231,-0.1181207657163473,-0.024758562066014973,-0.18757073881895742,0.12313807806415113
280,10.222808399994392,-0.059758474697424235,-0.0676267085767074,-0.09633277271883263,0.02595437150298754,0.11913758987809801,-0.10074113886714929,0.02294355433696107,0.11089515557884976,-0.11751166038631641,-0.02511571269414461,-0.19046217614273178,0.12550043544755973
281,10.227170700003626,-0.05963103845243289,-0.06704167475459076,-0.0968277543572571,0.026066479712745564,0.11967862369101041,-0.10131536929286404,0.02281963537092161,0.10995494881798232,-0.11689101183642499,-0.025466388398013764,-0.19333123170506464,0.12784992135121911
282,10.232965000002878,-0.05950305443176261,-0.0664540014757087,-0.09732554193145997,0.02617797658480042,0.12021501661724326,-0.10188653071237483,0.022694014247093,0.10900074117740485,-0.11625888435993266,-0.025810527882713912,-0.1961771426930742,0.13018603892477307
283,10.23739180000848,-0.05937452565103209,-0.06586371164567587,-0.09782612026737159,0.026288853858077006,0.12074670033870724,-0.10245456704629978,0.022566723126486624,0.10803264789911668,-0.11561534465719553,-0.026148079817102945,-0.19899916257911743,0.1325083014376612
284,10.24139500000456,-0.059245455165948195,-0.06527082850344129,-0.09832947391696766,0.026399103429683164,0.1212736071108813,-0.10301942254787887,0.02243779439819027,0.10705078784528899,-0.11496046179084947,-0.026479002037415177,-0.20179655880345979,0.13481622932770185
285,10.245797800002038,-0.05911584607152825,-0.06467537561843477,-0.09883558715992709,0.026508717355918043,0.12179566978038295,-0.10358104181446129,0.0223072606363697,0.10605528343612866,-0.1142943071603853,-0.026803260603119654,-0.20456861025197923,0.1371093471032617
286,10.251890700004878,-0.05898570150131788,-0.06407737688762799,-0.09934444400534599,0.02661768785307727,0.12231282180226248,-0.10413936979891647,0.022175154562689234,0.10504626059986118,-0.11361695448768712,-0.02712082858755462,-0.20731460528875342,0.13938718173689815
287,10.256017399995471,-0.05885502462660537,-0.06347685653251152,-0.09985602819350736,0.026726007298093095,0.12282499725708312,-0.10469435182097973,0.022041509015163656,0.1040238487298727,-0.11292847980734785,-0.02743168525913737,-0.2100338414522463,0.1416492619708539
288,10.26074700000754,-0.05872381865563329,-0.06287383909598854,-0.10037032319770624,0.02683366822903434,0.12333213086779529,-0.1052459335785684,0.021906356918601953,0.10298818063767001,-0.11222896145901291,-0.027735816324868854,-0.21272562715880383,0.14389511870037436
289,10.26694739999948,-0.0585920868328079,-0.06226834943918647,-0.10088731222613027,0.026940663345456934,0.12383415801635583,-0.10579406115905245,0.02176973125107317,0.10193939249333035,-0.11151848007393969,-0.02803321474142812,-0.2153892844911742,0.14612428618404263
290,10.271059200007585,-0.05845983243790737,-0.0616604127381879,-0.10140697822379534,0.027046985508575254,0.12433101476001875,-0.1063386810504389,0.0216316650064024,0.10087762375113721,-0.11079711855548138,-0.02832388115777952,-0.21802415136697212,0.14833630306203377
291,10.274840800004313,-0.05832705878528952,-0.06105005448068253,-0.10192930387453568,0.027152627741245175,0.12482263784722575,-0.10687974015245123,0.021492191156299616,0.09980301706878184,-0.11006496205566882,-0.02860782367932557,-0.22062958171486874,0.15053071234007537
292,10.279134700002032,-0.05819376922310016,-0.06043730046254241,-0.10245427160304808,0.027257583227764327,0.12530896473310527,-0.10741718578748435,0.02135134261516668,0.09871571823127255,-0.10932209795585145,-0.028885057174244614,-0.2232049440516402,0.1527070602389348
293,10.2859063000069,-0.05805996713248283,-0.05982217678432206,-0.1029818635769894,0.02736184531351028,0.1257899335946174,-0.10795096571149426,0.02120915220902323,0.0976158760840795,-0.10856861585455281,-0.02915560240374994,-0.2257496201103829,0.15486489541393586
294,10.291001000005052,-0.05792565592679066,-0.059204709847685236,-0.10351206170912737,0.02746540750443632,0.12626548334539783,-0.10848102812483401,0.02106565264883612,0.09650364247048578,-0.10780460755575934,-0.029419485579159965,-0.22826300562187046,0.15700376923434453
295,10.2977777000051,-0.05779083905080106,-0.05858492635175961,-0.10404484765954439,0.027568263466448296,0.12673555365028888,-0.10900732168302867,0.020920876503785477,0.09537917215707585,-0.10703016705403817,-0.029676738656859977,-0.2307445132515151,0.15912323669755524
296,10.301621399994474,-0.05765551997993371,-0.05796285328942119,-0.10458020283789388,0.02767040702463843,0.12720008493945328,-0.1095297955074654,0.020774856171703868,0.09424262274230798,-0.10624539051386803,-0.029927399796117644,-0.23319357484645764,0.16122285763943023
297,10.306389999997918,-0.05751970221947272,-0.05733851794351068,-0.10511810840570877,0.02777183216237251,0.1276590184220094,-0.11004839919596594,0.020627623847856325,0.09309415455998382,-0.10545037624289715,-0.03017151367554235,-0.23560964100817852,0.16330219711760832
298,10.310412899998482,-0.05738338930379355,-0.05671194788298427,-0.10565854527876156,0.027872533020217777,0.12811229609919914,-0.11056308283321462,0.020479211492278583,0.09193393059200879,-0.10464522466751819,-0.030409131301613816,-0.23799217852814672,0.16536082409839956
299,10.314201200002572,-0.057246584795595745,-0.05608317095900099,-0.1062014941294749,0.027972503894710066,0.1285598607771682,-0.11107379700109145,0.020329650800433294,0.0907621163969892,-0.10383003831899305,-0.030640309301035482,-0.24034066798882747,0.16739831036510833
300,10.3185639000003,-0.05710929228514189,-0.05545221530094828,-0.1067469353893829,0.028071739236994173,0.1290016560794344,-0.11158049278896427,0.020178973177482355,0.08957888004649987,-0.10300492181972488,-0.03086510975780672,-0.242654603704707,0.1694142314920575
301,10.32518379999965,-0.05697151538950364,-0.05481910931240713,-0.10729484925164265,0.02817023365133889,0.12943762645904353,-0.1120831218038873,0.020027209710539617,0.08838439205425921,-0.10216998185983862,-0.03108360092892696,-0.24493349603196357,0.17140816883614723
302,10.330295699997803,-0.05683325775181529,-0.05418388166705857,-0.10784521567359538,0.028267981893505472,0.12986771721034351,-0.11258163618066373,0.01987439113593018,0.08717882528976476,-0.10132532716393813,-0.031295858151752155,-0.24717687485554352,0.17337971167452776
303,10.337774700004957,-0.05669452304053575,-0.05354656130453343,-0.1083980143793766,0.02836497886894187,0.13029187448029406,-0.11307598859171862,0.01972054780255208,0.08596235487329908,-0.10047106844674011,-0.031501963917274924,-0.249384292665729,0.175328459727754
304,10.342265800005409,-0.05655531494871983,-0.052907177426208,-0.10895322486257403,0.02846121963079217,0.130710045279212,-0.11356613225672672,0.019565709638417535,0.0847351580594187,-0.09960731835510733,-0.031702006948783064,-0.25155532506748407,0.1772540248563498
305,10.346810800008823,-0.056415637193299686,-0.052265759490948506,-0.10951082638893203,0.028556699377762982,0.13112217749093932,-0.11405202095191735,0.019409906123042685,0.083497414126969,-0.09873419140705825,-0.0318960814492272,-0.253689568454019,0.17915603020428403
306,10.35088050000195,-0.05627549351437705,-0.05162233721080713,-0.11007079799910077,0.028651413451862326,0.1315282198825107,-0.11453360901910463,0.019253166261363714,0.08224930428536939,-0.09785180394219314,-0.03208428662165262,-0.25578663647693733,0.1810341084446005
307,10.35443999999552,-0.05613488767452683,-0.05097694054667178,-0.11063311851142911,0.028745357336010424,0.13192812211340327,-0.11501085137450653,0.01909551856082579,0.08099101159921658,-0.09696027407789448,-0.03226672600607194,-0.25784615690635065,0.18288790053959217
308,10.359108000004198,-0.05599382345811272,-0.050329599703871436,-0.11119776652480017,0.028838526651554102,0.1323218347444654,-0.11548370351734599,0.01893699101179705,0.07972272092533685,-0.09605972167190184,-0.03244350737564998,-0.25986777006296413,0.18471705460548457
309,10.363148300006287,-0.05585230467061518,-0.04968034512773844,-0.1117647204215085,0.02893091715568565,0.1327093092465496,-0.11595212153830321,0.018777611065674788,0.07844461885275297,-0.095150268289637,-0.032614743223536365,-0.2618511285977979,0.18652122614946073
310,10.36838080000598,-0.055710335137972335,-0.049029207499129264,-0.11233395837017854,0.02902252473874269,0.13309049800885311,-0.11641606212779658,0.018617405610529075,0.07715689364189501,-0.09423203716445636,-0.03278055121316728,-0.26379589899969164,0.18830007988156272
311,10.374615900000208,-0.055567918705934416,-0.04837621772990507,-0.11290545832872283,0.029113345421388378,0.13346535434695503,-0.11687548258404552,0.01845640094479653,0.07585973514979548,-0.09330515314722149,-0.032941055158718695,-0.2657017657151493,0.19005329269574012
312,10.382754599995678,-0.05542505923943228,-0.04772140695837372,-0.1134791980473395,0.029203375351653505,0.133833832510424,-0.11733034082085726,0.018294622743316665,0.07455333472893055,-0.0923697426373409,-0.033096386573877715,-0.2675684357873402,0.1917805573436436
313,10.387769299995853,-0.055281760621960836,-0.047064806544695775,-0.11405515507154686,0.029292610801783886,0.1341958876898641,-0.11778059537501397,0.018132096015849558,0.07323788510695864,-0.09142593349634182,-0.033246685321167375,-0.26939564100476365,0.19348158445321037
314,10.39169160000165,-0.05513802675497847,-0.046406448066257475,-0.11463330674525318,0.02938104816487599,0.13455147602334408,-0.1182262054132126,0.017968845066749593,0.07191358026450723,-0.09047385495913221,-0.03339209855719891,-0.27118313632813135,0.19515610099586486
315,10.395871500004432,-0.05499386155732342,-0.04574636331301375,-0.11521363021385934,0.029468683951329185,0.13490055460224573,-0.11866713073858258,0.017804893463818396,0.07058061533032611,-0.08951363756259219,-0.03353277864536468,-0.2729306958109924,0.19680384640762327
316,10.400352500000736,-0.05484926896464798,-0.04508458428280389,-0.11579610242739245,0.02955551478517615,0.13524308147666572,-0.11910333179692587,0.017640264018431683,0.06923918649904726,-0.08854541309484451,-0.033668881238285014,-0.2746381092910357,0.19842456981516823
317,10.404354400001466,-0.05470425292887082,-0.0444211431766416,-0.11638070014366964,0.029641537400340402,0.13557901566045813,-0.11953476968273755,0.01747497877318192,0.06788949095875926,-0.08756931455102718,-0.03380056395050458,-0.27630518114274216,0.20001802882608574
318,10.40940849999606,-0.05455881741764787,-0.043756072393981285,-0.11696739993149068,0.029726748636845615,0.1359083171359266,-0.11996140614501258,0.017309058995011155,0.06653172682098976,-0.08658547609441815,-0.03392798503086155,-0.2779317299513141,0.2015839892792555
319,10.41304549999768,-0.054412966413861785,-0.04308940452796213,-0.11755617817385869,0.02981114543700585,0.1362309468581808,-0.1203832035928854,0.01714252517586287,0.06516609305147499,-0.0855940330146538,-0.034051301850394226,-0.27951758939261373,0.20312222694097357
320,10.420484600006604,-0.054266703915130145,-0.04242117236063167,-0.11814701107122802,0.02989472484164127,0.13654686675915015,-0.12080012510102729,0.01697539704063152,0.0637927893915198,-0.08459512167223371,-0.03417066981109945,-0.28106261073968547,0.2046325297748811
321,10.424717999994757,-0.05412003393333203,-0.04175140885815057,-0.11873987464477781,0.02997748398634627,0.13685603975116975,-0.12121213441474218,0.01680769355850723,0.0624120162642064,-0.08358887943449647,-0.034286241859027185,-0.28256666488944104,0.20611469899056672
322,10.428692400004364,-0.053972960494152754,-0.04108014716598103,-0.11933474473970983,0.03005942009781635,0.13715842973007508,-0.12161919595473666,0.016639432955696438,0.0610239746758952,-0.08257544460984947,-0.034398168063791944,-0.2840296416940352,0.20756854835124203
323,10.43389329999627,-0.05382548763664646,-0.04040742060406127,-0.11993159702856877,0.030140530490240874,0.1374540015778227,-0.12202127482157132,0.016470632730886885,0.05962886612898528,-0.08155495639052869,-0.034506594984640766,-0.2854514466267204,0.20899390238714602
324,10.438378799997736,-0.0536776194128162,-0.03973326266196824,-0.12053040701458373,0.03022081256178152,0.13774272116473013,-0.12241833679986987,0.016301309674180007,0.05822689255608593,-0.08052755480433489,-0.03461166511709801,-0.2868319972624134,0.21039059523043468
325,10.44196060000104,-0.053529359887211005,-0.03905770699407014,-0.12113115003502971,0.03030026379115053,0.13802455535145153,-0.12281034836229754,0.016131479887978157,0.05681825626726326,-0.07949338066881016,-0.03471351678944314,-0.2881712219144335,0.21175846989395325
326,10.446257400006289,-0.05338071313653952,-0.038380787414669805,-0.12173380126460809,0.030378881734293827,0.13829947199070064,-0.12319727667332121,0.015961158806931393,0.05540315989757012,-0.07845257555004127,-0.03481228439917005,-0.28946905937636386,0.21309737745852017
327,10.450478300001125,-0.05323168324929958,-0.03770253789314031,-0.122338335718845,0.030456664021164728,0.13856743992871232,-0.12357908959278414,0.015790361216507676,0.05398180635682218,-0.07740528172479984,-0.03490809857526482,-0.29072545827279817,0.21440717646803512
328,10.454180000000632,-0.05308227432542346,-0.037022992549054064,-0.12294472825750681,0.03053360835258902,0.13882842900647335,-0.12395575567929508,0.015619101271349533,0.05255439878348971,-0.0763516421452729,-0.035001086258855243,-0.2919403765060597,0.2156877328129918
329,10.458780200002366,-0.052932490475938135,-0.03634218564730633,-0.12355295358803169,0.030609712497218562,0.1390824100607322,-0.1243272441934574,0.015447392513053987,0.051121140499895155,-0.07529180040234454,-0.0350913707994362,-0.29311378110241465,0.21693892009831836
330,10.46261489999597,-0.052782335822640414,-0.035660151593234435,-0.12416298626897673,0.030684974288570564,0.13932935492479073,-0.12469352510089847,0.015275247887586326,0.049682234967611864,-0.07422590068672204,-0.035179072330987785,-0.29424564835111544,0.21816061959813166
331,10.466747800004669,-0.05263181449778622,-0.034976924927733535,-0.12477480071347927,0.030759391622151827,0.13956923642907704,-0.1250545690751178,0.015102679759374524,0.0482378857412992,-0.07315408775266086,-0.03526430836185799,-0.29533596417932667,0.21935272055248062
332,10.471458100000746,-0.05248093064379387,-0.034292540322370196,-0.12538837119273183,0.030832962452636142,0.13980202840148476,-0.125410347500161,0.014929699922942869,0.04678829642042743,-0.07207650687618308,-0.03534719420277081,-0.29638472432440716,0.22051512059444076
333,10.475060900003882,-0.052329688412961026,-0.03360703257449486,-0.12600367183946967,0.030905684791102516,0.14002770566747277,-0.12576083247305853,0.014756319612812418,0.045333670601424694,-0.07099330381461737,-0.035427843512193684,-0.2973919335803105,0.22164772459903168
334,10.479149100006907,-0.05217809196719505,-0.032920436602354435,-0.12662067665146967,0.030977556702309582,0.14024624404993577,-0.12610599680610313,0.014582549509790673,0.04387421183678627,-0.06990462477609662,-0.03550636870222853,-0.2983576042380393,0.22275044329712826
335,10.483228099998088,-0.052026145477756656,-0.032232787440206016,-0.12723935949506013,0.03104857630199546,0.14045762036890316,-0.12644581402898977,0.014408399746894798,0.04241012360250319,-0.06881061639267994,-0.03558288114526131,-0.29928175569829374,0.22382319351133825
336,10.487406400003238,-0.05187385312501671,-0.03154412023343244,-0.12785969410864065,0.031118741754210213,0.14066181244109052,-0.12678025839082968,0.014233879913616371,0.04094160926096711,-0.067711425687539,-0.03565749172677488,-0.30016441639119323,0.22486589989794412
337,10.491683900007049,-0.05172121909822604,-0.030854470233660423,-0.12848165410621168,0.031188051268657487,0.14085879907923501,-0.12710930486196872,0.014058999056427697,0.03946887200958798,-0.06660720003101107,-0.0357303114280069,-0.30100562600674374,0.22587849646438835
338,10.49560389999533,-0.05156824759529826,-0.03016387279388258,-0.1291052129809122,0.03125650309803193,0.14104856009114333,-0.12743292913557083,0.013883765677337213,0.03799211482184295,-0.06549808709291581,-0.03580145146650991,-0.30180543589115444,0.22686092674530334
339,10.499803800004884,-0.051414942822605704,-0.02947236336358492,-0.12973034410856482,0.03132409553534668,0.1412310762784495,-0.12775110762896916,0.013708187733018483,0.036511540392010634,-0.0643842347968834,-0.03587102292704481,-0.30256390809435085,0.22781314277255757
340,10.503886599995894,-0.05126130899478842,-0.028779977483881048,-0.13035702075122663,0.03139082691126226,0.14140632943512124,-0.12806381748480195,0.0135322726369824,0.035027351085553285,-0.06326579128276373,-0.03593913603843372,-0.3032811143663205,0.2287351039834448
341,10.509017500007758,-0.05110735033457625,-0.028086750782654272,-0.13098521606074545,0.031456695591435324,0.14157430234573162,-0.12837103657199536,0.013356027265792159,0.03353974889368561,-0.062142904871652895,-0.036005899473611123,-0.30395713538789315,0.22962677721951366
342,10.512689299997874,-0.05095307107262386,-0.027392718969708747,-0.1316149030823204,0.031521699973908475,0.14173497878352023,-0.12867274348655666,0.013179457968094117,0.032048935391294414,-0.06101572402831386,-0.036071419766893056,-0.3045920603683578,0.23048813702142532
343,10.51635449999594,-0.05079847544735836,-0.026697917831930592,-0.13224605475806583,0.0315858384865475,0.14188834350825247,-0.12896891755218878,0.013002570576542832,0.03055511169545027,-0.05988439732331374,-0.03613580059838195,-0.30518598699920807,0.23131916598335808
344,10.521942599996692,-0.05064356770483944,-0.026002383228459998,-0.1328786439305779,0.03164910958454802,0.14203438226387421,-0.1292595388207125,0.0128253704238439,0.029058478423780402,-0.058749073391971704,-0.03619914236599771,-0.30573902131307784,0.23211985519643746
345,10.527140499994855,-0.05048835209863144,-0.02530615108587533,-0.13351264334650273,0.031711511748029955,0.14217308177596322,-0.12954458807227878,0.012647862358872568,0.02755923565436264,-0.05760990089215116,-0.03626154225196416,-0.30625127723018736,0.23289020424758092
346,10.531076600003871,-0.05033283288968705,-0.02460925739339021,-0.13414802566010497,0.031773043479702084,0.14230442974899077,-0.12982404681537732,0.012470050762065093,0.026057582888542555,-0.05646702846321897,-0.036323094215942583,-0.30672287585445734,0.23363022089602883
347,10.535076700005447,-0.05017701434624228,-0.023911738198064456,-0.1347847634368361,0.031833703302607354,0.14242841486340874,-0.13009789728664675,0.012291939561604634,0.024553719017724674,-0.05532060468700731,-0.03638388891365936,-0.3071539447470729,0.23433992110138102
348,10.539428500007489,-0.05002090074372222,-0.023213629600029692,-0.13542282915690113,0.031893489757946036,0.14254502677258585,-0.1303661224505007,0.012113532249609963,0.023047842293307814,-0.05417077804649808,-0.03644401393228203,-0.30754461821671103,0.2350193302920456
349,10.547196500003338,-0.04986449636465738,-0.022514967747730322,-0.13606219521882318,0.031952401402979655,0.1426542560996001,-0.13062870599853307,0.011934831896014951,0.021540150290632408,-0.053017696874355515,-0.03650355467591428,-0.30789503916034344,0.2356684861709559
350,10.551538900006562,-0.04970780549860996,-0.021815788833180576,-0.13670283394300445,0.032010436808990156,0.14275609443382184,-0.13088563234863987,0.011755841156080495,0.020030839860878183,-0.051861509284117965,-0.03656259554608976,-0.30820536065370474,0.23628744054134196
351,10.55617809999967,-0.04955083244211018,-0.021116129087238946,-0.1373447175752821,0.03206759455925744,0.1428505343272347,-0.1311368866437502,0.011576562272706576,0.018520107079426803,-0.05070236310084008,-0.03662122099579745,-0.3084757453705493,0.23687625815680843
352,10.560157100000652,-0.0493935814986024,-0.020416024774901297,-0.13798781829047685,0.032123873247041176,0.14293756929051282,-0.13138245475026844,0.011396997073615998,0.017008147203450136,-0.04954040580355248,-0.03667951637768658,-0.3087063630235066,0.23743501489296162
353,10.564453200000573,-0.04923605697840122,-0.01971551219061374,-0.13863210819593355,0.032179271473530766,0.14301719378892616,-0.13162232325624149,0.011217146965355057,0.015495154645349445,-0.04837578447381979,-0.03673756836466531,-0.3088973877112783,0.2379637957403906
354,10.568366399995284,-0.04907826319865767,-0.019014627653605863,-0.13927755933505184,0.03223378784576835,0.1430894032381574,-0.1318564794692968,0.011037012926355918,0.013981322956337944,-0.0472086457578667,-0.036795465606019366,-0.3090489966929769,0.2384626929488299
355,10.5724390999967,-0.04892020448333566,-0.018313407503244592,-0.13992414369080655,0.03228742097453079,0.14315419400004645,-0.13208491141443854,0.010856595494508106,0.012466844811890001,-0.04603913583332099,-0.03685329968640427,-0.3091613702048565,0.23893180537501796
356,10.576696000003722,-0.04876188516319894,-0.017611888094409122,-0.1405718331892567,0.03234016947213089,0.14321156337826477,-0.13230760783165976,0.010675894750823908,0.01095191199711952,-0.04486740037772977,-0.03691116570131322,-0.30923469151234395,0.23937123792161086
357,10.583225700000185,-0.04860330957580909,-0.01691010579288717,-0.14122059970304254,0.032392031950139344,0.1432615096139166,-0.13252455817343003,0.01049491030137097,0.009436715391719294,-0.043693584540800495,-0.0369691626253536,-0.30926914678198164,0.2397811011284346
358,10.587015700002668,-0.04844448206553482,-0.016208096970793003,-0.14187041505486994,0.0324430070170089,0.1433040318810656,-0.1327357526020356,0.010313641257329025,0.007921444956594194,-0.04251783291692244,-0.03702739344507496,-0.309264924832248,0.24016151134621783
359,10.592195400007768,-0.04828540698357319,-0.015505898002007523,-0.14252125102098134,0.032493093275600855,0.1433391302822053,-0.13294118198679777,0.010132086215620943,0.006406289721242186,-0.041340289515705335,-0.037085965292157845,-0.3092222176200632,0.24051259159224098
360,10.596309700005804,-0.048126088687983196,-0.014803545257640683,-0.1431730793346129,0.0325422893206195,0.1433668058436619,-0.1331408379011244,0.009950243237664367,0.004891437765620345,-0.04016109772611653,-0.03714499013624548,-0.30914122176274805,0.2408344726430226
361,10.599861099995906,-0.04796653154373212,-0.014101075101516617,-0.14382587168943656,0.032590593735930345,0.14338706051088712,-0.13333471261937688,0.009768109823213834,0.0033770761926125003,-0.038980400276312575,-0.03720458589851574,-0.30902213998019806,0.24112729400675956
362,10.603895799999009,-0.04780673992275537,-0.013398523885682185,-0.14447959974298646,0.03263800509173827,0.14339989714359125,-0.13352279911352793,0.00958568287820075,0.001863391095763673,-0.03779833918824767,-0.037264877153040374,-0.30886518084570425,0.24139120351168314
363,10.608322000000044,-0.04764671820403052,-0.012695927945939786,-0.14513423512006832,0.03268452194159062,0.14340531951071972,-0.13370509104958392,0.009402958681703027,0.0003505675341893717,-0.03661505574153884,-0.03732599469100972,-0.30867055654189635,0.24162635512068414
364,10.612323299996206,-0.04748647077366647,-0.011993323597405129,-0.14578974941615072,0.03273014281923169,0.1434033322853404,-0.13388158278388854,0.00921993285805513,-0.0011612104777008944,-0.03543069044948844,-0.037388074524667414,-0.30843848008999875,0.24183290683989178
365,10.617006200001924,-0.047326002025008335,-0.01129074713009015,-0.1464461142007383,0.032774866235332566,0.14339394103951947,-0.1340522693593101,0.009036600353577971,-0.0026717599681443517,-0.03424538304344278,-0.03745125703288961,-0.3081691634971751,0.24201101938894107
366,10.622970800002804,-0.04716531635875867,-0.010588234804510988,-0.14710330102072572,0.03281869067411753,0.14337715223922878,-0.1342171465013921,0.008852955417061244,-0.004180899000147646,-0.03305927246184438,-0.03751568665838175,-0.307862817222904,0.24216085640679294
367,10.627438099996652,-0.04700441818311537,-0.0098858228473208,-0.14776128140373304,0.03286161458990269,0.14335297323929902,-0.13437621061443308,0.008668991579460432,-0.005688446664198699,-0.03187249683257382,-0.03758151251928213,-0.30751965111498974,0.24228258551725132
368,10.637944900008732,-0.046843311913926836,-0.009183547446967196,-0.14842002686142136,0.032903636403523465,0.1433214122783985,-0.13452945877746422,0.008484701628386163,-0.007194223079561179,-0.030685193451561208,-0.03764888964146965,-0.3071398767889051,0.24237637971129783
369,10.643112300007488,-0.04668200197486489,-0.00848144474937426,-0.14907950889278876,0.03294475449862318,0.14328247847397357,-0.13467688874011968,0.008300077575726076,-0.008698049410301062,-0.029497498751582793,-0.03771798010147802,-0.3067237103875506,0.2424424189722502
370,10.651492200006032,-0.04652049279761629,-0.007779550853649553,-0.14973969898744544,0.03298496721776331,0.1432361818170704,-0.13481849891830835,0.008115110620934984,-0.010199747893623434,-0.028309548264947845,-0.03778895314436491,-0.3062713741934022,0.24248089077700793
371,10.655943799996749,-0.046358788822093766,-0.007077901807816876,-0.15040056862886728,0.0330242728583524,0.1431825331669977,-0.13495428838971862,0.007929791117501767,-0.011699141871696177,-0.027121476587383658,-0.037861984291421076,-0.30578309679819693,0.24249198977056163
372,10.662370300007751,-0.04619689449666743,-0.006376533604575579,-0.15106208929762693,0.033062669668427684,0.1431215442458367,-0.13508425688913622,0.007744108544982919,-0.013196055821649476,-0.025933417343911833,-0.037937254108658,-0.30525911276009354,0.24247591679355673
373,10.670287400003872,-0.04603481427841716,-0.005675482177087114,-0.1517242324746015,0.03310015584230995,0.14305322763280992,-0.13520840480361462,0.007558051487536777,-0.014690315384040097,-0.024745503162262008,-0.03801494701959327,-0.30469966222701406,0.24243287755314685
374,10.675596200002474,-0.045872552633406546,-0.004974783394789523,-0.15238696964415632,0.03313672951617486,0.1429775967585122,-0.13532673316753238,0.007371607617590359,-0.016181747389160093,-0.02355786565177218,-0.03809525063330465,-0.30410498995669305,0.24236308070761037
375,10.680067199995392,-0.045710114036978715,-0.004274473059240523,-0.15305027229730414,0.03317238876354778,0.1428946658990217,-0.13543924365755677,0.007184763680957853,-0.017670179875898733,-0.02237063539557089,-0.038178355265513025,-0.30347534332237885,0.24226673509271493
376,10.683842600003118,-0.04554750297407441,-0.003574586899989697,-0.1537141119348396,0.033207131590729216,0.14280445016994606,-0.13554593858762454,0.0069975054852002665,-0.019155442098509477,-0.02118394195665586,-0.03826445312788235,-0.3028109700254147,0.2421440476250859
377,10.687689800004591,-0.04538472393957261,-0.0028751605704799205,-0.1543784600704493,0.03324095593217564,0.14270696552046713,-0.13564682090396507,0.00680981789268781,-0.020637364523057936,-0.019997913890620656,-0.038353737235621445,-0.3021121165527575,0.24199522150476574
378,10.691791899997042,-0.045221781438653914,-0.0021762296439779057,-0.1550432882337974,0.03327385964585693,0.142602228727422,-0.13574189418020588,0.0066216848196637345,-0.02211577881907438,-0.01881267876934608,-0.03844640023530181,-0.30137902778962233,0.24182045429838442
379,10.696526100000485,-0.045058679987186635,-0.0014778296095336286,-0.15570856797358773,0.03330584050862802,0.14249025738942941,-0.13583116261262793,0.006433089240792699,-0.023590517852206085,-0.017628363212509462,-0.03854263340156416,-0.3006119479473995,0.24161993755324784
380,10.704293700007838,-0.044895424112135526,-0.0007799958679684264,-0.156374270860603,0.0333368962116309,0.14237106992104281,-0.13591463101557982,0.006244013198055679,-0.025061415684962306,-0.01644509291505754,-0.03864262584058457,-0.29981112292710005,0.24139385827333706
381,10.710494099999778,-0.04473201835199294,-8.276372789171711e-05,-0.15704036849072187,0.03336702435575342,0.1422446855468695,-0.1359923048170024,0.0060544378131034155,-0.02652830759252556,-0.015262992664252724,-0.03874656384934848,-0.29897680334303395,0.2411424009858736
382,10.7163550999976,-0.044568467257232056,0.0006138315982532762,-0.15770683248791437,0.033396222447152395,0.14211112429556877,-0.13606419005400988,0.005864343302429667,-0.027991030093125032,-0.014082186346896092,-0.0388546305086391,-0.29810924659602767,0.24086574998104093
383,10.72036659999867,-0.0444047753907819,0.0013097549981139964,-0.15837363450721567,0.03342448789286101,0.14197040699367336,-0.1361302933684853,0.005673708993712885,-0.029449420984162894,-0.012902796944427091,-0.03896700546218718,-0.2972087171564247,0.24056409108283217
384,10.72569089999888,-0.04424094732852362,0.002004971463322285,-0.15904074623767828,0.033451817996472094,0.14182255525923365,-0.13619062200261367,0.005482513343153534,-0.03090331937536078,-0.011724946522794346,-0.03908386418756206,-0.2962754857252019,0.2402376121228374
385,10.734312500004307,-0.044076987659807804,0.002699446093356573,-0.1597081394053021,0.03347820995391542,0.14166759149531433,-0.136245183794378,0.00529073395896016,-0.03235256571666605,-0.010548756222912797,-0.0392053765862288,-0.2953098284549229,0.23988650308420145
386,10.738083500007631,-0.04391290098799212,0.003393144099371891,-0.16037578577594247,0.03350366084937109,0.1415055388833651,-0.1362939871729991,0.005098347632502465,-0.03379700182376456,-0.009374346249123906,-0.03933170550885275,-0.29431202654214833,0.23951095589782878
387,10.742896600000677,-0.04374869193099871,0.004086030807997099,-0.16104365715819557,0.033528167651352116,0.14133642137646735,-0.1363370411543185,0.004905330376247618,-0.03523647090199299,-0.008201835861649742,-0.03946300570105875,-0.2932823655417602,0.23911116344017386
388,10.746514500002377,-0.04358436512189017,0.004778071665098721,-0.1617117254062612,0.03355172720898952,0.14116026369247062,-0.13637435533616427,0.00471165746524363,-0.036670817565132866,-0.007031343374873637,-0.039599423294376976,-0.29222113418986645,0.23868731781818475
389,10.750827700001537,-0.04341992520946338,0.005469232239510923,-0.16237996242278271,0.0335743362485214,0.14097709130705505,-0.13640593989371713,0.0045173034800437845,-0.03809988784778874,-0.005862986166599772,-0.039741095385645,-0.29112862365076864,0.23823960860279145
390,10.756806999997934,-0.0432553768588599,0.006159478226731368,-0.1630483401616645,0.033595991369998676,0.14078693044674653,-0.13643180557496698,0.004322242352311366,-0.039523529216803376,-0.004696880693643527,-0.039888149668153274,-0.2900051281404896,0.23776822288816446
391,10.761773899997934,-0.043090724752192014,0.006848775452582749,-0.16371683063086737,0.033616689044220986,0.14058980808186738,-0.13645196369623178,0.004126447411358428,-0.0409415905897458,-0.0035331425005104074,-0.04004070418868131,-0.28885094670224726,0.23727334738372102
392,10.766474200005176,-0.04292597358918322,0.0075370898768395665,-0.16438540589518202,0.033636425609898456,0.14038575191937028,-0.1364664261376991,0.003929891432131272,-0.04235392236372396,-0.0023718862144872397,-0.040198867133512665,-0.28766638498857305,0.23675517127563744
393,10.775202400007402,-0.04276112808782207,0.00822438759681945,-0.1650540380789809,0.03365519727105783,0.1401747903955066,-0.13647520533889698,0.0037325466838460117,-0.04376037645133544,-0.0012132255262817034,-0.04036273702016126,-0.286451756134023,0.2362138881769212
394,10.77910189999966,-0.04259619298502804,0.008910634850938088,-0.16572269936894715,0.03367300009468077,0.1399569526683081,-0.1364783142940457,0.0035343849760953658,-0.04516080631803159,-5.727316600515865e-05,-0.04053240272642336,-0.28520738068059115,0.23564969668705174
395,10.783340599999065,-0.04243117303732855,0.009595798022226881,-0.166391362016781,0.03368983000856182,0.13973226860988916,-0.13647576654729326,0.0033353777071995472,-0.046555067017337436,0.0010958591216716318,-0.040707942982118286,-0.28393358621579473,0.2350628002118896
396,10.787839900003746,-0.042266073021545815,0.010279843641812444,-0.16705999834188207,0.03370568279942046,0.1395007687985833,-0.13646757618782385,0.003135495915293388,-0.047943015224669455,0.0022460605997709996,-0.04088942614787711,-0.28263070748483604,0.23445340596435865
397,10.79742050000641,-0.042100897735492346,0.010962738392357202,-0.16772858073400765,0.03372055411125965,0.13926248451091408,-0.13645375784487515,0.0029347103288448325,-0.04932450927365452,0.003393221554060531,-0.04107691022171905,-0.28129908726301667,0.2338217244608841
398,10.8017952000082,-0.04193565199867391,0.011644449111460222,-0.16839708165590636,0.033734439443972926,0.1390174477133757,-0.13643432668269934,0.002732991417677624,-0.05069940919849632,0.004537233310371263,-0.04127044285437236,-0.279939077569545,0.2331679710254286
399,10.807473100008792,-0.04177034065299868,0.01232494279501727,-0.16906547364592703,0.033747334152202914,0.1387656910539888,-0.13640929839541074,0.00253030944333967,-0.05206757678218814,0.0056779882643875935,-0.041470061615074744,-0.27855104026331123,0.2324923677109463
400,10.81203080000705,-0.04160496856349135,0.013004186600538889,-0.16973372932060177,0.03375923344444196,0.13850724785360866,-0.13637868920165488,0.0023266345075212036,-0.05342887560471718,0.006815379917793423,-0.041675794197680846,-0.27713534642370075,0.23179514335401677
401,10.816503499998362,-0.041439540619011124,0.013682147850425298,-0.1704018213772027,0.03377013238236508,0.13824215209700852,-0.13634251583910198,0.0021219366004035425,-0.05478317108521004,0.007949302908597413,-0.04188765824338976,-0.27569237495322163,0.23107653263016156
402,10.820638100005452,-0.04127406173297237,0.014358794035197098,-0.17106972259627104,0.03378002588040435,0.13797043842377496,-0.1363007955588188,0.0019161856508143073,-0.056130330516444456,0.009079653038022363,-0.0421056610463263,-0.274222511306751,0.23033677594110705
403,10.829555899996194,-0.04110853684406676,0.015034092816680946,-0.1717374058441187,0.033788908705573335,0.137692142119053,-0.13625354611949872,0.001709351577461134,-0.05747022309454293,0.01020632729972578,-0.04232979946472392,-0.27272614719176974,0.22957612059159146
404,10.837024499996916,-0.04094297091698566,0.01570801203114958,-0.17240484407530082,0.0337967754775435,0.13740729910415048,-0.13620078578154723,0.0015014043399571905,-0.05880271995054713,0.011329223918220553,-0.04256006014191945,-0.27120368118986327,0.22879482326525646
405,10.841367300003183,-0.04077736894314152,0.01638051969241543,-0.1730720103350594,0.0338036206689686,0.13711594592697376,-0.13614253330093554,0.0012923139878894061,-0.06012769418620147,0.01244824240235629,-0.04279641992738464,-0.2696555189992507,0.2279931514743383
406,10.845712900001672,-0.04061173594138706,0.017051583994876923,-0.1737388777617356,0.03380943860604196,0.13681811975228153,-0.13607880792276197,0.0010820507077183845,-0.061445020907904026,0.013563283597945237,-0.043038846171434116,-0.2680820722550889,0.2271713825250825
407,10.849790599997505,-0.040446076958731245,0.017721173316516587,-0.17440541958915035,0.03381422346928036,0.1365138583517878,-0.13600962937458996,0.0008705848689588476,-0.06275457725093048,0.014674249731105912,-0.043287297012706234,-0.2664837564793851,0.22632980098027977
408,10.856800599998678,-0.040280397071050765,0.018389256221850385,-0.17507160914895128,0.03381796929453388,0.13620320009417833,-0.13593501785958473,0.0006578870682625803,-0.06405624239329664,0.015781044436024915,-0.04354172199756958,-0.2648609895705915,0.22546869571016592
409,10.861246400003438,-0.040114701383796095,0.01905580146482799,-0.17573741987292613,0.03382066997420173,0.1358861839350778,-0.13585499404957918,0.00044392816952943385,-0.06534989756518228,0.016883572769402923,-0.04380206273681977,-0.26321419125091094,0.22458835894773863
410,10.865602699996089,-0.0399489950326911,0.019720777991683803,-0.17640282529528173,0.03382231925863511,0.13556284940697383,-0.1357695790780691,0.00022867934155542822,-0.06663542605737784,0.01798174122895973,-0.044068253407434144,-0.261543782951538,0.2236890879416627
411,10.87065640000219,-0.039783283184425325,0.020384154943738506,-0.17706779905488873,0.03382291075772199,0.13523323660910155,-0.13567879453309772,1.2112093227160775e-05,-0.06791271322958377,0.01907545778407673,-0.04434022127550094,-0.2598501877924132,0.22277118637185145
412,10.875294700002996,-0.039617571037338074,0.021045901660150954,-0.17773231489749095,0.03382243794263479,0.13489738619728617,-0.1355826624499506,-0.00020580169395417042,-0.06918164651865892,0.020164631908172973,-0.04461788703587756,-0.2581338303842145,0.2218349640239738
413,10.880012499997974,-0.03945186382209358,0.021705987680620195,-0.1783963466778784,0.033820894147733885,0.13455533937374667,-0.13548120530372296,-0.00042508973400660205,-0.07044211544497958,0.021249174606158192,-0.044901164775406247,-0.2563951361441311,0.2208807361118704
414,10.883855000007316,-0.03928616680234642,0.02236438274803746,-0.17905986836202392,0.03381827257262754,0.1342071378768762,-0.1353744460017456,-0.0006457793035829401,-0.07169401161398327,0.022328998440169348,-0.04518996150057241,-0.2546345302497146,0.21990882142027315
415,10.888770799996564,-0.03912048527539653,0.023021056811088035,-0.17972285402918192,0.033814566284397614,0.13385282397103054,-0.13526240787590008,-0.0008678972054762125,-0.07293722871227679,0.02340401753882455,-0.045484176230906066,-0.2528524374183109,0.21891953926378235
416,10.892878099999509,-0.03895482457283277,0.02367598002680319,-0.1803852778739497,0.03380976822001711,0.13349244043634673,-0.1351451146749538,-0.0010914697268516245,-0.0741716625070187,0.024474147593161206,-0.045783698951244615,-0.2510492832185813,0.21791320969441785
417,10.897018999996362,-0.038789190061164276,0.024329122763062292,-0.18104711420829114,0.03380387118898518,0.1331260305585375,-0.1350225905569151,-0.001316522592485442,-0.07539721085487874,0.0255393058679237,-0.04608841003633729,-0.249225495199611,0.21689015659959013
418,10.900587600001018,-0.03862358714243821,0.024980455601044727,-0.18170833746352308,0.03379686787620284,0.1327536381186221,-0.13489486008125778,-0.0015430809173587602,-0.07661377371248418,0.026599411227857948,-0.04639818081908611,-0.24738150226709732,0.21585070891128674
419,10.904211400003987,-0.03845802125484289,0.025629949337631384,-0.1823689221922628,0.03378875084507252,0.13237530738261843,-0.13476194820101844,-0.0017711691654644665,-0.0778212531392666,0.027654384160847652,-0.046712874785492665,-0.24551773284774517,0.21479520019414441
420,10.908575699999346,-0.03829249787329524,0.026277574987755584,-0.183028843070337,0.03377951254077742,0.13199108309124596,-0.13462388025479435,-0.002000811114110057,-0.07901955328992162,0.028704146800172456,-0.04703234785447863,-0.243634613115527,0.21372396831850884
421,10.912653699997463,-0.03812702251001174,0.026923303786703653,-0.18368807489865088,0.03376914529373085,0.13160101044969175,-0.13448068195862264,-0.0022320298154665037,-0.08020858039987507,0.02974862294444058,-0.04735644753705072,-0.24173256628982845,0.212637354074632
422,10.916353399996297,-0.03796160071506205,0.027567107192365575,-0.18434659260501746,0.03375764132323237,0.13120513511745568,-0.13433237939778292,-0.002464847552631897,-0.08138824277086537,0.030787738066267768,-0.047685012007733285,-0.2398120131381334,0.2115356989034637
423,10.920469100004992,-0.037796238076904194,0.028208956887436062,-0.1850043712459464,0.03374499274134762,0.13080350319825793,-0.13417899901859137,-0.0026992857920814634,-0.08255845076133551,0.0318214193099744,-0.04801786913039914,-0.237873373221919,0.21041934412801278
424,10.925198800003272,-0.03763094022290015,0.02884882478156631,-0.18566138600839296,0.033731191557030415,0.1303961612299782,-0.13402056762022596,-0.0029353651301855174,-0.08371911678422364,0.03284959549273269,-0.04835483546242065,-0.2359170661437173,0.20928863248629073
425,10.9288469000021,-0.03746571281981061,0.029486683013466485,-0.18631761221146664,0.03371622968052666,0.12998315617458495,-0.1338571123465093,-0.003173105235901355,-0.08487015530957473,0.033872197117284834,-0.048695716233423086,-0.2339435114398594,0.2081439091352514
426,10.933023599995067,-0.037300561574267456,0.030122503952958797,-0.18697302530809962,0.03370009892805797,0.12956453540804894,-0.13368866067760918,-0.003412524797083012,-0.08601148286128024,0.0348891563829276,-0.049040306392009986,-0.23195312669515428,0.20698552070726944
427,10.937693700005184,-0.03713549223322259,0.030756260202981157,-0.1876276008866741,0.03368279102675165,0.12914034671030442,-0.13351524042171387,-0.0036536414734298127,-0.08714301800121589,0.035900407188985066,-0.04938839164526221,-0.2299463256515102,0.20581381448426062
428,10.941556599995238,-0.03697051058437214,0.031387924601541876,-0.1882813146726092,0.033664297619785434,0.12871063825531823,-0.13333687970669858,-0.0038964718529819727,-0.08826468130744805,0.036905885137700635,-0.04973974875474617,-0.22792351783010947,0.20462913860321044
429,10.947893899996416,-0.03680562245655485,0.03201747022362601,-0.1889341425299066,0.033644610271743716,0.12827545860126438,-0.13315360697177242,-0.004141031407969674,-0.08937639535466929,0.03790552753972368,-0.05009414515963797,-0.22588510926738664,0.20343184282337268
430,10.953554399995484,-0.03664083372012381,0.032644870383053796,-0.18958606046265555,0.0336237204741949,0.12783485668078495,-0.13296545095909112,-0.0043873344476157376,-0.09047808469961649,0.038899273424519154,-0.05045133820223016,-0.22383150393985532,0.20222227967705692
431,10.958554800003183,-0.03647615028729021,0.03327009863429154,-0.19023704461649646,0.03360161965151016,0.12738888179130753,-0.13277244070530198,-0.004635394066395589,-0.09156967587546797,0.039887063557130634,-0.050811074457648764,-0.22176310551183134,0.20100080535563064
432,10.962198000008357,-0.036311578112438014,0.033893128774215193,-0.19088707128004292,0.03357829916694772,0.126937583585361,-0.1325746055329923,-0.0048852220902719625,-0.09265109739438718,0.040868840457271655,-0.05117308960015819,-0.21968031846425842,0.1997677794716149
433,10.966626900000849,-0.036147123192408134,0.03451393484382635,-0.19153611688626154,0.03355375032899849,0.1264810120608681,-0.1323719750420473,-0.005136829023644819,-0.093722279752981,0.041844548413757565,-0.05153710861721778,-0.21758354852282075,0.19852356426258522
434,10.97087449999526,-0.03598279156675091,0.035132491129920694,-0.19218415801380934,0.03352796439799017,0.12601921755140766,-0.1321645791009572,-0.005390223997683541,-0.09478315543903842,0.042814133495796075,-0.05190284653295421,-0.21547320251513594,0.1972685233834301
435,10.9749518000026,-0.03581858931794557,0.035748772166708576,-0.1928311713883283,0.033500932592939146,0.1255522507164412,-0.13195244783806429,-0.005645414724366019,-0.09583365893558947,0.04377754355558467,-0.05227001004466384,-0.21334968720349168,0.19600302048845863
436,10.979067299995222,-0.03565452257158557,0.03636275273738769,-0.19347713388369714,0.03347264609860498,0.12508016253153534,-0.13173561163284475,-0.005902407460846606,-0.09687372671620612,0.044734728225707523,-0.05263829967660713,-0.21121340738840536,0.19472741893712878
437,10.983281199994964,-0.035490597496528935,0.036974407875667865,-0.1941220225232403,0.03344309607269144,0.12460300427863447,-0.13151410110718126,-0.006161206984599805,-0.09790329723047839,0.04568563891884939,-0.053007411653477256,-0.2090647643010809,0.19344208143906874
438,10.987375700002303,-0.035326820305013024,0.037583712867248396,-0.1947658144808942,0.033412273653144565,0.12412082753642549,-0.13128794711664743,-0.0064218165761459785,-0.09892231088356326,0.04663022882171417,-0.05337703884414347,-0.2069041548645584,0.19214736970198493
439,10.991505400001188,-0.03516319725273337,0.038190643251248435,-0.19540848708233097,0.033380169965522954,0.12363368417081082,-0.13105718074184014,-0.006684238003442584,-0.09993071001442093,0.04756845289128871,-0.053746870717640595,-0.2047319716140757,0.1908436450496971
440,10.995681700005662,-0.034999734638886226,0.03879517482159097,-0.19605001780603964,0.03334677613044878,0.12314162632548646,-0.13082183327970057,-0.006948471504178635,-0.10092843887458332,0.04850026785481735,-0.05411659287827103,-0.20254860318399742,0.18953126827442796
441,11.00006819999544,-0.03483643880617439,0.03939728362834089,-0.19669038428436486,0.03331208327115157,0.12264470641262301,-0.13058193623484673,-0.007214515765610494,-0.10191544361116169,0.04942563220461839,-0.05448588625447141,-0.20035443571545833,0.18821059922544636
