,time,x,y,z,vx,vy,vz,ax,ay,az,jx,jy,jz
0,11.4964636,-0.02993193,0.011056515,0.033480833,-0.000334918,-0.008049296,-0.002831899,-0.048207222,0.037550602,-0.018011286,-0.113392507,0.166261554,-0.098837844
1,11.5006757,-0.029930007,0.011069056,0.033515633,-0.000546562,-0.007883694,-0.002911513,-0.048702735,0.038278612,-0.018445388,-0.113493144,0.167083627,-0.099931189
2,11.5041025,-0.029927155,0.011081949,0.033549702,-0.000760371,-0.007714905,-0.002993033,-0.049198665,0.039010196,-0.018884255,-0.113583912,0.167898174,-0.101019358
3,11.5077976,-0.029923365,0.011095202,0.033583028,-0.000976347,-0.007542913,-0.00307648,-0.04969497,0.039745321,-0.019327864,-0.113664723,0.168705099,-0.102102102
4,11.5113586,-0.029918626,0.011108824,0.033615595,-0.001194492,-0.007367702,-0.003161875,-0.050191607,0.040483954,-0.019776189,-0.113735488,0.169504307,-0.103179171
5,11.5146017,-0.02991293,0.011122824,0.03364739,-0.001414806,-0.007189257,-0.003249239,-0.05068853,0.04122606,-0.020229207,-0.113796116,0.170295697,-0.104250313
6,11.51856,-0.029906267,0.011137209,0.033678398,-0.001637292,-0.007007563,-0.003338591,-0.051185696,0.041971607,-0.020686889,-0.113846516,0.171079169,-0.105315278
7,11.522548,-0.029898627,0.011151989,0.033708606,-0.001861949,-0.006822605,-0.003429953,-0.051683059,0.042720558,-0.02114921,-0.113886595,0.171854616,-0.106373816
8,11.5266047,-0.029890001,0.011167172,0.033737998,-0.00208878,-0.006634369,-0.003523345,-0.052180576,0.043472878,-0.021616139,-0.11391626,0.17262193,-0.107425677
9,11.5353478,-0.02988038,0.011182767,0.033766562,-0.002317783,-0.006442839,-0.003618786,-0.052678198,0.044228532,-0.022087649,-0.113935416,0.173380995,-0.108470609
10,11.5392954,-0.029869754,0.011198784,0.033794281,-0.002548961,-0.006248002,-0.003716296,-0.053175882,0.044987483,-0.022563707,-0.113943966,0.174131687,-0.109508362
11,11.5432771,-0.029858113,0.011215232,0.033821142,-0.002782312,-0.006049842,-0.003815895,-0.053673579,0.045749695,-0.023044281,-0.113941812,0.174873878,-0.110538687
12,11.5473808,-0.029845448,0.011232119,0.033847131,-0.003017837,-0.005848346,-0.003917604,-0.054171244,0.04651513,-0.02352934,-0.113928855,0.175607435,-0.111561333
13,11.5517442,-0.02983175,0.011249455,0.033872232,-0.003255536,-0.005643499,-0.004021441,-0.054668828,0.04728375,-0.024018848,-0.113904991,0.176332217,-0.11257605
14,11.5561076,-0.029817009,0.011267249,0.033896431,-0.003495408,-0.005435289,-0.004127426,-0.055166284,0.048055516,-0.024512771,-0.113870118,0.177048079,-0.113582585
15,11.5601366,-0.029801215,0.011285511,0.033919713,-0.003737452,-0.0052237,-0.004235577,-0.055663564,0.048830389,-0.025011072,-0.11382413,0.177754873,-0.114580688
16,11.5633908,-0.02978436,0.01130425,0.033942063,-0.003981668,-0.005008721,-0.004345915,-0.056160618,0.04960833,-0.025513714,-0.113766923,0.178452447,-0.115570105
17,11.568481,-0.029766433,0.011323476,0.033963468,-0.004228055,-0.004790337,-0.004458457,-0.056657398,0.050389297,-0.026020659,-0.113698389,0.179140644,-0.11655058
18,11.5726659,-0.029747425,0.011343198,0.03398391,-0.004476611,-0.004568535,-0.004573224,-0.057153854,0.05117325,-0.026531866,-0.113618422,0.179819306,-0.117521859
19,11.5766193,-0.029727326,0.011363426,0.034003377,-0.004727334,-0.004343302,-0.004690232,-0.057649935,0.051960146,-0.027047295,-0.113526912,0.180488272,-0.118483683
20,11.5807769,-0.029706128,0.01138417,0.034021852,-0.004980224,-0.004114626,-0.004809501,-0.058145591,0.052749942,-0.027566904,-0.113423752,0.181147378,-0.119435794
21,11.5860704,-0.02968382,0.01140544,0.034039321,-0.005235277,-0.003882494,-0.004931048,-0.058640772,0.053542596,-0.028090651,-0.113308833,0.181796455,-0.12037793
22,11.5894668,-0.029660394,0.011427246,0.034055769,-0.005492492,-0.003646894,-0.005054892,-0.059135424,0.054338062,-0.02861849,-0.113182049,0.182435334,-0.121309829
23,11.5935836,-0.02963584,0.011449598,0.034071179,-0.005751867,-0.003407813,-0.005181051,-0.059629497,0.055136297,-0.029150378,-0.113043293,0.183063841,-0.122231227
24,11.5977458,-0.029610147,0.011472506,0.034085538,-0.006013398,-0.00316524,-0.005309542,-0.060122937,0.055937254,-0.029686266,-0.112892459,0.183681802,-0.12314186
25,11.6022871,-0.029583308,0.011495981,0.03409883,-0.006277083,-0.002919162,-0.005440382,-0.060615692,0.056740887,-0.030226109,-0.112729443,0.18428904,-0.124041462
26,11.6072361,-0.029555313,0.011520032,0.034111039,-0.006542919,-0.002669568,-0.005573588,-0.061107708,0.057547149,-0.030769856,-0.11255414,0.184885376,-0.124929766
27,11.6108155,-0.029526151,0.01154467,0.03412215,-0.006810902,-0.002416447,-0.005709178,-0.061598932,0.058355991,-0.031317458,-0.112366448,0.185470631,-0.125806505
28,11.6161623,-0.029495815,0.011569906,0.034132148,-0.007081029,-0.002159787,-0.005847168,-0.062089308,0.059167366,-0.031868864,-0.112166263,0.186044621,-0.126671411
29,11.6228304,-0.029464294,0.011595749,0.034141018,-0.007353296,-0.001899578,-0.005987575,-0.062578783,0.059981222,-0.032424022,-0.111953485,0.186607164,-0.127524217
30,11.628961,-0.029431578,0.011622211,0.034148743,-0.007627699,-0.001635809,-0.006130415,-0.063067301,0.060797511,-0.032982878,-0.111728011,0.187158072,-0.128364654
31,11.6323894,-0.02939766,0.011649303,0.034155308,-0.007904233,-0.001368469,-0.006275704,-0.063554806,0.06161618,-0.033545378,-0.111489743,0.18769716,-0.129192455
32,11.6364288,-0.029362529,0.011677034,0.034160697,-0.008182895,-0.001097548,-0.006423457,-0.064041242,0.062437178,-0.034111466,-0.111238579,0.188224237,-0.130007351
33,11.6396584,-0.029326177,0.011705416,0.034164895,-0.008463678,-0.000823036,-0.006573691,-0.064526553,0.063260451,-0.034681084,-0.110974421,0.188739113,-0.130809075
34,11.6437655,-0.029288593,0.01173446,0.034167887,-0.008746579,-0.000544924,-0.006726421,-0.065010682,0.064085947,-0.035254175,-0.110697168,0.189241596,-0.131597358
35,11.6478212,-0.029249769,0.011764176,0.034169656,-0.009031593,-0.0002632,-0.006881661,-0.065493571,0.06491361,-0.03583068,-0.110406723,0.189731491,-0.132371936
36,11.651688,-0.029209696,0.011794576,0.034170186,-0.009318712,2.21E-05,-0.007039427,-0.065975163,0.065743385,-0.036410537,-0.110102985,0.190208601,-0.133132541
37,11.6559661,-0.029168364,0.011825671,0.034169462,-0.009607932,0.000311114,-0.007199733,-0.066455398,0.066575216,-0.036993686,-0.109785855,0.190672724,-0.133878909
38,11.6602694,-0.029125764,0.011857471,0.034167468,-0.009899247,0.000603724,-0.007362593,-0.066934219,0.067409046,-0.037580064,-0.109455235,0.191123655,-0.134610775
39,11.6643651,-0.029081887,0.011889988,0.034164188,-0.01019265,0.00089998,-0.007528021,-0.067411567,0.068244816,-0.038169606,-0.109111025,0.191561187,-0.135327879
40,11.6681233,-0.029036724,0.011923233,0.034159606,-0.010488134,0.001199891,-0.007696032,-0.067887381,0.069082468,-0.038762248,-0.10875313,0.191985109,-0.13602996
41,11.6722465,-0.028990266,0.011957218,0.034153707,-0.010785694,0.001503464,-0.007866637,-0.068361602,0.069921941,-0.039357924,-0.108381452,0.192395209,-0.136716757
42,11.6755638,-0.028942503,0.011991954,0.034146473,-0.011085321,0.001810708,-0.008039851,-0.06883417,0.070763176,-0.039956566,-0.107995896,0.192791272,-0.137388014
43,11.6791636,-0.028893428,0.012027452,0.034137889,-0.011387009,0.00212163,-0.008215686,-0.069305023,0.071606109,-0.040558105,-0.107596369,0.193173081,-0.138043473
44,11.682722,-0.02884303,0.012063724,0.034127939,-0.011690749,0.002436238,-0.008394154,-0.0697741,0.072450679,-0.041162473,-0.107182777,0.193540419,-0.138682879
45,11.6872338,-0.028791301,0.012100781,0.034116606,-0.011996535,0.002754538,-0.008575269,-0.07024134,0.073296821,-0.041769598,-0.106755028,0.193893066,-0.139305978
46,11.6911333,-0.028738232,0.012138635,0.034103876,-0.012304357,0.003076537,-0.008759041,-0.07070668,0.074144471,-0.042379409,-0.10631303,0.194230796,-0.139912516
47,11.6952628,-0.028683813,0.012177297,0.034089731,-0.012614207,0.003402242,-0.008945483,-0.071170059,0.074993564,-0.042991832,-0.105856691,0.194553382,-0.140502241
48,11.6992898,-0.028628038,0.01221678,0.034074155,-0.012926078,0.003731659,-0.009134605,-0.071631413,0.075844032,-0.043606795,-0.105385922,0.194860594,-0.141074902
49,11.7028805,-0.028570895,0.012257095,0.034057132,-0.013239958,0.004064793,-0.009326419,-0.072090679,0.076695809,-0.044224221,-0.104900634,0.195152198,-0.141630248
50,11.7062554,-0.028512377,0.012298253,0.034038646,-0.013555841,0.004401651,-0.009520935,-0.072547794,0.077548824,-0.044844035,-0.104400738,0.195427958,-0.142168029
51,11.709755,-0.028452475,0.012340267,0.034018681,-0.013873715,0.004742237,-0.009718163,-0.073002693,0.07840301,-0.045466159,-0.10388615,0.195687637,-0.142687997
52,11.7130988,-0.02839118,0.012383148,0.033997219,-0.014193571,0.005086557,-0.009918114,-0.073455313,0.079258294,-0.046090515,-0.103356784,0.195930998,-0.143189903
53,11.7168217,-0.028328484,0.012426908,0.033974246,-0.014515398,0.005434614,-0.010120796,-0.073905588,0.080114605,-0.046717024,-0.102812561,0.196157801,-0.1436735
54,11.7229322,-0.028264378,0.01247156,0.033949744,-0.014839188,0.005786414,-0.01032622,-0.074353453,0.080971871,-0.047345604,-0.102253398,0.196367808,-0.144138543
55,11.726833,-0.028198854,0.012517115,0.033923697,-0.015164928,0.00614196,-0.010534394,-0.074798843,0.081830016,-0.047976176,-0.10167922,0.196560774,-0.144584789
56,11.7305796,-0.028131902,0.012563585,0.03389609,-0.015492609,0.006501257,-0.010745326,-0.075241693,0.082688968,-0.048608654,-0.10108995,0.196736454,-0.145011996
57,11.734883,-0.028063515,0.012610983,0.033866904,-0.015822218,0.006864307,-0.010959025,-0.075681935,0.083548648,-0.049242958,-0.100485516,0.196894603,-0.145419924
58,11.7403185,-0.027993684,0.01265932,0.033836125,-0.016153744,0.007231113,-0.011175498,-0.076119504,0.084408981,-0.049879,-0.099865844,0.197034971,-0.145808336
59,11.7437115,-0.0279224,0.012708609,0.033803736,-0.016487175,0.007601679,-0.011394753,-0.076554334,0.085269887,-0.050516696,-0.099230863,0.19715731,-0.146176999
60,11.7475966,-0.027849657,0.012758861,0.033769719,-0.0168225,0.007976006,-0.011616797,-0.076986356,0.086131289,-0.051155959,-0.098580501,0.197261373,-0.146525679
61,11.7515005,-0.027775444,0.01281009,0.033734059,-0.017159705,0.008354096,-0.011841636,-0.077415504,0.086993105,-0.051796701,-0.097914686,0.197346911,-0.146854149
62,11.7561547,-0.027699754,0.012862307,0.03369674,-0.017498779,0.008735952,-0.012069277,-0.07784171,0.087855253,-0.052438834,-0.097233347,0.197413676,-0.147162184
63,11.7597123,-0.02762258,0.012915524,0.033657745,-0.017839707,0.009121574,-0.012299726,-0.078264906,0.088717652,-0.053082267,-0.096536412,0.197461423,-0.147449561
64,11.7637328,-0.027543912,0.012969753,0.033617057,-0.018182478,0.009510963,-0.012532988,-0.078685023,0.089580218,-0.05372691,-0.09582381,0.197489904,-0.147716059
65,11.7675615,-0.027463743,0.013025008,0.03357466,-0.018527077,0.00990412,-0.012769069,-0.079101994,0.090442866,-0.054372671,-0.095095473,0.197498877,-0.147961462
66,11.7712835,-0.027382065,0.0130813,0.033530537,-0.01887349,0.010301045,-0.013007972,-0.079515749,0.09130551,-0.055019457,-0.094351332,0.197488096,-0.148185555
67,11.7754418,-0.02729887,0.013138642,0.033484673,-0.019221703,0.010701738,-0.013249703,-0.07992622,0.092168064,-0.055667176,-0.093591319,0.197457318,-0.148388124
68,11.7804404,-0.02721415,0.013197046,0.03343705,-0.019571701,0.011106198,-0.013494264,-0.080333336,0.093030439,-0.056315732,-0.092815368,0.197406299,-0.148568961
69,11.7848685,-0.027127897,0.013256524,0.033387652,-0.019923471,0.011514425,-0.01374166,-0.080737027,0.093892547,-0.056965031,-0.092023411,0.197334792,-0.14872786
70,11.7890818,-0.027040104,0.013317089,0.033336463,-0.020276996,0.011926416,-0.013991894,-0.081137225,0.094754297,-0.057614975,-0.091215381,0.197242552,-0.148864618
71,11.7931787,-0.026950763,0.013378753,0.033283467,-0.020632262,0.01234217,-0.014244968,-0.081533858,0.0956156,-0.058265468,-0.090391211,0.19712933,-0.148979038
72,11.7973534,-0.026859867,0.013441529,0.033228646,-0.020989252,0.012761686,-0.014500884,-0.081926856,0.096476361,-0.058916412,-0.089550836,0.196994878,-0.149070922
73,11.8008084,-0.026767407,0.013505428,0.033171984,-0.021347951,0.013184959,-0.014759644,-0.082316148,0.097336489,-0.059567708,-0.088694194,0.196838947,-0.149140076
74,11.8041379,-0.026673377,0.013570464,0.033113466,-0.021708342,0.013611989,-0.01502125,-0.082701662,0.098195888,-0.060219255,-0.087821225,0.196661291,-0.149186309
75,11.8078166,-0.02657777,0.013636649,0.033053074,-0.022070408,0.01404277,-0.015285702,-0.083083328,0.099054464,-0.060870955,-0.08693187,0.196461666,-0.149209431
76,11.8119605,-0.026480577,0.013703996,0.032990793,-0.022434133,0.014477299,-0.015553,-0.083461073,0.099912119,-0.061522705,-0.086026076,0.19623983,-0.149209255
77,11.8162937,-0.026381792,0.013772516,0.032926605,-0.022799499,0.014915573,-0.015823146,-0.083834826,0.100768757,-0.062174403,-0.085103787,0.195995542,-0.149185597
78,11.823201,-0.026281407,0.013842222,0.032860494,-0.023166489,0.015357585,-0.016096138,-0.084204515,0.101624278,-0.062825946,-0.084164953,0.195728564,-0.149138273
79,11.832898,-0.026179416,0.013913127,0.032792445,-0.023535085,0.015803332,-0.016371975,-0.084570067,0.102478584,-0.063477231,-0.083209523,0.195438661,-0.149067105
80,11.8386546,-0.026075812,0.013985243,0.032722441,-0.023905268,0.016252808,-0.016650656,-0.084931409,0.103331573,-0.064128153,-0.082237448,0.195125598,-0.148971915
81,11.8443631,-0.025970587,0.014058582,0.032650466,-0.024277021,0.016706006,-0.016932179,-0.085288469,0.104183144,-0.064778606,-0.081248681,0.194789147,-0.148852528
82,11.8492229,-0.025863735,0.014133157,0.032576502,-0.024650323,0.017162921,-0.017216543,-0.085641173,0.105033193,-0.065428484,-0.080243178,0.194429077,-0.148708772
83,11.8536047,-0.025755249,0.014208981,0.032500535,-0.025025157,0.017623545,-0.017503743,-0.085989449,0.105881619,-0.066077682,-0.079220892,0.194045164,-0.148540477
84,11.8576805,-0.025645122,0.014286065,0.032422548,-0.025401502,0.018087872,-0.017793778,-0.086333224,0.106728315,-0.06672609,-0.078181784,0.193637183,-0.148347479
85,11.8611497,-0.025533349,0.014364422,0.032342525,-0.025779338,0.018555892,-0.018086643,-0.086672422,0.107573176,-0.067373602,-0.077125813,0.193204912,-0.148129612
86,11.8686536,-0.025419922,0.014444065,0.03226045,-0.026158647,0.019027599,-0.018382334,-0.087006972,0.108416096,-0.068020107,-0.07605294,0.19274813,-0.147886716
87,11.8724291,-0.025304835,0.014525005,0.032176306,-0.026539406,0.019502984,-0.018680846,-0.087336799,0.109256967,-0.068665496,-0.074963132,0.192266613,-0.147618636
88,11.8770215,-0.025188081,0.014607255,0.032090077,-0.026921595,0.019982036,-0.018982175,-0.087661828,0.11009568,-0.06930966,-0.073856352,0.19176014,-0.147325218
89,11.881663,-0.025069655,0.014690827,0.032001748,-0.027305194,0.020464747,-0.019286315,-0.087981986,0.110932127,-0.069952486,-0.072732571,0.191228488,-0.147006312
90,11.8858533,-0.024949551,0.014775734,0.031911303,-0.02769018,0.020951106,-0.01959326,-0.088297198,0.111766196,-0.070593863,-0.071591759,0.190671434,-0.146661772
91,11.8894725,-0.024827762,0.014861988,0.031818726,-0.028076532,0.021441103,-0.019903002,-0.08860739,0.112597776,-0.07123368,-0.070433888,0.190088756,-0.146291458
92,11.8952955,-0.024704283,0.014949601,0.031724,-0.028464228,0.021934727,-0.020215536,-0.088912488,0.113426755,-0.071871823,-0.069258934,0.189480233,-0.145895232
93,11.9012509,-0.024579107,0.015038585,0.03162711,-0.028853245,0.022431966,-0.020530853,-0.089212416,0.11425302,-0.072508178,-0.068066875,0.188845646,-0.145472958
94,11.9058569,-0.024452229,0.015128953,0.031528041,-0.029243561,0.022932808,-0.020848946,-0.0895071,0.115076455,-0.073142631,-0.066857693,0.188184777,-0.145024505
95,11.9098906,-0.024323644,0.015220716,0.031426776,-0.029635153,0.02343724,-0.021169806,-0.089796465,0.115896946,-0.073775069,-0.065631373,0.187497412,-0.144549746
96,11.9141101,-0.024193345,0.015313886,0.0313233,-0.030027997,0.023945249,-0.021493423,-0.090080436,0.116714377,-0.074405375,-0.064387902,0.186783338,-0.144048557
97,11.9182981,-0.024061328,0.015408476,0.031217598,-0.030422069,0.024456822,-0.021819789,-0.090358939,0.11752863,-0.075033435,-0.063127271,0.186042348,-0.143520818
98,11.9226167,-0.023927587,0.015504497,0.031109653,-0.030817346,0.024971945,-0.022148893,-0.090631897,0.118339588,-0.075659131,-0.061849477,0.185274238,-0.142966412
99,11.9269049,-0.023792117,0.015601962,0.03099945,-0.031213802,0.025490602,-0.022480725,-0.090899238,0.119147132,-0.076282347,-0.060554517,0.184478809,-0.142385227
100,11.9308957,-0.023654913,0.015700882,0.030886974,-0.031611415,0.026012779,-0.022815273,-0.091160884,0.119951141,-0.076902966,-0.059242395,0.183655867,-0.141777154
101,11.9350161,-0.023515969,0.015801269,0.03077221,-0.032010157,0.02653846,-0.023152527,-0.091416762,0.120751495,-0.07752087,-0.057913116,0.182805221,-0.141142087
102,11.9390317,-0.023375281,0.015903136,0.030655142,-0.032410004,0.027067629,-0.023492473,-0.091666796,0.121548073,-0.078135942,-0.056566691,0.181926686,-0.140479927
103,11.9432028,-0.023232845,0.016006493,0.030535755,-0.032810931,0.027600268,-0.023835099,-0.091910912,0.122340753,-0.078748062,-0.055203135,0.181020078,-0.139790576
104,11.9473715,-0.023088655,0.016111352,0.030414034,-0.033212911,0.028136361,-0.024180393,-0.092149034,0.123129411,-0.079357111,-0.053822464,0.180085221,-0.13907394
105,11.9516577,-0.022942707,0.016217726,0.030289964,-0.033615918,0.02867589,-0.02452834,-0.092381089,0.123913924,-0.079962971,-0.0524247,0.179121939,-0.13832993
106,11.955976,-0.022794996,0.016325624,0.03016353,-0.034019925,0.029218837,-0.024878926,-0.092607001,0.124694168,-0.080565521,-0.051009868,0.178130061,-0.137558462
107,11.9600196,-0.022645519,0.01643506,0.030034717,-0.034424905,0.029765182,-0.025232136,-0.092826696,0.125470016,-0.081164641,-0.049577994,0.177109419,-0.136759455
108,11.9642017,-0.02249427,0.016546045,0.02990351,-0.034830832,0.030314906,-0.025587956,-0.0930401,0.126241343,-0.081760211,-0.048129109,0.176059846,-0.135932834
109,11.9685336,-0.022341247,0.016658589,0.029769895,-0.035237676,0.030867989,-0.025946369,-0.093247138,0.127008023,-0.08235211,-0.046663248,0.174981182,-0.135078527
110,11.9726209,-0.022186444,0.016772705,0.029633857,-0.035645411,0.03142441,-0.02630736,-0.093447736,0.127769927,-0.082940217,-0.045180449,0.173873265,-0.134196468
111,11.9767016,-0.022029859,0.016888403,0.029495381,-0.036054008,0.031984149,-0.026670911,-0.093641821,0.128526928,-0.083524411,-0.043680751,0.172735938,-0.133286595
112,11.9809149,-0.021871487,0.017005694,0.029354453,-0.036463438,0.032547184,-0.027037004,-0.093829318,0.129278897,-0.084104569,-0.0421642,0.171569048,-0.132348851
113,11.9850235,-0.021711325,0.01712459,0.029211058,-0.036873673,0.033113492,-0.027405623,-0.094010155,0.130025705,-0.084680571,-0.040630842,0.170372444,-0.131383185
114,11.9892914,-0.02154937,0.017245101,0.029065183,-0.037284683,0.03368305,-0.027776749,-0.094184257,0.130767221,-0.085252294,-0.03908073,0.169145979,-0.130389549
115,11.9932887,-0.021385617,0.017367239,0.028916813,-0.037696439,0.034255835,-0.028150362,-0.094351552,0.131503314,-0.085819616,-0.037513916,0.16788951,-0.1293679
116,11.9993842,-0.021220065,0.017491015,0.028765934,-0.038108911,0.034831824,-0.028526444,-0.094511968,0.132233854,-0.086382414,-0.03593046,0.166602898,-0.128318202
117,12.0059147,-0.021052709,0.017616438,0.028612532,-0.038522068,0.035410991,-0.028904973,-0.09466543,0.132958708,-0.086940566,-0.034330423,0.165286009,-0.127240422
118,12.0100099,-0.020883547,0.01774352,0.028456594,-0.03893588,0.035993312,-0.029285931,-0.094811868,0.133677744,-0.087493949,-0.032713871,0.163938714,-0.126134532
119,12.0142169,-0.020712577,0.017872271,0.028298105,-0.039350316,0.036578761,-0.029669295,-0.094951209,0.134390828,-0.08804244,-0.031080875,0.162560891,-0.12500051
120,12.0226176,-0.020539794,0.018002702,0.028137053,-0.039765346,0.037167311,-0.030055044,-0.095083381,0.135097828,-0.088585916,-0.02943151,0.161152423,-0.123838339
121,12.0267664,-0.020365198,0.018134823,0.027973423,-0.040180937,0.037758936,-0.030443155,-0.095208314,0.135798608,-0.089124255,-0.027765853,0.159713199,-0.122648005
122,12.0308725,-0.020188786,0.018268645,0.027807202,-0.040597057,0.038353607,-0.030833607,-0.095325936,0.136493035,-0.089657333,-0.02608399,0.158243118,-0.121429501
123,12.0351315,-0.020010554,0.018404177,0.027638377,-0.041013676,0.038951298,-0.031226375,-0.095436176,0.137180974,-0.090185027,-0.02438601,0.156742083,-0.120182825
124,12.0395712,-0.019830502,0.018541429,0.027466935,-0.04143076,0.03955198,-0.031621437,-0.095538965,0.137862288,-0.090707215,-0.022672005,0.155210005,-0.118907978
125,12.0445262,-0.019648627,0.018680412,0.027292863,-0.041848276,0.040155623,-0.032018767,-0.095634232,0.138536842,-0.091223772,-0.020942075,0.153646802,-0.117604968
126,12.047842,-0.019464928,0.018821136,0.027116147,-0.042266192,0.040762197,-0.032418341,-0.095721909,0.139204501,-0.091734577,-0.019196326,0.1520524,-0.116273807
127,12.0518466,-0.019279402,0.018963609,0.026936776,-0.042684475,0.041371672,-0.032820133,-0.095801925,0.139865127,-0.092239506,-0.017434867,0.150426729,-0.114914512
128,12.0558734,-0.019092049,0.019107843,0.026754736,-0.04310309,0.041984017,-0.033224118,-0.095874214,0.140518585,-0.092738436,-0.015657813,0.148769729,-0.113527105
129,12.0602941,-0.018902867,0.019253845,0.026570016,-0.043522003,0.042599201,-0.033630268,-0.095938707,0.141164736,-0.093231245,-0.013865283,0.147081348,-0.112111614
130,12.0641727,-0.018711854,0.019401627,0.026382602,-0.043941182,0.043217191,-0.034038558,-0.095995337,0.141803444,-0.09371781,-0.012057403,0.145361539,-0.110668073
131,12.0684729,-0.018519009,0.019551196,0.026192483,-0.04436059,0.043837954,-0.03444896,-0.096044037,0.142434571,-0.094198009,-0.0102343,0.143610268,-0.109196522
132,12.0725865,-0.018324333,0.019702563,0.025999647,-0.044780194,0.044461457,-0.034861444,-0.096084741,0.143057981,-0.094671719,-0.008396108,0.141827505,-0.107697006
133,12.0765843,-0.018127823,0.019855735,0.025804081,-0.045199958,0.045087666,-0.035275984,-0.096117383,0.143673535,-0.095138818,-0.006542964,0.140013228,-0.106169577
134,12.0808962,-0.017929479,0.020010723,0.025605774,-0.045619847,0.045716547,-0.035692549,-0.096141899,0.144281095,-0.095599185,-0.004675013,0.138167423,-0.104614292
135,12.0850323,-0.017729301,0.020167535,0.025404715,-0.046039826,0.046348064,-0.03611111,-0.096158223,0.144880524,-0.096052698,-0.0027924,0.136290083,-0.103031213
136,12.0890543,-0.017527289,0.020326179,0.025200891,-0.046459857,0.04698218,-0.036531637,-0.096166292,0.145471685,-0.096499235,-0.000895279,0.134381206,-0.101420409
137,12.0932047,-0.017323442,0.020486665,0.024994292,-0.046879906,0.047618861,-0.036954099,-0.096166044,0.146054439,-0.096938677,0.001016194,0.132440799,-0.099781953
138,12.0974139,-0.01711776,0.020648999,0.024784907,-0.047299935,0.048258069,-0.037378465,-0.096157415,0.146628649,-0.097370901,0.002941857,0.130468876,-0.098115927
139,12.1015564,-0.016910243,0.020813192,0.024572724,-0.047719909,0.048899766,-0.037804702,-0.096140345,0.147194177,-0.097795788,0.004881543,0.128465455,-0.096422414
140,12.1057196,-0.016700893,0.02097925,0.024357733,-0.048139789,0.049543914,-0.03823278,-0.096114771,0.147750885,-0.098213219,0.006835078,0.126430564,-0.094701507
141,12.1100999,-0.016489708,0.021147182,0.024139923,-0.048559539,0.050190474,-0.038662664,-0.096080635,0.148298637,-0.098623073,0.008802285,0.124364235,-0.092953304
142,12.1162339,-0.016276691,0.021316996,0.023919284,-0.048979121,0.050839407,-0.039094322,-0.096037877,0.148837294,-0.099025231,0.010782981,0.122266509,-0.091177907
143,12.1195356,-0.016061841,0.021488699,0.023695805,-0.049398498,0.051490673,-0.039527719,-0.095986438,0.149366721,-0.099419576,0.012776976,0.120137432,-0.089375424
144,12.1229478,-0.01584516,0.021662298,0.023469477,-0.04981763,0.052144231,-0.039962822,-0.095926261,0.14988678,-0.099805989,0.014784074,0.117977059,-0.087545969
145,12.1266936,-0.015626649,0.021837802,0.023240289,-0.050236481,0.052800039,-0.040399595,-0.095857289,0.150397334,-0.100184352,0.016804075,0.115785449,-0.085689661
146,12.1308139,-0.015406309,0.022015217,0.023008231,-0.050655011,0.053458057,-0.040838003,-0.095779466,0.150898247,-0.100554548,0.018836771,0.113562671,-0.083806624
147,12.1349077,-0.015184142,0.022194551,0.022773295,-0.051073182,0.054118242,-0.04127801,-0.095692737,0.151389384,-0.100916462,0.020881952,0.111308799,-0.081896985
148,12.1389985,-0.014960149,0.02237581,0.02253547,-0.051490955,0.05478055,-0.041719579,-0.095597047,0.151870608,-0.101269976,0.022939398,0.109023915,-0.079960878
149,12.1440982,-0.014734332,0.022559001,0.022294748,-0.05190829,0.055444939,-0.042162675,-0.095492345,0.152341784,-0.101614976,0.025008888,0.106708108,-0.077998439
150,12.147864,-0.014506693,0.02274413,0.022051119,-0.052325148,0.056111363,-0.042607258,-0.095378577,0.152802778,-0.101951348,0.027090195,0.104361477,-0.076009811
151,12.1520049,-0.014277235,0.022931205,0.021804576,-0.052741489,0.056779779,-0.043053291,-0.095255693,0.153253456,-0.102278976,0.029183086,0.101984126,-0.073995142
152,12.1562835,-0.014045959,0.023120231,0.021555108,-0.053157273,0.05745014,-0.043500737,-0.095123642,0.153693682,-0.102597747,0.031287323,0.099576171,-0.071954586
153,12.1601064,-0.013812869,0.023311215,0.021302708,-0.053572461,0.058122401,-0.043949555,-0.094982376,0.154123324,-0.10290755,0.033402664,0.097137733,-0.069888301
154,12.1643754,-0.013577966,0.023504162,0.021047368,-0.053987011,0.058796516,-0.044399707,-0.094831846,0.154542248,-0.103208271,0.03552886,0.094668945,-0.067796454
155,12.1685349,-0.013341254,0.023699077,0.020789079,-0.054400884,0.059472437,-0.044851152,-0.094672006,0.154950324,-0.1034998,0.037665659,0.092169948,-0.06567922
156,12.1726078,-0.013102736,0.023895968,0.020527834,-0.054814038,0.060150116,-0.045303851,-0.09450281,0.155347418,-0.103782025,0.0398128,0.089640889,-0.063536779
157,12.1766165,-0.012862415,0.024094839,0.020263625,-0.055226433,0.060829506,-0.045757761,-0.094324213,0.1557334,-0.104054838,0.041970016,0.087081925,-0.06136932
158,12.1808908,-0.012620294,0.024295694,0.019996446,-0.055638027,0.061510557,-0.046212843,-0.094136173,0.15610814,-0.10431813,0.044137035,0.084493224,-0.059177042
159,12.1849606,-0.012376377,0.02449854,0.019726287,-0.056048779,0.062193221,-0.046669054,-0.093938645,0.156471508,-0.104571791,0.046313577,0.081874957,-0.05696015
160,12.1891587,-0.012130669,0.024703381,0.019453144,-0.056458647,0.062877446,-0.047126351,-0.093731591,0.156823375,-0.104815717,0.048499356,0.07922731,-0.054718858
161,12.1932182,-0.011883171,0.024910222,0.019177009,-0.05686759,0.063563184,-0.047584693,-0.093514969,0.157163614,-0.105049799,0.050694076,0.076550472,-0.05245339
162,12.1978556,-0.01163389,0.025119067,0.018897875,-0.057275566,0.064250381,-0.048044035,-0.093288742,0.157492098,-0.105273934,0.052897438,0.073844645,-0.050163976
163,12.2016799,-0.011382829,0.025329921,0.018615736,-0.057682533,0.064938988,-0.048504335,-0.093052873,0.157808699,-0.105488017,0.055109132,0.071110039,-0.047850857
164,12.2057421,-0.011129992,0.025542787,0.018330587,-0.058088449,0.065628952,-0.048965548,-0.092807325,0.158113294,-0.105691945,0.057328843,0.06834687,-0.04551428
165,12.2097618,-0.010875385,0.025757669,0.018042421,-0.05849327,0.066320219,-0.049427629,-0.092552065,0.158405757,-0.105885616,0.059556246,0.065555369,-0.043154501
166,12.2141063,-0.010619012,0.025974572,0.017751233,-0.058896956,0.067012738,-0.049890533,-0.092287059,0.158685966,-0.10606893,0.061791011,0.062735774,-0.040771783
167,12.2197913,-0.010360879,0.026193498,0.017457018,-0.059299463,0.067706453,-0.050354215,-0.092012277,0.158953799,-0.106241786,0.064032801,0.059888333,-0.038366397
168,12.2237499,-0.01010099,0.026414452,0.017159769,-0.059700748,0.068401311,-0.05081863,-0.091727688,0.159209133,-0.106404087,0.066281271,0.057013306,-0.035938622
169,12.2281514,-0.009839351,0.026637435,0.016859484,-0.060100769,0.069097257,-0.05128373,-0.091433263,0.15945185,-0.106555736,0.06853607,0.054110963,-0.033488743
170,12.2326469,-0.009575967,0.026862451,0.016556156,-0.060499482,0.069794235,-0.051749469,-0.091128977,0.15968183,-0.106696635,0.070796841,0.051181585,-0.031017054
171,12.2369204,-0.009310845,0.027089503,0.016249782,-0.060896845,0.07049219,-0.052215801,-0.090814803,0.159898957,-0.106826692,0.07306322,0.048225463,-0.028523854
172,12.2414084,-0.00904399,0.027318593,0.015940357,-0.061292814,0.071191066,-0.052682676,-0.090490718,0.160103114,-0.106945811,0.075334837,0.045242898,-0.026009452
173,12.2451681,-0.008775409,0.027549723,0.015627878,-0.061687345,0.071890804,-0.053150048,-0.0901567,0.160294186,-0.107053902,0.077611314,0.042234199,-0.023474161
174,12.2485711,-0.008505108,0.027782896,0.01531234,-0.062080396,0.072591348,-0.053617867,-0.089812729,0.160472059,-0.107150875,0.079892268,0.039199686,-0.020918306
175,12.2534716,-0.008233093,0.028018113,0.014993741,-0.062471923,0.073292641,-0.054086086,-0.089458785,0.160636623,-0.107236639,0.082177309,0.036139689,-0.018342215
176,12.2585787,-0.007959372,0.028255376,0.014672077,-0.062861882,0.073994622,-0.054554655,-0.089094852,0.160787765,-0.107311107,0.08446604,0.033054547,-0.015746225
177,12.2637578,-0.00768395,0.028494686,0.014347346,-0.063250229,0.074697235,-0.055023524,-0.088720914,0.160925377,-0.107374193,0.086758058,0.029944607,-0.013130683
178,12.2686445,-0.007406836,0.028736045,0.014019544,-0.063636921,0.075400419,-0.055492644,-0.088336959,0.161049352,-0.107425813,0.089052956,0.026810223,-0.010495941
179,12.2725915,-0.007128037,0.028979454,0.01368867,-0.064021915,0.076104115,-0.055961964,-0.087942974,0.161159584,-0.107465882,0.09135032,0.023651761,-0.007842362
180,12.2768376,-0.00684756,0.029224913,0.013354721,-0.064405165,0.076808262,-0.056431434,-0.08753895,0.161255967,-0.107494321,0.093649731,0.020469592,-0.005170316
181,12.2810936,-0.006565412,0.029472422,0.013017696,-0.064786629,0.077512799,-0.056901003,-0.087124878,0.1613384,-0.107511049,0.095950764,0.0172641,-0.002480184
182,12.28506,-0.006281603,0.029721983,0.012677592,-0.065166262,0.078217666,-0.057370619,-0.086700752,0.161406781,-0.107515987,0.098252987,0.014035673,0.000227642
183,12.2893062,-0.005996139,0.029973595,0.012334409,-0.065544021,0.078922801,-0.057840231,-0.086266569,0.161461011,-0.10750906,0.100555963,0.010784711,0.002952758
184,12.2976348,-0.00570903,0.030227258,0.011988146,-0.065919862,0.079628142,-0.058309787,-0.085822325,0.161500993,-0.107490193,0.102859248,0.007511621,0.00569475
185,12.3017855,-0.005420283,0.030482972,0.011638801,-0.06629374,0.080333626,-0.058779234,-0.08536802,0.161526631,-0.107459312,0.105162395,0.004216818,0.008453191
186,12.3058312,-0.005129907,0.030740736,0.011286375,-0.066665612,0.081039191,-0.059248519,-0.084903657,0.16153783,-0.107416348,0.10746495,0.000900728,0.011227641
187,12.3101346,-0.004837912,0.03100055,0.010930867,-0.067035433,0.081744773,-0.059717591,-0.084429238,0.161534499,-0.107361231,0.109766457,-0.002436219,0.014017645
188,12.3142667,-0.004544305,0.031262411,0.010572277,-0.06740316,0.082450309,-0.060186396,-0.08394477,0.161516548,-0.107293894,0.112066451,-0.005793578,0.016822737
189,12.3184377,-0.004249097,0.03152632,0.010210605,-0.06776875,0.083155734,-0.060654879,-0.083450259,0.161483888,-0.107214273,0.114364461,-0.0091709,0.01964244
190,12.322711,-0.003952298,0.031792275,0.009845853,-0.068132157,0.083860984,-0.061122988,-0.082945716,0.161436434,-0.107122304,0.11666001,-0.01256772,0.022476265
191,12.3268351,-0.003653915,0.032060273,0.009478021,-0.068493339,0.084565995,-0.061590668,-0.082431151,0.1613741,-0.107017927,0.118952614,-0.015983567,0.025323711
192,12.3310455,-0.00335396,0.032330313,0.009107109,-0.068852252,0.085270701,-0.062057865,-0.081906581,0.161296806,-0.106901083,0.121241783,-0.019417956,0.028184268
193,12.334998,-0.003052442,0.032602392,0.008733121,-0.069208851,0.085975036,-0.062524524,-0.081372019,0.161204471,-0.106771717,0.123527017,-0.022870392,0.031057414
194,12.3385043,-0.002749372,0.032876508,0.008356057,-0.069563093,0.086678936,-0.062990591,-0.080827485,0.161097017,-0.106629775,0.125807813,-0.026340368,0.033942621
195,12.3421277,-0.002444759,0.033152659,0.007975919,-0.069914936,0.087382332,-0.06345601,-0.080272999,0.160974369,-0.106475204,0.128083658,-0.029827366,0.036839347
196,12.3472,-0.002138616,0.033430841,0.007592711,-0.070264335,0.08808516,-0.063920727,-0.079708584,0.160836454,-0.106307957,0.130354032,-0.033330858,0.039747045
197,12.3537305,-0.001830951,0.033711052,0.007206433,-0.070611247,0.088787352,-0.064384685,-0.079134265,0.160683201,-0.106127986,0.132618411,-0.036850303,0.042665156
198,12.358382,-0.001521777,0.033993287,0.00681709,-0.070955628,0.089488841,-0.06484783,-0.078550069,0.160514541,-0.105935247,0.134876266,-0.040385152,0.045593114
199,12.361694,-0.001211103,0.034277543,0.006424685,-0.071297437,0.09018956,-0.065310104,-0.077956025,0.160330408,-0.105729698,0.137127062,-0.043934843,0.048530342
200,12.3650248,-0.000898943,0.034563817,0.006029221,-0.071636629,0.09088944,-0.065771453,-0.077352167,0.160130739,-0.1055113,0.139370258,-0.047498804,0.051476255
201,12.3686721,-0.000585307,0.034852103,0.005630702,-0.071973163,0.091588415,-0.06623182,-0.076738528,0.159915472,-0.105280017,0.141605304,-0.051076453,0.05443026
202,12.3728883,-0.000270207,0.035142398,0.005229132,-0.072306994,0.092286415,-0.066691148,-0.076115145,0.15968455,-0.105035813,0.143831648,-0.054667197,0.057391752
203,12.3767829,4.63E-05,0.035434697,0.004824515,-0.072638082,0.092983372,-0.067149382,-0.075482057,0.159437916,-0.104778659,0.146048732,-0.058270437,0.06036012
204,12.3828041,0.000364338,0.035728996,0.004416856,-0.072966383,0.093679217,-0.067606464,-0.074839306,0.159175517,-0.104508525,0.148255998,-0.061885565,0.063334742
205,12.3869524,0.000683758,0.036025288,0.004006161,-0.073291856,0.094373882,-0.068062338,-0.074186936,0.158897302,-0.104225386,0.150452883,-0.065511965,0.066314987
206,12.3911889,0.001004594,0.036323568,0.003592434,-0.073614458,0.095067297,-0.068516946,-0.073524994,0.158603223,-0.103929217,0.152638824,-0.069149013,0.069300217
207,12.3955723,0.001326833,0.036623831,0.003175681,-0.073934149,0.095759393,-0.068970233,-0.072853529,0.158293236,-0.103619999,0.154813253,-0.072796075,0.072289781
208,12.3997219,0.001650461,0.036926072,0.002755908,-0.074250885,0.0964501,-0.06942214,-0.072172591,0.157967298,-0.103297715,0.1569756,-0.076452509,0.075283025
209,12.4033953,0.001975466,0.037230283,0.002333121,-0.074564627,0.097139349,-0.069872611,-0.071482236,0.15762537,-0.102962349,0.15912529,-0.080117658,0.078279282
210,12.4078245,0.002301836,0.037536458,0.001907327,-0.074875333,0.097827069,-0.070321589,-0.07078252,0.157267414,-0.10261389,0.161261745,-0.083790858,0.08127788
211,12.4119004,0.002629555,0.037844591,0.001478533,-0.075182962,0.098513191,-0.070769016,-0.070073501,0.156893398,-0.102252329,0.163384382,-0.087471433,0.084278138
212,12.4154405,0.002958612,0.038154675,0.001046745,-0.075487475,0.099197644,-0.071214835,-0.069355242,0.15650329,-0.101877661,0.165492617,-0.091158696,0.087279365
213,12.4192379,0.003288992,0.038466703,0.000611972,-0.075788829,0.099880357,-0.071658989,-0.068627806,0.156097062,-0.101489883,0.16758586,-0.094851953,0.090280865
214,12.4228991,0.003620681,0.038780667,0.00017422,-0.076086987,0.100561262,-0.07210142,-0.067891261,0.155674691,-0.101088994,0.16966352,-0.098550499,0.093281932
215,12.4279586,0.003953665,0.03909656,-0.000266502,-0.076381907,0.101240286,-0.072542072,-0.067145676,0.155236154,-0.100674999,0.171725004,-0.102253621,0.096281852
216,12.4321116,0.00428793,0.039414373,-0.000710185,-0.076673552,0.101917359,-0.072980888,-0.066391122,0.154781433,-0.100247904,0.173769717,-0.105960601,0.099279904
217,12.4362085,0.004623463,0.039734099,-0.001156822,-0.076961881,0.10259241,-0.073417809,-0.065627675,0.154310513,-0.099807719,0.175797062,-0.109670711,0.102275362
218,12.439565,0.004960247,0.04005573,-0.001606402,-0.077246856,0.10326537,-0.073852778,-0.064855411,0.153823382,-0.099354457,0.17780644,-0.113383221,0.105267489
219,12.4436642,0.005298268,0.040379256,-0.002058918,-0.077528438,0.103936166,-0.07428574,-0.06407441,0.153320031,-0.098888134,0.179797253,-0.117097394,0.108255543
220,12.4486827,0.005637512,0.040704668,-0.002514358,-0.077806591,0.104604728,-0.074716636,-0.063284755,0.152800454,-0.098408768,0.181768902,-0.120812491,0.111238775
221,12.4530133,0.005977964,0.041031958,-0.002972714,-0.078081275,0.105270986,-0.07514541,-0.062486531,0.152264649,-0.097916384,0.18372079,-0.124527769,0.114216431
222,12.4565623,0.006319607,0.041361116,-0.003433974,-0.078352455,0.105934868,-0.075572005,-0.061679825,0.151712616,-0.097411007,0.185652325,-0.128242482,0.117187753
223,12.4606919,0.006662428,0.041692133,-0.003898129,-0.078620092,0.106596303,-0.075996364,-0.060864727,0.15114436,-0.096892667,0.187562918,-0.131955878,0.120151977
224,12.4642391,0.007006409,0.042024998,-0.004365168,-0.078884151,0.10725522,-0.07641843,-0.06004133,0.150559889,-0.096361395,0.189451989,-0.135667207,0.123108341
225,12.4686816,0.007351536,0.042359702,-0.004835079,-0.079144595,0.107911549,-0.076838148,-0.05920973,0.149959212,-0.095817229,0.191318969,-0.139375714,0.126056081
226,12.4726327,0.007697793,0.042696233,-0.005307852,-0.07940139,0.108565219,-0.077255461,-0.058370024,0.149342343,-0.095260206,0.193163298,-0.143080646,0.128994431
227,12.4768139,0.008045163,0.043034583,-0.005783473,-0.079654499,0.10921616,-0.077670313,-0.057522313,0.148709301,-0.094690371,0.194984424,-0.146781249,0.13192263
228,12.4813838,0.008393631,0.043374738,-0.006261932,-0.079903888,0.1098643,-0.078082648,-0.056666698,0.148060106,-0.094107769,0.196781805,-0.15047677,0.134839918
229,12.4875411,0.00874318,0.04371669,-0.006743215,-0.080149522,0.110509569,-0.078492411,-0.055803285,0.147394781,-0.09351245,0.198554907,-0.154166462,0.137745542
230,12.4920642,0.009093794,0.044060425,-0.007227311,-0.080391369,0.111151897,-0.078899546,-0.054932181,0.146713353,-0.092904465,0.200303204,-0.157849579,0.140638752
231,12.4972838,0.009445455,0.044405933,-0.007714205,-0.080629394,0.111791214,-0.079303997,-0.054053495,0.146015853,-0.092283871,0.202026183,-0.161525381,0.143518811
232,12.5016908,0.009798148,0.044753201,-0.008203886,-0.080863564,0.112427449,-0.07970571,-0.05316734,0.145302315,-0.091650727,0.203723338,-0.165193136,0.146384992
233,12.5074047,0.010151856,0.045102218,-0.008696338,-0.081093848,0.113060532,-0.080104631,-0.052273828,0.144572775,-0.091005095,0.205394176,-0.168852117,0.14923658
234,12.5120078,0.01050656,0.045452972,-0.009191549,-0.081320213,0.113690394,-0.080500704,-0.051373077,0.143827273,-0.09034704,0.207038214,-0.172501597,0.15207287
235,12.5161952,0.010862245,0.045805449,-0.009689504,-0.081542628,0.114316965,-0.080893876,-0.050465203,0.143065852,-0.089676631,0.208654981,-0.176140844,0.154893164
236,12.5202308,0.011218893,0.046159637,-0.010190189,-0.081761062,0.114940175,-0.081284093,-0.049550328,0.142288558,-0.088993939,0.210244025,-0.179769124,0.15769677
237,12.5243836,0.011576486,0.046515523,-0.010693588,-0.081975485,0.115559956,-0.081671301,-0.048628574,0.141495442,-0.088299039,0.211804903,-0.183385698,0.160483006
238,12.5295052,0.011935006,0.046873093,-0.011199686,-0.082185867,0.116176237,-0.082055447,-0.047700063,0.140686555,-0.087592007,0.213337187,-0.186989833,0.163251196
239,12.5338042,0.012294437,0.047232335,-0.011708469,-0.082392179,0.116788952,-0.082436479,-0.046764923,0.139861954,-0.086872924,0.214840458,-0.190580798,0.166000678
240,12.5389604,0.01265476,0.047593234,-0.01221992,-0.082594391,0.11739803,-0.082814343,-0.04582328,0.139021697,-0.086141874,0.21631431,-0.194157872,0.168730799
241,12.5436281,0.013015957,0.047955776,-0.012734024,-0.082792477,0.118003404,-0.083188989,-0.044875265,0.138165848,-0.085398942,0.217758356,-0.197720338,0.171440919
242,12.5483271,0.013378011,0.048319948,-0.013250763,-0.082986409,0.118605006,-0.083560363,-0.043921008,0.137294471,-0.084644217,0.219172221,-0.201267487,0.174130407
243,12.5521728,0.013740902,0.048685735,-0.013770122,-0.083176158,0.119202768,-0.083928416,-0.042960641,0.136407634,-0.08387779,0.220555546,-0.204798617,0.176798644
244,12.5560009,0.014104613,0.049053122,-0.014292083,-0.0833617,0.119796623,-0.084293095,-0.041994299,0.13550541,-0.083099756,0.221907982,-0.208313029,0.179445016
245,12.5601518,0.014469125,0.049422095,-0.01481663,-0.083543008,0.120386504,-0.08465435,-0.041022118,0.134587873,-0.082310211,0.223229193,-0.211810027,0.182068915
246,12.5643395,0.01483442,0.049792638,-0.015343744,-0.083720057,0.120972343,-0.085012133,-0.040044235,0.1336551,-0.081509256,0.224518855,-0.215288919,0.184669736
247,12.5705145,0.015200479,0.050164736,-0.015873409,-0.083892823,0.121554075,-0.085366391,-0.039060788,0.132707173,-0.080696991,0.225776654,-0.218749014,0.187246877
248,12.5751131,0.015567283,0.050538373,-0.016405605,-0.084061281,0.122131634,-0.085717078,-0.038071917,0.131744174,-0.079873522,0.227002289,-0.222189625,0.189799738
249,12.5785503,0.015934814,0.050913535,-0.016940314,-0.084225408,0.122704953,-0.086064143,-0.037077763,0.13076619,-0.079038956,0.22819547,-0.225610061,0.192327719
250,12.5827358,0.016303052,0.051290204,-0.017477519,-0.084385181,0.123273969,-0.086407539,-0.036078468,0.129773311,-0.078193404,0.229355914,-0.229009635,0.194830219
251,12.5872623,0.016671978,0.051668365,-0.0180172,-0.084540579,0.123838615,-0.086747217,-0.035074177,0.128765629,-0.077336977,0.23048335,-0.23238766,0.197306644
252,12.59107,0.017041573,0.052048002,-0.018559337,-0.084691579,0.124398827,-0.087083132,-0.034065034,0.127743241,-0.076469791,0.231577513,-0.235743454,0.199756405
253,12.5950799,0.017411818,0.052429098,-0.019103911,-0.084838161,0.124954542,-0.087415235,-0.033051184,0.126706244,-0.075591964,0.232638156,-0.239076342,0.202178922
254,12.5990614,0.017782694,0.052811636,-0.019650903,-0.084980304,0.125505696,-0.087743481,-0.032032776,0.12565474,-0.074703616,0.233665041,-0.242385653,0.204573622
255,12.6029706,0.018154181,0.053195599,-0.020200292,-0.08511799,0.126052225,-0.088067824,-0.031009955,0.124588834,-0.073804869,0.23465794,-0.245670718,0.206939937
256,12.6062964,0.01852626,0.05358097,-0.020752058,-0.085251198,0.126594067,-0.088388218,-0.029982873,0.123508633,-0.072895849,0.235616629,-0.248930866,0.209277303
257,12.6100733,0.018898911,0.053967733,-0.02130618,-0.085379911,0.12713116,-0.08870462,-0.028951678,0.122414248,-0.071976684,0.236540888,-0.252165437,0.211585165
258,12.6146232,0.019272114,0.054355868,-0.021862638,-0.085504111,0.127663442,-0.089016985,-0.027916522,0.12130579,-0.071047504,0.237430504,-0.255373782,0.213862987
259,12.6189076,0.019645849,0.054745359,-0.02242141,-0.085623782,0.128190851,-0.08932527,-0.026877555,0.120183378,-0.07010844,0.238285266,-0.258555274,0.216110247
260,12.6244798,0.020020098,0.055136187,-0.022982476,-0.085738906,0.128713328,-0.089629432,-0.025834932,0.119047128,-0.069159629,0.239104973,-0.261709297,0.218326443
261,12.6292303,0.020394839,0.055528335,-0.023545812,-0.085849468,0.129230812,-0.089929428,-0.024788805,0.117897162,-0.068201205,0.239889432,-0.264835247,0.220511084
262,12.6334288,0.020770053,0.055921784,-0.024111398,-0.085955453,0.129743243,-0.090225218,-0.023739328,0.116733605,-0.067233309,0.240638461,-0.267932521,0.222663691
263,12.6374324,0.021145721,0.056316516,-0.024679211,-0.086056848,0.130250562,-0.090516759,-0.022686658,0.115556583,-0.066256081,0.241351891,-0.271000517,0.224783793
264,12.6433362,0.021521821,0.056712512,-0.025249228,-0.086153637,0.130752711,-0.090804011,-0.02163095,0.114366225,-0.065269664,0.242029568,-0.274038633,0.226870931
265,12.6479083,0.021898333,0.057109753,-0.025821428,-0.086245809,0.131249632,-0.091086935,-0.020572359,0.113162662,-0.064274203,0.242671357,-0.277046277,0.228924662
266,12.6517927,0.022275238,0.05750822,-0.026395786,-0.086333351,0.131741267,-0.091365492,-0.019511044,0.11194603,-0.063269846,0.243277139,-0.280022866,0.230944559
267,12.6561059,0.022652516,0.057907895,-0.026972281,-0.086416252,0.132227559,-0.091639642,-0.018447162,0.110716465,-0.06225674,0.243846818,-0.282967828,0.232930217
268,12.6640317,0.023030145,0.058308757,-0.027550887,-0.0864945,0.132708453,-0.091909348,-0.01738087,0.109474107,-0.061235036,0.244380313,-0.285880603,0.234881242
269,12.6683053,0.023408106,0.058710788,-0.028131583,-0.086568086,0.133183893,-0.092174573,-0.016312328,0.108219096,-0.060204886,0.24487756,-0.288760644,0.23679726
270,12.6723777,0.023786379,0.059113967,-0.028714342,-0.086637,0.133653823,-0.09243528,-0.015241692,0.106951579,-0.059166445,0.245338517,-0.291607415,0.23867791
271,12.6767089,0.024164942,0.059518275,-0.029299143,-0.086701233,0.13411819,-0.092691434,-0.014169123,0.1056717,-0.058119867,0.245763158,-0.294420394,0.240522842
272,12.6809511,0.024543775,0.059923692,-0.029885959,-0.086760777,0.13457694,-0.092942998,-0.013094778,0.104379609,-0.057065308,0.246151479,-0.297199069,0.242331718
273,12.6850377,0.024922858,0.060330198,-0.030474767,-0.086815625,0.13503002,-0.09318994,-0.012018816,0.103075457,-0.056002928,0.246503495,-0.299942941,0.244104206
274,12.6891588,0.025302171,0.060737772,-0.031065542,-0.08686577,0.135477377,-0.093432223,-0.010941396,0.101759396,-0.054932886,0.246819235,-0.302651516,0.245839984
275,12.6960836,0.025681692,0.061146394,-0.031658258,-0.086911206,0.13591896,-0.093669817,-0.009862676,0.100431582,-0.053855343,0.24709874,-0.305324313,0.247538738
276,12.7011307,0.026061401,0.061556044,-0.03225289,-0.086951928,0.136354718,-0.093902688,-0.008782814,0.099092173,-0.05277046,0.247342065,-0.307960857,0.249200166
277,12.7047071,0.026441278,0.0619667,-0.032849412,-0.08698793,0.1367846,-0.094130804,-0.007701969,0.097741327,-0.051678403,0.24754927,-0.310560686,0.250823978
278,12.7124809,0.026821302,0.062378343,-0.0334478,-0.08701921,0.137208557,-0.094354135,-0.006620297,0.096379206,-0.050579336,0.247720432,-0.313123344,0.252409898
279,12.7187068,0.027201453,0.06279095,-0.034048026,-0.087045763,0.13762654,-0.09457265,-0.005537956,0.095005974,-0.049473425,0.247855633,-0.315648392,0.253957666
280,12.7226908,0.027581708,0.063204502,-0.034650065,-0.087067588,0.138038501,-0.09478632,-0.004455103,0.093621795,-0.048360837,0.247954969,-0.318135403,0.255467038
281,12.7268014,0.027962049,0.063618976,-0.035253889,-0.087084682,0.138444393,-0.094995116,-0.003371895,0.092226837,-0.04724174,0.24801855,-0.320583965,0.256937789
282,12.7307516,0.028342454,0.064034351,-0.035859474,-0.087097043,0.138844168,-0.09519901,-0.002288486,0.090821268,-0.046116304,0.248046496,-0.322993685,0.258369715
283,12.7349748,0.028722903,0.064450606,-0.036466791,-0.087104673,0.13923778,-0.095397975,-0.001205033,0.089405259,-0.044984699,0.248038944,-0.325364187,0.259762633
284,12.7394756,0.029103375,0.064867719,-0.037075814,-0.08710757,0.139625186,-0.095591983,-0.000121691,0.087978983,-0.043847094,0.247996035,-0.327695105,0.261116379
285,12.7434284,0.029483849,0.065285669,-0.037686516,-0.087105736,0.140006339,-0.09578101,0.000961387,0.086542612,-0.042703663,0.247917922,-0.329986087,0.262430804
286,12.7477495,0.029864305,0.065704434,-0.038298868,-0.087099172,0.140381196,-0.09596503,0.002044047,0.085096321,-0.041554576,0.247804761,-0.33223679,0.263705771
287,12.7519982,0.030244722,0.066123992,-0.038912844,-0.08708788,0.140749715,-0.096144019,0.003126136,0.083640289,-0.040400007,0.247656713,-0.334446878,0.264941154
288,12.7558498,0.030625079,0.06654432,-0.039528416,-0.087071863,0.141111853,-0.096317952,0.004207503,0.082174692,-0.039240129,0.247473939,-0.336616018,0.266136836
289,12.7609889,0.031005356,0.066965397,-0.040145556,-0.087051124,0.141467569,-0.096486809,0.005287995,0.080699711,-0.038075114,0.247256599,-0.338743874,0.2672927
290,12.7657514,0.031385532,0.0673872,-0.040764235,-0.087025669,0.141816822,-0.096650565,0.006367463,0.079215526,-0.036905138,0.247004852,-0.340830112,0.268408631
291,12.7702612,0.031765587,0.067809708,-0.041384426,-0.0869955,0.142159573,-0.096809201,0.007445757,0.077722319,-0.035730376,0.246718861,-0.342874404,0.269484525
292,12.7768066,0.032145499,0.068232897,-0.042006099,-0.086960625,0.142495781,-0.096962695,0.008522727,0.076220276,-0.034551001,0.246398802,-0.344876444,0.270520295
293,12.7810488,0.032525249,0.068656745,-0.042629227,-0.086921048,0.14282541,-0.097111029,0.009598224,0.074709581,-0.03336719,0.246044867,-0.346835951,0.271515875
294,12.7850677,0.032904816,0.06908123,-0.04325378,-0.086876777,0.143148422,-0.097254181,0.010672102,0.073190419,-0.032179119,0.245657261,-0.348752668,0.272471221
295,12.789265,0.033284179,0.069506329,-0.043879729,-0.08682782,0.14346478,-0.097392136,0.011744214,0.07166298,-0.030986962,0.245236201,-0.350626351,0.273386303
296,12.7935501,0.033663318,0.069932019,-0.044507046,-0.086774183,0.143774449,-0.097524874,0.012814413,0.070127451,-0.029790896,0.244781906,-0.352456766,0.274261103
297,12.7969889,0.034042213,0.070358278,-0.0451357,-0.086715877,0.144077393,-0.09765238,0.013882556,0.068584022,-0.028591098,0.244294598,-0.354243677,0.275095605
298,12.8004626,0.034420842,0.070785081,-0.045765664,-0.086652909,0.144373579,-0.097774638,0.014948499,0.067032883,-0.027387742,0.243774497,-0.355986849,0.275889799
299,12.8060677,0.034799187,0.071212408,-0.046396905,-0.086585291,0.144662973,-0.097891632,0.016012098,0.065474226,-0.026181006,0.243221828,-0.357686049,0.276643677
300,12.8102316,0.035177226,0.071640234,-0.047029397,-0.086513032,0.144945542,-0.098003347,0.017073213,0.063908243,-0.024971065,0.24263682,-0.359341051,0.277357244
301,12.8145303,0.035554939,0.072068536,-0.047663107,-0.086436145,0.145221256,-0.098109771,0.018131702,0.062335128,-0.023758095,0.242019711,-0.360951642,0.278030515
302,12.8185441,0.035932307,0.072497292,-0.048298007,-0.086354639,0.145490084,-0.098210891,0.019187426,0.060755076,-0.022542272,0.241370747,-0.362517624,0.278663518
303,12.8228169,0.036309308,0.072926478,-0.048934065,-0.086268529,0.145751995,-0.098306694,0.020240245,0.059168281,-0.021323773,0.240690179,-0.364038801,0.279256286
304,12.826696,0.036685923,0.07335607,-0.049571253,-0.086177826,0.14600696,-0.098397169,0.021290024,0.05757494,-0.020102772,0.239978263,-0.365514982,0.279808858
305,12.831025,0.037062132,0.073786046,-0.050209539,-0.086082546,0.146254952,-0.098482306,0.022336625,0.05597525,-0.018879445,0.239235257,-0.366945983,0.280321275
306,12.8351773,0.037437915,0.074216383,-0.050848893,-0.0859827,0.146495943,-0.098562094,0.023379913,0.054369408,-0.017653968,0.238461432,-0.368331629,0.280793587
307,12.8392616,0.037813252,0.074647056,-0.051489285,-0.085878306,0.146729907,-0.098636526,0.024419754,0.052757614,-0.016426515,0.237657063,-0.369671755,0.281225854
308,12.843481,0.038188122,0.075078042,-0.052130682,-0.085769377,0.146956818,-0.098705592,0.025456015,0.051140065,-0.015197262,0.236822439,-0.370966211,0.281618144
309,12.8475962,0.038562507,0.075509319,-0.052773056,-0.085655929,0.147176652,-0.098769285,0.026488564,0.049516962,-0.013966382,0.235957852,-0.372214857,0.281970532
310,12.8518141,0.038936387,0.075940862,-0.053416374,-0.08553798,0.147389384,-0.098827598,0.027517273,0.047888506,-0.01273405,0.235063603,-0.37341756,0.282283099
311,12.8558719,0.039309742,0.076372647,-0.054060606,-0.085415547,0.147594992,-0.098880525,0.028542011,0.046254897,-0.01150044,0.234139996,-0.374574195,0.282555931
312,12.8643944,0.039682552,0.076804653,-0.05470572,-0.085288646,0.147793453,-0.098928062,0.029562651,0.044616336,-0.010265725,0.23318734,-0.375684646,0.282789119
313,12.8686208,0.040054798,0.077236854,-0.055351686,-0.085157296,0.147984747,-0.098970204,0.030579067,0.042973026,-0.009030078,0.232205948,-0.376748803,0.282982761
314,12.8732937,0.040426461,0.077669227,-0.055998472,-0.085021516,0.148168853,-0.099006946,0.031591133,0.04132517,-0.007793671,0.231196138,-0.377766564,0.283136961
315,12.878938,0.040797521,0.078101749,-0.056646046,-0.084881325,0.148345751,-0.099038287,0.032598728,0.039672969,-0.006556677,0.230158232,-0.378737839,0.283251832
316,12.8825817,0.04116796,0.078534396,-0.057294376,-0.084736743,0.148515424,-0.099064224,0.033601728,0.038016628,-0.005319267,0.229092556,-0.379662546,0.283327492
317,12.8860868,0.041537757,0.078967145,-0.057943432,-0.08458779,0.148677853,-0.099084755,0.034600013,0.036356349,-0.004081611,0.227999439,-0.380540604,0.283364068
318,12.889515,0.041906893,0.079399972,-0.058593182,-0.084434488,0.148833022,-0.099099879,0.035593464,0.034692337,-0.002843882,0.226879207,-0.381371935,0.283361686
319,12.8935315,0.042275351,0.079832852,-0.059243594,-0.084276856,0.148980915,-0.099109598,0.036581963,0.033024796,-0.001606247,0.22573219,-0.382156458,0.283320476
320,12.8976555,0.042643111,0.080265764,-0.059894636,-0.084114918,0.149121517,-0.099113911,0.037565394,0.031353931,-0.000368878,0.224558718,-0.382894095,0.283240573
321,12.9016892,0.043010154,0.080698682,-0.060546275,-0.083948696,0.149254814,-0.09911282,0.038543641,0.029679947,0.000868059,0.223359127,-0.38358477,0.283122118
322,12.9052917,0.043376462,0.081131584,-0.061198482,-0.083778212,0.149380793,-0.099106328,0.039516593,0.028003048,0.002104394,0.222133751,-0.384228408,0.282965256
323,12.9101068,0.043742016,0.081564446,-0.061851222,-0.083603491,0.149499441,-0.099094437,0.040484136,0.02632344,0.00333996,0.220882928,-0.38482493,0.282770135
324,12.914225,0.044106798,0.081997244,-0.062504465,-0.083424555,0.149610746,-0.099077151,0.041446161,0.024641331,0.00457459,0.219606992,-0.385374258,0.282536902
325,12.9186511,0.044470789,0.082429955,-0.063158177,-0.083241429,0.1497147,-0.099054475,0.042402558,0.022956925,0.005808119,0.218306281,-0.385876317,0.282265713
326,12.9227219,0.04483397,0.082862555,-0.063812328,-0.083054139,0.149811291,-0.099026413,0.04335322,0.021270429,0.00704038,0.216981136,-0.38633103,0.281956729
327,12.9271166,0.045196325,0.08329502,-0.064466885,-0.082862708,0.149900512,-0.098992972,0.044298041,0.019582051,0.00827121,0.215631898,-0.386738325,0.281610118
328,12.9306991,0.045557834,0.083727328,-0.065121815,-0.082667164,0.149982354,-0.098954158,0.045236917,0.017891997,0.009500443,0.214258912,-0.387098126,0.281226049
329,12.9363093,0.045918481,0.084159455,-0.065777086,-0.082467532,0.150056811,-0.098909979,0.046169744,0.016200476,0.010727917,0.212862518,-0.387410358,0.280804695
330,12.9399622,0.046278247,0.084591376,-0.066432667,-0.082263839,0.150123877,-0.098860442,0.047096421,0.014507694,0.01195347,0.211443053,-0.387674949,0.280346227
331,12.9434379,0.046637114,0.08502307,-0.067088524,-0.082056112,0.150183546,-0.098805557,0.048016848,0.012813862,0.013176939,0.210000856,-0.387891835,0.279850822
332,12.9477526,0.046995065,0.085454513,-0.067744626,-0.081844378,0.150235815,-0.098745332,0.048930927,0.011119186,0.014398164,0.208536267,-0.38806096,0.279318662
333,12.9512834,0.047352082,0.08588568,-0.06840094,-0.081628665,0.15028068,-0.098679779,0.04983856,0.009423876,0.015616985,0.207049628,-0.388182272,0.27874993
334,12.9554679,0.047708148,0.08631655,-0.069057434,-0.081409003,0.150318139,-0.098608907,0.050739651,0.00772814,0.016833242,0.205541276,-0.388255719,0.27814481
335,12.9599546,0.048063247,0.086747099,-0.069714075,-0.081185419,0.150348191,-0.098532729,0.051634107,0.006032188,0.018046776,0.204011547,-0.388281245,0.277503482
336,12.96425,0.04841736,0.087177303,-0.070370831,-0.080957943,0.150370835,-0.098451256,0.052521836,0.00433623,0.01925743,0.202460781,-0.388258802,0.27682613
337,12.9694284,0.048770472,0.08760714,-0.07102767,-0.080726604,0.150386071,-0.098364501,0.053402745,0.002640474,0.020465047,0.200889321,-0.388188353,0.276112943
338,12.9729828,0.049122564,0.088036586,-0.071684559,-0.080491432,0.150393901,-0.098272479,0.054276746,0.000945131,0.021669471,0.199297519,-0.388069878,0.275364124
339,12.976797,0.049473621,0.088465619,-0.072341467,-0.080252458,0.150394327,-0.098175203,0.055143749,-0.00074959,0.022870547,0.197685737,-0.387903373,0.274579884
340,12.9808631,0.049823626,0.088894216,-0.07299836,-0.080009712,0.150387353,-0.098072689,0.05600367,-0.002443479,0.02406812,0.196054344,-0.387688846,0.273760449
341,12.9875652,0.050172562,0.089322353,-0.073655206,-0.079763226,0.150372982,-0.097964951,0.056856422,-0.004136326,0.025262038,0.194403714,-0.387426318,0.272906055
342,12.9914768,0.050520414,0.089750009,-0.074311974,-0.079513031,0.150351219,-0.097852007,0.057701924,-0.005827921,0.026452147,0.192734225,-0.387115815,0.272016949
343,12.9952009,0.050867165,0.090177159,-0.07496863,-0.079259159,0.150322071,-0.097733873,0.058540092,-0.007518055,0.027638297,0.191046258,-0.386757369,0.271093383
344,12.9994953,0.051212799,0.090603783,-0.075625143,-0.079001643,0.150285544,-0.097610567,0.059370847,-0.009206519,0.028820339,0.189340189,-0.386351014,0.270135616
345,13.003583,0.0515573,0.091029857,-0.07628148,-0.078740513,0.150241645,-0.097482107,0.060194112,-0.010893104,0.029998122,0.187616397,-0.38589679,0.26914392
346,13.0088292,0.051900652,0.091455358,-0.07693761,-0.078475804,0.150190385,-0.097348512,0.061009809,-0.0125776,0.031171501,0.185875257,-0.385394746,0.268118579
347,13.014284,0.052242841,0.091880264,-0.077593499,-0.07820755,0.150131771,-0.097209802,0.061817863,-0.014259798,0.032340327,0.184117146,-0.38484494,0.267059892
348,13.0187915,0.052583851,0.092304554,-0.078249117,-0.077935782,0.150065815,-0.097065997,0.062618202,-0.015939492,0.033504457,0.182342438,-0.384247438,0.265968174
349,13.0235395,0.052923665,0.092728204,-0.07890443,-0.077660535,0.149992528,-0.096917117,0.063410753,-0.017616471,0.034663747,0.180551503,-0.38360231,0.26484375
350,13.0270072,0.05326227,0.093151193,-0.079559407,-0.077381844,0.149911923,-0.096763184,0.064195447,-0.019290528,0.035818054,0.17874471,-0.382909629,0.263686957
351,13.0311857,0.05359965,0.093573499,-0.080214016,-0.077099743,0.149824012,-0.096604221,0.064972214,-0.020961456,0.036967238,0.176922421,-0.38216947,0.262498137
352,13.0352671,0.053935791,0.093995099,-0.080868226,-0.076814266,0.14972881,-0.09644025,0.065740989,-0.022629048,0.03811116,0.175084996,-0.381381908,0.261277639
353,13.0390423,0.054270677,0.094415973,-0.081522003,-0.076525449,0.149626331,-0.096271293,0.066501705,-0.024293096,0.039249683,0.17323279,-0.380547013,0.260025815
354,13.0434005,0.054604294,0.094836097,-0.082175317,-0.076233327,0.149516593,-0.096097376,0.067254299,-0.025953394,0.040382669,0.171366151,-0.379664857,0.258743016
355,13.0476303,0.054936629,0.095255451,-0.082828136,-0.075937935,0.14939961,-0.095918522,0.067998709,-0.027609736,0.041509985,0.169485428,-0.378735509,0.257429599
356,13.052189,0.055267666,0.095674013,-0.083480428,-0.07563931,0.149275402,-0.095734757,0.068734874,-0.029261916,0.042631498,0.167590966,-0.377759046,0.256085928
357,13.0559717,0.055597392,0.096091762,-0.084132162,-0.075337488,0.149143987,-0.095546106,0.069462734,-0.030909728,0.043747076,0.165683115,-0.376735553,0.254712372
358,13.0601165,0.055925792,0.096508676,-0.084783306,-0.075032504,0.149005384,-0.095352595,0.070182233,-0.032552967,0.04485659,0.163762223,-0.375665122,0.253309311
359,13.0663798,0.056252853,0.096924734,-0.085433829,-0.074724396,0.148859614,-0.095154252,0.070893313,-0.034191428,0.045959912,0.161828645,-0.374547861,0.251877125
360,13.0727579,0.056578562,0.097339915,-0.0860837,-0.074413201,0.148706698,-0.094951103,0.07159592,-0.035824906,0.047056915,0.159882739,-0.37338389,0.250416202
361,13.0767024,0.056902905,0.097754198,-0.086732887,-0.074098956,0.148546658,-0.094743177,0.072290001,-0.037453199,0.048147474,0.15792487,-0.372173351,0.248926933
362,13.0810018,0.057225869,0.098167563,-0.087381359,-0.073781697,0.148379517,-0.094530501,0.072975505,-0.039076103,0.049231467,0.155955409,-0.370916401,0.247409714
363,13.0845602,0.05754744,0.098579989,-0.088029086,-0.073461463,0.148205301,-0.094313105,0.073652382,-0.040693415,0.050308772,0.153974732,-0.369613214,0.245864941
364,13.088957,0.057867606,0.098991455,-0.088676037,-0.073138292,0.148024032,-0.094091018,0.074320583,-0.042304935,0.05137927,0.151983217,-0.368263971,0.244293007
365,13.0934039,0.058186355,0.09940194,-0.089322181,-0.07281222,0.147835737,-0.093864271,0.074980062,-0.043910461,0.052442844,0.149981238,-0.366868864,0.242694304
366,13.0976254,0.058503673,0.099811425,-0.089967486,-0.072483288,0.147640443,-0.093632893,0.075630775,-0.045509793,0.053499376,0.147969175,-0.365428101,0.24106922
367,13.1017745,0.058819547,0.10021989,-0.090611924,-0.072151532,0.147438177,-0.093396916,0.076272677,-0.047102733,0.054548753,0.145947405,-0.363941911,0.239418148
368,13.1063362,0.059133967,0.100627313,-0.091255463,-0.071816992,0.147228967,-0.093156371,0.076905728,-0.048689082,0.055590863,0.143916307,-0.36241054,0.23774148
369,13.1100385,0.059446919,0.101033676,-0.091898073,-0.071479707,0.147012844,-0.092911291,0.077529888,-0.050268645,0.056625593,0.141876255,-0.360834246,0.236039609
370,13.1142317,0.059758393,0.101438959,-0.092539724,-0.071139714,0.146789835,-0.092661707,0.078145117,-0.051841224,0.057652835,0.139827618,-0.359213303,0.234312928
371,13.1182285,0.060068375,0.101843142,-0.093180386,-0.070797054,0.146559974,-0.092407653,0.078751381,-0.053406626,0.058672482,0.13777076,-0.357547988,0.232561832
372,13.1216777,0.060376855,0.102246205,-0.093820028,-0.070451765,0.146323291,-0.092149161,0.079348642,-0.054964658,0.059684427,0.135706032,-0.355838582,0.23078671
373,13.1252916,0.060683821,0.10264813,-0.094458623,-0.070103888,0.146079819,-0.091886267,0.079936868,-0.056515127,0.060688566,0.13363378,-0.354085367,0.228987948
374,13.1297251,0.060989262,0.103048896,-0.095096139,-0.06975346,0.145829591,-0.091619004,0.080516027,-0.058057843,0.061684798,0.131554338,-0.352288618,0.227165929
375,13.1348033,0.061293167,0.103448486,-0.095732547,-0.069400523,0.145572643,-0.091347407,0.081086088,-0.059592616,0.062673021,0.129468031,-0.35044862,0.225321037
376,13.1412353,0.061595524,0.10384688,-0.096367818,-0.069045116,0.145309008,-0.091071511,0.081647022,-0.061119259,0.063653136,0.127375178,-0.348565671,0.22345366
377,13.1452634,0.061896324,0.10424406,-0.097001924,-0.068687279,0.145038723,-0.090791352,0.0821988,-0.062637583,0.064625046,0.125276088,-0.346640084,0.221564198
378,13.1494219,0.062195556,0.104640007,-0.097634834,-0.068327052,0.144761824,-0.090506966,0.082741397,-0.064147404,0.065588655,0.123171067,-0.344672186,0.219653056
379,13.1534352,0.062493209,0.105034702,-0.09826652,-0.067964475,0.14447835,-0.090218389,0.083274786,-0.065648538,0.06654387,0.121060416,-0.342662315,0.217720645
380,13.1569976,0.062789274,0.105428128,-0.098896954,-0.067599588,0.144188338,-0.089925658,0.083798945,-0.067140801,0.067490599,0.118944432,-0.340610811,0.215767378
381,13.1611127,0.063083739,0.105820266,-0.099526107,-0.067232432,0.143891828,-0.089628811,0.08431385,-0.068624013,0.06842875,0.11682341,-0.338518022,0.21379367
382,13.1645069,0.063376596,0.106211099,-0.100153951,-0.066863047,0.143588859,-0.089327885,0.08481948,-0.070097995,0.069358237,0.114697643,-0.336384299,0.211799941
383,13.168676,0.063667835,0.106600608,-0.100780457,-0.066491474,0.143279472,-0.089022918,0.085315815,-0.071562567,0.070278972,0.112567424,-0.334210003,0.209786609
384,13.1727383,0.063957446,0.106988777,-0.101405598,-0.066117753,0.142963709,-0.088713948,0.085802836,-0.073017555,0.071190871,0.110433045,-0.331995498,0.207754096
385,13.1770245,0.06424542,0.107375587,-0.102029346,-0.065741925,0.142641613,-0.088401015,0.086280525,-0.074462782,0.072093851,0.1082948,-0.329741158,0.205702822
386,13.1808456,0.064531748,0.107761022,-0.102651673,-0.065364032,0.142313225,-0.088084158,0.086748867,-0.075898076,0.07298783,0.106152979,-0.327447364,0.203633208
387,13.1845346,0.064816421,0.108145064,-0.103272552,-0.064984113,0.141978589,-0.087763415,0.087207846,-0.077323266,0.07387273,0.104007873,-0.325114501,0.20154567
388,13.1889965,0.06509943,0.108527697,-0.103891956,-0.06460221,0.141637751,-0.087438827,0.087657449,-0.078738181,0.074748474,0.101859769,-0.322742957,0.199440621
389,13.1931887,0.065380767,0.108908904,-0.104509858,-0.064218363,0.141290756,-0.087110434,0.088097663,-0.080142653,0.075614985,0.099708954,-0.320333132,0.197318473
390,13.1976763,0.065660423,0.109288668,-0.10512623,-0.063832615,0.140937649,-0.086778277,0.088528477,-0.081536516,0.07647219,0.097555717,-0.317885436,0.195179637
391,13.2018284,0.06593839,0.109666974,-0.105741047,-0.063445005,0.140578477,-0.086442396,0.088949881,-0.082919606,0.077320017,0.095400345,-0.315400294,0.193024523
392,13.2059308,0.06621466,0.110043804,-0.106354282,-0.063055575,0.140213288,-0.086102832,0.089361866,-0.08429176,0.078158395,0.093243128,-0.312878146,0.190853538
393,13.2099656,0.066489225,0.110419143,-0.106965909,-0.062664366,0.139842129,-0.085759627,0.089764426,-0.085652818,0.078987257,0.091084355,-0.310319442,0.188667089
394,13.2140914,0.066762077,0.110792974,-0.107575902,-0.062271419,0.13946505,-0.085412823,0.090157552,-0.087002619,0.079806535,0.08892431,-0.307724639,0.186465575
395,13.2175544,0.06703321,0.111165284,-0.108184235,-0.061876776,0.1390821,-0.085062461,0.090541242,-0.088341009,0.080616165,0.086763277,-0.305094196,0.184249391
396,13.2212757,0.067302615,0.111536055,-0.108790882,-0.061480478,0.138693329,-0.084708584,0.090915491,-0.089667832,0.081416083,0.084601533,-0.302428566,0.182018925
397,13.2253688,0.067570285,0.111905273,-0.109395819,-0.061082565,0.138298788,-0.084351234,0.091280296,-0.090982936,0.082206229,0.082439347,-0.299728198,0.179774557
398,13.2290623,0.067836214,0.112272923,-0.10999902,-0.06068308,0.137898529,-0.083990454,0.091635657,-0.092286169,0.082986541,0.080276983,-0.296993532,0.177516659
399,13.2327943,0.068100394,0.112638989,-0.11060046,-0.060282063,0.137492603,-0.083626288,0.091981572,-0.093577384,0.083756962,0.0781147,-0.29422501,0.175245597
400,13.2372668,0.06836282,0.113003457,-0.111200114,-0.059879556,0.137081064,-0.083258778,0.092318044,-0.094856432,0.084517435,0.075952752,-0.291423079,0.172961734
401,13.2411099,0.068623485,0.113366313,-0.111797959,-0.0594756,0.136663965,-0.082887969,0.092645073,-0.09612317,0.085267904,0.073791399,-0.288588199,0.170665436
402,13.2475715,0.068882381,0.113727542,-0.112393971,-0.059070236,0.136241361,-0.082513903,0.092962663,-0.097377454,0.086008318,0.071630897,-0.285720837,0.168357068
403,13.2519075,0.069139505,0.11408713,-0.112988124,-0.058663505,0.135813305,-0.082136625,0.093270819,-0.098619143,0.086738622,0.069471506,-0.282821474,0.166036999
404,13.2561065,0.069394849,0.114445063,-0.113580396,-0.058255449,0.135379853,-0.08175618,0.093569546,-0.099848099,0.087458768,0.067313483,-0.279890597,0.1637056
405,13.2603453,0.069648407,0.114801328,-0.114170762,-0.057846109,0.134941061,-0.081372611,0.09385885,-0.101064185,0.088168706,0.065157088,-0.276928702,0.161363246
406,13.2641998,0.069900175,0.11515591,-0.114759201,-0.057435526,0.134496986,-0.080985964,0.094138739,-0.102267266,0.08886839,0.063002576,-0.273936288,0.159010314
407,13.2685443,0.070150147,0.115508797,-0.115345688,-0.057023741,0.134047684,-0.080596283,0.094409222,-0.103457211,0.089557773,0.060850204,-0.270913858,0.156647183
408,13.2727009,0.070398318,0.115859976,-0.115930202,-0.056610795,0.133593214,-0.080203614,0.094670309,-0.10463389,0.090236813,0.058700227,-0.267861916,0.154274237
409,13.2767058,0.070644682,0.116209433,-0.116512719,-0.056196729,0.133133634,-0.079808001,0.09492201,-0.105797174,0.090905467,0.056552898,-0.264780966,0.15189186
410,13.2811522,0.070889236,0.116557155,-0.117093218,-0.055781584,0.132669001,-0.079409491,0.095164338,-0.106946938,0.091563696,0.054408468,-0.261671513,0.14950044
411,13.2845174,0.071131974,0.11690313,-0.117671676,-0.055365402,0.132199377,-0.079008128,0.095397306,-0.108083059,0.092211459,0.052267184,-0.25853406,0.147100363
412,13.2888095,0.071372892,0.117247347,-0.118248073,-0.054948222,0.13172482,-0.078603958,0.095620929,-0.109205415,0.092848721,0.05012929,-0.255369101,0.144692014
413,13.2929951,0.071611985,0.117589791,-0.118822386,-0.054530085,0.13124539,-0.078197029,0.095835221,-0.110313888,0.093475446,0.047995027,-0.252177127,0.142275774
414,13.2972753,0.07184925,0.117930453,-0.119394594,-0.054111034,0.13076115,-0.077787385,0.096040199,-0.11140836,0.0940916,0.045864631,-0.24895863,0.139852028
415,13.3017074,0.072084683,0.118269319,-0.119964676,-0.053691107,0.13027216,-0.077375072,0.096235881,-0.112488717,0.094697152,0.04373834,-0.245714106,0.137421168
416,13.3058444,0.07231828,0.118606379,-0.120532613,-0.053270345,0.129778482,-0.076960138,0.096422284,-0.113554846,0.095292071,0.041616396,-0.242444063,0.134983596
417,13.3100006,0.072550037,0.11894162,-0.121098383,-0.05284879,0.129280178,-0.076542629,0.096599429,-0.114606637,0.095876329,0.039499036,-0.239149012,0.13253972
418,13.3141473,0.072779951,0.119275032,-0.121661966,-0.052426481,0.128777312,-0.076122591,0.096767336,-0.115643982,0.096449899,0.037386497,-0.235829469,0.130089955
419,13.3184316,0.073008019,0.119606605,-0.122223344,-0.052003459,0.128269947,-0.075700071,0.096926027,-0.116666774,0.097012756,0.035279011,-0.23248595,0.127634719
420,13.3227148,0.073234238,0.119936326,-0.122782495,-0.051579764,0.127758146,-0.075275116,0.097075523,-0.11767491,0.097564878,0.033176805,-0.229118972,0.125174435
421,13.3266911,0.073458605,0.120264186,-0.123339401,-0.051155436,0.127241973,-0.074847773,0.09721585,-0.11866829,0.098106243,0.031080101,-0.225729051,0.122709525
422,13.3301436,0.073681117,0.120590174,-0.123894043,-0.050730515,0.126721494,-0.074418089,0.09734703,-0.119646813,0.098636832,0.028989115,-0.2223167,0.120240413
423,13.3338189,0.073901772,0.12091428,-0.124446403,-0.050305041,0.126196774,-0.073986111,0.09746909,-0.120610383,0.099156628,0.026904059,-0.218882423,0.11776752
424,13.3379623,0.074120567,0.121236495,-0.124996461,-0.049879054,0.125667878,-0.073551886,0.097582056,-0.121558905,0.099665615,0.024825137,-0.215426714,0.115291264
425,13.3414507,0.074337501,0.121556808,-0.1255442,-0.049452593,0.125134871,-0.073115461,0.097685955,-0.122492287,0.100163779,0.02275255,-0.211950059,0.112812056
426,13.3447049,0.07455257,0.12187521,-0.126089602,-0.049025698,0.124597821,-0.072676885,0.097780815,-0.123410438,0.100651108,0.02068649,-0.208452934,0.110330302
427,13.3484479,0.074765775,0.122191692,-0.12663265,-0.048598409,0.124056794,-0.072236203,0.097866666,-0.12431327,0.101127592,0.018627144,-0.204935809,0.107846408
428,13.3554253,0.074977112,0.122506244,-0.127173326,-0.048170764,0.123511857,-0.071793464,0.097943537,-0.125200697,0.101593222,0.016574698,-0.201399161,0.105360777
429,13.3589768,0.07518658,0.122818858,-0.127711613,-0.047742803,0.122963078,-0.071348714,0.098011458,-0.126072634,0.102047992,0.014529333,-0.197843474,0.102873816
430,13.3640817,0.075394179,0.123129525,-0.128247495,-0.047314565,0.122410524,-0.070902003,0.098070461,-0.126928999,0.102491897,0.012491234,-0.194269244,0.100385934
431,13.3682904,0.075599906,0.123438237,-0.128780955,-0.046886088,0.121854263,-0.070453375,0.098120577,-0.127769713,0.102924934,0.010460585,-0.190676979,0.097897538
432,13.3725035,0.075803762,0.123744985,-0.129311978,-0.046457412,0.121294365,-0.070002881,0.098161841,-0.128594697,0.103347101,0.008437571,-0.187067192,0.095409032
433,13.377017,0.076005745,0.124049762,-0.129840547,-0.046028575,0.120730898,-0.069550566,0.098194286,-0.129403876,0.103758399,0.006422379,-0.183440403,0.092920815
434,13.3811857,0.076205854,0.124352559,-0.130366647,-0.045599616,0.120163931,-0.069096478,0.098217945,-0.130197178,0.10415883,0.004415196,-0.179797136,0.090433277
435,13.3853977,0.076404089,0.124653368,-0.130890264,-0.045170572,0.119593534,-0.068640665,0.098232855,-0.130974531,0.104548398,0.002416214,-0.176137918,0.087946803
436,13.3891164,0.076600451,0.124952183,-0.131411381,-0.044741483,0.119019776,-0.068183174,0.098239053,-0.131735867,0.104927107,0.000425623,-0.172463281,0.085461769
437,13.397566,0.076794938,0.125248996,-0.131929985,-0.044312385,0.118442728,-0.067724053,0.098236574,-0.13248112,0.105294966,-0.001556381,-0.168773762,0.082978542
438,13.402172,0.076987551,0.125543801,-0.132446062,-0.043883317,0.11786246,-0.067263348,0.098225456,-0.133210225,0.105651984,-0.003529599,-0.165069901,0.080497479
439,13.406076,0.077178289,0.125836589,-0.132959597,-0.043454316,0.117279043,-0.066801108,0.09820574,-0.133923122,0.105998169,-0.00549383,-0.161352243,0.078018929
440,13.4093261,0.077367155,0.126127355,-0.133470577,-0.04302542,0.116692547,-0.066337379,0.098177464,-0.13461975,0.106333534,-0.007448873,-0.157621328,0.07554323
441,13.4141745,0.077554147,0.126416093,-0.133978989,-0.042596667,0.116103045,-0.06587221,0.098140669,-0.135300055,0.106658092,-0.009394525,-0.153877697,0.073070713
442,13.4183795,0.077739267,0.126702795,-0.134484819,-0.042168093,0.115510606,-0.065405646,0.098095396,-0.135963981,0.106971858,-0.011330584,-0.150121894,0.070601698
443,13.4223971,0.077922515,0.126987457,-0.134988055,-0.041739734,0.114915303,-0.064937735,0.098041688,-0.136611476,0.107274848,-0.013256846,-0.146354466,0.068136498
444,13.4266124,0.078103893,0.127270072,-0.135488685,-0.041311629,0.114317209,-0.064468524,0.097979588,-0.13724249,0.107567078,-0.015173106,-0.142575958,0.065675417
445,13.4300372,0.078283401,0.127550635,-0.135986697,-0.040883814,0.113716393,-0.063998061,0.09790914,-0.137856977,0.107848569,-0.017079161,-0.138786917,0.063218751
446,13.4335855,0.078461041,0.127829141,-0.136482078,-0.040456324,0.113112931,-0.063526391,0.09783039,-0.138454892,0.108119339,-0.018974809,-0.134987884,0.060766792
447,13.4376707,0.078636816,0.128105583,-0.136974818,-0.040029196,0.112506892,-0.063053562,0.097743382,-0.139036191,0.10837941,-0.020859854,-0.131179389,0.058319821
448,13.4413344,0.078810725,0.128379958,-0.137464905,-0.039602467,0.111898351,-0.062579621,0.097648164,-0.139600836,0.108628804,-0.022734103,-0.127361954,0.055878114
449,13.4457767,0.078982771,0.12865226,-0.137952329,-0.039176171,0.111287381,-0.062104613,0.097544784,-0.140148788,0.108867544,-0.024597364,-0.123536099,0.053441943
450,13.4499659,0.079152956,0.128922485,-0.138437079,-0.038750344,0.110674053,-0.061628586,0.097433289,-0.140680011,0.109095657,-0.02644945,-0.11970234,0.051011577
451,13.4535539,0.079321283,0.129190629,-0.138919145,-0.038325022,0.110058442,-0.061151585,0.097313729,-0.141194472,0.109313166,-0.028290177,-0.115861199,0.048587284
452,13.4569535,0.079487752,0.129456688,-0.139398517,-0.03790024,0.10944062,-0.060673658,0.097186154,-0.14169214,0.109520101,-0.030119363,-0.112013196,0.046169335
453,13.4610646,0.079652368,0.129720657,-0.139875186,-0.037476033,0.108820661,-0.06019485,0.097050615,-0.142172986,0.109716488,-0.031936831,-0.108158856,0.043757998
454,13.4644092,0.079815132,0.129982532,-0.140349142,-0.037052435,0.108198638,-0.059715207,0.096907164,-0.142636984,0.109902358,-0.033742407,-0.104298704,0.041353547
455,13.4685795,0.079976047,0.130242311,-0.140820377,-0.03662948,0.107574626,-0.059234776,0.096755852,-0.143084109,0.11007774,-0.035535919,-0.100433271,0.038956257
456,13.4724846,0.080135116,0.13049999,-0.141288882,-0.036207204,0.106948698,-0.058753601,0.096596732,-0.14351434,0.110242668,-0.0373172,-0.096563087,0.036566407
457,13.4768609,0.080292342,0.130755565,-0.14175465,-0.03578564,0.106320927,-0.058271728,0.096429859,-0.143927656,0.110397174,-0.039086085,-0.092688686,0.034184278
458,13.4814305,0.080447729,0.131009034,-0.142217671,-0.035364821,0.105691388,-0.057789204,0.096255288,-0.144324041,0.110541292,-0.040842409,-0.088810601,0.031810149
459,13.4850189,0.080601279,0.131260395,-0.142677938,-0.034944782,0.105060155,-0.057306072,0.096073072,-0.144703479,0.110675058,-0.042586014,-0.084929368,0.029444303
460,13.4893212,0.080752996,0.131509643,-0.143135445,-0.034525555,0.104427301,-0.056822379,0.095883269,-0.145065958,0.110798509,-0.044316743,-0.081045524,0.027087022
461,13.4933154,0.080902884,0.131756778,-0.143590184,-0.034107174,0.103792902,-0.056338169,0.095685934,-0.145411469,0.110911682,-0.046034441,-0.077159606,0.024738589
462,13.4984753,0.081050947,0.132001797,-0.144042149,-0.033689671,0.10315703,-0.055853487,0.095481126,-0.145740002,0.111014618,-0.047738957,-0.07327215,0.022399289
463,13.5024211,0.081197187,0.132244698,-0.144491334,-0.033273079,0.10251976,-0.055368378,0.095268901,-0.146051553,0.111107356,-0.049430142,-0.069383691,0.020069403
464,13.5070468,0.08134161,0.132485479,-0.144937732,-0.03285743,0.101881166,-0.054882886,0.095049318,-0.146346118,0.111189938,-0.051107849,-0.06549476,0.01774921
465,13.510944,0.08148422,0.132724138,-0.145381338,-0.032442756,0.101241323,-0.054397056,0.094822438,-0.146623696,0.111262408,-0.052771938,-0.061605884,0.015438988
466,13.5143396,0.081625021,0.132960675,-0.145822146,-0.032029089,0.100600305,-0.05391093,0.094588318,-0.146884288,0.111324808,-0.054422266,-0.057717589,0.013139011
467,13.5190392,0.081764017,0.133195088,-0.146260152,-0.03161646,0.099958186,-0.053424555,0.094347021,-0.147127899,0.111377186,-0.056058697,-0.053830403,0.010849555
468,13.523035,0.081901213,0.133427376,-0.146695351,-0.031204901,0.099315039,-0.052937972,0.094098606,-0.147354535,0.111419587,-0.057681092,-0.049944865,0.008570898
469,13.5272573,0.082036614,0.133657539,-0.147127739,-0.030794443,0.09867094,-0.052451226,0.093843136,-0.147564203,0.111452059,-0.059289317,-0.046061513,0.006303316
470,13.5312521,0.082170224,0.133885575,-0.147557312,-0.030385115,0.098025962,-0.05196436,0.093580672,-0.147756915,0.111474651,-0.060883241,-0.042180893,0.004047087
471,13.5352056,0.082302049,0.134111484,-0.147984065,-0.02997695,0.097380179,-0.051477417,0.093311278,-0.147932683,0.111487413,-0.062462737,-0.038303548,0.001802485
472,13.5393312,0.082432094,0.134335266,-0.148407996,-0.029569976,0.096733666,-0.050990439,0.093035016,-0.148091523,0.111490397,-0.064027679,-0.034430023,-0.000430214
473,13.5434687,0.082560364,0.134556922,-0.148829102,-0.029164223,0.096086495,-0.050503469,0.092751951,-0.148233453,0.111483655,-0.065577944,-0.030560864,-0.002650737
474,13.5475102,0.082686864,0.13477645,-0.149247379,-0.028759722,0.095438742,-0.05001655,0.092462147,-0.148358494,0.111467241,-0.067113409,-0.026696614,-0.004858815
475,13.5519794,0.0828116,0.134993851,-0.149662826,-0.028356501,0.094790479,-0.049529724,0.092165668,-0.148466667,0.11144121,-0.068633956,-0.022837822,-0.007054175
476,13.5560249,0.082934578,0.135209127,-0.150075441,-0.02795459,0.094141781,-0.049043033,0.091862581,-0.148557998,0.111405618,-0.070139467,-0.018985036,-0.009236549
477,13.5601892,0.083055803,0.135422277,-0.150485221,-0.027554017,0.09349272,-0.048556518,0.09155295,-0.148632515,0.111360522,-0.071629827,-0.015138806,-0.011405669
478,13.5642961,0.083175282,0.135633302,-0.150892166,-0.02715481,0.092843371,-0.04807022,0.091236843,-0.148690246,0.111305981,-0.07310492,-0.011299683,-0.013561266
479,13.5678896,0.083293019,0.135842204,-0.151296274,-0.026756999,0.092193806,-0.047584182,0.090914327,-0.148731226,0.111242055,-0.074564634,-0.007468215,-0.015703076
480,13.5730126,0.083409023,0.136048984,-0.151697544,-0.02636061,0.091544099,-0.047098442,0.090585469,-0.148755487,0.111168804,-0.076008858,-0.003644949,-0.017830836
481,13.5768472,0.083523298,0.136253642,-0.152095976,-0.025965671,0.090894322,-0.046613044,0.090250336,-0.148763067,0.11108629,-0.077437483,0.000169573,-0.019944287
482,13.581204,0.083635851,0.136456181,-0.15249157,-0.025572209,0.090244549,-0.046128025,0.089908998,-0.148754005,0.110994576,-0.078850401,0.003974806,-0.02204317
483,13.5853579,0.083746689,0.136656603,-0.152884326,-0.025180252,0.089594851,-0.045643428,0.089561522,-0.148728344,0.110893727,-0.080247504,0.007770199,-0.024127228
484,13.5893155,0.083855818,0.136854909,-0.153274244,-0.024789826,0.088945302,-0.045159291,0.089207979,-0.148686127,0.110783808,-0.081628681,0.011555189,-0.026196201
485,13.5937508,0.083963246,0.137051101,-0.153661325,-0.024400958,0.088295973,-0.044675653,0.088848438,-0.148627401,0.110664885,-0.082993828,0.015329206,-0.028249831
486,13.5972647,0.084068978,0.137245182,-0.154045571,-0.024013672,0.087646937,-0.044192555,0.08848297,-0.148552216,0.110537026,-0.084342839,0.019091674,-0.030287861
487,13.6016386,0.084173022,0.137437154,-0.154426983,-0.023627996,0.086998265,-0.043710034,0.088111644,-0.148460622,0.110400299,-0.085675611,0.02284202,-0.032310036
488,13.6057099,0.084275385,0.13762702,-0.154805563,-0.023243955,0.086350028,-0.04322813,0.087734533,-0.148352675,0.110254775,-0.086992041,0.026579664,-0.034316103
489,13.6099075,0.084376075,0.137814783,-0.155181312,-0.022861573,0.085702299,-0.042746881,0.087351707,-0.14822843,0.110100524,-0.088292024,0.030304025,-0.036305808
490,13.6142072,0.084475097,0.138000444,-0.155554233,-0.022480876,0.085055148,-0.042266325,0.08696324,-0.148087947,0.109937618,-0.089575454,0.034014515,-0.038278901
491,13.6182798,0.084572461,0.138184009,-0.155924328,-0.022101888,0.084408647,-0.041786498,0.086569203,-0.147931289,0.10976613,-0.090842226,0.037710542,-0.040235129
492,13.6217173,0.084668173,0.138365479,-0.156291602,-0.021724633,0.083762864,-0.04130744,0.086169669,-0.147758519,0.109586136,-0.092092238,0.041391511,-0.042174244
493,13.6249196,0.084762241,0.138544858,-0.156656056,-0.021349135,0.083117872,-0.040829186,0.085764712,-0.147569705,0.109397709,-0.093325392,0.045056834,-0.044095999
494,13.6289426,0.084854673,0.138722151,-0.157017695,-0.020975418,0.082473739,-0.040351774,0.085354406,-0.147364916,0.109200926,-0.094541589,0.04870592,-0.046000152
495,13.6350858,0.084945476,0.13889736,-0.157376522,-0.020603505,0.081830535,-0.039875239,0.084938825,-0.147144225,0.108995865,-0.095740732,0.052338184,-0.047886463
496,13.6392772,0.085034659,0.139070489,-0.157732542,-0.020233418,0.08118833,-0.039399618,0.084518043,-0.146907705,0.108782604,-0.096922722,0.055953031,-0.049754695
497,13.6454637,0.085122229,0.139241543,-0.15808576,-0.01986518,0.080547193,-0.038924947,0.084092136,-0.146655435,0.108561223,-0.098087458,0.059549861,-0.051604608
498,13.6494165,0.085208195,0.139410526,-0.158436179,-0.019498814,0.079907192,-0.038451259,0.08366118,-0.146387495,0.108331801,-0.09923484,0.063128065,-0.053435968
499,13.6538533,0.085292565,0.139577442,-0.158783805,-0.01913434,0.079268395,-0.037978592,0.08322525,-0.146103967,0.108094422,-0.100364765,0.066687029,-0.055248541
500,13.6576073,0.085375347,0.139742296,-0.159128644,-0.018771782,0.078630871,-0.037506978,0.082784423,-0.145804937,0.107849166,-0.101477127,0.070226128,-0.057042094
501,13.6697423,0.08545655,0.139905092,-0.159470701,-0.01841116,0.077994686,-0.037036453,0.082338776,-0.145490492,0.107596119,-0.10257182,0.073744725,-0.058816397
502,13.6747489,0.085536181,0.140065835,-0.159809983,-0.018052495,0.077359909,-0.03656705,0.081888386,-0.145160725,0.107335364,-0.103648735,0.077242169,-0.060571222
503,13.6801786,0.085614251,0.140224531,-0.160146495,-0.017695807,0.076726605,-0.036098803,0.081433331,-0.144815728,0.107066987,-0.104707758,0.080717792,-0.062306345
504,13.6851506,0.085690767,0.140381184,-0.160480244,-0.017341117,0.076094841,-0.035631745,0.08097369,-0.144455598,0.106791074,-0.105748777,0.084170917,-0.064021542
505,13.6897454,0.085765738,0.140535799,-0.160811237,-0.016988445,0.075464683,-0.035165908,0.080509541,-0.144080435,0.106507713,-0.106771674,0.087600855,-0.065716596
506,13.6944504,0.085839173,0.140688383,-0.161139481,-0.01663781,0.074836197,-0.034701325,0.080040964,-0.143690343,0.106216993,-0.107776331,0.091006912,-0.067391289
507,13.6983486,0.085911081,0.14083894,-0.161464984,-0.016289231,0.074209447,-0.034238028,0.079568039,-0.143285426,0.105919003,-0.10876263,0.094388389,-0.069045413
508,13.701758,0.085981471,0.140987476,-0.161787753,-0.015942727,0.073584498,-0.033776048,0.079090846,-0.142865794,0.105613833,-0.109730449,0.097744579,-0.070678761
509,13.7070188,0.086050352,0.141133997,-0.162107796,-0.015598317,0.072961413,-0.033315416,0.078609466,-0.142431558,0.105301574,-0.110679669,0.101074776,-0.072291129
510,13.7110849,0.086117733,0.14127851,-0.162425122,-0.015256018,0.072340258,-0.032856164,0.078123981,-0.141982834,0.104982319,-0.111610171,0.10437827,-0.073882323
511,13.7149672,0.086183624,0.141421019,-0.162739739,-0.014915849,0.071721093,-0.032398322,0.077634472,-0.14151974,0.10465616,-0.112521838,0.107654345,-0.075452148
512,13.718807,0.086248034,0.141561532,-0.163051656,-0.014577826,0.071103983,-0.031941919,0.077141023,-0.141042398,0.104323191,-0.113414554,0.110902285,-0.077000418
513,13.7226623,0.086310971,0.141700054,-0.163360883,-0.014241967,0.070488989,-0.031486985,0.076643716,-0.140550931,0.103983507,-0.114288208,0.114121371,-0.078526946
514,13.7268298,0.086372447,0.141836593,-0.163667427,-0.013908289,0.069876171,-0.03103355,0.076142635,-0.140045467,0.103637203,-0.115142687,0.117310884,-0.080031555
515,13.7308874,0.08643247,0.141971154,-0.1639713,-0.013576808,0.069265593,-0.030581641,0.075637864,-0.139526137,0.103284375,-0.115977885,0.120470101,-0.081514069
516,13.7350807,0.08649105,0.142103745,-0.164272511,-0.013247539,0.068657312,-0.030131288,0.075129486,-0.138993076,0.10292512,-0.116793695,0.123598296,-0.082974316
517,13.7398248,0.086548197,0.142234372,-0.16457107,-0.012920499,0.06805139,-0.029682518,0.074617588,-0.138446419,0.102559536,-0.117590015,0.126694739,-0.084412126
518,13.7434467,0.08660392,0.142363043,-0.164866988,-0.012595702,0.067447885,-0.029235358,0.074102255,-0.137886308,0.10218772,-0.118366747,0.129758704,-0.085827337
519,13.7476954,0.086658229,0.142489764,-0.165160275,-0.012273163,0.066846856,-0.028789836,0.073583571,-0.137312885,0.101809773,-0.119123792,0.132789463,-0.087219785
520,13.751748,0.086711135,0.142614542,-0.165450943,-0.011952897,0.06624836,-0.028345978,0.073061624,-0.136726298,0.101425794,-0.119861058,0.135786288,-0.088589313
521,13.7553103,0.086762646,0.142737386,-0.165739001,-0.011634918,0.065652455,-0.02790381,0.0725365,-0.136126696,0.101035883,-0.120578451,0.138748451,-0.089935763
522,13.7596165,0.086812774,0.142858302,-0.166024463,-0.01131924,0.065059198,-0.027463358,0.072008287,-0.135514233,0.100640142,-0.121275881,0.141675224,-0.091258983
523,13.7643027,0.086861528,0.142977298,-0.166307339,-0.011005875,0.064468643,-0.027024647,0.07147707,-0.134889063,0.100238672,-0.121953259,0.144565878,-0.09255882
524,13.769214,0.086908918,0.143094381,-0.166587642,-0.010694837,0.063880847,-0.026587703,0.070942939,-0.134251348,0.099831575,-0.122610493,0.147419686,-0.093835124
525,13.7725988,0.086954955,0.14320956,-0.166865384,-0.010386139,0.063295863,-0.026152548,0.070405981,-0.133601248,0.099418956,-0.123247492,0.150235926,-0.095087745
526,13.7759982,0.086999648,0.143322842,-0.167140576,-0.010079791,0.062713746,-0.025719208,0.069866285,-0.132938931,0.099000917,-0.12386416,0.153013877,-0.096316537
527,13.779686,0.087043009,0.143434235,-0.167413232,-0.009775807,0.062134548,-0.025287705,0.06932394,-0.132264564,0.098577563,-0.124460406,0.155752828,-0.097521355
528,13.7831338,0.087085047,0.143543748,-0.167683365,-0.009474198,0.061558321,-0.024858064,0.068779036,-0.13157832,0.098148999,-0.125036137,0.158452075,-0.098702058
529,13.7870844,0.087125772,0.143651388,-0.167950988,-0.009174974,0.060985118,-0.024430305,0.068231661,-0.130880374,0.097715331,-0.12559126,0.16111092,-0.099858506
530,13.7931913,0.087165197,0.143757164,-0.168216113,-0.008878146,0.060414989,-0.024004451,0.067681908,-0.130170903,0.097276665,-0.126125681,0.163728678,-0.10099056
531,13.7975715,0.087203329,0.143861084,-0.168478755,-0.008583725,0.059847984,-0.023580524,0.067129865,-0.129450088,0.096833107,-0.126639298,0.166304676,-0.102098076
532,13.80421,0.087240181,0.143963156,-0.168738927,-0.00829172,0.059284151,-0.023158546,0.066575624,-0.128718114,0.096384766,-0.127132001,0.168838253,-0.103180906
533,13.8076703,0.087275763,0.14406339,-0.168996644,-0.00800214,0.05872354,-0.022738536,0.066019277,-0.127975167,0.095931749,-0.127603672,0.171328764,-0.104238903
534,13.8110934,0.087310086,0.144161794,-0.169251919,-0.007714995,0.058166198,-0.022320514,0.065460916,-0.127221437,0.095474166,-0.128054192,0.173775574,-0.105271916
535,13.8144856,0.087343159,0.144258375,-0.169504767,-0.007430293,0.057612171,-0.021904501,0.064900633,-0.126457115,0.095012125,-0.128483446,0.176178053,-0.106279797
536,13.818475,0.087374995,0.144353145,-0.169755202,-0.007148042,0.057061506,-0.021490516,0.064338523,-0.125682397,0.094545737,-0.128891319,0.178535576,-0.1072624
537,13.822766,0.087405602,0.14444611,-0.170003239,-0.00686825,0.056514247,-0.021078578,0.063774677,-0.124897481,0.094075112,-0.129277704,0.180847527,-0.108219582
538,13.82748,0.087434994,0.144537281,-0.170248894,-0.006590925,0.055970438,-0.020668704,0.063209191,-0.124102567,0.093600362,-0.129642496,0.183113293,-0.1091512
539,13.8330449,0.087463179,0.144626666,-0.170492181,-0.006316073,0.055430123,-0.020260913,0.062642158,-0.123297857,0.093121599,-0.129985594,0.185332267,-0.110057112
540,13.8364545,0.087490169,0.144714274,-0.170733115,-0.006043702,0.054893345,-0.019855221,0.062073675,-0.122483559,0.092638936,-0.130306901,0.187503853,-0.110937179
541,13.8399277,0.087515975,0.144800115,-0.170971713,-0.005773816,0.054360143,-0.019451646,0.061503836,-0.121659879,0.092152485,-0.13060632,0.189627462,-0.111791263
542,13.8435465,0.087540607,0.144884198,-0.171207989,-0.005506422,0.05383056,-0.019050204,0.060932737,-0.120827029,0.09166236,-0.130883762,0.191702513,-0.112619229
543,13.8475387,0.087564077,0.144966532,-0.17144196,-0.005241526,0.053304634,-0.018650911,0.060360474,-0.119985222,0.091168677,-0.131139138,0.193728432,-0.113420945
544,13.8517531,0.087586396,0.145047127,-0.171673643,-0.004979131,0.052782404,-0.018253782,0.059787144,-0.119134675,0.090671548,-0.131372365,0.195704659,-0.114196281
545,13.8550487,0.087607574,0.145125992,-0.171903052,-0.004719243,0.052263909,-0.017858831,0.059212843,-0.118275604,0.090171091,-0.131583363,0.197630639,-0.114945112
546,13.858597,0.087627622,0.145203137,-0.172130205,-0.004461865,0.051749183,-0.017466073,0.05863767,-0.117408232,0.089667422,-0.131772056,0.199505829,-0.11566732
547,13.8651481,0.087646551,0.14527857,-0.172355118,-0.004207001,0.051238265,-0.017075523,0.058061722,-0.11653278,0.089160656,-0.131938374,0.201329691,-0.116362788
548,13.8691441,0.087664373,0.145352303,-0.172577807,-0.003954655,0.050731187,-0.016687192,0.057485096,-0.115649475,0.088650911,-0.132082249,0.203101695,-0.117031408
549,13.8726415,0.087681098,0.145424345,-0.17279829,-0.003704829,0.050227985,-0.016301095,0.05690789,-0.114758543,0.088138304,-0.132203623,0.204821317,-0.117673082
550,13.8768892,0.087696737,0.145494705,-0.173016584,-0.003457525,0.049728691,-0.015917242,0.056330204,-0.113860216,0.087622953,-0.132302442,0.206488037,-0.118287722
551,13.8804823,0.087711302,0.145563393,-0.173232705,-0.003212745,0.049233336,-0.015535646,0.055752135,-0.112954725,0.087104977,-0.132378659,0.208101343,-0.118875247
552,13.8852687,0.087724803,0.14563042,-0.173446672,-0.00297049,0.048741952,-0.015156319,0.055173783,-0.112042304,0.086584494,-0.132432231,0.20966073,-0.119435586
553,13.8894067,0.087737251,0.145695794,-0.173658501,-0.002730763,0.048254567,-0.01477927,0.054595246,-0.111123191,0.086061623,-0.132463118,0.211165702,-0.119968675
554,13.8928558,0.087748658,0.145759527,-0.17386821,-0.002493562,0.047771212,-0.01440451,0.054016624,-0.110197623,0.085536483,-0.132471283,0.212615767,-0.120474451
555,13.8964588,0.087759034,0.145821628,-0.174075816,-0.002258889,0.047291913,-0.014032048,0.053438016,-0.109265842,0.085009194,-0.132456692,0.214010442,-0.120952857
556,13.8998487,0.087768391,0.145882107,-0.174281338,-0.002026744,0.046816698,-0.013661894,0.052859521,-0.108328091,0.084479875,-0.132419313,0.215349248,-0.12140384
557,13.9062704,0.087776739,0.145940974,-0.174484793,-0.001797124,0.046345591,-0.013294057,0.05228124,-0.107384614,0.083948646,-0.132359116,0.216631715,-0.121827356
558,13.9101565,0.08778409,0.14599824,-0.174686199,-0.00157003,0.045878618,-0.012928544,0.051703271,-0.10643566,0.083415627,-0.132276087,0.217857377,-0.122223381
559,13.9142996,0.087790454,0.146053914,-0.174885575,-0.00134546,0.045415801,-0.012565363,0.051125715,-0.105481477,0.082880939,-0.132170223,0.219025773,-0.122591913
560,13.9184086,0.087795843,0.146108007,-0.175082938,-0.001123411,0.044957163,-0.01220452,0.050548671,-0.104522316,0.0823447,-0.132041544,0.220136448,-0.122932984
561,13.9224851,0.087800268,0.146160529,-0.175278307,-0.000903881,0.044502725,-0.011846024,0.049972239,-0.10355843,0.081807032,-0.131890087,0.221188948,-0.123246649
562,13.9271805,0.087803739,0.14621149,-0.175471701,-0.000686868,0.044052507,-0.011489878,0.049396518,-0.102590074,0.081268054,-0.131715911,0.222182826,-0.123532988
563,13.9309332,0.087806268,0.146260901,-0.175663137,-0.000472368,0.043606528,-0.01113609,0.048821608,-0.101617506,0.080727885,-0.131519088,0.223117639,-0.123792096
564,13.9363239,0.087807866,0.146308772,-0.175852635,-0.000260377,0.043164806,-0.010784663,0.048247606,-0.100640984,0.080186643,-0.131299704,0.22399295,-0.124024083
565,13.9410247,0.087808543,0.146355113,-0.176040212,-5.09E-05,0.042727358,-0.010435603,0.047674612,-0.09966077,0.079644447,-0.13105786,0.224808329,-0.124229072
566,13.9443032,0.087808311,0.146399934,-0.176225888,0.000156094,0.042294199,-0.010088913,0.047102724,-0.098677125,0.079101414,-0.130793672,0.225563356,-0.124407197
567,13.948624,0.087807179,0.146443247,-0.176409682,0.000360584,0.041865344,-0.009744596,0.046532037,-0.097690315,0.078557662,-0.130507271,0.226257622,-0.124558602
568,13.9558188,0.087805161,0.14648506,-0.176591612,0.000562584,0.041440805,-0.009402656,0.045962651,-0.096700605,0.078013307,-0.130198806,0.226890736,-0.124683443
569,13.9601914,0.087802265,0.146525386,-0.176771696,0.000762101,0.041020596,-0.009063095,0.045394659,-0.095708264,0.077468464,-0.129868451,0.227462328,-0.12478189
570,13.9644177,0.087798503,0.146564233,-0.176949955,0.000959139,0.040604726,-0.008725915,0.044828158,-0.094713561,0.076923249,-0.129516399,0.227972057,-0.124854125
571,13.9690329,0.087793886,0.146601613,-0.177126407,0.001153706,0.040193206,-0.008391116,0.044263242,-0.093716768,0.076377776,-0.129142863,0.228419615,-0.124900335
572,13.9730169,0.087788425,0.146637535,-0.177301071,0.001345809,0.039786044,-0.008058701,0.043700004,-0.092718155,0.075832157,-0.128748067,0.228804726,-0.124920713
573,13.9768126,0.087782129,0.146672011,-0.177473966,0.001535456,0.039383248,-0.007728669,0.043138537,-0.091717997,0.075286505,-0.128332251,0.229127146,-0.124915455
574,13.9811328,0.087775011,0.146705051,-0.177645112,0.001722655,0.038984823,-0.00740102,0.042578931,-0.090716568,0.074740932,-0.127895663,0.229386668,-0.124884762
575,13.9850904,0.087767081,0.146736664,-0.177814526,0.001907413,0.038590774,-0.007075754,0.042021278,-0.089714143,0.074195549,-0.127438557,0.229583124,-0.124828832
576,13.9915663,0.087758349,0.146766862,-0.177982229,0.00208974,0.038201106,-0.00675287,0.041465666,-0.088710997,0.073650464,-0.126961194,0.229716377,-0.12474786
577,13.9957196,0.087748826,0.146795655,-0.17814824,0.002269645,0.037815821,-0.006432366,0.040912182,-0.087707408,0.073105788,-0.126463836,0.229786333,-0.124642041
578,13.9997227,0.087738522,0.146823053,-0.178312577,0.002447137,0.03743492,-0.006114239,0.040360915,-0.086703652,0.072561628,-0.125946749,0.229792932,-0.124511564
579,14.0031413,0.087727448,0.146849067,-0.17847526,0.002622226,0.037058404,-0.005798489,0.039811949,-0.085700005,0.072018092,-0.125410198,0.229736148,-0.124356612
580,14.0064631,0.087715615,0.146873707,-0.178636309,0.002794923,0.03668627,-0.00548511,0.039265368,-0.084696745,0.071475286,-0.124854448,0.229615989,-0.124177368
581,14.010188,0.087703032,0.146896984,-0.178795741,0.002965237,0.036318518,-0.005174102,0.038721257,-0.083694147,0.070933315,-0.124279765,0.229432498,-0.123974007
582,14.0136435,0.087689711,0.146918907,-0.178953576,0.00313318,0.035955143,-0.004865458,0.038179697,-0.08269249,0.070392285,-0.123686417,0.229185758,-0.123746703
583,14.0181395,0.087675662,0.146939487,-0.179109834,0.003298764,0.035596141,-0.004559175,0.037640769,-0.081692048,0.0698523,-0.123074666,0.228875889,-0.123495623
584,14.0226155,0.087660894,0.146958734,-0.179264534,0.003461999,0.035241505,-0.004255249,0.037104553,-0.080693098,0.069313464,-0.122444776,0.228503054,-0.123220933
585,14.0267438,0.087645419,0.14697666,-0.179417694,0.003622898,0.03489123,-0.003953673,0.036571128,-0.079695913,0.068775879,-0.121797009,0.228067462,-0.122922792
586,14.0319036,0.087629246,0.146993273,-0.179569333,0.003781473,0.034545305,-0.003654443,0.03604057,-0.078700768,0.068239647,-0.121131624,0.227569363,-0.122601359
587,14.0357146,0.087612385,0.147008584,-0.179719471,0.003937738,0.034203723,-0.003357552,0.035512958,-0.077707934,0.067704869,-0.12044888,0.227009046,-0.122256789
588,14.0393763,0.087594847,0.147022603,-0.179868127,0.004091704,0.033866472,-0.003062993,0.034988364,-0.076717683,0.067171647,-0.119749031,0.226386835,-0.121889237
589,14.043768,0.087576641,0.147035341,-0.180015319,0.004243386,0.03353354,-0.00277076,0.034466865,-0.075730285,0.066640081,-0.119032333,0.225703084,-0.121498861
590,14.0475927,0.087557778,0.147046808,-0.180161066,0.004392796,0.033204914,-0.002480845,0.033948533,-0.074746008,0.066110269,-0.11829904,0.22495818,-0.121085819
591,14.0535481,0.087538267,0.147057013,-0.180305387,0.00453995,0.032880581,-0.00219324,0.03343344,-0.073765117,0.065582311,-0.117549402,0.224152532,-0.12065027
592,14.0578715,0.087518118,0.147065967,-0.180448301,0.004684861,0.032560524,-0.001907938,0.032921656,-0.072787878,0.065056304,-0.11678367,0.223286579,-0.120192378
593,14.0619138,0.087497341,0.14707368,-0.180589826,0.004827544,0.032244727,-0.001624928,0.032413252,-0.071814551,0.064532346,-0.116002091,0.222360785,-0.119712311
594,14.0660572,0.087475946,0.147080162,-0.180729982,0.004968014,0.031933173,-0.001344202,0.031908296,-0.070845399,0.064010533,-0.115204914,0.221375635,-0.119210238
595,14.07049,0.087453942,0.147085423,-0.180868785,0.005106286,0.031625843,-0.001065751,0.031406856,-0.069880679,0.06349096,-0.114392385,0.220331638,-0.118686335
596,14.075252,0.087431339,0.147089472,-0.181006256,0.005242375,0.031322716,-0.000789564,0.030908998,-0.068920647,0.062973724,-0.11356475,0.21922932,-0.118140777
597,14.0790908,0.087408146,0.14709232,-0.181142411,0.005376297,0.031023772,-0.000515631,0.030414788,-0.067965557,0.062458917,-0.112722257,0.218069227,-0.117573748
598,14.0828682,0.087384373,0.147093977,-0.18127727,0.005508069,0.030728989,-0.000243941,0.02992429,-0.067015659,0.061946634,-0.111865157,0.21685192,-0.116985433
599,14.0871536,0.08736003,0.147094451,-0.181410851,0.005637707,0.030438343,2.55E-05,0.029437567,-0.066071202,0.061436967,-0.110993702,0.215577983,-0.116376024
600,14.09155,0.087335124,0.147093754,-0.18154317,0.005765227,0.030151811,0.000292754,0.028954681,-0.065132433,0.060930007,-0.110108152,0.214248022,-0.115745719
601,14.0953868,0.087309666,0.147091894,-0.181674248,0.005890647,0.029869366,0.000557783,0.028475694,-0.064199595,0.060425847,-0.109208768,0.212862666,-0.115094718
602,14.0993328,0.087283665,0.147088881,-0.1818041,0.006013983,0.029590982,0.000820617,0.028000666,-0.063272928,0.059924574,-0.108295814,0.211422563,-0.114423224
603,14.1035926,0.08725713,0.147084725,-0.181932746,0.006135252,0.029316632,0.001081267,0.027529654,-0.062352669,0.059426279,-0.107369561,0.209928382,-0.113731444
604,14.1081529,0.087230069,0.147079435,-0.182060202,0.006254474,0.029046287,0.001339747,0.027062717,-0.061439055,0.05893105,-0.106430283,0.208380806,-0.113019587
605,14.1120651,0.087202493,0.147073021,-0.182186486,0.006371664,0.028779919,0.001596071,0.026599911,-0.060532316,0.058438973,-0.105478258,0.206780538,-0.112287864
606,14.1155736,0.087174408,0.147065493,-0.182311615,0.006486842,0.028517495,0.001850253,0.02614129,-0.059632681,0.057950136,-0.104513771,0.205128294,-0.111536485
607,14.1191207,0.087145826,0.147056858,-0.182435606,0.006600027,0.028258985,0.002102306,0.025686909,-0.058740376,0.057464623,-0.103537111,0.203424806,-0.110765661
608,14.1248662,0.087116753,0.147047127,-0.182558477,0.006711236,0.028004356,0.002352247,0.02523682,-0.057855622,0.05698252,-0.102548569,0.201670817,-0.109975604
609,14.1289648,0.087087198,0.14703631,-0.182680244,0.006820488,0.027753575,0.002600089,0.024791075,-0.056978639,0.056503909,-0.101548444,0.199867091,-0.109166525
610,14.1328886,0.087057171,0.147024414,-0.182800924,0.006927803,0.027506608,0.002845848,0.024349723,-0.056109642,0.056028873,-0.100537036,0.198014406,-0.108338635
611,14.1368534,0.087026679,0.147011449,-0.182920534,0.0070332,0.027263418,0.003089541,0.023912813,-0.055248844,0.055557495,-0.099514651,0.19611356,-0.107492143
612,14.1411225,0.086995731,0.146997425,-0.183039089,0.007136699,0.02702397,0.003331182,0.023480393,-0.054396452,0.055089854,-0.098481595,0.194165367,-0.106627261
613,14.1452758,0.086964335,0.146982349,-0.183156607,0.007238318,0.026788227,0.003570789,0.023052507,-0.053552672,0.05462603,-0.097438178,0.192170653,-0.105744198
614,14.1494949,0.086932499,0.146966231,-0.183273103,0.007338078,0.02655615,0.003808379,0.022629201,-0.052717706,0.054166104,-0.096384706,0.190130257,-0.104843165
615,14.153843,0.086900232,0.14694908,-0.183388594,0.007436,0.026327701,0.004043968,0.022210519,-0.051891751,0.053710151,-0.095321489,0.188045037,-0.103924376
616,14.1601311,0.08686754,0.146930904,-0.183503094,0.007532103,0.026102839,0.004277575,0.021796501,-0.051075,0.053258251,-0.094248832,0.185915862,-0.102988047
617,14.1642428,0.086834433,0.146911712,-0.18361662,0.007626408,0.025881524,0.004509217,0.021387189,-0.050267644,0.052810478,-0.093167041,0.183743617,-0.102034394
618,14.1686133,0.086800918,0.146891513,-0.183729188,0.007718935,0.025663716,0.004738912,0.020982621,-0.04946987,0.052366908,-0.092076419,0.181529205,-0.101063639
619,14.1725573,0.086767003,0.146870315,-0.183840811,0.007809706,0.02544937,0.004966679,0.020582836,-0.048681859,0.051927616,-0.090977264,0.179273543,-0.100076007
620,14.1769944,0.086732695,0.146848126,-0.183951506,0.007898741,0.025238445,0.005192536,0.020187871,-0.047903789,0.051492674,-0.089869873,0.176977564,-0.099071724
621,14.1809005,0.086698002,0.146824954,-0.184061287,0.007986061,0.025030897,0.005416503,0.01979776,-0.047135835,0.051062155,-0.08875454,0.17464221,-0.098051023
622,14.18525,0.086662931,0.146800809,-0.184170168,0.008071688,0.02482668,0.0056386,0.019412537,-0.046378166,0.050636129,-0.087631553,0.172268441,-0.097014139
623,14.1894559,0.08662749,0.146775697,-0.184278165,0.008155643,0.024625751,0.005858846,0.019032236,-0.045630949,0.050214668,-0.086501201,0.169857228,-0.09596131
624,14.1934075,0.086591686,0.146749627,-0.184385292,0.008237948,0.024428062,0.00607726,0.018656888,-0.044894344,0.049797839,-0.08536377,0.167409555,-0.094892778
625,14.2006247,0.086555526,0.146722608,-0.184491562,0.008318624,0.024233567,0.006293865,0.018286523,-0.044168508,0.049385712,-0.084219541,0.164926419,-0.093808788
626,14.2060066,0.086519017,0.146694646,-0.184596989,0.008397694,0.024042219,0.00650868,0.017921171,-0.043453595,0.048978354,-0.083068797,0.16240883,-0.092709589
627,14.2125563,0.086482166,0.14666575,-0.184701587,0.008475178,0.023853969,0.006721725,0.017560859,-0.042749753,0.048575829,-0.081911818,0.159857812,-0.091595432
628,14.2163408,0.08644498,0.146635927,-0.18480537,0.0085511,0.02366877,0.006933024,0.017205614,-0.042057124,0.048178203,-0.080748883,0.157274398,-0.090466567
629,14.2203259,0.086407466,0.146605185,-0.184908351,0.008625482,0.023486571,0.007142596,0.016855461,-0.04137585,0.04778554,-0.07958027,0.154659634,-0.089323245
630,14.2266172,0.08636963,0.146573532,-0.185010542,0.008698345,0.023307322,0.007350464,0.016510424,-0.040706063,0.047397901,-0.078406257,0.152014573,-0.088165718
631,14.2303465,0.08633148,0.146540974,-0.185111957,0.008769712,0.023130975,0.00755665,0.016170527,-0.040047895,0.04701535,-0.07722712,0.149340277,-0.086994233
632,14.2364222,0.086293021,0.146507519,-0.185212607,0.008839606,0.022957476,0.007761176,0.015835791,-0.039401471,0.046637945,-0.076043138,0.146637811,-0.085809035
633,14.2401216,0.08625426,0.146473174,-0.185312506,0.008908049,0.022786775,0.007964065,0.015506236,-0.038766911,0.046265747,-0.074854587,0.143908246,-0.084610365
634,14.2443429,0.086215203,0.146437947,-0.185411666,0.008975063,0.02261882,0.00816534,0.015181883,-0.038144331,0.045898814,-0.073661741,0.141152654,-0.083398461
635,14.2496085,0.086175856,0.146401844,-0.185510098,0.009040673,0.022453557,0.008365024,0.014862749,-0.037533843,0.045537203,-0.072464879,0.138372112,-0.082173555
636,14.2535003,0.086136226,0.146364873,-0.185607813,0.0091049,0.022290935,0.00856314,0.014548851,-0.036935553,0.04518097,-0.071264274,0.135567696,-0.080935876
637,14.2570074,0.086096318,0.146327039,-0.185704825,0.009167768,0.022130899,0.008759711,0.014240205,-0.036349563,0.044830171,-0.070060201,0.132740484,-0.079685647
638,14.2618949,0.086056139,0.146288351,-0.185801142,0.009229298,0.021973396,0.008954763,0.013936826,-0.035775971,0.04448486,-0.068852933,0.12989155,-0.07842309
639,14.2682436,0.086015694,0.146248813,-0.185896778,0.009289516,0.021818371,0.009148318,0.013638726,-0.035214869,0.04414509,-0.067642744,0.127021969,-0.077148419
640,14.2728382,0.085974989,0.146208433,-0.185991741,0.009348442,0.021665769,0.009340401,0.013345919,-0.034666345,0.043810914,-0.066429908,0.124132809,-0.075861849
641,14.2767206,0.085934029,0.146167218,-0.186086044,0.009406102,0.021515536,0.009531037,0.013058414,-0.034130481,0.043482383,-0.065214699,0.121225138,-0.074563591
642,14.2811683,0.08589282,0.146125173,-0.186179695,0.009462517,0.021367615,0.009720251,0.012776222,-0.033607358,0.043159549,-0.063997388,0.118300019,-0.07325385
643,14.2871757,0.085851367,0.146082305,-0.186272705,0.009517711,0.021221952,0.009908066,0.012499352,-0.033097047,0.042842459,-0.06277825,0.11535851,-0.071932831
644,14.2913587,0.085809676,0.146038619,-0.186365083,0.009571707,0.021078489,0.01009451,0.01222781,-0.03259962,0.042531165,-0.061557557,0.112401669,-0.070600736
645,14.2952515,0.085767751,0.145994122,-0.18645684,0.009624529,0.020937171,0.010279606,0.011961603,-0.03211514,0.042225712,-0.060335583,0.109430548,-0.069257764
646,14.2996097,0.085725599,0.14594882,-0.186547984,0.0096762,0.020797941,0.010463381,0.011700736,-0.031643667,0.041926149,-0.059112602,0.106446194,-0.067904115
647,14.30352,0.085683223,0.145902717,-0.186638525,0.009726744,0.020660741,0.010645861,0.011445213,-0.031185257,0.041632522,-0.057888889,0.103449649,-0.066539982
648,14.3073097,0.085640629,0.145855821,-0.186728471,0.009776182,0.020525516,0.010827071,0.011195036,-0.030739961,0.041344876,-0.056664718,0.10044195,-0.06516556
649,14.3123175,0.085597821,0.145808135,-0.18681783,0.00982454,0.020392206,0.011007037,0.010950207,-0.030307826,0.041063255,-0.055440365,0.097424128,-0.063781041
650,14.3163811,0.085554805,0.145759666,-0.186906611,0.00987184,0.020260756,0.011185787,0.010710725,-0.029888893,0.040787703,-0.054216104,0.094397207,-0.062386613
651,14.3206496,0.085511584,0.145710419,-0.186994822,0.009918106,0.020131106,0.011363347,0.010476591,-0.0294832,0.040518264,-0.052992211,0.091362206,-0.060982463
652,14.3244869,0.085468163,0.145660399,-0.18708247,0.009963361,0.020003199,0.011539743,0.010247801,-0.029090779,0.040254978,-0.051768962,0.088320135,-0.059568777
653,14.3279208,0.085424547,0.145609612,-0.187169564,0.010007628,0.019876977,0.011715002,0.010024352,-0.028711661,0.039997888,-0.050546631,0.085272001,-0.058145737
654,14.3321603,0.085380739,0.145558061,-0.18725611,0.01005093,0.019752382,0.011889152,0.009806241,-0.028345868,0.039747034,-0.049325493,0.082218805,-0.056713525
655,14.3354517,0.085336745,0.145505751,-0.187342115,0.010093292,0.019629356,0.012062221,0.00959346,-0.027993422,0.039502456,-0.048105821,0.079161544,-0.055272319
656,14.3392739,0.085292567,0.145452689,-0.187427586,0.010134736,0.01950784,0.012234234,0.009386002,-0.027654337,0.039264192,-0.04688789,0.076101206,-0.053822295
657,14.3437482,0.085248211,0.145398877,-0.187512529,0.010175285,0.019387776,0.012405221,0.009183861,-0.027328624,0.03903228,-0.045671971,0.073038765,-0.052363624
658,14.347512,0.085203679,0.14534432,-0.187596952,0.010214963,0.019269105,0.012575209,0.008987025,-0.027016291,0.038806759,-0.04445834,0.06997518,-0.050896475
659,14.3518649,0.085158976,0.145289023,-0.187680859,0.010253793,0.01915177,0.012744225,0.008795486,-0.026717342,0.038587664,-0.043247269,0.066911397,-0.04942101
660,14.3560642,0.085114105,0.14523299,-0.187764256,0.010291798,0.01903571,0.012912299,0.00860923,-0.026431773,0.038375031,-0.042039032,0.063848353,-0.047937386
661,14.3600934,0.08506907,0.145176225,-0.187847149,0.010329001,0.018920869,0.013079458,0.008428245,-0.026159581,0.038168897,-0.040833902,0.060786971,-0.046445757
662,14.363793,0.085023874,0.145118732,-0.187929543,0.010365425,0.018807188,0.013245731,0.008252517,-0.025900756,0.037969295,-0.039632151,0.057728165,-0.044946274
663,14.3696146,0.08497852,0.145060515,-0.188011443,0.010401093,0.018694608,0.013411147,0.00808203,-0.025655285,0.037776259,-0.038434053,0.054672842,-0.043439083
664,14.3730292,0.084933013,0.145001576,-0.188092854,0.010436027,0.018583071,0.013575734,0.007916769,-0.02542315,0.037589824,-0.037239879,0.051621896,-0.041924322
665,14.3768014,0.084887354,0.144941921,-0.188173779,0.010470251,0.018472519,0.01373952,0.007756714,-0.025204331,0.037410021,-0.0360499,0.048576213,-0.040402128
666,14.3810173,0.084841548,0.144881552,-0.188254224,0.010503787,0.018362893,0.013902536,0.007601847,-0.024998803,0.037236883,-0.034864386,0.045536666,-0.038872631
667,14.3890031,0.084795596,0.144820473,-0.188334192,0.010536659,0.018254137,0.014064811,0.007452149,-0.024806536,0.037070441,-0.033683605,0.042504115,-0.037335959
668,14.3926604,0.084749503,0.144758686,-0.188413687,0.010568887,0.018146191,0.014226373,0.007307597,-0.024627499,0.036910727,-0.032507825,0.039479409,-0.035792231
669,14.3975368,0.08470327,0.144696195,-0.188492712,0.010600496,0.018038998,0.014387252,0.00716817,-0.024461656,0.036757771,-0.031337312,0.036463389,-0.034241566
670,14.4021667,0.0846569,0.144633003,-0.18857127,0.010631506,0.017932501,0.014547478,0.007033844,-0.024308966,0.036611603,-0.030172332,0.033456882,-0.032684075
671,14.4100153,0.084610396,0.144569113,-0.188649365,0.010661941,0.017826642,0.01470708,0.006904594,-0.024169386,0.036472252,-0.029013144,0.030460707,-0.031119869
672,14.4144152,0.08456376,0.144504526,-0.188726999,0.010691823,0.017721364,0.014866089,0.006780393,-0.02404287,0.036339749,-0.027860008,0.027475668,-0.029549053
673,14.4186531,0.084516995,0.144439247,-0.188804174,0.010721173,0.017616611,0.015024534,0.006661217,-0.023929367,0.03621412,-0.026713176,0.024502559,-0.02797173
674,14.4225949,0.084470103,0.144373277,-0.188880892,0.010750013,0.017512325,0.015182445,0.006547035,-0.023828823,0.036095396,-0.025572901,0.021542156,-0.026387999
675,14.4271992,0.084423086,0.144306618,-0.188957156,0.010778366,0.017408449,0.015339852,0.006437819,-0.023741181,0.035983603,-0.024439427,0.018595225,-0.024797958
676,14.4308102,0.084375947,0.144239272,-0.189032967,0.010806252,0.017304929,0.015496787,0.006333539,-0.023666381,0.035878768,-0.023312995,0.015662516,-0.023201701
677,14.4351444,0.084328686,0.144171242,-0.189108327,0.010833694,0.017201707,0.015653279,0.006234164,-0.023604358,0.035780919,-0.022193841,0.012744773,-0.021599319
678,14.4393212,0.084281307,0.14410253,-0.189183236,0.010860712,0.017098728,0.015809358,0.006139661,-0.023555046,0.035690083,-0.021082195,0.009842721,-0.019990901
679,14.4434785,0.08423381,0.144033136,-0.189257696,0.010887328,0.016995937,0.015965057,0.006049996,-0.023518375,0.035606285,-0.019978282,0.006957083,-0.018376534
680,14.4471136,0.084186198,0.143963064,-0.189331708,0.010913563,0.016893278,0.016120404,0.005965136,-0.023494271,0.035529551,-0.018882324,0.004088565,-0.016756301
681,14.4516186,0.084138472,0.143892313,-0.189405271,0.010939438,0.016790698,0.016275432,0.005885046,-0.023482658,0.035459907,-0.017794539,0.001237865,-0.015130287
682,14.4559256,0.084090635,0.143820886,-0.189478386,0.010964973,0.016688141,0.016430172,0.005809688,-0.023483458,0.035397377,-0.016715141,-0.001594332,-0.013498574
683,14.4600957,0.084042686,0.143748784,-0.189551054,0.010990189,0.016585553,0.016584653,0.005739027,-0.023496586,0.035341987,-0.015644339,-0.004407351,-0.011861242
684,14.464133,0.083994627,0.143676008,-0.189623273,0.011015107,0.016482882,0.016738909,0.005673024,-0.023521959,0.035293761,-0.01458234,-0.007200531,-0.010218373
685,14.4685247,0.083946461,0.143602558,-0.189695043,0.011039747,0.016380072,0.016892969,0.00561164,-0.023559488,0.035252722,-0.013529345,-0.009973221,-0.008570048
686,14.4733123,0.083898187,0.143528436,-0.189766364,0.011064129,0.016277073,0.017046866,0.005554836,-0.023609082,0.035218895,-0.012485554,-0.012724778,-0.006916345
687,14.4789007,0.083849808,0.143453642,-0.189837235,0.011088273,0.01617383,0.017200631,0.00550257,-0.023670648,0.035192303,-0.011451162,-0.015454569,-0.005257346
688,14.4827035,0.083801324,0.143378176,-0.189907654,0.011112198,0.016070293,0.017354296,0.005454802,-0.023744089,0.035172969,-0.010426363,-0.018161973,-0.003593131
689,14.4863349,0.083752735,0.14330204,-0.18997762,0.011135924,0.015966409,0.017507892,0.005411488,-0.023829305,0.035160915,-0.009411346,-0.020846383,-0.001923782
690,14.4960777,0.083704043,0.143225232,-0.190047132,0.011159471,0.015862127,0.017661451,0.005372587,-0.023926196,0.035156163,-0.008406298,-0.023507201,-0.00024938
691,14.4996384,0.083655249,0.143147754,-0.190116187,0.011182857,0.015757397,0.017815006,0.005338053,-0.024034657,0.035158736,-0.007411403,-0.026143843,0.00142999
692,14.5034623,0.083606353,0.143069606,-0.190184784,0.011206103,0.015652168,0.017968588,0.005307843,-0.024154581,0.035168655,-0.006426841,-0.02875574,0.00311424
693,14.5164888,0.083557356,0.142990786,-0.19025292,0.011229225,0.015546389,0.018122229,0.00528191,-0.024285859,0.035185941,-0.00545279,-0.031342338,0.00480328
694,14.5214976,0.083508258,0.142911295,-0.190320593,0.011252244,0.015440013,0.018275962,0.005260209,-0.024428379,0.035210615,-0.004489421,-0.033903105,0.006497012
695,14.5266204,0.08345906,0.142831133,-0.190387799,0.011275177,0.01533299,0.018429818,0.005242692,-0.024582027,0.035242697,-0.003536902,-0.036437523,0.008195335
696,14.5308013,0.083409761,0.142750298,-0.190454537,0.011298042,0.015225272,0.018583831,0.005229312,-0.024746686,0.035282207,-0.00259539,-0.038945097,0.009898141
697,14.5341202,0.083360363,0.14266879,-0.190520803,0.011320859,0.015116811,0.018738033,0.00522002,-0.024922239,0.035329164,-0.001665041,-0.041425342,0.011605316
698,14.5376513,0.083310866,0.142586608,-0.190586593,0.011343643,0.015007559,0.018892456,0.005214767,-0.025108566,0.035383588,-0.000746001,-0.04387779,0.013316743
699,14.5443728,0.083261269,0.142503751,-0.190651904,0.011366413,0.01489747,0.019047134,0.005213503,-0.025305543,0.035445496,0.000161586,-0.046301979,0.015032301
700,14.5494434,0.083211572,0.142420218,-0.190716733,0.011389187,0.014786497,0.019202098,0.005216178,-0.025513046,0.035514906,0.001057582,-0.048697462,0.016751866
701,14.5530458,0.083161776,0.142336007,-0.190781075,0.01141198,0.014674595,0.019357382,0.005222742,-0.025730949,0.035591835,0.00194185,-0.051063801,0.018475309
702,14.5566408,0.08311188,0.142251117,-0.190844926,0.011434811,0.014561719,0.019513018,0.005233142,-0.025959124,0.0356763,0.00281426,-0.053400568,0.020202499
703,14.5603171,0.083061885,0.142165547,-0.190908282,0.011457695,0.014447824,0.019669039,0.005247326,-0.026197441,0.035768318,0.003674682,-0.055707348,0.021933298
704,14.56553,0.083011789,0.142079294,-0.190971138,0.01148065,0.014332866,0.019825479,0.005265242,-0.026445767,0.035867903,0.00452299,-0.057983734,0.023667566
705,14.5694317,0.082961593,0.141992357,-0.191033489,0.011503691,0.014216801,0.019982371,0.005286838,-0.02670397,0.035975071,0.005359063,-0.06022933,0.025405156
706,14.5728856,0.082911297,0.141904734,-0.191095332,0.011526834,0.014099588,0.020139747,0.005312058,-0.026971913,0.036089835,0.00618278,-0.06244375,0.027145918
707,14.5768613,0.082860898,0.141816423,-0.191156659,0.011550096,0.013981183,0.020297641,0.005340848,-0.02724946,0.03621221,0.006994024,-0.064626616,0.028889698
708,14.5811397,0.082810398,0.14172742,-0.191217467,0.01157349,0.013861545,0.020456086,0.005373155,-0.027536472,0.036342207,0.007792681,-0.066777557,0.030636339
709,14.5851787,0.082759796,0.141637724,-0.19127775,0.011597034,0.013740632,0.020615116,0.005408923,-0.027832809,0.03647984,0.008578638,-0.068896215,0.032385679
710,14.5891276,0.08270909,0.141547332,-0.191337501,0.011620741,0.013618405,0.020774763,0.005448096,-0.028138329,0.036625119,0.009351785,-0.070982233,0.034137552
711,14.5935786,0.08265828,0.141456242,-0.191396716,0.011644627,0.013494824,0.020935062,0.005490617,-0.028452889,0.036778055,0.010112011,-0.073035264,0.035891793
712,14.5976021,0.082607366,0.14136445,-0.191455388,0.011668706,0.013369849,0.021096045,0.005536431,-0.028776344,0.036938659,0.010859208,-0.075054966,0.037648229
713,14.6018504,0.082556346,0.141271953,-0.191513511,0.011692991,0.013243443,0.021257747,0.00558548,-0.029108547,0.037106939,0.01159327,-0.077041007,0.039406685
714,14.6058879,0.08250522,0.141178749,-0.191571079,0.011717499,0.013115566,0.021420201,0.005637707,-0.029449351,0.037282904,0.012314095,-0.078993063,0.041166981
715,14.6094249,0.082453985,0.141084833,-0.191628085,0.011742241,0.012986182,0.021583439,0.005693053,-0.029798607,0.037466562,0.013021581,-0.080910818,0.042928929
716,14.6130443,0.082402643,0.140990202,-0.191684522,0.011767231,0.012855254,0.021747497,0.005751459,-0.030156164,0.037657919,0.013715631,-0.08279396,0.044692342
717,14.6176395,0.08235119,0.140894853,-0.191740384,0.011792484,0.012722746,0.021912408,0.005812868,-0.030521871,0.037856981,0.01439615,-0.084642186,0.046457029
718,14.6222931,0.082299627,0.140798782,-0.191795664,0.011818011,0.012588624,0.022078205,0.00587722,-0.030895573,0.038063753,0.015063043,-0.086455197,0.048222797
719,14.6270594,0.082247952,0.140701984,-0.191850355,0.011843826,0.012452852,0.022244922,0.005944455,-0.031277118,0.038278241,0.015716224,-0.088232708,0.049989444
720,14.6308907,0.082196163,0.140604457,-0.191904449,0.01186994,0.012315396,0.022412592,0.006014512,-0.031666348,0.038500446,0.016355608,-0.089974441,0.051756758
721,14.6351704,0.082144259,0.140506194,-0.191957939,0.011896367,0.012176224,0.02258125,0.006087332,-0.032063108,0.038730373,0.016981117,-0.09168013,0.053524522
722,14.638816,0.08209224,0.140407193,-0.192010817,0.011923117,0.012035302,0.022750929,0.006162854,-0.032467239,0.038968021,0.017592674,-0.093349517,0.055292512
723,14.6435124,0.082040103,0.140307449,-0.192063075,0.011950203,0.0118926,0.022921663,0.006241017,-0.032878582,0.039213392,0.018190208,-0.094982348,0.0570605
724,14.6483421,0.081987846,0.140206957,-0.192114707,0.011977637,0.011748085,0.023093486,0.006321759,-0.033296977,0.039466485,0.01877365,-0.096578376,0.058828251
725,14.6564157,0.08193547,0.140105711,-0.192165703,0.012005428,0.011601727,0.023266431,0.006405018,-0.033722262,0.039727298,0.019342933,-0.098137364,0.060595529
726,14.6624625,0.08188297,0.140003708,-0.192216056,0.012033589,0.011453497,0.023440532,0.006490733,-0.034154276,0.039995829,0.019897995,-0.099659081,0.062362088
727,14.6669283,0.081830348,0.139900942,-0.192265758,0.01206213,0.011303365,0.023615823,0.006578841,-0.034592854,0.040272075,0.020438776,-0.101143305,0.064127678
728,14.6705513,0.081777599,0.139797407,-0.192314799,0.01209106,0.011151304,0.023792337,0.00666928,-0.035037834,0.04055603,0.02096522,-0.10258982,0.065892043
729,14.6744721,0.081724724,0.139693099,-0.192363172,0.01212039,0.010997285,0.023970108,0.006761987,-0.035489049,0.040847688,0.021477272,-0.103998414,0.067654924
730,14.6785649,0.081671719,0.139588011,-0.192410868,0.012150131,0.010841282,0.02414917,0.006856899,-0.035946333,0.041147043,0.021974878,-0.105368882,0.069416059
