,time,x,y,z,vx,vy,vz,ax,ay,az,jx,jy,jz
1219,5.7535206000029575,0.022578282029282658,0.09986777571279604,0.005063717847566412,-0.021769215520852116,-0.0761907704792263,0.025820283179396768,0.04022072836281672,0.07006095652693296,-0.0067621544830835005,0.011010654645133611,0.3623642863680234,-0.24910430784509668
1220,5.757712299993727,0.022503719687054655,0.09964051158439201,0.00489148797843603,-0.021577843978971844,-0.07585346467196917,0.025785373377815637,0.04027044297144839,0.07178432308143987,-0.007953057416447827,0.009961529587647854,0.36221806704832843,-0.25173421901209214
1221,5.761881799990078,0.022462632863399296,0.0994014909627683,0.004743581506427466,-0.02138624791508077,-0.07550795609962781,0.02574476819592839,0.0403151891639629,0.0735069768024943,-0.009156463824579448,0.008916174978710806,0.3620414795327901,-0.25435149889884423
1222,5.766149499992025,0.022435511518579462,0.09919514208820321,0.004614452780476723,-0.021194450883894912,-0.07515424860774632,0.02569840829182791,0.04035498525295341,0.07522877159637312,-0.0103723122674788,0.00787473721248479,0.36183437121351764,-0.25695571004907475
1223,5.770333499996923,0.02238456212432561,0.09897482881931027,0.004412137112203771,-0.021002476351645694,-0.07479234674778724,0.025646234623271192,0.040389850232234306,0.076949560586004,-0.011600539190399155,0.006837361878513756,0.3615965901714364,-0.25954641323267535
1224,5.7745202999940375,0.02227648500125111,0.09879353750919674,0.0042351438931651254,-0.020810347692872235,-0.07442225578062775,0.025588188457760397,0.040419803773061154,0.07866919611691751,-0.012841078916303917,0.0058041937330644555,0.36132798522998005,-0.2621231674963715
1225,5.7782679999945685,0.02227648500125111,0.09879353750919674,0.0042351438931651254,-0.020618088187231477,-0.07404398168001747,0.02552421138265682,0.040444866220226916,0.08038752976350447,-0.014093863638596217,0.004775376670554245,0.36102840600994873,-0.26468553021569435
1226,5.78218549999292,0.022205749430591504,0.09865999149776819,0.004097412166082285,-0.02042572101632664,-0.07365753113599706,0.025454245315326352,0.040465058588034696,0.08210441233558027,-0.015358823414125885,0.0037510536950717925,0.36069770298551795,-0.2672330571482637
1227,5.787068999998155,0.022169404387523076,0.09844596004408915,0.0037208911176046834,-0.02023326926055452,-0.07326291155827644,0.025378232513315196,0.04048040255614722,0.08381969388525848,-0.016635886156478787,0.0027313668919968846,0.3603357275413831,-0.2697653024883846
1228,5.790960400001495,0.022211661270541586,0.09836991574938261,0.0035430331075666267,-0.020040755895972224,-0.07286013107957139,0.025296115584554562,0.04049092046531297,0.08553322371413444,-0.017924977629553564,0.0017164573997255049,0.3599423320310243,-0.27228181892296177
1229,5.795615700000781,0.022251431929638188,0.09830851325880943,0.0033474112056264722,-0.019848203791183894,-0.07244919855889725,0.025207837497592915,0.040496635312969334,0.08724485038077993,-0.01922602144143066,0.0007064653815062596,0.3595173698360775,-0.2747821576887315
1230,5.7996396999951685,0.022277753657891194,0.09825270257317019,0.00313786404885465,-0.019655635704248046,-0.07203012358481875,0.025113341591854414,0.04049757074872304,0.08895442170854967,-0.020538939038538633,-0.00029847000260580826,0.35906069542679486,-0.2772658686308142
1231,5.805182900003274,0.02229907486462167,0.09822570909281914,0.002932219981959149,-0.019463074279606064,-0.0716029164786552,0.02501257158792213,0.04049375106970811,0.09066178479370077,-0.021863649700122795,-0.001298210623672009,0.3585721644235761,-0.2797325002625866
1232,5.809654099997715,0.022333416406513838,0.09820291690087547,0.0027047780655853858,-0.019270542045032372,-0.07116758829764026,0.024905471597844647,0.04048520121582144,0.09236678601382618,-0.02320007053302123,-0.0022926194116634486,0.35805163365955084,-0.2821815998268722
1233,5.816362099998514,0.022476559555885144,0.09819873358393069,0.0022750482533789307,-0.019078061408606822,-0.07072415083803558,0.024791986135464558,0.040471946764835995,0.09406927103660337,-0.0245481164667533,-0.0032815603831192214,0.35749896124419267,-0.28461271335845034
1234,5.824362599989399,0.02267559243037738,0.09823563516957345,0.00185083545894206,-0.01888565465570997,-0.07027261663819713,0.024672060126767453,0.04045401392739189,0.09576908482885887,-0.025907700248925532,-0.0042648986686634974,0.35691400662794115,-0.28702538574788117
1235,5.828744200000074,0.022808273711533995,0.09824125130093009,0.001664745569369415,-0.018693343946041902,-0.06981299898159267,0.02454563892024987,0.040431429541865356,0.09746607166594944,-0.0272787324409598,-0.0052425005403757005,0.35629663066780887,-0.2894191608066439
1236,5.832630299992161,0.022949869995309805,0.09828761940740621,0.0015244290699541543,-0.018501151310665275,-0.06934531189976935,0.024412668297304707,0.04040422106911597,0.09916007514146068,-0.028661121414148758,-0.006214233439008021,0.35564669569394974,-0.29179358133358635
1237,5.836941799992928,0.023095560877468557,0.09834680223593237,0.0013888265632390866,-0.01830909864907324,-0.0688695701752699,0.02427309448262259,0.0403724165871124,0.10085093817722432,-0.030054773346043263,-0.007179966001044542,0.354964065577166,-0.29414818918268115
1238,5.841080999991391,0.023182340545973377,0.09841759845406062,0.0012640751440209964,-0.018117207726282843,-0.06838578934449668,0.024126864154607606,0.04033604478543695,0.10253850303365468,-0.03145959221717666,-0.008139568085596266,0.3542486057973288,-0.29648252533208613
1239,5.845422300000791,0.023260061844487853,0.09851286369770262,0.0011476486966446216,-0.017925500169954447,-0.067893985700522,0.023973924455805835,0.04029513495966944,0.10422261132040421,-0.03287547980813085,-0.009092910801126374,0.3535001835126864,-0.2987961299545045
1240,5.8496587999979965,0.023287193700797272,0.09862979974963264,0.0010539046207154248,-0.017733997467537718,-0.06739417629584357,0.023814223003345077,0.04024971700565103,0.10590310400733843,-0.034302335696949085,-0.0100398665320001,0.35271866763003273,-0.3010885424888398
1241,5.853571500003454,0.02329673995406866,0.09874404740291114,0.000980253304134631,-0.017542720963444752,-0.06688637894508394,0.023647707899384217,0.040199821413628774,0.10757982143583046,-0.03574005725690011,-0.010980308964853662,0.3519039288757124,-0.30335930171313924
1242,5.85817579999275,0.02327414211630406,0.09887666750703195,0.0008827900030897798,-0.017351691856250892,-0.06637061222763328,0.023474327741570582,0.04014547926228141,0.10925260333037565,-0.037188539654598396,-0.011914113114776711,0.3510558398674367,-0.305607945818817
1243,5.862075800003368,0.023226466763925563,0.09902116868680434,0.0007914321879804349,-0.017160931195923892,-0.06584689549023462,0.02329403163350363,0.04008672221262725,0.11092128881052671,-0.03864767584848505,-0.012841155351302773,0.35017427518688377,-0.30783401248615005
1244,5.8664294999907725,0.0231870591069102,0.09916953058382137,0.000723610617286246,-0.01697045988108192,-0.06531524884951029,0.023106769195203256,0.0400235825018146,0.11258571640314867,-0.04011735658767413,-0.013761313424202134,0.3492591114530578,-0.31003703896103724
1245,5.870784899991122,0.023125057770747637,0.09932171621120528,0.0006410973689869835,-0.01678029865628087,-0.06477569319442902,0.022912490573581027,0.039956092936795286,0.1142457240549939,-0.04159747041116897,-0.014674466489071614,0.34831022739637973,-0.3122165621330123
1246,5.874567299993942,0.023076971067298314,0.0994812770875763,0.000602324479678739,-0.0165904681093316,-0.06422825018871198,0.022711146452912688,0.03988428688788187,0.11590114914559768,-0.04308790364745327,-0.015580495132715711,0.34732750393347955,-0.31437211861450226
1247,5.88006709999172,0.02303594827284014,0.09961998631555057,0.000540381697892757,-0.01640098866864768,-0.06367294227317706,0.02250268806531015,0.03980819828218928,0.11755182850049471,-0.04458854041446141,-0.01647928139831355,0.3463108242426628,-0.316503244821321
1248,5.883984699990833,0.022996250979721185,0.09977083907266529,0.00046538401300736526,-0.016211880600624107,-0.06310979266802001,0.022287067201191224,0.03972786159696155,0.11919759840475673,-0.04609926261993248,-0.01737070881036609,0.34526007384002266,-0.3186094770543851
1249,5.887610099991434,0.02300500114149088,0.09992643566642186,0.0004060241485770756,-0.016023164007047477,-0.06253882537503125,0.022064236219745285,0.03964331185278431,0.12083829461685112,-0.04761994996215234,-0.01825466239941818,0.3441751406561667,-0.3206903515826384
1250,5.891301199997542,0.02301151115165966,0.10006415398771859,0.00035678183576597425,-0.015834858822538142,-0.06196006517974719,0.021834148059393026,0.03955458460668357,0.12247375238282064,-0.04915047993108825,-0.019131028726549967,0.34305591511352657,-0.3227454047271714
1251,5.895163199995295,0.023029359526180633,0.10020890597440864,0.0003348998560418863,-0.01564698481202487,-0.06137353765353457,0.02159675624823852,0.03946171594511154,0.12410380645078421,-0.050690727809920344,-0.01999969590763216,0.34190229020421997,-0.32477417294652156
1252,5.899752299999818,0.023043745629507145,0.10036713227841133,0.0003079244501248274,-0.0154595615682526,-0.06077926915560626,0.021352014914511764,0.03936474247682026,0.12572829108575945,-0.05224056667697401,-0.02086055363733971,0.34071416156843626,-0.3267761929231414
1253,5.909284800000023,0.022950208277663434,0.10070605831087491,0.0002408166654247479,-0.015272608509323929,-0.06017728683496725,0.021099878796999892,0.03926370132562386,0.12734704008480616,-0.05379986740805757,-0.02171349321291839,0.33949142757331535,-0.32875100165101656
1254,5.913900899991859,0.022874325783172923,0.10087973662639663,0.00019906342846719507,-0.01508614487627479,-0.059567618632289876,0.020840303255465265,0.03915863012305032,0.12895988679249107,-0.05536849867920954,-0.02255840755769879,0.3382339893922881,-0.33069813652441926
1255,5.917867500000284,0.022832407672533868,0.10106998777120332,0.00015984249868155123,-0.014900189730684818,-0.058950293281717414,0.020573244281048387,0.03904956700088353,0.13056666411667323,-0.05694632696985927,-0.02339519124435228,0.3369417510848481,-0.3326171354277824
1256,5.922165500000119,0.02278269301491805,0.10127241832763864,6.152487061375153e-05,-0.014714761952322882,-0.05832534031259495,0.02029865850665371,0.0389365505835967,0.13216720454461003,-0.05853321656640518,-0.02422374051788352,0.3356146196767237,-0.3345075368266786
1257,5.928105999992113,0.02267631181868327,0.101668601031727,-0.00017989698874113294,-0.014529880236828342,-0.05769279005112632,0.02001650321731632,0.03881961998067795,0.1337613401593837,-0.06012902956621473,-0.025043953318354066,0.33425250524041744,-0.3363688798598878
1258,5.933190199997625,0.02264509923852861,0.10188815749062634,-0.0003081536072399825,-0.01434556309342846,-0.05705267362195548,0.01972673636054748,0.03869881477884887,0.13534890265664762,-0.06173362588205017,-0.025855729303331722,0.33285532097607984,-0.33820070443253447
1259,5.937068999992334,0.022617857002994027,0.10211724933911871,-0.00047106114886797876,-0.01416182884269256,-0.056405022949671244,0.019429316556656896,0.03857417503417685,0.1369297233616914,-0.06334686324692398,-0.026658969870060053,0.3314229832926858,-0.34000255131027785
1260,5.942425100001856,0.02261155815836502,0.1023175231120349,-0.0006454312553568348,-0.013978695614323407,-0.055749870760233994,0.01912420310904973,0.038445741264082324,0.13850363324682416,-0.06496859721938784,-0.027453578177342442,0.3299554118894834,-0.3417739622145348
1261,5.945961699995678,0.02262926617306847,0.1025140211576976,-0.0007709762802876607,-0.013796181344986324,-0.05508725058232357,0.018811356014496336,0.03831355443924226,0.1400704629490754,-0.066598681189259,-0.028239459167135095,0.32845252983768036,-0.3435144799187166
1262,5.949777100002393,0.022678649286441133,0.1027044170721651,-0.0009220553436807451,-0.013614303776176513,-0.05441719674860695,0.0184907359733727,0.038177655975391085,0.14163004278821315,-0.06823696638378796,-0.02901651958584341,0.3269142636623332,-0.34522364834545727
1263,5.953806999998051,0.022725933025349036,0.10288983965602733,-0.0010491139809116028,-0.0134330804521251,-0.05373974439692478,0.018162304399869565,0.038038087725020236,0.14318220278507873,-0.06988330187427126,-0.029784668005316175,0.3253405434244041,-0.34690101266481344
1264,5.957756999996491,0.022756856983326242,0.1031096658789642,-0.0011824548029517844,-0.013252528717744363,-0.05305492947139535,0.017826023432168086,0.03789489196897746,0.14472677268023798,-0.0715375345831131,-0.030543814843531948,0.3237313028029518,-0.34854611939341146
1265,5.962094399990747,0.022748620722004002,0.10331469148140034,-0.0013196898266907807,-0.013072665716612659,-0.05236278872343484,0.017481855942579866,0.03774811140796709,0.14626358195294775,-0.07319950929133859,-0.031293872384971964,0.32208647917742245,-0.3501585164945212
1266,5.965983999994933,0.022769530624758283,0.10358934013439247,-0.0014620468452961645,-0.012893508388999515,-0.051663359712692265,0.017129765547649393,0.037597789153952545,0.14779245984043773,-0.0748690686465623,-0.032034754800673956,0.3204060137100044,-0.35173775347903474
1267,5.970333799996297,0.02276084205539669,0.10381548185811333,-0.0016306851108314792,-0.012715073469931355,-0.050956680807897975,0.016769716618216753,0.03744396872146222,0.14931323535750687,-0.07654605317141525,-0.03276637816796111,0.31868985142801287,-0.35328338150732846
1268,5.974518599992734,0.02273570309223457,0.10408262772151305,-0.0018062666862026372,-0.012537377487298332,-0.05024279118762425,0.01640167428943836,0.03728669401880018,0.15082573731643434,-0.0782303012724339,-0.033488660489840484,0.316937941306269,-0.3547949534919855
1269,5.978520599994226,0.022630141939468072,0.10431609762222151,-0.0019908335092795257,-0.01236043676000273,-0.04952173084095653,0.01602560447076352,0.03712600933916296,0.15232979434720492,-0.0799216492494143,-0.034201521714065215,0.3151502363494376,-0.356272024201356
1270,5.98280139999406,0.02251809133157705,0.10457361129805538,-0.002175677821228454,-0.012184267396149305,-0.04879354056807381,0.015641473855864587,0.036961959351663916,0.15382523491804773,-0.08161993130523483,-0.034904883751854646,0.3133266936742879,-0.35771415036393167
1271,5.98769199999515,0.02241613298831224,0.10484273470621029,-0.002345347851315207,-0.012008885291277966,-0.048058261980737246,0.015249249932518581,0.03679458909226665,0.15531188735628612,-0.08332497955615063,-0.03559867049626652,0.3114672745918415,-0.3591208907735094
1272,6.000856300001033,0.02220284988017079,0.10556635990269297,-0.0027960485022239384,-0.011834306126639178,-0.04731593750268575,0.014848900992437977,0.03662394395462887,0.1567895798694973,-0.08503662404256258,-0.03628280784021529,0.3095719446893698,-0.36049180639511624
1273,6.008231699990574,0.022068419132435912,0.10606847756305142,-0.0030830482828432294,-0.011660545367512497,-0.04656661036993719,0.014440396141048514,0.036450069680857795,0.15825814056698007,-0.08675469274026365,-0.0369572236941306,0.3076406739122052,-0.36182646047166894
1274,6.0124224000028335,0.022047941421319096,0.10628094287168106,-0.0031901983127042444,-0.011487618261568692,-0.04581032463099388,0.014023705307211837,0.03627301235217887,0.1597173974815298,-0.08847901157216546,-0.03762184800325002,0.30567343664532887,-0.36312441863134176
1275,6.016919699992286,0.02202922251995912,0.10648181978730212,-0.0033157743757055696,-0.01131553983727587,-0.04504712514695092,0.013598799252890786,0.036092818379519394,0.1611671785915192,-0.09020940442050787,-0.038276612764540405,0.3036702117946998,-0.3643852489956152
1276,6.020331599997007,0.02201960675909658,0.10666791164892478,-0.003427428268657379,-0.011144324902350069,-0.044277057591506346,0.013165649582755122,0.0359095344940085,0.16260731184328314,-0.09194569313955361,-0.038921452043241614,0.30163098286828743,-0.36560852228797797
1277,6.024554799994803,0.02201929907637512,0.10684889772743818,-0.003548701507614039,-0.010973988042250754,-0.043500168450871665,0.012724228753725418,0.03572320773739516,0.1640376251738065,-0.0936876975687704,-0.03955630198902645,0.2995557380567731,-0.3667938119432509
1278,6.029166399996029,0.021979572248930396,0.10705527683620951,-0.0036959366762149334,-0.010804543618721624,-0.04271650502358135,0.012274510084452817,0.035533885452385845,0.16545794653371337,-0.09543523554650295,-0.04018110085177076,0.29744447031388244,-0.3679406942175016
1279,6.032971399996313,0.021912021839030304,0.10723822515853972,-0.0038514546176754826,-0.01063600576837708,-0.04192611542020004,0.011816467764732323,0.03534161527290364,0.16686810391055718,-0.09718812292413753,-0.040795788996927436,0.295297177436312,-0.36904874829851964
1280,6.038096399992355,0.021842005618913717,0.1074328847556706,-0.004020393556246978,-0.010468388401334766,-0.041129048562926235,0.011350076864847337,0.035146445114270446,0.16826792535240956,-0.09894617358076237,-0.04140030892049822,0.29311386214321394,-0.3701175564168221
1281,6.044956999990973,0.02162419001648781,0.10779697334893246,-0.004342433370310336,-0.01030170519989454,-0.040325354185091096,0.01087531334484309,0.034948423163314014,0.1696572389917467,-0.10070919943832567,-0.041994605263597114,0.2908945321552035,-0.3711467039571565
1282,6.05002309998963,0.021519624975607735,0.10797409023945431,-0.004528158488894436,-0.0101359696172642,-0.03951508283055123,0.010392154063726714,0.03474759786840136,0.17103587306963036,-0.1024770104772942,-0.042578624826599104,0.2886392002728525,-0.3721357795704712
1283,6.053966399995261,0.021431580437768334,0.1081074010272255,-0.004694508083593313,-0.009971194876332362,-0.038698285852974204,0.00990057678859162,0.03454401792940049,0.17240365596018156,-0.1042494147528143,-0.04315231658286824,0.28634788445463183,-0.3730843752863212
1284,6.057800399998087,0.02136095885285316,0.10825650778544615,-0.00486897968981787,-0.009807393968488797,-0.03787501541501582,0.009400560203663795,0.03433773228757222,0.17376041619534474,-0.10602621841137704,-0.04371563169205891,0.2840206078942666,-0.37399208662567807
1285,6.062031099994783,0.021311924195862322,0.10835682747318098,-0.00502961604197223,-0.009644579652492548,-0.037045324487387794,0.00889208391926771,0.034128790115393826,0.17510598248993947,-0.1078072257079892,-0.04426852351298396,0.2816573990974675,-0.3748585127141125
1286,6.066242799992324,0.021271512407517627,0.10846789149008022,-0.0051689874311023,-0.009482764453388115,-0.036209266847814496,0.0083751284807095,0.03391724080631645,0.17644018376699738,-0.10959223902385204,-0.04481094761604351,0.2792582919579997,-0.37568325639531586
1287,6.070258699997794,0.021243183512147608,0.10854749054878267,-0.005302320941366408,-0.00932196066147007,-0.03536689707987743,0.007849675377074986,0.033703133964458135,0.17776284918338234,-0.11138105888454922,-0.04534286179520789,0.27682332583305164,-0.3764659243449256
1288,6.074721899989527,0.021302416187556652,0.10861872592331992,-0.005424249851537787,-0.00916218033129645,-0.03451827057174622,0.007315707049940135,0.033486519394234485,0.1790738081556914,-0.11317348397874592,-0.04586422607954842,0.27435254561786676,-0.3772061271846225
1289,6.078975800002809,0.0213566309186027,0.10865831028499905,-0.005557155513662992,-0.009003435280751221,-0.033663443514794895,0.006773206901991526,0.03326744708992903,0.18037289038643362,-0.11496931117739956,-0.04637500274430967,0.2718460018196015,-0.3779034795964654
1290,6.082807099999627,0.021379335729519267,0.10870592294962261,-0.00566089650526372,-0.008845737090156177,-0.032802472902102066,0.006222159305554498,0.033045967225205294,0.18165992589048316,-0.11676833555348312,-0.046875156321516745,0.26930375063037093,-0.37855760043743136
1291,6.086946099996567,0.021343706760900437,0.1087281548186645,-0.0057706106597900705,-0.008689097101432505,-0.031935416526833335,0.005662549611026636,0.03282213014256256,0.18293474502180465,-0.11857035040222308,-0.04736465361011119,0.26672585399944465,-0.37916811285412566
1292,6.09096000000136,0.021367045099118322,0.10875836612736657,-0.005873765728561502,-0.008533526417312346,-0.031062332980504852,0.005094364155214226,0.03259598634273728,0.184197178500448,-0.12037514726185258,-0.04784346368560909,0.2641123797045548,-0.3797346443976277
1293,6.095344100001967,0.021387819816137597,0.10875385173621455,-0.005963632345502817,-0.008379035900600566,-0.03018328165112661,0.004517590269569267,0.03236758647405249,0.1854470574398105,-0.12218251593488068,-0.04831155790927495,0.26146340142228025,-0.3802568271384365
1294,6.101192299989634,0.02137955416349524,0.10875633787551378,-0.006062104749243565,-0.008225636173486952,-0.02929832272122415,0.00393221628832466,0.03213698132171726,0.1866842133741639,-0.12399224450987872,-0.04876890993680492,0.25877899879746963,-0.38073429778147877
1295,6.105361499998253,0.02132329722591002,0.1087374300221492,-0.006153065204004304,-0.008073337616909128,-0.028407517165737597,0.003338231556525181,0.031904221797078636,0.18790847828644486,-0.12580411938378427,-0.04921549572651313,0.25605925751166575,-0.3811666977811445
1296,6.112625499998103,0.021234474564824513,0.10866384264753241,-0.00633277113826276,-0.007922150369966423,-0.027510926749796716,0.002735626437951849,0.03166935892682811,0.18911968463630421,-0.12761792528472232,-0.0496512935470149,0.25330426935049577,-0.38155367345631286
1297,6.117021899990505,0.021210311369562425,0.10861444332139221,-0.006392304228944769,-0.007772084329384918,-0.02660861402637078,0.0021243923229372534,0.031432443842164974,0.19031766538841235,-0.12943344529534345,-0.05007628398440052,0.25051413226999175,-0.3818948761053332
1298,6.121111499989638,0.021208008245897005,0.10853775931357176,-0.006457805369277335,-0.0076231491490338765,-0.025700642333791813,0.001504521636069476,0.031193527767918897,0.19150225404101648,-0.13125046087667966,-0.05049044994889367,0.24768895046180547,-0.3821899621209223
1299,6.129180699994322,0.021249581308182084,0.10833490472548048,-0.006602716060348976,-0.007475354239493733,-0.024787075793150055,0.0008760078437821998,0.03095266201163414,0.19267328465474703,-0.13306875189251752,-0.05089377668098807,0.2448288344172817,-0.382438593104942
1300,6.139318300003652,0.021355274854643263,0.10806163316018896,-0.006666214081435416,-0.007328708767675807,-0.023867979305560245,0.00023884546182860163,0.030709897952617873,0.19383059188166862,-0.1348880966342888,-0.05128625175705621,0.2419339009903543,-0.3826404359830165
1301,6.144843299989589,0.021461512064981144,0.10773150650360241,-0.006739313964267196,-0.007183221656493917,-0.022943418549297392,-0.00040696993736338014,0.030465287030955038,0.1949740109945712,-0.13670827184647852,-0.05166786509442399,0.2390042734592298,-0.3827951631189517
1302,6.151598600001307,0.021516483490971672,0.10755355790946987,-0.006790683898253056,-0.007038901584588062,-0.02201345997680092,-0.001061441717456792,0.0302188807364923,0.19610337791649782,-0.13852905275254943,-0.05203860895590526,0.2360400815868237,-0.3829024524289154
1303,6.160065000003669,0.02161561470113916,0.10717357422321948,-0.0068766830464257675,-0.00689575698610033,-0.021078170811545983,-0.0017245721710948169,0.02997073059779352,0.19721852925050454,-0.14035021308138185,-0.05239847795378989,0.23304146167991455,-0.3829619874953401
1304,6.1644076999946265,0.021654529525608267,0.1069626251955791,-0.00695839541140624,-0.006753796050503134,-0.020137619044780765,-0.0023963625129157185,0.029720888171068997,0.1983193023096483,-0.1421715250942273,-0.05274746905327971,0.23000855664698097,-0.3829734576805093
1305,6.168047999992268,0.021669102440747372,0.10676587470159182,-0.007009391706799973,-0.006613026722479891,-0.019191873432128637,-0.003076812872695964,0.02946940502908107,0.19940553514719822,-0.14399275961217461,-0.053085581575366185,0.22694151605468732,-0.38293655823978895
1306,6.172573599993484,0.021698682414894564,0.10654352410070721,-0.007064402598209497,-0.0064734567018582875,-0.018241003490053913,-0.0037659222886238996,0.02921633275002876,0.20047706658706646,-0.1458136860441271,-0.053412817199143967,0.22384049618298413,-0.38285099043446535
1307,6.17720140000165,0.02173691898519966,0.10632925707869666,-0.007096552277054717,-0.006335093443596236,-0.01728507949219015,-0.004463688700706349,0.028961722906414106,0.2015337362544556,-0.14763407241528925,-0.05372917996355423,0.22070566007878917,-0.3827164616441506
1308,6.18236109999998,0.021905563418241604,0.10586764769558543,-0.007210668741375442,-0.006197944157820609,-0.016324172465529842,-0.005170108944310503,0.028705627053893054,0.2025753846067185,-0.14945368539616152,-0.054034676268551934,0.21753717760821473,-0.3825326854787161
1309,6.1884636000031605,0.021993546142029117,0.10563637588060289,-0.007261549024128233,-0.006062015809918826,-0.015358354186474356,-0.0058851787438434534,0.02844809672011372,0.20360185296442543,-0.1512722903320411,-0.054329314875690954,0.2143352255073079,-0.3822993818897153
1310,6.192204699997092,0.022077969547389983,0.10536563093269785,-0.007347216990339739,-0.00592731512068333,-0.014387697176743118,-0.006608892706571739,0.028189183393544873,0.20461298354263274,-0.1530896512730279,-0.0546131069081214,0.21109998743127045,-0.3820162772812564
1311,6.196356999993441,0.022204924474815254,0.10509998815239528,-0.007409402165406111,-0.005793848566509014,-0.013412274699140978,-0.007341244316583225,0.027928938512297424,0.20560861948234824,-0.15490553100453341,-0.05488606584999358,0.2078316540021232,-0.3816831046202843
1312,6.203965799999423,0.022494201558847658,0.10452734074760214,-0.007518240891171467,-0.00566162237964363,-0.012432160753182674,-0.008082225928893618,0.0276674134529417,0.2065886048821868,-0.15671969107828976,-0.05514820754526319,0.20453042285478143,-0.3812996035462311
1313,6.207684599998174,0.022638413338538523,0.1042482120907867,-0.00759842526393543,-0.005530642548491215,-0.011447430070573313,-0.008831828763699926,0.02740465951932343,0.2075527848302109,-0.1585318918438574,-0.05539955019589223,0.20119649868150719,-0.3808655204799938
1314,6.212224899994908,0.02272145868841977,0.10396431425743974,-0.007682939377049768,-0.005400914817968526,-0.010458158110543908,-0.009590042900783179,0.027140727931381545,0.2085010054359493,-0.16034189248062966,-0.055640114359440294,0.1978300932747057,-0.3803806087321972
1315,6.216417999996338,0.022791151633318664,0.10369688898611694,-0.007770872370231906,-0.0052724446899144895,-0.00946442105504095,-0.010356857274062737,0.02687566981397078,0.2094331138625892,-0.16214945103033107,-0.055869922946041345,0.19443142556803317,-0.3798446286107001
1316,6.220250400001532,0.022840499780830328,0.1034296831296761,-0.007870761692889687,-0.00514523742355264,-0.008466295803769019,-0.01113225966630443,0.02660953618569212,0.21034895835933606,-0.1639543244300068,-0.056089001214760875,0.19100072167578322,-0.3792573475273027
1317,6.225967199992738,0.022866047379063136,0.10318941773138676,-0.0079354419351515,-0.005019298036006511,-0.007463859969085485,-0.011916236703984798,0.026342377947734134,0.21124838829393497,-0.1657562685455001,-0.056297376769328646,0.1875382149305195,-0.37861854010361534
1318,6.231561599997804,0.022888608673407394,0.10294170098428138,-0.008012711580155304,-0.004894631302867893,-0.006457191870746348,-0.012708773852313676,0.026074245872728313,0.2121312541853457,-0.16755503820541487,-0.0564950795532421,0.18404414591892349,-0.377927988276048
1319,6.235308100003749,0.02290367210375916,0.10268022337253375,-0.00808400155264481,-0.004771241758817898,-0.005446370530502288,-0.013509855410417394,0.025805190593621487,0.21299740773656536,-0.16935038723555992,-0.056682141844235576,0.18051876251582652,-0.3771854813998787
1320,6.241072799995891,0.02301189051313071,0.10216218344038647,-0.008144433110734768,-0.004649133698300772,-0.00443147566654406,-0.01431946450668476,0.02553526259256862,0.21384670186759222,-0.1711420684938706,-0.05685859824811051,0.17696231991639605,-0.3763908163523576
1321,6.245202899997821,0.023026451862350684,0.10188267224188369,-0.008205213971900936,-0.004528311176250347,-0.0034125876877963233,-0.015137583094278099,0.025264512189849115,0.21467899074852523,-0.17292983390580388,-0.057024485691922144,0.1733750806664458,-0.3755437976348062
1322,6.249509200002649,0.023096244750699577,0.10160590273367798,-0.008238967473528747,-0.00440877800886903,-0.002389787688059087,-0.01596419194681159,0.024992989532809845,0.215494129832791,-0.1747134345002019,-0.05717984341651828,0.16975731469083938,-0.3746442374736696
1323,6.254184399993392,0.023195021922842816,0.10130250441995094,-0.008279552415139156,-0.0042905377744592,-0.0013631574399959668,-0.016799270654199106,0.024720744584838004,0.21629197589049207,-0.17649262044561934,-0.05732471296842591,0.16610929931995788,-0.37369195592048055
1324,6.25972269999329,0.023368139011430516,0.10098835155014294,-0.008327243791617518,-0.0041735938143068535,-0.0003327793889684608,-0.017642797618673645,0.024447827114367028,0.21707238704186868,-0.1782671410871096,-0.05745913819108158,0.16243131931420243,-0.3726867809506946
1325,6.264323900002637,0.023582010206135897,0.10067359786795656,-0.008384714990512623,-0.004057949233617321,0.0007012633532844896,-0.01849475005098051,0.024174286683918803,0.2178352227908674,-0.18003674498346459,-0.057583165215401216,0.15872366688650288,-0.37162854856135297
1326,6.2683754000026966,0.0237850184131639,0.10034175237606822,-0.008424448257472442,-0.003943606902502921,0.0017388870151223792,-0.01935510396674643,0.02390017263918551,0.21858034405880852,-0.1818011799449033,-0.05769684244968574,0.15498664172280444,-0.37051710286753253
1327,6.27215520000027,0.023948028539465448,0.10004341621459822,-0.008504689666172991,-0.0038305694570223347,0.0027800071716351416,-0.02022383418302679,0.023625534098154374,0.21930761321814515,-0.18356019307120428,-0.05780022056885918,0.1512205510005045,-0.3693522961975393
1328,6.276455899991561,0.024065125353627793,0.09973940282236324,-0.008589658937331395,-0.003718839300271488,0.0038245387514319286,-0.02110091431503303,0.023350419940278744,0.22001689412630565,-0.1853135307902773,-0.05789335250303617,0.14742570940481292,-0.36813398918680446
1329,6.280898199998774,0.02413182191811089,0.09944512118074403,-0.008672204089064047,-0.0036084186035257007,0.004872396043587282,-0.02198631677304233,0.023074878795698868,0.2207080521596131,-0.18706093889716838,-0.05797629342541599,0.14360243914300905,-0.36686205087044244
1330,6.284751799990772,0.024176370776763566,0.09915317491859894,-0.00880130609592452,-0.003499309307432841,0.005923492704745293,-0.022880012759491586,0.02279895903451581,0.22138095424727378,-0.18880216259349206,-0.05804910073950038,0.1397510699565682,-0.3655363587744294
1331,6.289144700000179,0.024205722543666004,0.09889396017952674,-0.008890454570724692,-0.0033915131232572543,0.006977741766382283,-0.02378197226625767,0.022522708756121928,0.2220354689054264,-0.19053694652728492,-0.05811183406563204,0.13587193913113124,-0.36415679900536224
1332,6.293017799995141,0.024240705745196184,0.09863776360472623,-0.00895145409184801,-0.00328503153417419,0.008035055642228537,-0.024692164072125912,0.02224617577859133,0.22267146627124482,-0.19226503483327517,-0.058164555226851176,0.13196539150429154,-0.3627232663387571
1333,6.297353499991004,0.024254875672059147,0.09837316365528495,-0.009045732258165948,-0.003179865796614451,0.009095346135849572,-0.025610555740448668,0.021969407628133764,0.2232888181370864,-0.1939861711735632,-0.058207328234067574,0.12803177947117408,-0.36123566430584947
1334,6.301381400000537,0.024323922505360113,0.09810591761671458,-0.009116333751497568,-0.003076016941658974,0.010158524448387357,-0.026537113616995893,0.021692451528615396,0.22388739798467788,-0.19570009877870734,-0.05824021927054605,0.1240714629877812,-0.35969390527885525
1335,6.3057734000030905,0.0244468473168084,0.0977878252629669,-0.009173994246924002,-0.0029734857764830256,0.011224501186461863,-0.027471802827999495,0.021415354391149898,0.22446708101933074,-0.1974065604892087,-0.05826329667570327,0.12008480957208105,-0.35809791055465306
1336,6.310442599991802,0.02457127600146128,0.09750240515985831,-0.009225980741766686,-0.0028722728858497017,0.012293186370233284,-0.028414587278393234,0.021138162803763235,0.22502774420417757,-0.19910529879738842,-0.05827663092821454,0.11607219430281537,-0.3564476104368467
1337,6.314952999993693,0.024698228795780527,0.09723063726634809,-0.009257786259172627,-0.0027723786336523917,0.013364489441625296,-0.02936542965024994,0.020860923021135565,0.22556926629442065,-0.20079605588964974,-0.05828029462842942,0.1120339998160037,-0.3547429443161687
1338,6.320736199995736,0.024947093404829843,0.09667280360218242,-0.009347350348366217,-0.0026738031645058414,0.014438319272709622,-0.030324291401417756,0.020583680954423596,0.2260915278715835,-0.20247857368911903,-0.05827436248009498,0.10797061629912104,-0.3529838607491857
1339,6.324448200000916,0.02506968503471597,0.09638985819638485,-0.009417252704397635,-0.0025765464053854265,0.01551458417425217,-0.03129113276435745,0.020306482161166872,0.22659441137775652,-0.2041525938986582,-0.0582589112713861,0.10388244148292683,-0.3511703175352661
1340,6.328666799992789,0.025197117147179173,0.09614566525512629,-0.009471725407008944,-0.002480608067314224,0.01659319190442082,-0.03226591274518232,0.02002937183528137,0.22707780114982748,-0.20581785804424055,-0.058234019855242236,0.0997698806309237,-0.34930228179177214
1341,6.336779699995532,0.025467150875412396,0.09559727250378798,-0.009591452998771637,-0.0023859876470974637,0.01767404967765505,-0.03324858912290252,0.019752394797143896,0.22754158345368808,-0.2074741075186827,-0.058199769129010426,0.09563334652642495,-0.3473797300274356
1342,6.341010699994513,0.02557982046485451,0.09531701627833401,-0.009695054198230026,-0.002292684429103918,0.01875706417369749,-0.03423911844887545,0.019475595483770754,0.22798564651840686,-0.20912108362572487,-0.058156242013394366,0.09147325945721065,-0.34540264821387945
1343,6.345254200001364,0.025645797138615527,0.09505950026978506,-0.009803762264589767,-0.0022006974870938003,0.019842141546787505,-0.035237456046463805,0.019199017939094197,0.22840988057035946,-0.21075852762445105,-0.058103523430709896,0.08729004719775231,-0.3433710318552471
1344,6.350011499991524,0.025702008165803324,0.09485150731168185,-0.009950069042938138,-0.002110025686092708,0.020929187435016833,-0.036243556010902823,0.018922705804340082,0.22881417786730607,-0.21238618077404048,-0.058041700282447144,0.08308414498898799,-0.34128488605590346
1345,6.353567799989833,0.02571174385007616,0.094641824223082,-0.010078420475472801,-0.0020206676843111354,0.02201810696984723,-0.03725737120937826,0.01864670230851012,0.22919843273240625,-0.21400378437884224,-0.05797086142614043,0.07885599551563004,-0.33914422558616886
1346,6.357831699991948,0.025740585877099154,0.09442914290651964,-0.010194163219159842,-0.0019326219351090664,0.023108804785789992,-0.038278853281316715,0.01837105025897225,0.2295625415881595,-0.21561107983376498,-0.05789109765154735,0.07460604888098822,-0.3369490749460484
1347,6.364883699992788,0.025784037579169746,0.09422359276633914,-0.010310066013194992,-0.001845886689005143,0.024201185030247346,-0.0393079526388897,0.01809579203216253,0.22990640299026147,-0.21720780866997372,-0.05780250165613879,0.07033476257929146,-0.334699468426921
1348,6.370650199998636,0.025895098095633416,0.09381146516646016,-0.010477228284119414,-0.0017604599957298844,0.02529515137351547,-0.040344618467732865,0.01782096956440201,0.23022991766136497,-0.21879371260088454,-0.057705168019901464,0.06604260146549258,-0.3323954501711506
1349,6.376096899999538,0.02599800977799578,0.09359629691205938,-0.010539927312391653,-0.001676339706322417,0.026390607018949103,-0.04138879872788188,0.017546624342832055,0.23053298852473553,-0.2203685335684472,-0.05759919317945507,0.061730037722540085,-0.3300370742295834
1350,6.382729999997537,0.02632705594328542,0.09313179466891117,-0.010615051447996527,-0.0015935234752701612,0.027487454713287444,-0.042440440154926255,0.017272797396471473,0.23081552073778985,-0.22193201378970603,-0.05748467540148644,0.0573975508261021,-0.32762440461689385
1351,6.387085299997125,0.026511863448254624,0.09291312243405865,-0.010632125999323592,-0.00151200876269091,0.02858559675714116,-0.04349948826138224,0.016999529287398847,0.2310774217255065,-0.223483895803629,-0.05736171475550393,0.053045627506728775,-0.3251575153647424
1352,6.391580299998168,0.026630398243990414,0.09272698433877258,-0.010697289116823864,-0.0014317928365566964,0.029684935015640165,-0.044565887338285745,0.016726860102063437,0.23131860121369752,-0.2250239225181949,-0.057230413085915116,0.0486747617094397,-0.32263649057271115
1353,6.395990799996071,0.02672564769762582,0.0925469543479032,-0.010780761920704002,-0.0013528727749588455,0.030785370929241985,-0.04563958045700657,0.016454829442728195,0.231538971262131,-0.22655183725772787,-0.05709087398343117,0.044285454550724045,-0.32006142445698166
1354,6.400718599994434,0.026791514650471873,0.0923811804416557,-0.010845742654317155,-0.0012752454684135846,0.031886805524700045,-0.046720509471285074,0.01618347641904822,0.2317384462974911,-0.22806738381047076,-0.05694320275580133,0.039878214272941456,-0.31743242139672145
1355,6.404126599998563,0.026827359496557752,0.09223060157817543,-0.01092715911513387,-0.0011989076222075638,0.03298913942619134,-0.04780861501949242,0.01591283963978793,0.2319169431461641,-0.2295703064763849,-0.05678750639788174,0.03545355619611259,-0.31474959597814817
1356,6.407806000002893,0.026871670159316647,0.09207720777422507,-0.011029899823589435,-0.0011238557587826333,0.03409227286660287,-0.04890383652711549,0.015642957204680324,0.23207438106683947,-0.23106035011516718,-0.05662389356104303,0.03101200266708941,-0.3120130730362397
1357,6.412071200000355,0.026917890279680667,0.09192323635047328,-0.01114993777753415,-0.0010500862201592044,0.035196105698976084,-0.0500061122094673,0.015373866696431654,0.23221068178291487,-0.23253726019447482,-0.05645247452192146,0.026554083006095804,-0.3092229876940586
1358,6.4236813000025,0.0270711537242126,0.09154214043830157,-0.0115321134492853,-0.0009775951703975098,0.03630053740810843,-0.05111537907462379,0.015105605172874872,0.2323257695146934,-0.2340007828383469,-0.05627336115051885,0.022080333450629958,-0.3063794853996577
1359,6.428390599990962,0.02715773010590491,0.09140694478027728,-0.0116308647142941,-0.000906378598096056,0.03740546712231149,-0.05223157292658787,0.014838209159275084,0.23241957101136154,-0.2354506648758104,-0.056086666877656934,0.01759129709672074,-0.3034827219605363
1360,6.433046199992532,0.02726018499421524,0.0912761700118854,-0.011734092420956722,-0.0008364323189265507,0.038510793625324585,-0.05335462836868199,0.0145717146407902,0.2324920155827361,-0.23688665388965813,-0.055892506661792074,0.013087523837531373,-0.30053286357561615
1361,6.437050900000031,0.027381609992236072,0.091134984007447,-0.01179412262664246,-0.0007677519782045719,0.039616415368382986,-0.05448447880716983,0.014306157055090044,0.23254303513076724,-0.23830849826538597,-0.05569099695519655,0.008569570299304403,-0.29753008686470994
1362,6.442064899994875,0.02749908857798874,0.09102837118402979,-0.011845622939657328,-0.0007003330534952362,0.040722230482439795,-0.055621056455107995,0.01404157128513708,0.23257256418078498,-0.23971594724027934,-0.05548225566951302,0.004037999774642927,-0.2944745788954539
1363,6.445764899995993,0.027602034411088296,0.09092191892658014,-0.011914484605731968,-0.0006341708572531023,0.04182813679054034,-0.056764292336428754,0.013777991652131843,0.23258053991247685,-0.24110875095263778,-0.05526640214068896,-0.0005066178468761075,-0.2913665372076788
1364,6.449559899992892,0.027728891790911602,0.09081939788114639,-0.01201159557240081,-0.0005692605394955375,0.04293403182034801,-0.05791411629025449,0.013515451908626127,0.23256690219058407,-0.24248666049112802,-0.05504355709329858,-0.005063706150759718,-0.2882061698351903
1365,6.454171299992595,0.027817897209086194,0.09071024567082535,-0.012092622703017992,-0.000505597090508755,0.044039812816820297,-0.05907045697544477,0.013253985231807043,0.23253159359530418,-0.24384942794425576,-0.054813842604259734,-0.00963268227233016,-0.2849936953249314
1366,6.457790599990403,0.02789494082664044,0.09062538392893145,-0.01218534840478943,-0.00044317534358571774,0.04514537675503377,-0.060233241875376486,0.012993624216954939,0.23247455945238693,-0.24519680644994363,-0.05457738206595385,-0.014212956974130993,-0.2817293427534992
1367,6.464827299991157,0.02795720567302524,0.09057315831529907,-0.012288625133844365,-0.00038198997779508606,0.04625062035315647,-0.06140239730295778,0.012734400871078107,0.23239574786291117,-0.24652855024520473,-0.05433430014875706,-0.01880393472600837,-0.27841335174099335
1368,6.470101099999738,0.028031847406360822,0.09041198325735529,-0.01248476656622377,-0.0003220355207803715,0.04735544008556614,-0.06257784840587624,0.012476346606727251,0.23229510973272993,-0.2478444147158986,-0.05408472276299125,-0.023405013787866965,-0.2750459724621735
1369,6.47426170000108,0.028041333865671893,0.09035181760964069,-0.012563447531334298,-0.00026330635158844937,0.04845973219611317,-0.06375951917208221,0.012219492235992608,0.23217259880157048,-0.24914415644655608,-0.053828777020304024,-0.028015586295099006,-0.2716274656549036
1370,6.479151999999885,0.028052834916248423,0.09031007064442508,-0.01263899028107032,-0.00020579670352656934,0.049563392711526454,-0.06494733243550778,0.011963867964686572,0.2320281716717758,-0.25042753327026,-0.05356659119448714,-0.03263503834668392,-0.2681581026258592
1371,6.483036199992057,0.028040878469946108,0.09026363437273012,-0.012710135212706735,-0.00014950066704698793,0.05066631745496062,-0.06614120988202196,0.011709503386714622,0.23186178783667408,-0.2516943043185699,-0.053298294681743116,-0.03726275009595502,-0.26463816525347644
1372,6.492292599999928,0.028020184930307727,0.09020029685665278,-0.012832160431661552,-9.441219265833543e-05,0.051768402059682916,-0.06734107205562262,0.011456427478637326,0.2316734097085644,-0.2529442300714778,-0.05302401796041004,-0.0418980958440286,-0.2610679459881211
1373,6.495942399997148,0.028044576268949545,0.09017647662803831,-0.01288613632699835,-4.052509386281557e-05,0.052869541982898026,-0.0685468383648655,0.011204668594426133,0.2314630026463059,-0.2541770724073825,-0.0527438925501548,-0.04654044413589002,-0.25744774784945756
1374,6.499646900003427,0.028104616246604437,0.09012654799264692,-0.012915465047823638,1.2166949881677778e-05,0.05396963251970915,-0.06975842708953069,0.010954254460415608,0.23123053498249718,-0.25539259465306585,-0.052458050970645605,-0.05118915785913012,-0.25377788442099614
1375,6.503734700003406,0.028197185341103725,0.09008642398396012,-0.012947403445702714,6.367039017545524e-05,0.05506856881721341,-0.07097575538752658,0.010705212170454663,0.23097597805023212,-0.25659056163365734,-0.05216662669971522,-0.055843594345324585,-0.25005867984180086
1376,6.510173199989367,0.028298409161110875,0.09004568986214556,-0.012976415871276918,0.00011399180666787753,0.05616624588872965,-0.07219873930203127,0.010457568181259308,0.23069930620941817,-0.2577707397225725,-0.0518697541310261,-0.06050310547404732,-0.24629046879533928
1377,6.514841099997284,0.028395835036968936,0.09000416273296695,-0.013007956327572248,0.00016313790402610419,0.05726255862815658,-0.07342729376887143,0.01021134830796939,0.23040049687264497,-0.2589328968914119,-0.05156756853124934,-0.065167037779508,-0.24247359649545677
1378,6.520042000003741,0.028593770645815485,0.08994247675980459,-0.013093877167837735,0.0002111155088827094,0.05835740182445916,-0.07466133262413867,0.009966577719911662,0.23007953053059038,-0.26007680275980943,-0.05126020599676943,-0.0698347325598031,-0.23860841866946048
1379,6.524150800003554,0.028593770645815485,0.08994247675980459,-0.013093877167837735,0.0002579315667631412,0.05945067017628059,-0.07590076861204331,0.009723280936571552,0.22973639077695004,-0.26120222864521514,-0.050947803409927495,-0.07450552598876838,-0.23469530153829748
1380,6.528890799992951,0.02868969894148609,0.08993911789874746,-0.01322098369147081,0.00030359313899401053,0.06054225830667775,-0.07714551339300546,0.009481481823775981,0.22937106433287663,-0.2623089476125991,-0.050630498394816224,-0.07917874923041983,-0.23073462179381285
1381,6.533004600001732,0.028699697680244905,0.0899504342391003,-0.013275365484148448,0.00034810739959320987,0.0616320607779775,-0.07839547755198278,0.009241203590089503,0.22898354107091481,-0.2633967345240605,-0.050308429272639885,-0.08385372855596898,-0.226726766573073
1382,6.53754520000075,0.02869149540299903,0.0899623691372717,-0.013330405962231399,0.00039148163214286914,0.06271997210675172,-0.07965057060703451,0.009002468783425926,0.2285738140384199,-0.26446536608832794,-0.04998173501665337,-0.08852978546339688,-0.2226721334297426
1383,6.5411206999997376,0.02866340345442034,0.08996617336907588,-0.01335303191864037,0.00043372322664616885,0.06380588677890818,-0.08091070101812066,0.008765299287877533,0.2281418794804469,-0.2655146209101364,-0.04965055520669454,-0.09320623679957057,-0.2185711303025029
1384,6.547434899999644,0.02864379963024433,0.08999575742325334,-0.01336656032129007,0.0004748396763690392,0.06488969926489524,-0.08217577619613589,0.008529716320763903,0.22768773686209612,-0.26654427953946613,-0.04931502998332411,-0.09788239488488425,-0.21442417548050277
1385,6.552014999993844,0.02864682898056352,0.09001431283936966,-0.013372758159465929,0.0005148385746677862,0.06597130403501766,-0.08344570251217774,0.008295740429902283,0.22721138889030199,-0.2675541245206306,-0.04897530000158786,-0.10255756764040627,-0.2102316975658316
1386,6.557669599991641,0.02872254747301104,0.09000704797620096,-0.013371790524273036,0.0005537276118036962,0.06705059557486089,-0.08472038530704867,0.008063391491101423,0.2267128415350524,-0.26854394044119856,-0.04863150638441629,-0.10723105871751225,-0.20599413543300502
1387,6.562329599997611,0.028804661361321815,0.09000335288057866,-0.013362100942435529,0.0005915145717456756,0.06812746840082105,-0.08599972890099136,0.007832688705880655,0.22619210405002643,-0.26951351398073803,-0.04828379067567719,-0.11190216762998258,-0.20171193818545702
1388,6.5672472000005655,0.028888615644229662,0.08998296295587306,-0.013321922685850673,0.0006282073289619924,0.06920181707573791,-0.08728363660365678,0.0076036505994159,0.22564918899263858,-0.27046263395936704,-0.047932294792896686,-0.11657018988854223,-0.1973855651090318
1389,6.57079209999938,0.0289813166076119,0.08996228577897378,-0.013269535374772098,0.000663813845202192,0.07027353622462781,-0.088572010724304,0.007376295018714224,0.2250841122434766,-0.2713910913860983,-0.04757716097966474,-0.1212344171378192,-0.19301548562247042
1390,6.574629099995946,0.029018875432447657,0.08993597038754705,-0.013237391949370587,0.0006983421662702689,0.07134252055051447,-0.08986475258223131,0.007150639131018528,0.22449689302512174,-0.2722986795069628,-0.04721853175774147,-0.12589413729569662,-0.18860217922488837
1391,6.579068799997913,0.029065975488806236,0.08991487128775985,-0.013158802647252004,0.0007318004187901875,0.07240866485035427,-0.09116176251743754,0.006926699422443837,0.2238875539203401,-0.2731851938528976,-0.04685654987888106,-0.1305486346950332,-0.18414613544024033
1392,6.583155999993323,0.02907365733362677,0.08988910515783319,-0.013096544895038026,0.0007641968069648489,0.07347186403105277,-0.09246293990151312,0.0067044916968465795,0.22325612088963281,-0.27405043228738213,-0.04649135827639027,-0.13519719022772486,-0.17964785375877085
1393,6.587286699999822,0.02909929274592003,0.0898832866685634,-0.013028836410476892,0.0007955396093296154,0.07453201312556888,-0.09376818314875951,0.006484031074928159,0.2226026232881324,-0.27489419505380996,-0.04612310001643845,-0.13983908149107985,-0.1751078435754493
1394,6.591334099997766,0.029092363104997892,0.0898643500413925,-0.012970345449460373,0.0008258371755015022,0.07558900730910331,-0.09507738972753586,0.006265331993574062,0.221927093881833,-0.2757162848225806,-0.045751918249136755,-0.14447358293647805,-0.17052662412539
1395,6.595337599996128,0.029084081674172174,0.08984689121724769,-0.012933177206588129,0.0008550979229251551,0.07664274191536825,-0.09639045617183155,0.0060484082054296315,0.22122956886314146,-0.27651650673789735,-0.045377956159404376,-0.14909996602028427,-0.16590472441625898
1396,6.599826199992094,0.029073979422238737,0.08983838905135709,-0.012906474059648645,0.0008833303336167383,0.07769311245293492,-0.09770727809306311,0.005833272778713539,0.22051008786573767,-0.27729466846425527,-0.045001356917640026,-0.1537174993569835,-0.16124268315767065
1397,6.603583899996011,0.029058533781272697,0.08981389456990448,-0.01288549636796497,0.0009105429509068589,0.07874001462165509,-0.09902775019209357,0.005619938097269939,0.21976869397873258,-0.27805058023260537,-0.04462226363021707,-0.15832544887450462,-0.15654104868757693
1398,6.608531799996854,0.029076961132898448,0.08978430522063036,-0.01285031626276364,0.0009367443761836672,0.0797833443291535,-0.1003517662714729,0.005408415860860177,0.219005433760113,-0.2787840548861807,-0.04424081928982091,-0.16292307797169828,-0.1518003788956544
1399,6.616497099996195,0.02914323896999574,0.08971222763877529,-0.012791759294368887,0.0009619432656372657,0.08082299770738766,-0.10167921924789763,0.005198717085694829,0.21822035724945985,-0.2794949079259698,-0.043857166725647746,-0.1675096476779335,-0.14702124114369625
1400,6.62077209999552,0.029232737639528585,0.08966796457665034,-0.012741533403315096,0.0009861483270065653,0.0818588711292712,-0.10301000116488847,0.004990852105206734,0.21741351797992992,-0.2801829575558244,-0.043471448553483984,-0.1720844168147771,-0.1422042121830152
1401,6.624481799997739,0.02932594147194668,0.08960782415904447,-0.012678548400222579,0.0010093683163297392,0.08289086122535738,-0.1043440032056839,0.00478483057106557,0.2165849729894893,-0.2808480247271867,-0.04308380712568574,-0.1766466421597184,-0.13734987806886503
1402,6.62850079999771,0.029404973038026066,0.08955411659022054,-0.012605345763143334,0.0010316120346994223,0.08391886490057855,-0.10568111570634857,0.004580661454434473,0.2157347828313878,-0.281489933183422,-0.04269438448107789,-0.1811955786119004,-0.13245883407189082
1403,6.6330029999953695,0.02948267030864192,0.08949880173002041,-0.012528928910451279,0.0010528883250238077,0.08494277935103803,-0.10702122816909466,0.0043783530474691065,0.2148630115838637,-0.2821085095037427,-0.042303322294792584,-0.18573047935981715,-0.12753168458661848
1404,6.63721319999604,0.02955255249486341,0.08943349441544475,-0.012433710219010588,0.0010732060687947934,0.08596250208085092,-0.10836422927581489,0.004177912965059463,0.21396972685906837,-0.2827035831467078,-0.04191076182806725,-0.19025059605093755,-0.12256904303699451
1405,6.64211559999967,0.02960440519866351,0.08937308578900258,-0.012347659124710496,0.0010925741828643409,0.08697793091903035,-0.10971000690182482,0.0039793481468146,0.2130549998111995,-0.2832749864932851,-0.04151684387802222,-0.194755178963213,-0.11757153177898945
1406,6.645678999993834,0.0296199966589172,0.08931507575328612,-0.012266070191178868,0.001111001616230203,0.0879889640364152,-0.11105844812981219,0.0037826648592904,0.21211890514383325,-0.2838225548894605,-0.04112170872743837,-0.1992434771784272,-0.11253978200027899
1407,6.649785399989924,0.029629182076471177,0.08926694017932217,-0.012198039681642368,0.0011284973468321806,0.08899549996263557,-0.11240943926399097,0.003587868698460335,0.2111615211164446,-0.28434612668837955,-0.040725496094555315,-0.20371473875734322,-0.10747443361701864
1408,6.653733099999954,0.029612409867612984,0.08922723961212561,-0.01214881725802868,0.0011450703783600633,0.0899974376031119,-0.11376286584445797,0.003394964592429142,0.21018292955010473,-0.2848455432920058,-0.04032834508291091,-0.2081682109166037,-0.10237613516772805
1409,6.657996499998262,0.029596827861078805,0.08917908982635434,-0.01210259716819087,0.0011607297370744116,0.09099467625608366,-0.11511861266174929,0.0032039568043891902,0.20918321583234498,-0.2853206491922818,-0.039930394131242976,-0.21260314020733712,-0.09724554370430279
1410,6.662393899998278,0.02957706157945647,0.0891459529859054,-0.012081951198492657,0.001175484468641335,0.0919871156296641,-0.11647656377159432,0.003014848935819237,0.20816246892117624,-0.285771292011779,-0.03953178096347422,-0.2170187726954223,-0.09208332468017233
1411,6.666001799996593,0.02958063954581315,0.08909839878075757,-0.012064227593657197,0.0011893436349824213,0.0929746558589162,-0.11783660250986516,0.0028276439299251607,0.20712078134825465,-0.28619732254382335,-0.03913264253880151,-0.2214143541433626,-0.08689015183562439
1412,6.670412099992973,0.02958543968912545,0.08904194275062333,-0.012036165756281397,0.00120231631114097,0.0939571975229458,-0.11919861150771872,0.002642344075322155,0.20605824922118454,-0.286598594792082,-0.03873311500191108,-0.2257891301937204,-0.08166670708031729
1413,6.679290000000037,0.029657022062521493,0.08887327923258798,-0.011972065574452094,0.0012144115821656754,0.0949346416620074,-0.12056247270692923,0.0024589510099577417,0.20497497222495015,-0.2869749660095968,-0.038333333633340856,-0.23014234655406093,-0.07641368037300346
1414,6.683204000000842,0.029732716156929816,0.08876852922891408,-0.011908704291483496,0.001225638540012909,0.09590688979461809,-0.1219280673754091,0.0022774657252748833,0.20387105362246816,-0.2873262967372515,-0.0379334328000116,-0.23447324918335347,-0.07113176959848774
1415,6.688612799989642,0.029795470917358326,0.08863521909896237,-0.011851139366478101,0.0012360062804687459,0.09687384393467513,-0.12329527612291473,0.0020978885706143522,0.20274660025425326,-0.2876524508416583,-0.03753354590594852,-0.238781084479776,-0.06582168044184536
1416,6.692968599993037,0.029874952948790952,0.08853403334799148,-0.011789080804903585,0.0012455239000918755,0.09783540660857254,-0.12466397891693443,0.0019202192578554281,0.20160172253718925,-0.2879532955524513,-0.037133805343214935,-0.24306509946986843,-0.06048412625992557
1417,6.698112799989758,0.029947736027300165,0.08841885312150188,-0.011752420622694501,0.0012542004931785323,0.09879148087231238,-0.12603405509875618,0.0017444568662938564,0.20043653446239845,-0.28822870149897206,-0.036734342443079736,-0.24732454199897871,-0.05511982795016805
1418,6.7015675000002375,0.030026273458244185,0.08829089635072786,-0.011715678480613478,0.0012620451487505829,0.09974197032860571,-0.1274053833997122,0.0015705998477559165,0.1992511535922017,-0.28847854274633394,-0.03633528742744048,-0.2515586609229446,-0.04972951381676004
1419,6.707823599994299,0.030159066519772532,0.08804846891442955,-0.011661574203936816,0.001269066947567892,0.10068677914395875,-0.12877784195759626,0.0013986460319473349,0.19804570105616154,-0.28870269683085126,-0.035936769360524125,-0.25576670630095377,-0.044313919434164205
1420,6.712170500002685,0.0302061087665057,0.08793469741843682,-0.011628760153693948,0.0012752749591660804,0.10162581206573891,-0.13015130833325167,0.0012285926320356679,0.19682030154620164,-0.28890104479482187,-0.03553891610088741,-0.25994792958952434,-0.03887378750804803
1421,6.71701929999108,0.030236282860089364,0.08781103880146701,-0.011622718427288445,0.0012806782389207874,0.10255897443921638,-0.13152565952732662,0.0010604362504646708,0.19557508331079498,-0.28907347122064986,-0.03514185425373898,-0.26410158383754556,-0.033409867733646806
1422,6.72061190000386,0.030239686542689465,0.08770541583831391,-0.011641333889183925,0.001285285825139551,0.10348617222457666,-0.132900771997194,0.0008941728849990734,0.19431017814821497,-0.2892198642642974,-0.0347457091236051,-0.26822692388231795,-0.02792291665159351
1423,6.724610399993253,0.030249516178521296,0.08760219514330896,-0.01165672795452925,0.0012891067361824088,0.10440731201389915,-0.1342765216740323,0.0007297979349980643,0.1930257213988438,-0.28934011568805396,-0.034350604667361215,-0.27232320654653036,-0.02241369750124979
1424,6.728530199994566,0.030241696984958447,0.08749174333295398,-0.011665400148741008,0.001292149967612316,0.10532230104809662,-0.13565278398006497,0.0005673062079156833,0.19172185193653196,-0.2894341208926087,-0.03395666344765137,-0.27638969083611353,-0.016882980071573808
1425,6.736849599998095,0.030264688617703595,0.08722103448414739,-0.011680987024653922,0.0012944244893764673,0.10623104723381138,-0.1370294338459545,0.0004066919260262043,0.190398712159003,-0.2895017789484143,-0.03356400658671749,-0.28042563813890786,-0.011331540549561397
1426,6.741374599994742,0.030300569966468124,0.08708747746695328,-0.011668615370466814,0.001295939243019601,0.1071334591602636,-0.13840634572834898,0.00024794873337249284,0.18905644797729754,-0.2895429926263291,-0.033172753720660544,-0.2844303124240823,-0.0057601613662981044
1427,6.745941300003324,0.030344126968346083,0.08693540059892632,-0.011638789011367731,0.0012967031389303615,0.10802944611604687,-0.13978339362757602,9.106970293521483e-05,0.18769520880425142,-0.2895576684275278,-0.03278302295415538,-0.2884029804422391,-0.0001696310406608771
1428,6.749535700000706,0.030375601071677947,0.08676329785558012,-0.011606052292966098,0.0012967250536217723,0.10891891810586676,-0.14116045110548162,-6.395265597933289e-05,0.18631514754200343,-0.28954571661266815,-0.0323949308156406,-0.29234291192613876,0.005439255979290648
1429,6.753782200001297,0.03042632389213371,0.08660549205468045,-0.011590469898402126,0.0012960138270468739,0.10980178586721712,-0.14253739130341012,-0.00021712639013510702,0.18491642056852897,-0.28950705123030446,-0.03200859221300534,-0.29624937979197635,0.011065699477192223
1430,6.759601700003259,0.030493352655811563,0.08640506633040693,-0.011573344754407498,0.0012945782599505637,0.11067796088698921,-0.14391408696032165,-0.00036846009454836055,0.18349918772319626,-0.2894415901445362,-0.03162412038979428,-0.30012166034114346,0.016708893631480343
1431,6.763099099989631,0.030567401488835404,0.08622436315322735,-0.011593192317269772,0.0012924271112586636,0.11154735541800928,-0.14529041043104288,-0.0005179629044583917,0.18206361229134121,-0.28934925506187986,-0.031241626881952516,-0.303959033462407,0.02236802718068169
1432,6.76681249999092,0.030628239500107186,0.08603796503993547,-0.011617067703939634,0.0012895690955052298,0.11240988249550062,-0.14666623370464735,-0.0006656444870896525,0.1806098609878584,-0.2892299715573502,-0.030861221475131838,-0.30776078283443603,0.02804228359084248
1433,6.772097199995187,0.030732630456359496,0.08585117078717792,-0.011626252935899986,0.0012860128802991103,0.11326545595346543,-0.14804142842296106,-0.000811515033207974,0.1791381039398053,-0.289083669099741,-0.030483012162579648,-0.31152619612860744,0.0337308412250524
1434,6.776746299990919,0.030809038930916303,0.08567637395142905,-0.011659975143409194,0.0012817670838307467,0.11411399044098185,-0.14941586589919015,-0.0009555852484737662,0.17764851466801815,-0.2889102810760947,-0.030107105103631793,-0.31525456521201994,0.0394328735150168
1435,6.780630599998403,0.03083311913764841,0.08547770572385043,-0.011662779187336231,0.0012768402724201969,0.11495540143841136,-0.1507894171366673,-0.0010978663445951554,0.17614127006773647,-0.2887097448153513,-0.02973360458283014,-0.3189451863506434,0.04514754913462996
1436,6.788644000000204,0.030833966345344348,0.08510405115151738,-0.01168727069634523,0.001271240958107341,0.11578960527351248,-0.15216195284771197,-0.0012383700302841232,0.17461655038823512,-0.2884820016111655,-0.029362612969685776,-0.3225973604125326,0.05087403217550103
1437,6.797689500002889,0.03089524044709616,0.0847230863863977,-0.011732148202530093,0.001264977596285221,0.11661651913745533,-0.15353334347259928,-0.001377108502018813,0.1730745392114617,-0.28822699674388474,-0.028994230679108505,-0.3262103930710334,0.05661148232438342
1438,6.801513400001568,0.03092778832464001,0.08454163316441142,-0.011761055877302952,0.0012580585833774497,0.11743606110073193,-0.15490345919863346,-0.0015140944346152653,0.17151542342967838,-0.2879446795016774,-0.028628556132523117,-0.3297835950079101,0.06235905504245747
1439,6.805329199996777,0.030976409235594242,0.08434047513905875,-0.011779041551356128,0.0012504922545606067,0.11824815012895776,-0.15627216997932114,-0.0016493409716119428,0.16993939322210738,-0.2876350032008017,-0.028265685719692613,-0.3333162821163207,0.06811590174641506
1440,6.809624899993651,0.03108054363654511,0.08408975520895441,-0.011786088961963927,0.0012422868815325277,0.11905270609856049,-0.15763934555363945,-0.0017828617154705055,0.16834664203058106,-0.28729792520500647,-0.027905713761268287,-0.33680777570356496,0.07388116999129392
1441,6.816093999994337,0.031325835411129266,0.08359792341650936,-0.011821675700971895,0.001233450670327359,0.11984964981235106,-0.1590048554653949,-0.0019146707175963955,0.16673736653419638,-0.286933406944054,-0.0275487324720864,-0.3402574026935318,0.07965400365500873
1442,6.820710899992264,0.03145035134416297,0.08334946388858012,-0.011841968249857901,0.0012239917591782478,0.12063890301497221,-0.1603685690826694,-0.0020447824681828876,0.1651117666229756,-0.2865414139313565,-0.027194831925231006,-0.3436644958287703,0.08543354312452495
1443,6.824584499991033,0.031553630516077624,0.08310947911454807,-0.011865592846112704,0.0012139182164285238,0.1214203884082195,-0.16173035561734908,-0.0021732118858823484,0.16347004537053403,-0.28612191578071616,-0.026844100016882075,-0.34702839387210954,0.09121892548362057
1444,6.829129299992928,0.0316409846013379,0.0828466158272602,-0.011890258667093525,0.001203238038492209,0.12219402966623057,-0.16309008414473086,-0.0022999743073085473,0.1618124090057577,-0.2856748862221611,-0.02649662243196823,-0.3503484418077514,0.09700928470217987
1445,6.832744500003173,0.03172996246712033,0.08258381693955777,-0.011931513321451127,0.0011919591478646713,0.12295975145053736,-0.16444762362320214,-0.0024250854763739494,0.16013906688349333,-0.28520030311687133,-0.026152482610643006,-0.35362399104176223,0.10280375182696248
1446,6.837476000000606,0.03180626282996242,0.08234448053405528,-0.011960829032517026,0.0011800893911842179,0.12371747942497657,-0.16580284291398847,-0.00254856153346601,0.15845023145425205,-0.2846981484711857,-0.025811761715603225,-0.35685439960188803,0.10860145517379026
1447,6.841350199989392,0.031859122084631375,0.08205943122884185,-0.01201689262113485,0.0011676365373454087,0.12446714027045415,-0.1671556108009643,-0.0026704190044665923,0.15674611823292922,-0.2841684084496818,-0.025474538600267643,-0.3600390323366161,0.1144015205210938
1448,6.8455930999916745,0.031917422285458345,0.08178717180264199,-0.012091401659882846,0.001154608275664848,0.12520866169955983,-0.16850579601052298,-0.002790674789618723,0.15502694576654366,-0.28361107338732305,-0.025140889777833825,-0.3631772611134093,0.12020307130475996
1449,6.850213600002462,0.03199236263554754,0.08154929185988374,-0.01218951271358764,0.001141012214100193,0.1259419724710263,-0.1698532672315015,-0.002909346152244991,0.15329293560099985,-0.28302613780066493,-0.024810889391230783,-0.36626846501603544,0.12600522881422052
1450,6.85386039999139,0.032058560079275794,0.08131659048426934,-0.012331761651829127,0.001126855877523093,0.12666700240402826,-0.17119789313515543,-0.0030264507073219527,0.15154431224687717,-0.28241360039811436,-0.024484609183984582,-0.3693120305409159,0.13180711238972093
1451,6.86219099999289,0.03229995452352525,0.0808150304298373,-0.012657155504995096,0.001112146706046762,0.12738368239231723,-0.17253954239517938,-0.0031420064099150144,0.14978130314424995,-0.28177346408923676,-0.024162118472013813,-0.37230735179241786,0.13760783962070844
1452,6.8676559000014095,0.03246184535272736,0.08053212692731264,-0.012840430250221893,0.001096892053408859,0.1280919444181872,-0.1738780837077668,-0.003256031543478341,0.14800413862654327,-0.28110573599310423,-0.023843484116371282,-0.3752538306770134,0.14340652654527827
1453,6.871497200001613,0.03263795349172673,0.08025613174610328,-0.013008744845535766,0.001081099185410333,0.12879172156626634,-0.17521338581170556,-0.003368544708024423,0.14621305188343062,-0.28041042744567957,-0.023528770496948015,-0.3781508770962288,0.1492022878506148
1454,6.876552799993078,0.03279632592314236,0.07993869861894018,-0.013213241911005997,0.0010647752784108632,0.12948294803712976,-0.1765453175085043,-0.003479564808167993,0.1444082789227797,-0.27968755400623035,-0.023218039487155437,-0.38099790913830706,0.15499423707436463
1455,6.882118800000171,0.0330522841723398,0.07938449659107563,-0.013675535538290033,0.0010479274178815216,0.13016555916072814,-0.17787374768254488,-0.0035891110410490603,0.14259005853165216,-0.2789371354627684,-0.022911350429601237,-0.38379435326850675,0.16078148680687743
1456,6.886683999997331,0.0332278284190254,0.07910808180091478,-0.013969868082102628,0.0010305625970152448,0.13083949140962775,-0.1791985453212558,-0.0036972028841399333,0.1407586322363635,-0.27815919583651144,-0.02260876011277388,-0.3865396445179619,0.16656314889424934
1457,6.89117279999482,0.03338268259903563,0.07884610840578855,-0.014257662004087887,0.0010126877153956834,0.131504682412057,-0.1805195795353019,-0.003803860082941131,0.13891424426161011,-0.27735376338536455,-0.02231032274875025,-0.3892332266710256,0.17233833464210438
1458,6.89528060000157,0.03352670747750111,0.07861523608781128,-0.014628459291072276,0.0009943095777249786,0.13216107096475538,-0.18183671957878603,-0.0039091026385711545,0.13705714148867118,-0.2765208706064153,-0.022016089951940536,-0.3918745524510198,0.17810615502004815
1459,6.899599099997431,0.033701187011925544,0.07843158379722638,-0.014991671865921645,0.0009754348926109863,0.13280859704561937,-0.18314983486945735,-0.004012950795255169,0.1351875734126931,-0.2756605542374408,-0.021726110718884094,-0.3944630837043134,0.1838657208667283
1460,6.903664999990724,0.03385255859158272,0.07826461559672886,-0.015387753774399155,0.0009560702714144406,0.13344720182614242,-0.184458795008922,-0.004115425027717714,0.13330579209906426,-0.27477285525742406,-0.021440431409109572,-0.39699829158265143,0.18961614309543615
1461,6.912138899991987,0.0341727170818892,0.07795198852052605,-0.01635608948651275,0.0009362222271565228,0.1340768276836444,-0.18576346980285158,-0.004216546028484602,0.13141205213888885,-0.27385781888607874,-0.02115909572707209,-0.39947965672365815,0.19535653290018246
1462,6.920461300003808,0.03450424884272163,0.07779778090310743,-0.017594326138597495,0.0009158971734872866,0.13469741821328612,-0.18706372928118578,-0.004316334695099255,0.12950661060356833,-0.27291549458237785,-0.020882144705179774,-0.4019066694294354,0.20108600196218132
1463,6.9243870999926,0.034639332483022194,0.07778953657360968,-0.018254737406348122,0.000895101423715366,0.13530891823986502,-0.18835944371832525,-0.004414812117258758,0.12758972699849935,-0.27194593604208417,-0.020609616687921516,-0.4042788298431802,0.20680366265667352
1464,6.928718900002423,0.0347442943486657,0.07784454189360862,-0.018921825524975205,0.0008738411898993574,0.13591127382938856,-0.18965048365330958,-0.004511999563874958,0.12566166321589772,-0.2709492011942817,-0.0203415473171073,-0.4065956481237448,0.21250862826002123
1465,6.932830399993691,0.034909045178246646,0.07797814079590705,-0.019606706481017405,0.0008521225820012495,0.13650443230042028,-0.19093671990997482,-0.004607918470066034,0.12372268348675897,-0.26992535219690694,-0.02007796951823198,-0.40885664461806676,0.21820001315700502
1466,6.937905200000387,0.0351012276347752,0.07815396180737225,-0.02033948609094467,0.0008299516071022401,0.13708834223519475,-0.1922180236170857,-0.004702590424083995,0.12177305433196564,-0.26887445543127864,-0.01981891348797277,-0.41106135003139355,0.2238769330482543
1467,6.942413800003124,0.03529000736856098,0.07840500033201314,-0.021057009217328785,0.0008073341686812539,0.13766295349049726,-0.19349426622843852,-0.004796037154183613,0.11981304451255242,-0.26779658149562446,-0.01956440668283034,-0.41320930559523,0.22953850515774385
1468,6.947460099996533,0.03544853627729124,0.07874810354417325,-0.02175177022682711,0.0007842760659564528,0.13822821720830406,-0.19476531954293025,-0.004888280515438335,0.11784292497914146,-0.2666918051976056,-0.019314473808922806,-0.4153000632329355,0.2351838484402865
1469,6.953795199995511,0.03561076044810694,0.07978542494967181,-0.023271661412132723,0.0007607829932900045,0.13878408582617904,-0.19603105572458973,-0.004979342476508796,0.11586296882056055,-0.26556020554583926,-0.019069136812941468,-0.41733318572290035,0.2408120837889532
1470,6.957758099990315,0.03555503526131653,0.0804253841477226,-0.024066502172322736,0.0007368605396563459,0.13933051308742297,-0.197291347322566,-0.0050692451063695625,0.11387345121165601,-0.264401865740418,-0.018828414874276635,-0.41930824685922874,0.2464223342423506
1471,6.966629100003047,0.03523824712454839,0.08202002388653636,-0.025816008948409602,0.0007125141881741503,0.13986745405097087,-0.1985460672910698,-0.005158010560999819,0.11187464936031295,-0.26321687316242753,-0.018592324398321317,-0.4212248316098546,0.2520137251916865
1472,6.970587099989643,0.03517605503017679,0.08297922430079101,-0.026689459696684344,0.0006877493157021843,0.14039486510103352,-0.199795089009264,-0.005245661070043693,0.10986684245369509,-0.2620053193624626,-0.018360879010960025,-0.4230825362720195,0.25758538458755287
1473,6.974560100003146,0.035010826521214726,0.08398119390154009,-0.0276068606232866,0.0006625711924992115,0.14091270395647934,-0.20103828630109832,-0.005332218923445989,0.1078503116037174,-0.26076730004814197,-0.01813408955424943,-0.4248809686250423,0.26313644314635837
1474,6.978463199993712,0.034847041855923716,0.08504430396066362,-0.028497724414090972,0.0006369849819480696,0.1414209296799527,-0.20227553345508312,-0.005417706458069106,0.10582533979176521,-0.2595029150706232,-0.017911964083296972,-0.42661974808031083,0.26866603455633975
1475,6.982845599995926,0.034642534230585775,0.0862622312240671,-0.02944867317062074,0.0006109957403440216,0.14191950268672568,-0.20350670524399686,-0.005502146044296947,0.103792211812673,-0.2582122684101194,-0.017694507864342977,-0.42829850582843,0.2741732956830802
1476,6.987471200001892,0.034430496576405865,0.08746777182023004,-0.030458279429259563,0.0005846084167474551,0.14240838475328024,-0.20473167694452393,-0.005585560072631651,0.10175121421797727,-0.2568954681604216,-0.017481723374051145,-0.4299168849834581,0.27965736677446756
1477,6.991605299990624,0.03412370588746528,0.08877713643857492,-0.03142745053424856,0.0005578278529009719,0.1428875390256181,-0.20595032435681837,-0.0056679709402889964,0.09970263525845806,-0.25555262651242905,-0.017273610300011715,-0.43147454072416447,0.2851173916650222
1478,6.995487199994386,0.03385690325133758,0.09020912017169473,-0.0325179946674442,0.0005306587832108833,0.1433569300272949,-0.20716252382398873,-0.005749401037798335,0.0976467648259834,-0.2541838597366917,-0.017070165542461196,-0.4329711404322429,0.29055251797952375
1479,6.999847999992198,0.03358774584419493,0.09164906726854061,-0.033603499579500734,0.0005031058347930991,0.14381652366717565,-0.20836815225149957,-0.0058298727356129775,0.0955838943946724,-0.2527892881649686,-0.01687138321722188,-0.4344063638274146,0.2959618973358669
1480,7.008278299996164,0.03315532894757532,0.09478631811458144,-0.03583626048925524,0.000475173527583364,0.14426628724690854,-0.20956708712648553,-0.005909408370736934,0.09351431696139291,-0.2513690361708056,-0.016677254659863743,-0.435779903099358,0.3013446855470752
1481,7.01194559999567,0.03284801257792626,0.09644126074557355,-0.037025032584782076,0.0004468662745117707,0.1447061894681143,-0.21075920653697314,-0.00598803023337395,0.09143832698560996,-0.249923232149136,-0.01648776843109073,-0.4370914630364019,0.30670004282240276
1482,7.01643960000365,0.03246981983339872,0.09815854893745482,-0.03817236091800138,0.00041818838174144315,0.14513620043928727,-0.2119443891910062,-0.006065760553604752,0.08935622032860092,-0.24845200849490892,-0.016302910323352928,-0.43834076115092185,0.3120271339674551
1483,7.02030360000208,0.03203280066935798,0.10002201283805322,-0.03943499525720797,0.0003891440489712617,0.1455562916824048,-0.21312251443567035,-0.0061426214880984445,0.08726829419205484,-0.24695550158074991,-0.016122663368685543,-0.43952752780138,0.31732512858326073
1484,7.024602999998024,0.03151164457041307,0.10188462757585688,-0.040699610920844564,0.00035973736980247293,0.14596643613924185,-0.2142934622760125,-0.006218635106863966,0.08517484705607246,-0.24543385173365992,-0.01594700784777492,-0.44065150631094985,0.32259320126422364
1485,7.029089999996359,0.03100512880942282,0.10384425789338074,-0.0419622477705692,0.00032997233216899683,0.14636660817738825,-0.21545711339385024,-0.006293823380047552,0.08307617861658419,-0.24388720321075874,-0.015775921300251423,-0.44171245308267004,0.3278305317948854
1486,7.032922899990808,0.0304799046990673,0.10586146876788861,-0.04321891610475655,0.00029985281883121456,0.14675678359596564,-0.21661334916646632,-0.006368208164782134,0.08097258972220309,-0.242315704174079,-0.01560937853620824,-0.4427101377110686,0.33303630534542955
1487,7.03707389999181,0.029903451624117918,0.10795759808408167,-0.0445262358719217,0.0002693826079329936,0.1471369396310404,-0.21776205168518395,-0.006441811192094614,0.07886438231053126,-0.24071950666441624,-0.015447351648944575,-0.443644343090203,0.33820971266585853
1488,7.041040500000236,0.02929598028883181,0.1100746081136152,-0.0457890790795009,0.0002385653736216766,0.14750705496073002,-0.2189031037738175,-0.006514654053876939,0.07675185934393788,-0.23909876657424226,-0.015289810028931112,-0.4445148655180593,0.3433499502787784
1489,7.045198699997854,0.028661393517473578,0.11228416973170822,-0.047144035230108475,0.00020740468673073435,0.14786710971000036,-0.22003638900699424,-0.006586758189926886,0.07463532474482733,-0.2374536436196885,-0.015136720378995041,-0.44532151479725735,0.34845622067072285
1490,7.0494331999943824,0.02799936052890818,0.11448902309176427,-0.04852031349609223,0.00017590401552475043,0.14821708545515147,-0.22116179172834308,-0.006658144875064445,0.07251508333041623,-0.23578430131160735,-0.014988046730721297,-0.4460641143320117,0.3535277324819492
1491,7.053802399997949,0.02737635842180256,0.11680901628516034,-0.04982016099980624,0.00014406672650637807,0.14855696522798864,-0.22227919706854704,-0.0067288352063296746,0.07039144074703838,-0.234090906925719,-0.014843750462066025,-0.4467425012212955,0.35856370069464
1492,7.060069600003772,0.026735834097576728,0.11909329562933847,-0.05126527807187348,0.00011189608528488057,0.14888673351967724,-0.22338849096325503,-0.006798850090267896,0.06826470340399642,-0.23237363147185194,-0.014703790316177722,-0.4473565263481587,0.36356334681944547
1493,7.064202199995634,0.02609274558198544,0.12145080900622748,-0.052669946285889974,7.939525750583803e-05,0.14920637628427902,-0.22448956017084945,-0.006868210230308074,0.06613517840697979,-0.23063264966228578,-0.014568122421420866,-0.447906054465153,0.36852589908030164
1494,7.068310799993924,0.025441111025998636,0.12382762226452967,-0.054199494829045056,4.656730984157448e-05,0.14951588094196772,-0.22558229229006554,-0.00693693611424016,0.0640031734910683,-0.22886813987920543,-0.014436700312596173,-0.4483909642758189,0.3734505925974609
1495,7.072371100002783,0.0247893777862604,0.1262113592445789,-0.05563528541880497,1.3415211041831074e-05,0.14981523638192176,-0.22666657577745664,-0.007005048001797141,0.06186899695334176,-0.2270802841412758,-0.014309474953351081,-0.4488111485121882,0.37833666956867085
1496,7.076012699995772,0.024096706739643335,0.128683871788329,-0.057205731998002454,-2.0058166955817874e-05,0.15010443296489115,-0.22774229996469994,-0.007072565912347569,0.05973295758511598,-0.22526926806934483,-0.014186394759773437,-0.4491665140082595,0.3831833794484403
1497,7.080130299989833,0.023441376300139326,0.13107406678648512,-0.05870833191198059,-5.385004785633757e-05,0.15038346252543602,-0.2288093550757388,-0.007139509612704257,0.05759536460382532,-0.22343528085128506,-0.014067405625160756,-0.449456981769408,0.3879899791253276
1498,7.084359999993467,0.022677831090539384,0.13354604989400928,-0.06022580531212389,-8.795774977895347e-05,0.15065231837383464,-0.22986763224375611,-0.007205898605054811,0.055456527584572445,-0.22157851520598243,-0.013952450945956924,-0.4496824870376875,0.39275573309718953
1499,7.088382999994792,0.02193840667159743,0.1359755134880829,-0.06178399516070004,-0.0001223786839708069,0.15091099529765956,-0.23091702352797422,-0.007271752115019633,0.053316756391366314,-0.21969916734648365,-0.013841471648847503,-0.44984297935298806,0.39747991364432694
1500,7.092571999994107,0.02115519638854194,0.13843417779791664,-0.06333995855368252,-0.0001571103534631607,0.15115948956302053,-0.23195742193027738,-0.007337089079842968,0.05117636110806913,-0.21779743694231116,-0.013734406219004304,-0.44993842261001143,0.40216180100046744
1501,7.096258899997338,0.020392638748673014,0.14088639934175706,-0.06493186479278372,-0.00019215035167079647,0.15139779891547286,-0.23298872141165186,-0.007401928136722531,0.04903565196907327,-0.21587352708095647,-0.01363119072946924,-0.44996879511103,0.40680068352152476
1502,7.10043809999479,0.01956103643564036,0.14334734681529046,-0.06653496751252194,-0.00022749636093527344,0.1516259225805903,-0.23401081690843964,-0.007466287611283181,0.046894939289729445,-0.21392764422856375,-0.013531758871666957,-0.44993408961439646,0.41139585785207605
1503,7.1038543000031495,0.018782752084148847,0.14577939268248594,-0.06818516155783742,-0.00026314615101274475,0.1518438612642011,-0.23502360434840167,-0.007530185506200045,0.044754533396547176,-0.2119599981898149,-0.013436041987035203,-0.4498343133787743,0.4159466290894975
1504,7.108166999998502,0.0179822984421468,0.1482548417185762,-0.06984904988749421,-0.0002990975775070539,0.15205161715228604,-0.23602698066658737,-0.007593639489976494,0.0426147445571892,-0.2099708020670272,-0.013343969099761252,-0.449669488203059,0.42045231094570085
1505,7.112097799996263,0.017088221220871155,0.15068638734855305,-0.07156615264246964,-0.00033534858024886004,0.15224919391053682,-0.2370208438210061,-0.007656666885882254,0.040475882910281154,-0.20796027221847488,-0.013255466950612076,-0.44943965046196505,0.4249122259064153
1506,7.116020999994362,0.016288626151855317,0.15306088529798811,-0.07333044378367709,-0.000371897181621567,0.15243659668357373,-0.23800509280809684,-0.007719284661056902,0.038338258395058326,-0.20592862821594665,-0.01317046003184542,-0.44914485113724856,0.42932570538796033
1507,7.120349299992085,0.015701935573993284,0.15554307987391086,-0.07490379242988698,-0.000408741484834858,0.1526138320938221,-0.2389796276779918,-0.007781509415783904,0.0362021806808713,-0.20387609280155156,-0.013088870623188321,-0.44878515584454326,0.43369208989145613
1508,7.124934599996777,0.015200133517422214,0.15800281020600307,-0.07641005599626953,-0.0004458796721466615,0.15278090824004706,-0.2399443495495704,-0.00784335737294033,0.034067959096572245,-0.20180289184378633,-0.013010618828869043,-0.44836064485578675,0.4380107291544178
1509,7.130349099999876,0.014809373656051004,0.16048587462682765,-0.07797067129367091,-0.0004833100030344009,0.15293783469554692,-0.24089916062529879,-0.007904844367627346,0.031935902559804163,-0.1997092542928773,-0.01293562261568792,-0.4478714131172166,0.4422809822996799
1510,7.134550000002491,0.014282374388833164,0.1627979378119013,-0.07956181737932248,-0.0005210308123164038,0.15308462250600471,-0.2418439642058524,-0.007965985836986446,0.029806319506215147,-0.19759541213541004,-0.012863797852112018,-0.44731757026291635,0.44650221798159995
1511,7.141015599991079,0.013067331512930836,0.16745948476787187,-0.08292163358211213,-0.000559040508224375,0.15322128418699757,-0.2427786647045187,-0.00802679681020631,0.027679517818620117,-0.1954616003482611,-0.012795058348377958,-0.4466992406238955,0.450673814529491
1512,7.145752700002049,0.012443308348379428,0.16984555514211377,-0.08472007149974294,-0.0005973375704278597,0.15334783372116376,-0.2437031676613778,-0.008087291898725136,0.025555804756132502,-0.1933080568518463,-0.01272931589758677,-0.44601656323268757,0.4547951600882354
1513,7.149990499994601,0.011882766594663276,0.17206692288595177,-0.08640847744300886,-0.0006359205480116511,0.15346428655502756,-0.2446173797572591,-0.008147485286633177,0.02343548688328819,-0.1911350224626995,-0.012666480317774119,-0.4452696918234512,0.458865652756031
1514,7.153872800001409,0.011385086236083463,0.17439680912498176,-0.08809000722892167,-0.0006747880574071153,0.1535706595954824,-0.24552120882746917,-0.0082073907212801,0.021318869999184246,-0.18894274084539586,-0.01260645949493874,-0.44445879482755984,0.46288470071922627
1515,7.158174600001075,0.0107825245480962,0.17661430969527755,-0.08987277871868707,-0.0007139387802784229,0.15366697120593223,-0.2464145638752876,-0.008267021504091726,0.019206259066654865,-0.18673145846383402,-0.012549159427011396,-0.44358405536467055,0.46685172238419914
1516,7.162558299998636,0.010272561724668866,0.17888892276669222,-0.09164357792840153,-0.0007533714613647095,0.15375324120209097,-0.2472973550852269,-0.008326390481600637,0.01709795814150712,-0.18450142453189192,-0.012494484268746166,-0.4426456712292633,0.4707661465062332
1517,7.166057399997953,0.009809438388952155,0.18098905987829697,-0.09333536332998796,-0.0007930849062792006,0.15382949084744127,-0.24816949383605166,-0.008385510036695028,0.014994270301838995,-0.1822528909634711,-0.012442336377515415,-0.4416438548726431,0.47462741231535044
1518,7.174316099990392,0.008741610438966043,0.1853218578710769,-0.09689351072850297,-0.0008330779792663629,0.1538957428483537,-0.2490308927135535,-0.008444392080090115,0.012895497577462198,-0.17998611232194486,-0.012392616359989311,-0.44057883338040293,0.4784349696390588
1519,7.17908339999849,0.008277772697503122,0.1874503910992194,-0.09864620113985606,-0.000873349600918164,0.15395202134886724,-0.2498814655230799,-0.008503048042026342,0.01080194087945226,-0.17770134576902552,-0.012345223119680256,-0.4394508484453437,0.4821882790219744
1520,7.18378429999575,0.007847350240622688,0.1894717269516178,-0.10028687015079452,-0.0009138987458505459,0.1539983519251312,-0.25072112730181456,-0.008561488864198495,0.008713899929848577,-0.17539885101306704,-0.012300053905332054,-0.4382601563358532,0.48588681184227805
1521,7.188836799992714,0.007500456186365762,0.19157560382287794,-0.10197871304445515,-0.0009547244403412435,0.1540347615795098,-0.2515497943308064,-0.008619724991919766,0.006631673191526895,-0.1730788902568176,-0.012257004360133357,-0.4370070278597436,0.4895300504249651
1522,7.192864999989979,0.0070265042009140695,0.19357575804394103,-0.10373830348899782,-0.0009958257599300953,0.154061278734351,-0.2523673841467436,-0.008677766366524672,0.004555557798266784,-0.17074172814463753,-0.012215968571734348,-0.43569174832354934,0.4931174881518517
1523,7.197113699992769,0.006587597912975951,0.19558386517566476,-0.1054011482416278,-0.0010372018269830087,0.15407793322542096,-0.2531738155534684,-0.00873562241801462,0.00248584948503655,-0.16838763170919832,-0.0121768391230453,-0.43431461748729083,0.49664862956830136
1524,7.201175299996976,0.006111549890171607,0.19755921097603113,-0.10711474755442467,-0.0010788518082207592,0.15408475629500554,-0.25396900863323063,-0.00879330205794984,0.00042284251851798727,-0.1660168703176792,-0.012139507143795195,-0.43287594951470965,0.5001229904866398
1525,7.205814699991606,0.0058004095654458285,0.19947782177087414,-0.1088223583940173,-0.001120774912213826,0.15408178058468078,-0.2547528847576782,-0.008850813672591348,-0.0016331703721066714,-0.16362971561747713,-0.01210386236282823,-0.4313760729189856,0.5035400980862247
1526,7.210211600002367,0.005443976948891496,0.2013843302937056,-0.11050563735092093,-0.0011629703868444822,0.15406904012775324,-0.2555253665985824,-0.008908165116296423,-0.0036818980640833574,-0.16122644148144746,-0.012069793161115562,-0.4298153305039485,0.5068994910101399
1527,7.214250199991511,0.005087874714082608,0.20330019978093156,-0.11218513409630573,-0.0012054375167373788,0.15404657034137131,-0.2562863781382962,-0.008965363705171031,-0.005723051109708141,-0.15880732395269256,-0.01203718662545925,-0.42819407930079667,0.5102007194584844
1528,7.218526700002258,0.004661337065327134,0.2051830048032303,-0.11392427905213598,-0.0012481756206598762,0.15401440801830854,-0.25703584467994467,-0.009022416210982409,-0.007756341804620485,-0.156372641188915,-0.01200592860286493,-0.4265126905003367,0.5134433452782291
1529,7.224489599990193,0.004124444149900073,0.20877447381372796,-0.11724733488833303,-0.0012911840488933958,0.15397259131842034,-0.2577736928573447,-0.009079328855335004,-0.009781484255745779,-0.15392267340635177,-0.011975903755559522,-0.42477154938075873,0.5166269420496141
1530,7.228515700000571,0.0039013990065514884,0.2106258810598392,-0.11889874304303087,-0.0013344621805770722,0.1539211597597764,-0.25849985064465236,-0.009136107304112897,-0.011798194448865228,-0.1514577028233067,-0.01194699561662991,-0.4229710552309653,0.5197510951690598
1531,7.236481599989929,0.0034147467667966294,0.21396686257241684,-0.12226912030010606,-0.0013780094210250045,0.15386015420947116,-0.2592142473657362,-0.009192756662191616,-0.013806190315791328,-0.14897801360329793,-0.011919086646258119,-0.42111162126946994,0.5228154019285649
1532,7.24091039999621,0.0031838765197297163,0.21566651349585528,-0.12401884940867249,-0.001421825199018422,0.1537896168741152,-0.25991681370327274,-0.009249281468422237,-0.015805191801127265,-0.14648389179783786,-0.011892058288528245,-0.41919367455888945,0.5258194715915685
1533,7.24512720000348,0.003006075945848792,0.21722811979706855,-0.12567311974251988,-0.001465908964074095,0.1537095912900092,-0.2606074817075644,-0.009305685690890464,-0.017794920928588687,-0.14397562528886196,-0.011865791028780147,-0.4172176559160541,0.5287629254652517
1534,7.249435199992149,0.0028318119532311677,0.2187866653214441,-0.12732770978422514,-0.0015102601836903295,0.15362012231300243,-0.26128618480507854,-0.009361972722453203,-0.019775101866866533,-0.1414535037308247,-0.011840164451484527,-0.4151840198177626,0.5316453969692584
1535,7.2535780999896815,0.002740023312371817,0.22037336400568397,-0.12906522324609254,-0.0015548783405719031,0.153521256108038,-0.2619528578067061,-0.009418145376555113,-0.021745460995009673,-0.1389178184924804,-0.011815057298613783,-0.41309323430220857,0.5344665317008145
1536,7.2577172000019345,0.00257613235350887,0.22184260531628988,-0.13075646326813792,-0.0015997629298353197,0.15341304013838683,-0.26260743691573957,-0.009474205883327452,-0.02370572696730636,-0.1363688625983669,-0.011790347528482695,-0.4109457808661096,0.5372259874962309
1537,7.262729199996102,0.0025280889634468756,0.22323868500190386,-0.1324359035309787,-0.0016449134561957542,0.15329552315457307,-0.26324985973556986,-0.009530155885971402,-0.025655630777643653,-0.13380693067000884,-0.011765912375032807,-0.40874215435757133,0.5399234344887721
1538,7.267105299994,0.0025386368918146954,0.2246630322367266,-0.13427981403605052,-0.0016903294311370796,0.15316875518299225,-0.26388006527709995,-0.00958599643742789,-0.02759490582332413,-0.13123231886685907,-0.011741628407534066,-0.4064828628647182,0.5425585551628787
1539,7.271223199990345,0.002523105085680974,0.2260137451051119,-0.1360972875363618,-0.0017360103700663765,0.15303278751422492,-0.26449799396587564,-0.009641727997335793,-0.02952328796831939,-0.12864532482699545,-0.011717371590677005,-0.40416842760012367,0.5451310444047305
1540,7.276635499991244,0.0025558922663784372,0.2273300435345056,-0.1379039323598356,-0.0017819557894543324,0.15288767269104825,-0.26510358764893205,-0.009697350429280334,-0.03144051560593994,-0.12604624760759064,-0.011693017345028573,-0.4017993827810765,0.5476406095491435
1541,7.28064810000069,0.0025706847383233505,0.22868009808533296,-0.13976931140824173,-0.0018281652039629451,0.15273346449614839,-0.2656967896013538,-0.009752862998333355,-0.03334632972090138,-0.12343538762517224,-0.01166844060782449,-0.39937627550571986,0.5500869704227879
1542,7.284543300003861,0.002586085040675954,0.22998735940737142,-0.14167014104356854,-0.0018746381235619622,0.15257021793953648,-0.2662775445325493,-0.009808264368886993,-0.03524047395076701,-0.12081304659569188,-0.011643515894070831,-0.39689966562510237,0.5524698593837204
1543,7.288838299995405,0.002649617453333291,0.23124253475120587,-0.14356106632775129,-0.0019213740506354923,0.15239798924567247,-0.266845798592238,-0.009863552602782235,-0.037122694646747126,-0.1181795274744222,-0.011618117357927433,-0.3943701256111828,0.5547890213572245
1544,7.292883200003416,0.002734118906780044,0.23240294842313514,-0.1454192735096098,-0.001968372477080233,0.15221683584029985,-0.2674014993761492,-0.009918725157733586,-0.03899274093383555,-0.11553513439569914,-0.011592118854345539,-0.3917882404208316,0.5570442138679541
1545,7.297160100002657,0.0027982036276187026,0.23365964434779282,-0.14741138784868857,-0.002015632881396754,0.1520268163369954,-0.2679445959314329,-0.00997377888605101,-0.040850364770264325,-0.11288017261252627,-0.01156539400093196,-0.3891546073558763,0.5592352070683755
1546,7.303636500000721,0.002950515787455952,0.2359399434308284,-0.1512546145194149,-0.002063154725775286,0.15182799052343662,-0.26847503876178025,-0.01002871003366016,-0.04269532100625781,-0.11021494843605954,-0.011537816240011886,-0.38646983591923806,0.5613617837635021
1547,7.309817300003488,0.0030482970004335475,0.2370361923762919,-0.15324020642897954,-0.0021109374531774676,0.1516204193473902,-0.2689927798322538,-0.010083514239421781,-0.04452736744206737,-0.10753976917498992,-0.011509258900862405,-0.3837345476672058,0.5634237394319226
1548,7.314373999994132,0.0032386471202424695,0.23807244336740885,-0.15510636557123192,-0.0021589804844155056,0.1514041649024249,-0.2694977725738276,-0.010138186534751027,-0.04634626488526826,-0.10485494307484163,-0.011479595262088667,-0.3809493760578981,0.5654208822431219
1549,7.318261199994595,0.0034352310945054212,0.2391797478589531,-0.1569661053536503,-0.0022072832152302034,0.15117929041335296,-0.26998997188763807,-0.010192721343537296,-0.048151777207300496,-0.10216077925720429,-0.011448698614114563,-0.37811496629596364,0.5673530330710964
1550,7.3223760999972,0.0035843826270996297,0.2402227708768442,-0.1588827877778038,-0.0022558450133693315,0.15094586022140372,-0.2704693341489449,-0.01024711248236512,-0.049943671399235987,-0.09945758765891648,-0.011416442321759696,-0.3752319751735734,0.5692200255042653
1551,7.326217599998927,0.0037330719696739498,0.24118041116567016,-0.160769923844516,-0.002304665215667794,0.15070393976913327,-0.27093581721080434,-0.010301353161036426,-0.051721717626754315,-0.09674567897121857,-0.011382699886874374,-0.3723010709077565,0.5710217058516875
1552,7.33063559999573,0.003871307637074245,0.24216295555247921,-0.16258601722897778,-0.002353743125131056,0.15045359558507512,-0.2713893804074537,-0.010355435983394421,-0.05348568928430993,-0.09402536457889274,-0.01134734501100425,-0.3693229329741377,0.5727579331455876
1553,7.33449369999289,0.004016892937037608,0.2431239972030146,-0.16439327009520535,-0.002403078008023309,0.15019489526813515,-0.27182998455740726,-0.010409352948449122,-0.05523536304847381,-0.09129695649940765,-0.01131025165805626,-0.3662982519371329,0.5744285791401958
1554,7.338364099996397,0.004108800155956559,0.24414918670244354,-0.166324595587302,-0.002452669090961851,0.1499279074717349,-0.2722575919662639,-0.010463095451804497,-0.0569705189304329,-0.08856076732208498,-0.01127129411693754,-0.36322772927666286,0.5760335283069098
1555,7.34225279999373,0.004221958978163496,0.24506374453276233,-0.16814526865299262,-0.002502515558019154,0.14965270188770793,-0.27267216642922815,-0.010516654287386984,-0.058690940327631086,-0.08581711014730577,-0.011230347064138876,-0.36011207721144534,0.5775726778257925
1556,7.345873700003722,0.0044080195202562435,0.245944222822905,-0.16989001308124344,-0.0025526165478340886,0.14936934922995287,-0.2730736732333431,-0.010570019649475017,-0.060396414074535526,-0.0830662985257741,-0.011187285626234394,-0.3569520185189281,0.5790459375734187
1557,7.349776599992765,0.0045511519930916434,0.24677035481328327,-0.17174103412420963,-0.0026029711507337696,0.1490779212178475,-0.27346207915943654,-0.01062318113502908,-0.06208673049251294,-0.0803086463978561,-0.011141985442269211,-0.3537482863519268,0.5804532301070816
1558,7.353661499990267,0.0046887858132987,0.24757169638575727,-0.17351139814105684,-0.0026535784058674926,0.14877849055942893,-0.2738373524837792,-0.010676127746321684,-0.06376168343880023,-0.07754446803301167,-0.011094322726006817,-0.3505016240520316,0.5817944906453778
1559,7.35828099999344,0.004832323424346099,0.24838600247381573,-0.17531410598957742,-0.0027044372983542147,0.1484711309343448,-0.2741994629794567,-0.010728847893866533,-0.0654210703545545,-0.07477407796933636,-0.011044174328007953,-0.34721278495984886,0.5830696670451895
1560,7.362150200002361,0.004973066305748456,0.2491455771942679,-0.17712280851630774,-0.0027555467564450284,0.14815591697657918,-0.274548381917457,-0.010781329399645946,-0.06706469231196756,-0.07199779095323083,-0.010991417797512866,-0.34388253222214293,0.5842787197750798
1561,7.366337500003283,0.005157265024356934,0.2498230963370475,-0.17899291499378017,-0.0028069056487020675,0.1478329242569577,-0.27488408206747383,-0.010833559500635472,-0.06869235406043078,-0.06921592187921524,-0.010935931444098972,-0.34051163859594447,0.5854216218851209
1562,7.370738400000846,0.005417417784557149,0.2504622032218413,-0.1808055811933088,-0.0028585127811952757,0.1475022292654375,-0.2752065376984249,-0.010885524852624536,-0.07030386407173556,-0.06642878572990554,-0.010877594399086024,-0.33710088624969475,0.5864983589731788
1563,7.374470900002052,0.00569517420147065,0.25109063033080553,-0.182634499904398,-0.0029103668947184796,0.14716390939318602,-0.2755157245786869,-0.010937211534331793,-0.07189903458429577,-0.06363669751616849,-0.010816286676660972,-0.33365106656149585,0.5875089291476797
1564,7.379044699991937,0.005978509972436558,0.2516759162939267,-0.18457145867884517,-0.002962466662026186,0.14681804291445408,-0.27581161997604575,-0.010988605051813803,-0.07347768164637883,-0.06083997221747178,-0.010751889234694886,-0.33016297991453825,0.5884533429868808
1565,7.383917200000724,0.00629519364346344,0.2522440552383141,-0.1864719946609391,-0.003014810685092529,0.14646470896824706,-0.2760942026573628,-0.011039690343165433,-0.07503962515833233,-0.058038924722446456,-0.010684284035224471,-0.32663743548977864,0.5893316234946748
1566,7.387784999998985,0.006631714850309219,0.2527255078855502,-0.1883033146269659,-0.0030673974923937793,0.1461039875398,-0.27636345288795666,-0.011090451783510242,-0.07658468891379329,-0.055233869769677736,-0.010613354104570883,-0.3230752510559394,0.5901438060529529
1567,7.3920581999991555,0.0069547645028075825,0.2531385169460179,-0.190364727828408,-0.0031202255362158277,0.14573595944186057,-0.27661935243070457,-0.011140873190279035,-0.07811270063986808,-0.05242512188874097,-0.01053898359306872,-0.3194772527569029,0.5908899383705518
1568,7.395642000003136,0.007269503573056564,0.25358254260640145,-0.19230745687408654,-0.003173293189988049,0.14536070629578485,-0.2768618845448629,-0.01119093782877458,-0.07962349203627128,-0.049612995341499176,-0.010461057834378262,-0.31584427489657624,0.5915700804288121
1569,7.399802300002193,0.0077546750728687,0.25394197296488835,-0.1943366587010583,-0.003226598745644939,0.14497831051245091,-0.2770910339846088,-0.011240628418020442,-0.0811168988134115,-0.046797804063678554,-0.010379463404354222,-0.31217715972130067,0.5921843044237761
1570,7.40412269999797,0.008212854715429242,0.2542706249923439,-0.19640797388394016,-0.003280140411016893,0.14458885527299584,-0.2773067869973028,-0.01128992713689172,-0.08259276072941307,-0.04397986160673785,-0.010294088179444516,-0.3084767571998836,0.5927326947050565
1571,7.407825000002049,0.008654707089556263,0.25459425936172814,-0.1985085813431208,-0.0033339163072514796,0.14419242450938047,-0.27750913132147176,-0.011338815630525276,-0.08405092162606255,-0.04115948108004759,-0.010204821394592811,-0.3047439248013286,0.5932153477114032
1572,7.412216199998511,0.00918980760253315,0.2549331082775165,-0.20061927171482127,-0.003387924466266558,0.14378910288478727,-0.2776980561845133,-0.011387275017006922,-0.08549122946367003,-0.038336975093394766,-0.010111553700618791,-0.30097952727034155,0.593632371903
1573,7.415972399991006,0.00968322853987967,0.2552525298493138,-0.2027641607967283,-0.003442162828236568,0.14337897577385597,-0.2778735523001228,-0.01143528589433296,-0.08691353635483574,-0.03551265569982849,-0.010014177221050436,-0.29718443640069175,0.5939838876905249
1574,7.420581300000776,0.010232826183260123,0.2555508846884485,-0.20488527738498002,-0.0034966292391133227,0.1429621292427619,-0.2780356118654454,-0.011482828347643269,-0.08831769859711251,-0.03268683433886214,-0.009912585608382882,-0.29335953080650917,0.5942700273610108
1575,7.424612100003287,0.010752249598581474,0.2558423733730347,-0.2069771439602813,-0.0035513214481826204,0.1425386500291415,-0.27818422855795627,-0.011529881956723022,-0.08970357670455524,-0.02985982178004702,-0.009806674099738653,-0.28950569569159823,0.5944909350005446
1576,7.428705700003775,0.011243398613571175,0.25608623555853544,-0.2090496944789685,-0.0036062371056579537,0.1421086255218704,-0.27831939753207,-0.011576425803770066,-0.0910710354381489,-0.027031928066932564,-0.009696339571904355,-0.28562382261684877,0.5946467664138458
1577,7.432916799996747,0.011780986822569811,0.25634811780075767,-0.21107827930188064,-0.003661373760312594,0.14167214374069967,-0.27844111541548316,-0.011622438481424873,-0.0924199438351068,-0.024203462461427537,-0.00958148059571926,-0.2817148092658278,0.5947376890407648
1578,7.436800900002709,0.01226424267061002,0.2565445946100772,-0.21301335921518863,-0.0037167288571513116,0.1412292933157565,-0.2785493803052528,-0.01166789810105984,-0.09375017523703137,-0.021374733388576934,-0.00946199748979155,-0.2777795592086343,0.5947638818697435
1579,7.441199699998833,0.012726499115811384,0.2568520740034505,-0.2150341053779572,-0.003772299735122988,0.14078016346691424,-0.27864419176361577,-0.011712782301324559,-0.0950616073169302,-0.01854604838176891,-0.00933779237351831,-0.2738189816640991,0.5947255353482813
1580,7.445096499999636,0.013150780792916962,0.2571112476220928,-0.21693990629311827,-0.0038280836248753575,0.14032484398303924,-0.2787255508135497,-0.011757068256943592,-0.09635412210507974,-0.015717714028385836,-0.009208769219385696,-0.2698339912604151,0.5946228512904522
1581,7.449433399990085,0.013610231553941157,0.2573416954021629,-0.21878172362579087,-0.0038840776465530946,0.13986342520111994,-0.27879345993407745,-0.011800732687763178,-0.0976276060137301,-0.012890035915913383,-0.009074833904526122,-0.26582550779427844,0.5944560427815154
1582,7.45376540000143,0.014013257992129546,0.25761459136693904,-0.22068789917406445,-0.0039402788076404365,0.13939599798528357,-0.2788479230553154,-0.011843751868043154,-0.09888194986064407,-0.0100633185785213,-0.008935894261509649,-0.26179445598862794,0.5942253340796634
1583,7.457711199996993,0.014425371967756527,0.25785126035003103,-0.22245783167579555,-0.003996684000849531,0.13892265370570644,-0.2788889455532686,-0.011886101635990326,-0.10011704889146486,-0.007237865444129288,-0.008791860128347222,-0.257741765249066,0.593930960514956
1584,7.462099999989732,0.014760391801514255,0.2580918236226412,-0.22425502697527339,-0.004053290002055673,0.13844348421742278,-0.2789165342443755,-0.011927757403529329,-0.10133280280090763,-0.00441397878197124,-0.008642643397683707,-0.25366836941904525,0.5935731683854889
1585,7.4660309000028064,0.015115874818610125,0.25826558033609814,-0.226048657901184,-0.004110093468280543,0.13795858183903895,-0.2789306973798066,-0.011968694166307046,-0.10252911575276877,-0.00159195965067088,-0.008488158065159068,-0.2495752065339055,0.5931522148508429
1586,7.470329499992658,0.015478902732021585,0.2584169817472238,-0.22779105859670568,-0.004167090935724563,0.1374680393313596,-0.2789314446395182,-0.012008886513926526,-0.10370589639874842,0.0012278921531584746,-0.008328320276916453,-0.2454632185738477,0.5926683678228645
1587,7.474610999997822,0.01587135789206317,0.2585583024243451,-0.22952622516799948,-0.004224278817849421,0.13697194987593178,-0.27891878712606677,-0.012048308640406192,-0.10486305789608129,0.004045278145777496,-0.008163048376236373,-0.2413333512159301,0.5921219058538291
1588,7.478744399995776,0.01626110602752452,0.2586666541182959,-0.23125373137213578,-0.004281653403511871,0.13647040705351232,-0.27889273735818304,-0.012086934354860057,-0.10600051792397219,0.006859901206635487,-0.007992262949276588,-0.23718655358517304,0.591513118022034
1589,7.489524499993422,0.0171231645827188,0.25882618276146796,-0.2346222727566596,-0.004339210855149862,0.13596350482246364,-0.27885330926410934,-0.012124737092394559,-0.10711819869883257,0.009671465628124003,-0.007815886869897846,-0.2330237780048574,0.5908423038148679
1590,7.494871399991098,0.017892620807093258,0.25889342691658596,-0.23789772897172776,-0.004396947207022024,0.13545133749708388,-0.2788005181747036,-0.012161689925217508,-0.10821602698831534,0.012479677164757664,-0.0076338453435560475,-0.22884597974610163,0.5901097730094117
1591,7.499566600003163,0.01829101820969027,0.2588836447866282,-0.23953914958265968,-0.004454858363501527,0.13493399972587705,-0.2787343808163125,-0.012197765573954548,-0.10929393412414533,0.015284243081770609,-0.007446065950241835,-0.22465411677680272,0.589315845550623
1592,7.504468300001463,0.01875640138970918,0.2589204951206625,-0.24109995558416214,-0.004512940097425298,0.1344115864697689,-0.2786549153034152,-0.01223293641916848,-0.11035185601374317,0.018084872203117316,-0.007252478686449146,-0.22044914951002686,0.5884608514271555
1593,7.511560200000531,0.019202371950182852,0.2589081037974315,-0.2426662200008641,-0.004571188048499512,0.13388419298027335,-0.2785621411310394,-0.012267174513076677,-0.11138973315064078,0.020881274958866686,-0.007053016006154728,-0.2162320405519344,0.5875451305448651
1594,7.516297499998473,0.019923411745785054,0.25884767786394175,-0.24574474767886295,-0.0046295977217623106,0.13335191477761507,-0.2784560791669535,-0.012300451591461741,-0.11240751062368688,0.023673163431978513,-0.006847612860791076,-0.21200375444932423,0.5865690325980601
1595,7.520812100003241,0.020252783663640014,0.25886022750086174,-0.24726939203532788,-0.004688164486104612,0.13281484762881382,-0.27833675164363697,-0.012332739085770442,-0.11340513812504167,0.026460251404451688,-0.0066362067381957775,-0.2077652574368819,0.585532916938551
1596,7.526938199996948,0.02058922642820593,0.25878154104719414,-0.24877264441795924,-0.004746883572849903,0.13227308752573694,-0.2782041821500335,-0.01236400813539597,-0.1143825699569607,0.029242254402833855,-0.006418737700520774,-0.20351751718421635,0.5844371524425562
1597,7.532154200001969,0.021339385042746177,0.2588102273027399,-0.25157010030263177,-0.004805750074393871,0.13172673066312568,-0.2780583956230882,-0.012394229600138352,-0.1153397650373684,0.032018889743082674,-0.0061951484210856006,-0.1992615025427704,0.5832821173755217
1598,7.540773100001388,0.022015775630238765,0.2587882126355057,-0.25423731174893754,-0.004864758942904695,0.13117587341660158,-0.2778994183390721,-0.012423374072837867,-0.11627668690422177,0.03478987657476896,-0.005965384220159165,-0.19499818329268845,0.5820681992549089
1599,7.545897299991338,0.0223073510825742,0.25878057029774915,-0.2555057330971685,-0.004923904989084773,0.13062061232065988,-0.27772727790469737,-0.012451411892176223,-0.11719330371866511,0.03755493592461228,-0.005729393099655146,-0.19072852988972536,0.580795794711005
1600,7.550584999989951,0.02249614325786778,0.2588142377645194,-0.25682299637487893,-0.004983182880994685,0.1300610440466553,-0.27754200324802625,-0.012478313155640205,-0.11808958826697717,0.040313790739339654,-0.005487125776726643,-0.1864535132122804,0.5794653093458139
1601,7.555717299997923,0.022714982428359225,0.2588932940274585,-0.25806382149859447,-0.0050425871429401236,0.12949726538078635,-0.2773436246091797,-0.012504047732642415,-0.11896551796131234,0.04306616592785854,-0.0052385357162462376,-0.18217410430863956,0.5780771575900855
1602,7.560273099996266,0.023015538831137133,0.25894558527286204,-0.2591549841935387,-0.00510211215442256,0.12892937320208403,-0.2771321735308479,-0.012528585277793661,-0.11982107483923732,0.04581178840273568,-0.004983579162158192,-0.1778912741445089,0.5766317625585429
1603,7.564138599991566,0.0233463410789889,0.25900784521136166,-0.26022984610531674,-0.005161752149154335,0.1283574644604117,-0.27690768284860495,-0.012551895244321517,-0.12065624556206547,0.04855038712097364,-0.004722215167690039,-0.17360599335092086,0.5751295559033655
1604,7.567972299992107,0.023629870305204498,0.25904125411398216,-0.2613164734412249,-0.005221501214138857,0.12778163615448132,-0.27667018668102955,-0.012573946897629432,-0.12147102141199158,0.051281693124076946,-0.004454405624411393,-0.16931923197259585,0.5735709776659899
1605,7.575571599998511,0.023946516842945714,0.2590916125384278,-0.26338651961332454,-0.005281353288816525,0.12720198530989146,-0.27641972041963325,-0.012594709328990896,-0.12226539828802997,0.054005439577400165,-0.004180115290128348,-0.1650319592168393,0.5719564761272867
1606,7.579323899990413,0.024155244948911907,0.25918815576865184,-0.2642522657906623,-0.00534130216427699,0.12661860895719257,-0.2761563207186001,-0.012614151469372954,-0.12303937670075933,0.05672136180877067,-0.0038993118156024197,-0.1607451432030553,0.5702865076561734
1607,7.582906099996762,0.02439105034035139,0.25929717755872533,-0.26509056827643074,-0.005401341482538294,0.1260316041099837,-0.27588002548434054,-0.012632242103383363,-0.12379296176587828,0.05942919734637912,-0.0036119657700835893,-0.1564597507129562,0.5685615365567206
1608,7.58691519999411,0.024598661405354147,0.25937615025374433,-0.2659049045913314,-0.005461464735893466,0.12544106774304697,-0.2755908738648639,-0.012648949883335646,-0.12452616319657657,0.06212868595593086,-0.003318050665647531,-0.15217674694154792,0.5667820349138142
1609,7.591443800003617,0.024726920766354937,0.2594609180834619,-0.2667485061534706,-0.005521665266325092,0.12484709677052473,-0.2752889062389734,-0.01266424334342623,-0.12523899529472637,0.06481956967705152,-0.003017542980327674,-0.1478970952489696,0.5649484824374347
1610,7.596063599994522,0.024816430322527137,0.25959850085917674,-0.26756867858051375,-0.005581936264988356,0.12424978802414574,-0.27497416420528886,-0.012678090914017852,-0.12593147694089887,0.0675015928589406,-0.002710422180033359,-0.14362175691326634,0.5630613663056127
1611,7.605040199996438,0.025039158365300643,0.25971828136199737,-0.26905465965968334,-0.005642270771763057,0.1236492382315056,-0.2746466905710998,-0.012690460936023365,-0.12660363158321145,0.07017450219526712,-0.002396670739245912,-0.1393516908841728,0.5611211810061204
1612,7.608720899996115,0.025161707677499215,0.25978436789736614,-0.2697695864247868,-0.005702661674875032,0.12304554399440674,-0.2743065293410524,-0.012701321675384085,-0.127255487225011,0.07283804675830148,-0.0020762741604850622,-0.1350878535379841,0.5591284281769608
1613,7.612358700003824,0.025340687389604703,0.25989190584859423,-0.2705179066350557,-0.005763101710587391,0.12243880176726354,-0.2739537257056748,-0.012710641337636686,-0.12788707641139946,0.07549197803227801,-0.0017492209925387093,-0.1308311984335897,0.5570836164457125
1614,7.61622239999997,0.02547938749087319,0.2599910064595587,-0.2712169036447258,-0.005823583462961944,0.12182910783557853,-0.27358832602974453,-0.012718388082562622,-0.12849843621460758,0.0781360499459834,-0.0014155028474496345,-0.1265826760697446,0.5549872612677893
1615,7.620381200002157,0.025644968008365535,0.26008729131245273,-0.2719196013904274,-0.005884099363691183,0.12121655829449525,-0.2732103778405017,-0.012724530038914085,-0.12908960821822502,0.0807700189045662,-0.0010751144162533437,-0.12234323364365172,0.5528398847636795
1616,7.624297899994417,0.02581913280909276,0.26015404509360057,-0.27262046538259044,-0.005944641692001103,0.12060124902743277,-0.2728199298157135,-0.012729035319210434,-0.12966063850029283,0.0833936438205628,-0.000728053483461819,-0.11811381481092746,0.5506420155552245
1617,7.635431299990159,0.026150150529793748,0.26030627319369787,-0.27414845621658007,-0.006005202574625162,0.11998327568480625,-0.27241703177159626,-0.012731872034599055,-0.13021157761526575,0.08600668614413605,-0.0003743209402885471,-0.11389535944702252,0.5483941886010021
1618,7.641460200000438,0.026460620916827597,0.26050441193814794,-0.2757241694149993,-0.006065773985849658,0.11936273366283882,-0.2720017346505985,-0.012733008309774566,-0.13074248057485197,0.08860890989252226,-1.3920796610790579e-05,-0.10968880341016891,0.5460969450308751
1619,7.645261099998606,0.026636217981535336,0.2605769962570376,-0.2765332866673847,-0.0061263477476307645,0.11873971808246997,-0.2715740905090492,-0.0127324122979503,-0.13125340682773823,0.09120008167868311,0.00035313980833434307,-0.10549507830592379,0.5437508319797697
1620,7.649519200000213,0.026827744867203338,0.26064217986705257,-0.27728570098195027,-0.006186915529783432,0.11811432376836521,-0.2711341525046766,-0.01273005219587599,-0.13174442023820962,0.09377997073915878,0.0007268505965228885,-0.1013151112533791,0.5413564024207445
1621,7.654087399991113,0.027033422158725263,0.2606924653439279,-0.27801885065558163,-0.006247468850242293,0.11748664522803308,-0.27068197488400236,-0.012725896258895577,-0.13221558906367223,0.09634834896111966,0.0011071981429883297,-0.09714982465310586,0.5389142149974137
1622,7.657935499999439,0.02719393123412097,0.2607051367613282,-0.2788269410079336,-0.006307999075394764,0.11685677663105401,-0.2702176129696137,-0.01271991281603905,-0.13266698593108756,0.09890499090861406,0.0014941658689389009,-0.0930001359569005,0.5364248338557887
1623,7.6620574999979,0.02730363454648793,0.2607713775717256,-0.27964101050331375,-0.006368497420486456,0.11622481178842643,-0.2697411231473189,-0.012712070285142178,-0.1330986878123272,0.10144967384800954,0.0018877340361489684,-0.08886695743939901,0.5338888284755955
1624,7.666800799997873,0.02741204937117861,0.26081404983718465,-0.28049282683780113,-0.006428954950099007,0.11559084413203545,-0.2692525628531885,-0.012702337187988008,-0.1335107759984582,0.10398217777262571,0.0022878797426249893,-0.08475119597162413,0.5313067735011275
1625,7.671457799995551,0.027530082000116377,0.26084343211703725,-0.2812988142911546,-0.006489362578700387,0.11495496669424955,-0.2687519905604858,-0.012690682165463945,-0.13390333607296748,0.10650228542655638,0.002694576919545959,-0.08065375279652896,0.52867924857169
1626,7.676904199994169,0.027675123589319194,0.26090932919516463,-0.2820327474854639,-0.006549711071267733,0.11431727208765001,-0.2682394657664913,-0.01267707399272822,-0.13427645788393516,0.10900978232768027,0.0031077963294776716,-0.07657552330659947,0.5260068381517
1627,7.683670400001574,0.02796439975731054,0.260978503586113,-0.2834022350012374,-0.006609991043982689,0.11367785248489777,-0.26771504897922427,-0.012661481594379648,-0.13463023551516673,0.11150445678985911,0.0035275055658595387,-0.07251739682357748,0.5232901313604972
1628,7.687980799993966,0.02806269889434177,0.26103214873315755,-0.2840759615569448,-0.006670192964999256,0.1130367995987421,-0.26717880170406566,-0.012643874059624504,-0.13496476725629378,0.11398609994432271,0.003953669053762162,-0.06848025638036384,0.520529721801925
1629,7.691858199992566,0.028099510108262914,0.2610996350931623,-0.28483380449796225,-0.0067303071552840404,0.11239420466217552,-0.26663078643028637,-0.012624220657434395,-0.13528015557185433,0.11645450576024047,0.004386248051913255,-0.06446497850516102,0.517726207393743
1630,7.698181300002034,0.028039526022014503,0.2611450354369562,-0.2855780037033776,-0.006790323789528835,0.11175015840873946,-0.2660710666174837,-0.012602490851689038,-0.13557650706936328,0.11890947106447862,0.004825200655988965,-0.0604724330079129,0.5148801901969289
1631,7.70579419999558,0.028015922920367364,0.2612079766591005,-0.2869099725088914,-0.006850232897135398,0.11110475105298577,-0.26549970668193096,-0.012578654316297835,-0.13585393246638527,0.12135079556054311,0.005270481803167081,-0.05650348276909813,0.5119922762449345
1632,7.710353399990709,0.02807541216612687,0.2612862508950468,-0.28751399014542417,-0.006910024363272311,0.11045807227109837,-0.2649167719828446,-0.012552680950294179,-0.13611254655662225,0.1237782818467083,0.005722043277938034,-0.052558983530932524,0.5090630753729536
1633,7.715109700002358,0.02814318985631082,0.2613168600131932,-0.2881002825858088,-0.006969687930003784,0.1098102111816793,-0.26432232880857354,-0.012524540892896441,-0.13635246817502805,0.1261917354333319,0.006179833719169067,-0.048639783691034555,0.5060932010472592
1634,7.720622599998023,0.028305112136443066,0.26142211234458934,-0.2893223938214474,-0.007029213197490207,0.10916125632670344,-0.2637164443627146,-0.012494204538529678,-0.13657382016196143,0.12859096475935658,0.006643798628416389,-0.04474672409860636,0.5030832701946671
1635,7.726071299999603,0.028310732070105697,0.26144369347580204,-0.289973461471644,-0.0070885896252602595,0.10851129565264622,-0.26309918675015836,-0.012461642551802045,-0.13677672932639043,0.1309757812079995,0.007113880379479611,-0.04088063785318158,0.5000339030321836
1636,7.730074299994158,0.028292033522152843,0.26143565233159927,-0.29062419868089306,-0.007147806533554301,0.10786041649178861,-0.26247062496306967,-0.012426825882429965,-0.13696132640816108,0.1333459991216312,0.007590018229192223,-0.037042350105990135,0.4969457228968888
1637,7.734050899991416,0.02823865934199242,0.2614267467529252,-0.2913144535698736,-0.00720685310473878,0.10720870554370422,-0.2618308288668025,-0.012389725780106038,-0.1371277460393443,0.1357014358158457,0.008072148329441316,-0.033232677863988695,0.4938193560761087
1638,7.738059900002554,0.028243528888676678,0.26145133149159056,-0.29198964545072054,-0.007265718384791381,0.10655624885693346,-0.2611798691857529,-0.012350313809303872,-0.13727612670467482,0.13804191159272325,0.008560203740409273,-0.029452429796604295,0.4906554316379294
1639,7.741699399994104,0.028231848584133974,0.2614604872769,-0.2926247262360341,-0.007324391284856584,0.10590313181084848,-0.26051781748915553,-0.012308561864014031,-0.13740661070109503,0.14036724975328857,0.009054114445029586,-0.02570240604523726,0.487454581262106
1640,7.7457965999929,0.028289036121590373,0.26146355818895795,-0.29320527931225454,-0.007382860582871262,0.10524943909771346,-0.2598447461768267,-0.012264442182405333,-0.1375193440964175,0.14267727660916743,0.009553807364648474,-0.021983398035568095,0.4842174390714235
1641,7.753613699998823,0.02841368737888239,0.26150356542932435,-0.2944517882160145,-0.007441114925259947,0.10459525470494388,-0.259160728464858,-0.012217927361405773,-0.13761447668712043,0.1449718214934429,0.010059206375883431,-0.018296188292711683,0.4809446414635631
1642,7.7580851999955485,0.028411853127378865,0.26151185222504303,-0.2951166306558516,-0.007499142828699333,0.10394066189756848,-0.258465838371264,-0.01216899037119741,-0.1376921619552895,0.14725071677071389,0.010570232328669337,-0.014641550259260807,0.47763682694352566
1643,7.762448199995561,0.02839534079099785,0.26150888109076814,-0.29574923182397694,-0.007556932681951608,0.10328574320089765,-0.2577601507015882,-0.012117604569619505,-0.13775255702471959,0.1495137978463592,0.011086803065482218,-0.01102024811625986,0.47429463595666127
1644,7.766858899994986,0.02836838758488259,0.261511034315139,-0.2964101057471959,-0.007614472747766114,0.10263058038340203,-0.25704374103447003,-0.01206374371647428,-0.13779582261618975,0.15176090317501056,0.011608833441730353,-0.007433036607147995,0.4709187107223565
1645,7.7705182999925455,0.028340251040558373,0.26152065963892107,-0.2970235622567663,-0.007671751164848843,0.10197525443980567,-0.25631668570717664,-0.012007381987729776,-0.1378221230019253,0.15399187426823727,0.012136235347301882,-0.0038806608647096665,0.46750969506842827
1646,7.779040699999314,0.028244751595143787,0.2615372572591756,-0.2982757400029263,-0.007728755949899246,0.10131984557439755,-0.25557906180110157,-0.011948493989614242,-0.13783162595926232,0.15620655570144643,0.012668917729257628,-0.00036385624106909277,0.4640682342662732
1647,7.782939199998509,0.02824276227087083,0.2615523815498951,-0.29886340521836685,-0.007785474999713866,0.10066443318456524,-0.25483094712723364,-0.01188705477259656,-0.1378245027235285,0.15840479512000283,0.013206786615657447,0.0031166518592361534,0.46059497486682016
1648,7.788420700002462,0.02822915885739083,0.2615306844388655,-0.2994178586774043,-0.007841896093356195,0.10000909584455404,-0.25407242021160087,-0.011823039845247359,-0.13780092794015503,0.16058644324457286,0.013749745140507932,0.006560148143068647,0.4570905645373347
1649,7.792035699996632,0.028205362285664316,0.2615718218753984,-0.3000056615018993,-0.007898006894392144,0.09935391128945546,-0.2533035602806927,-0.011756425187975459,-0.13776107961603382,0.16275135387569725,0.014297693569818864,0.009965927589359307,0.45355565189912156
1650,7.7955912000034,0.028198361276392914,0.26162175142030886,-0.3005922296029413,-0.007953794953190487,0.09869895639942806,-0.25252444724686335,-0.011687187266634437,-0.13770513907013593,0.16489938389759767,0.014850529328755366,0.01333329560659929,0.4499908863661713
1651,7.800214799994137,0.028135260315539132,0.26166124004178903,-0.3012146464303324,-0.008009247709287674,0.09804430718415416,-0.25173516169371934,-0.011615303045994086,-0.137633290883406,0.16703039328122182,0.015408147029872334,0.016661568187125966,0.4463969179847984
1652,7.803880999999819,0.028120830347375288,0.26168030604541037,-0.3018450005539327,-0.008064352493816379,0.09739003876753542,-0.25093578486149365,-0.011540750003071702,-0.13754572284794855,0.16914424508653234,0.015970438502417167,0.019950072058174728,0.44277439727431467
1653,7.810092100000475,0.028160760985728936,0.2617259869829821,-0.30240020288012526,-0.008119096531997019,0.09673622537263032,-0.25012639863241076,-0.011463506140318143,-0.1374426259155216,0.17124080546404435,0.016537292822686567,0.023198144829669812,0.439123975068781
1654,7.813965099994675,0.028173215388094107,0.26177547700488996,-0.3029673384340558,-0.008173466945691554,0.0960829403068369,-0.2493070855160464,-0.01138354999865362,-0.1373241941453542,0.17331994365561715,0.017108596345422705,0.026405135138728643,0.43544630235988147
1655,7.820950399996946,0.02807684080444984,0.26188825833826623,-0.3042058926264639,-0.008227450756018795,0.09543025594732385,-0.2484779286346869,-0.011300860670348346,-0.1371906246513034,0.1753815319945046,0.017684232736233676,0.029570402790855693,0.43174203014096285
1656,7.824566700001014,0.02801792369211189,0.26197952030761285,-0.3047668446878906,-0.008281034886030486,0.09477824372671356,-0.24763901170869201,-0.011215417811743204,-0.137042117548365,0.1774254459046706,0.018264083005022712,0.03269331889780312,0.42801180925228066
1657,7.830257800000254,0.027953911968974343,0.26203568713802966,-0.30531281325004406,-0.008334206163447365,0.09412697411901998,-0.24679041904186502,-0.011127201655805684,-0.13687887589855435,0.1794515638993754,0.018848025540410252,0.035773266012076914,0.4242562902274929
1658,7.836975500002154,0.027881610246185892,0.26216891805742804,-0.306396979607216,-0.008386951323454413,0.0934765166258448,-0.24593223550683282,-0.011036193024516446,-0.136701105656173,0.18145976757903853,0.019435936145132778,0.03880963825806849,0.4204761231414433
1659,7.841019699990284,0.027856295989825322,0.26223331198552774,-0.3069204446326908,-0.00843925701155445,0.09282693976283442,-0.24506454653044063,-0.010942373341081942,-0.13650901561247725,0.183449941628385,0.020027688072401982,0.04180184145979316,0.4166719574592736
