,time,x,y,z,vx,vy,vz,ax,ay,az,jx,jy,jz
2666,13.05397809999704,0.01240897582229502,-0.09363683716035705,0.0027515606020272355,0.02365149615073538,0.003839024051236933,-0.008833641565866433,0.07399915759819013,0.12319532494143424,-0.06649328428625755,0.03799742230368073,0.27245670616248097,-0.11728233313700255
2667,13.061900000000604,0.012511359940676254,-0.09372231440804177,0.0026703008623923767,0.02401294572561266,0.004443262598265563,-0.00915940295137024,0.07418077749917104,0.12452178915701986,-0.06706350390406816,0.03646016132676734,0.2713555169531689,-0.11647584829290573
2668,13.065587499993851,0.01255399628336271,-0.09374722027389289,0.0026256766236083615,0.02437526281366224,0.005053958381562963,-0.009487936360845385,0.07435486763795576,0.12584276838006456,-0.06762974364641261,0.034909529581938235,0.27020749829400736,-0.11564951899497773
2669,13.069245399994545,0.012604438712317416,-0.09377140677551708,0.002589643556095955,0.02473841052975825,0.0056710840881317335,-0.009819222162219109,0.07452136333889271,0.12715803414597762,-0.06819190683130856,0.033345733674532245,0.2690125852944461,-0.11480338599641492
2670,13.077189799994812,0.01264797675737006,-0.0937979145618882,0.0025186863498484896,0.025102351676157025,0.006294611290909498,-0.010153240252688434,0.07468020094204549,0.12846735769313453,-0.06874989698264468,0.031768984161360106,0.2677707214463361,-0.11393749394158072
2671,13.081143599993084,0.012668724119406638,-0.09378808537922258,0.002504802894108326,0.02546704874750041,0.0069245104474298415,-0.01048997005974947,0.07483131782234005,0.1297705100037239,-0.069303617849156,0.03017949552494146,0.2664818586851281,-0.11305189138124487
2672,13.085333099996204,0.012662214580171586,-0.09379512961529513,0.0025063281877644415,0.025832463935911862,0.007560750898681785,-0.01082939054231863,0.07497465240858388,0.13106726184489104,-0.06985297342347219,0.028577486146517637,0.26514595744961506,-0.11214663078694692
2673,13.089603499989607,0.0126066191631996,-0.09378599232323631,0.0025070787881144793,0.02619855913618452,0.00820330086816923,-0.011171480191946196,0.07511014420235113,0.13235738381017176,-0.07039786796123489,0.0269631782778379,0.26376298674019194,-0.11122176856447094
2674,13.093902900000105,0.012549955844632345,-0.09377578438491961,0.002523567594175385,0.0265652959510606,0.008852127461171713,-0.011516217034122665,0.07523773379672788,0.1336406463612088,-0.07093820600027965,0.02533679801171702,0.2623329241756052,-0.11027736506641904
2675,13.097834300002432,0.012516833802782245,-0.09377479838198835,0.0025613598388698304,0.0269326356966013,0.00950719666420783,-0.01186357862967818,0.07535736289491118,0.13491681986974413,-0.07147389237987885,0.02369857525136258,0.26085575604816574,-0.10931348460387136
2676,13.102055899988043,0.012453949927497168,-0.0937676541724375,0.0025708763184511575,0.027300539407646627,0.010168473344702592,-0.01221354207627537,0.07546897432865614,0.13618567465987996,-0.07200483226004077,0.02204874367847074,0.2593314773773976,-0.10833019545712086
2677,13.105821199991624,0.012453949927497168,-0.0937676541724375,0.0025708763184511575,0.027668967843364336,0.010835921250860008,-0.012566084009995877,0.0755725120765648,0.1374469810506008,-0.07253093114086008,0.02038754072008984,0.257760091962097,-0.10732756988547111
2678,13.110388000000968,0.012416336741298528,-0.09376283519469543,0.0025917391967243512,0.02803788149288724,0.011509503011742169,-0.012921180607020868,0.07566792128221157,0.13870050939854858,-0.07305209488191498,0.018715207514251524,0.2561416124307748,-0.10630568413608546
2679,13.114572099992074,0.012460458168320185,-0.09379739911381958,0.002594784526471156,0.02840724058103793,0.012189180137556009,-0.013278807585405776,0.07575514827209924,0.13994603014104276,-0.07356822972170697,0.01703198887436936,0.2544760602904575,-0.10526461845187632
2680,13.118954899997334,0.012513625054444033,-0.09381520812650455,0.0025743561213865136,0.028777005074140036,0.012874913020148914,-0.013638940206949546,0.07583414057343976,0.141183313839337,-0.07407924229713858,0.015338133252405456,0.25276346597382093,-0.1042044570784241
2681,13.12310019999859,0.012595758475787634,-0.0938263365729495,0.0025532758915505025,0.029147134685915076,0.013566660933714194,-0.014001553279158597,0.0759048469317539,0.14241213122210414,-0.07458503966302442,0.013633892700805984,0.25100386888463116,-0.10312528826991488
2682,13.12713769999391,0.012674179056616938,-0.09383552473894693,0.0025167255979659867,0.029517588883463963,0.014264382035707464,-0.014366621157305729,0.0759672173282838,0.1436322532291415,-0.07508552931163057,0.01191952283320697,0.2491973174414669,-0.10202720429408653
2683,13.13123899999482,0.01278549178661548,-0.09386459323376795,0.0025002608903385796,0.029888326893332245,0.014968033367974927,-0.014734117746584181,0.07602120299721292,0.1448434510552885,-0.07558061919223759,0.010195282783912076,0.24734386911969947,-0.10091030143617309
2684,13.13614360000065,0.012854736588411166,-0.09385319003074562,0.00245557656378138,0.030259307707658206,0.015677570858094562,-0.015104016504357089,0.07606675644268718,0.14604549619454865,-0.07607021773072237,0.008461435166144605,0.2454435904917036,-0.09977468000183753
2685,13.140199999994364,0.01291122427429935,-0.09383692622564356,0.002425846223090245,0.03063049009040282,0.016392949320931143,-0.015476290442502406,0.07610383145563171,0.14723816048440677,-0.07655423384915382,0.006718246029076455,0.2434965572652751,-0.09862044431908333
2686,13.143886099991503,0.012963776083524114,-0.09381639850131936,0.00240725830674148,0.0310018325836607,0.01711412246040596,-0.015850912129853366,0.0761323831303566,0.14842121615033296,-0.07703257698539771,0.0049659848136371885,0.2415028543202303,-0.09744770273913501
2687,13.148227600002429,0.013012604728405559,-0.09380345138197724,0.002408961227706955,0.0313732935140509,0.01784104287148214,-0.01622785369473446,0.07615236788094656,0.1495944358504654,-0.07750515711272579,0.0032049243071067997,0.23946257574316498,-0.09625656763627871
2688,13.152105999994092,0.0130131203479048,-0.09376819698464339,0.002400140163308565,0.031744830999186735,0.018573662042366403,-0.016607086827592987,0.07616374345742898,0.15075759272046255,-0.0779718847594241,0.0014353405964963228,0.2373758248603472,-0.09504715540665423
2689,13.156807999999728,0.013007361357484315,-0.09374421138461993,0.0024053710505706847,0.03211640295422342,0.01931193035692804,-0.016988582783726117,0.07616646896171402,0.1519104604185155,-0.0784326710283956,-0.0003424869792791609,0.23524271426872043,-0.09381958646599053
2690,13.160468099988066,0.012998635804758638,-0.09370527978327796,0.0024371275061880505,0.032487967098482576,0.02005579709733592,-0.01737231238610349,0.0761605048633015,0.15305281317051114,-0.0788874276167523,-0.002128275878430071,0.23306336586499432,-0.09257398524627665
2691,13.16466809999838,0.012983910899542138,-0.0936883708736596,0.002469647900484961,0.03285948096215224,0.020805210446914208,-0.017758246028285365,0.07614581301474845,0.1541844258153374,-0.0793360668353916,-0.003921740406518912,0.23083791087279973,-0.0913104801913605
2692,13.169079599989344,0.012972508334130895,-0.0936628955639613,0.0025023731143841293,0.033230901893061056,0.02156011749321757,-0.018146353677436312,0.07612235666689163,0.15530507385032113,-0.07977850162855186,-0.005722591767877877,0.22856648986788589,-0.0900292037514685
2693,13.172853600000964,0.013004917466369982,-0.09365695992643264,0.002535303689104271,0.03360218706352546,0.022320464231326463,-0.018536604877434363,0.07609010048381969,0.15641453347678944,-0.08021464559334222,-0.007530538118210978,0.22624925280133862,-0.08873029237663917
2694,13.17724979999184,0.013041969787512302,-0.09366331261953081,0.0025411726366606803,0.03397329347726872,0.023086195567363008,-0.018928968752075545,0.07604901055758939,0.15751258164574383,-0.08064441299924158,-0.009345284618373723,0.22388635902079762,-0.08741388650906369
2695,13.18127229998936,0.013118398327096565,-0.09364940286454349,0.002549161989773178,0.03434417797641045,0.023857255322227995,-0.019323414008373587,0.07599905442268086,0.1585989961036375,-0.08106771880756132,-0.011166533489322852,0.22147797728965107,-0.08608013057432731
2696,13.185391399994842,0.013212889335285714,-0.09365618702188161,0.00253058674058795,0.03471479724852539,0.024633586235559474,-0.0197199089399546,0.07594020107018576,0.15967355543824557,-0.08148447869086653,-0.012993984068228192,0.21902428580418803,-0.08472917297154545
2697,13.189573099996778,0.013316194581457417,-0.09367996871377622,0.002521950252883402,0.03508510783377008,0.02541512996991338,-0.02011842143054659,0.0758724209617229,0.16073603912461862,-0.0818946090523499,-0.014827332865738068,0.21652547220868817,-0.08336116606238865
2698,13.1945163999917,0.01340660408207574,-0.09367868959844639,0.0025177711618574166,0.035455066132075844,0.02620182711516666,-0.020518918957563546,0.07579568604307536,0.16178622757110955,-0.0822980270451531,-0.016666273624389338,0.2139817336084287,-0.08197626615899124
2699,13.199079899990464,0.013483414113592166,-0.09369746425424053,0.0025012215235868714,0.03582462841040682,0.02699361719314322,-0.020921368595784008,0.07570996975754316,0.16282390216546297,-0.08269465059163018,-0.018510497378152642,0.21139327658058985,-0.08057463351073912
2700,13.203786400001263,0.013546206316564276,-0.09368474671054616,0.002506111011225899,0.03619375081008124,0.02779043866246306,-0.021325737021123805,0.0756152470590059,0.16384884532095714,-0.08308439840254743,-0.02035969251310293,0.20876031718304056,-0.07915643228993244
2701,13.207813000000897,0.01362023812298875,-0.09369708667249964,0.002511413558698737,0.03656238935415461,0.028592228923614828,-0.02173199051450271,0.07551149442469018,0.164860840522589,-0.08346718999621433,-0.022213544829204717,0.20608308096098668,-0.07772183057631961
2702,13.21399879999808,0.013694337982518942,-0.09365137386402302,0.0025146899177488757,0.0369304999548632,0.02939892432425205,-0.022140094965804637,0.07539868986763633,0.16585967237329227,-0.08384294571754006,-0.02407173760320111,0.2033618029514645,-0.07627100034049976
2703,13.218582999994396,0.01374123150103712,-0.09364564815372034,0.002525847953955324,0.0372980384211267,0.030210460164713345,-0.02255001587793115,0.07527681294885905,0.16684512664017873,-0.08421158675700974,-0.02593395165259518,0.20059672768566172,-0.07480411742619025
2704,13.222937400001683,0.01377901513540144,-0.09363023661643746,0.0025326033080974673,0.03766496046610843,0.031026770703766842,-0.022961718370947952,0.07514584478919661,0.16781699030079192,-0.0845730351695754,-0.02779986540071161,0.1977881091890495,-0.07332136153135674
2705,13.22768389999692,0.01382461708753841,-0.09363895265812727,0.002554882659946821,0.038031221714831365,0.03184778916457883,-0.02337516718632386,0.07500576808084304,0.16877505158936273,-0.08492721389345609,-0.02966915494282608,0.19493621097930902,-0.07182291618820379
2706,13.231330599999636,0.013872124779924888,-0.0936269915403123,0.0025788489689858984,0.03839677771184841,0.03267344774090679,-0.02379032669126192,0.07485656709855784,0.16971910004305618,-0.08527404676884157,-0.03154149411334939,0.19204130606203734,-0.07030896874202457
2707,13.235355400000117,0.013908506614895368,-0.09362838192078489,0.0026108879715973227,0.0387615839289652,0.033503677603516725,-0.024207160883122202,0.07469822771054839,0.17064892654819905,-0.08561345855649422,-0.03341655455405282,0.18910367692421756,-0.06877971032890806
2708,13.240546999993969,0.01397392923561871,-0.09361768606520098,0.002648073181274812,0.03912559577301419,0.0343384089068248,-0.024625633393935926,0.07453073738901979,0.17156432338647776,-0.0859453749562432,-0.03529400578332084,0.1861236155254382,-0.06723533585230274
2709,13.244134599997778,0.014012943259043596,-0.09360906556704097,0.0026538725090287513,0.03948876859367828,0.035177570795762995,-0.025045707495010318,0.07435408522038686,0.17246508428109633,-0.08626972262536516,-0.03717351526641656,0.18310142328684822,-0.06567604395843561
2710,13.2480504999985,0.014094583500160766,-0.0935984782257888,0.0027042257069517673,0.0398510576913623,0.03602109141286871,-0.025467346101623663,0.07416826191514346,0.17335100444288404,-0.08658642919684562,-0.03905474848674498,0.1800374110778334,-0.06410203701058606
2711,13.252369199995885,0.014124375761094923,-0.09356330950061034,0.0027441953538535624,0.040212418325110945,0.03686889790559791,-0.025890511777809915,0.07397325981738428,0.17422188061634136,-0.08689542329751608,-0.04093736901809869,0.1769318992004017,-0.06251352106221449
2712,13.256287299998805,0.014185104760642888,-0.09356553514521818,0.0027796145982380872,0.0405728057205713,0.03772091643386157,-0.026315166741232368,0.07376907291397446,0.17507751112561246,-0.08719663456606122,-0.042821038597870266,0.17378521737126656,-0.06091070582894686
2713,13.261210399999982,0.014212351888447303,-0.09352397168374467,0.0028128876877163145,0.04093217507799845,0.03857707217778511,-0.026741272868145753,0.07355569684336237,0.17591769592037262,-0.08748999367089023,-0.044705417201215035,0.17059770470161723,-0.059293804659416104
2714,13.264899899993909,0.01425327090950906,-0.09352459266694652,0.0028740513620435833,0.04129048158030252,0.0394372893456905,-0.027168791698446045,0.0733331289040311,0.17674223662161861,-0.08777543232786678,-0.0465901631161474,0.16736970967456524,-0.05766303450496173
2715,13.268696899991482,0.014282901733777591,-0.09348714387717498,0.002907775985990107,0.041647680401135354,0.040301491182300656,-0.027597684440807187,0.07310136806258384,0.1775509365673502,-0.08805288331789134,-0.048474933019553315,0.16410159012025716,-0.05601861588818985
2716,13.2766544999904,0.01438563182239432,-0.09343684730371266,0.00293778680423514,0.04200372671301524,0.04116959997716582,-0.02802791197790415,0.07286041496145937,0.1783436008581303,-0.0883222805043303,-0.050359382054100975,0.16079371318864352,-0.05436077287039588
2717,13.281528899999104,0.014448076806021195,-0.09340238294598839,0.0029335385255057755,0.04235857569548802,0.042041537073311444,-0.028459434871721558,0.07261027192627294,0.1791200364025128,-0.08858355885028593,-0.05224316390603149,0.15744645531989557,-0.052689733017852694
2718,13.286883099994157,0.014536047545206529,-0.09340679668379732,0.0029564902358083546,0.042712182543322645,0.04291722287610684,-0.028892213368947074,0.07235094297277861,0.17988005196232554,-0.0888366544357015,-0.054125930883810736,0.15406020221246106,-0.05100572736696747
2719,13.291377799992915,0.01458046476554455,-0.09338056957678531,0.0029527301626497797,0.043064502474739565,0.04379657686235416,-0.029326207406448722,0.07208243381344905,0.1806234581977975,-0.08908150447429598,-0.05600733399762317,0.1506353487887513,-0.049308990388311
2720,13.29576019999513,0.014643401020865308,-0.09336430807072223,0.0029862526835312004,0.0434154907396699,0.04467951758959731,-0.029761376616835235,0.07180475186366855,0.18135006771251957,-0.08931804733032239,-0.057887023039687804,0.14717229915845215,-0.04759975994952375
2721,13.299498599997603,0.014673175597867232,-0.09335754862596884,0.0030117087454264013,0.0437651026280439,0.045565962705650206,-0.030197680334098444,0.071517906247535,0.18205969509822711,-0.08954622253514444,-0.059764646665376175,0.14367146657945257,-0.04587827727710328
2722,13.303759799993712,0.01471250916305044,-0.09336349656850922,0.003086812319138354,0.04411329347810683,0.04645582895834331,-0.030635077599336768,0.0712219078032667,0.18275215697939265,-0.08976597080362586,-0.06163985247511122,0.14013327341638535,-0.044144786917078266
2723,13.30891629999678,0.014705397993102763,-0.09333255873120991,0.0031424160401145335,0.044460018684760454,0.04734903220548769,-0.031073527166558954,0.07091676908821028,0.18342727205761722,-0.0899772340503272,-0.063512287097026,0.13655815109677547,-0.04239953669457458
2724,13.316444999989471,0.014758574868673872,-0.09336374861958843,0.00326119871696451,0.04480523370792836,0.048245487425055515,-0.031512987508567174,0.07060250438344598,0.1840848611558088,-0.09017995540550444,-0.06538159627036029,0.1329465400647921,-0.04064277767227918
2725,13.322863900000812,0.014852550460062874,-0.09337008756528867,0.0033752908942067932,0.04514889408094311,0.04914510872557604,-0.03195341682291823,0.07027912969798704,0.18472474726213658,-0.0903740792309039,-0.0672474249295728,0.12929888973260123,-0.03887476410780841
2726,13.327412300001017,0.014876257538962805,-0.09338833934575368,0.0034007435297455403,0.04549095541895312,0.05004780935674587,-0.03239477303796207,0.06994666277256956,0.18534675557374866,-0.09055955113534749,-0.06910941728914628,0.12561565842931646,-0.03709575340998769
2727,13.331376499991164,0.014925137794584282,-0.09340651529626531,0.0034473720174048005,0.04583137342734752,0.05095350172025262,-0.03283701381895663,0.06960512308303018,0.18595071354024081,-0.09073631799010264,-0.07096721692906299,0.1218973133475457,-0.035306006094049824
2728,13.335273199991208,0.014925137794584282,-0.09340651529626531,0.0034473720174048005,0.04617010391019673,0.05186209738081064,-0.03328009657425801,0.06925453184326831,0.1865364509068636,-0.09090432794403165,-0.07282046688092662,0.1181443304875324,-0.03350578573575979
2729,13.339783299990811,0.01497299643502727,-0.09344188535808329,0.0035024439668110575,0.04650710277870697,0.052773507077407585,-0.03372397846158498,0.06889491200778933,0.18710379975745545,-0.09106353043851537,-0.0746688097147069,0.114357194598891,-0.0316953589244747
2730,13.344325899990508,0.014981705068294156,-0.09346771065542048,0.003515604653519435,0.04684232605968659,0.053687640734760594,-0.03416861639435648,0.06852628827382604,0.18765259455708944,-0.09121387622214636,-0.07651188762608256,0.11053639911993639,-0.029874995215147478
2731,13.347994899988407,0.015005494855205335,-0.09349133198751741,0.0035330976552103346,0.04717572990402226,0.054604407474981013,-0.034613967048100935,0.06814868708303505,0.18818267219442184,-0.09135531736518658,-0.0783493425243581,0.1066824461146091,-0.028044967079283504
2732,13.352516499988267,0.015028173027052002,-0.09351947674288337,0.0035770562652350704,0.04750727059516287,0.055523715629445934,-0.03505998686693638,0.06776213662276513,0.18869387202373009,-0.09148780727378435,-0.080180816120929,0.10279584620699846,-0.026205549854859785
2733,13.356404599995583,0.015050303314653278,-0.09356811282183118,0.0036130505688514118,0.04783690455760904,0.05644547275087491,-0.03550663207012012,0.06736666682689435,0.18918603590662916,-0.0916113007039448,-0.08200595001826982,0.09887711851346592,-0.02435702169521676
2734,13.364491999993334,0.015062005250846866,-0.09368889575306495,0.0036947649891957424,0.04816458836540601,0.0573695856256102,-0.03595385865866678,0.06696230937623376,0.1896590082534544,-0.09172575377524807,-0.08382438579941968,0.09492679057237184,-0.02249966351693322
2735,13.368671699994591,0.01511117876145987,-0.09375663614198161,0.0037600553400008903,0.04849027875063796,0.05829596028609913,-0.036401622422033285,0.06654909769849554,0.1901126360642981,-0.09183112398431001,-0.0856357651179395,0.09094539827140985,-0.020633758946695387
2736,13.373090099994442,0.01511009446648048,-0.093840674282956,0.0037835766517182977,0.04881393261192182,0.05922450202357697,-0.03684987894486988,0.06612706696782361,0.19054676896968897,-0.09192737021798074,-0.08743972978831419,0.08693348577255368,-0.0187595942671714
2737,13.377163099998144,0.015157226879003985,-0.09392794993508143,0.003852812312125139,0.04913550702289846,0.06015511540094873,-0.03729858361383577,0.06569625410388436,0.19096125927090196,-0.09201445276627596,-0.08923592187677336,0.08289160543462216,-0.01687745836190313
2738,13.38314389999141,0.015128383349028227,-0.09399650023407854,0.003853671543879826,0.04945495924071895,0.06108770426586803,-0.03774769162447838,0.06525669777051551,0.19135596197988755,-0.09209233333503615,-0.09102398379250304,0.07882031773346913,-0.014987642659227614
2739,13.389373199999682,0.01514211915757242,-0.0941590316213867,0.003908691619626413,0.04977224671452379,0.06202217176401132,-0.03819715798817492,0.06480843837393185,0.19173073485880868,-0.09216097505830925,-0.09280355837922102,0.07472019117980562,-0.013090441075240792
2740,13.39537399999972,0.015181982416550282,-0.0942616706767755,0.0039623716969298655,0.05008732709391323,0.0629584203525454,-0.03864693753913508,0.06435151806048567,0.19208543845917342,-0.09222034251045218,-0.09457428900708809,0.07059180223466262,-0.011186149955816712
2741,13.4033347999939,0.01513282711078023,-0.09440638365047643,0.004068231270023872,0.05040015823740625,0.06389635181378661,-0.03909698494146323,0.06388598071398055,0.1924199361605524,-0.09227040171794659,-0.09633581966492703,0.06643573522250314,-0.009275068017695762
2742,13.407231599994702,0.015065923749449366,-0.09448588713619667,0.004112896469333906,0.05071069822088628,0.06483586726904982,-0.03954725469627843,0.06341187195253682,0.1927340942088691,-0.09231112017092437,-0.09808779505272067,0.06225258224199303,-0.0073574962886559184
2743,13.414547199994558,0.01501809759809233,-0.09462537406133012,0.004215847937700605,0.05101890534603147,0.06577686719268455,-0.03999770114889103,0.06292923912500702,0.19302778175425112,-0.09234246683439826,-0.09982986067435987,0.05804294307444159,-0.005433738046781376
2744,13.424714799999492,0.015013185822713016,-0.09480148975055264,0.004316182982763244,0.05132473814872762,0.06671925142629687,-0.040448278496034,0.06243813130694057,0.19330087088843084,-0.09236441215919348,-0.10156166293061274,0.05380742508992316,-0.0035040987588433694
2745,13.428943699997037,0.015012989266300947,-0.09486701071784837,0.004355613870077249,0.0516281554074617,0.06766291919315483,-0.04089894079314769,0.061938599296096374,0.1935532366816848,-0.09237692809257593,-0.10328284921228532,0.04954664315109215,-0.001568886017808357
2746,13.432932099996831,0.014975613966742827,-0.09493120371378447,0.004403559112045478,0.0519291161516938,0.06860776911277534,-0.041349641961716144,0.061430695607502264,0.19378475721929964,-0.09237998808857259,-0.10499306799354427,0.045261219514704444,0.000371590520510815
2747,13.437037999989116,0.014983168971733232,-0.09503284829470421,0.004462145178397589,0.05222757967020535,0.06955369921568991,-0.04180033579665373,0.0609144744680607,0.19399531363755354,-0.09237356711797999,-0.10669196892537149,0.04095178373085916,0.0023170192016447834
2748,13.442252599998028,0.015016263429226451,-0.09511121536970583,0.004531919715342832,0.05252350551942121,0.07050060695838706,-0.04225097597374052,0.06038999181069969,0.19418479015920162,-0.09235764167805606,-0.10837920292912118,0.03661897253997564,0.0042670864374821605
2749,13.447689399996309,0.014964093710411864,-0.09526058407820667,0.004627870276401689,0.05281685353170387,0.07144838923842946,-0.04270151605710503,0.059857305268068345,0.19435307412845385,-0.09233218980189081,-0.11005442229014895,0.03226342976752128,0.006221476772091867
2750,13.4563441999926,0.014974038164838898,-0.09538369143829753,0.004748282586991422,0.053107583823617736,0.0723969424097433,-0.04315190950675287,0.05931647416577624,0.19450005604543505,-0.09229719106745232,-0.11171728075148246,0.027885806216506794,0.008179872948336143
2751,13.460665399994468,0.014953754609141112,-0.0954637775981173,0.004809498779700603,0.053395656804161265,0.07334616229807756,-0.043602109686139805,0.05876755951517642,0.19462562960011578,-0.09225262660630397,-0.1133674336075028,0.023486759557766083,0.01014195597525668
2752,13.468911999996635,0.014959275542408203,-0.0955863531477821,0.004949344455060628,0.05368103318296462,0.07429594421663037,-0.04405206986978741,0.05821062400569185,0.19472969170570317,-0.09219847911198906,-0.11500453779760504,0.019066954218038782,0.01210740519621599
2753,13.474232399996254,0.014911583538719742,-0.09563945044786364,0.005007705340968496,0.05396367397845065,0.07524618298183984,-0.04450174325093976,0.05764573199668566,0.1948121425314804,-0.09213473284807933,-0.11662825199980693,0.014627061265874387,0.014075898357775717
2754,13.477977000002284,0.014899973672478015,-0.09569438703176954,0.005083208360791925,0.054243540525957284,0.07619677292933656,-0.044951082949259466,0.05707294950887546,0.19487288553508408,-0.09206137365588375,-0.11823823672427458,0.01016775829537761,0.01604711167929322
2755,13.483185599994613,0.01486981503507938,-0.09572669783437378,0.005157910622200685,0.05452059448581875,0.07714760793005512,-0.04540004201856115,0.05649234421529193,0.19491182749420916,-0.09197838896181375,-0.11983415440673333,0.005689729307815487,0.01802071992321747
2756,13.490775099999157,0.014842190763665417,-0.09585075222604235,0.005333631199829275,0.05479479785140359,0.07809858140650201,-0.04584857345458071,0.055903985431782245,0.1949288785377307,-0.09188576778440077,-0.12141566950173176,0.0011936645911075044,0.019996396466064898
2757,13.494333999988156,0.014829443043837045,-0.09589860504200245,0.00542138445652254,0.05506611295710728,0.07904958634917691,-0.04629663020277873,0.05530794410705898,0.1949239521762319,-0.09178350074096356,-0.12298244857572742,-0.003319739402779132,0.02197381337005552
2758,13.497968600000604,0.014857531544344216,-0.09595592930230697,0.005511415846121564,0.055334502486297205,0.0800005153331445,-0.04674416516617621,0.05470429281229542,0.19489696533192885,-0.09167158005392227,-0.12453416039996269,-0.007849780182506228,0.023952641455389292
2759,13.501993400001084,0.014835326032095423,-0.09603057280219039,0.005562937393467467,0.05559992947920761,0.08095126053475359,-0.04719113121322111,0.05409310573026854,0.19484783836798192,-0.09154999955675654,-0.12607047604309882,-0.012395749344089588,0.025932550373142554
2760,13.509838999991189,0.014830603408844865,-0.0961660749340279,0.00572380583178052,0.05586235734078246,0.08190171374850012,-0.04763748118568406,0.05347445864405078,0.1947764951171844,-0.0914187546996045,-0.1275910689635758,-0.016956932699647716,0.027913208678763804
2761,13.514325399999509,0.014825687112245677,-0.09622426868648203,0.0057658404788734595,0.0561217498484638,0.08285176640403068,-0.04808316790658128,0.05284842892525169,0.19468286291001893,-0.0912778425545001,-0.12909561510166595,-0.021532610408148946,0.02989428390614801
2762,13.51870780000172,0.014860495942606806,-0.09628867849050989,0.0058086017544928745,0.05637807115992375,0.08380130958328329,-0.04852814418812266,0.05221509552181036,0.19456687260207206,-0.0911272618202454,-0.13058379297118877,-0.02612205710813092,0.03187544264226829
2763,13.523562399990624,0.014897254799962631,-0.09635350282150576,0.0058409242936873565,0.0566312858207378,0.084750234037763,-0.04897236283968295,0.05157453894534021,0.1944284586007968,-0.09096701282691558,-0.1320552837508558,-0.030724542052365415,0.0338563506023436
2764,13.527604299990344,0.014935376919808702,-0.09639857678850172,0.005843456180215341,0.056881358771997334,0.0856984302059487,-0.049415776675794124,0.050926841258027954,0.1942675588916139,-0.09079709753999365,-0.13350977137521242,-0.03533932924444072,0.035836672705520725
2765,13.531853099993896,0.01499531010373948,-0.09645006212340615,0.005856612719169554,0.057128255357859335,0.08664578823082776,-0.04985833852415718,0.05027208605908853,0.1940841150633428,-0.09061751956413273,-0.13494694262514403,-0.039965677577233,0.03781607315104863
2766,13.535330899991097,0.015025964351447842,-0.09648903086585128,0.005829861597903968,0.05737194133303092,0.08759219797755506,-0.05030000123367135,0.04961035847077814,0.19387807233295293,-0.09042828414654272,-0.136366487217914,-0.044602840973237266,0.039794215494922604
2767,13.541108699995675,0.015074929492660797,-0.09652073731874536,0.005846395253432432,0.05761238287018637,0.08853754905123312,-0.05074071768247929,0.04894174512396764,0.19364937956962563,-0.09022939817999964,-0.1377680978967011,-0.04925006852672794,0.04177076272697551
2768,13.545569900001285,0.01510488589025203,-0.09655225255534149,0.0058791481583911585,0.057849546567314857,0.08948173081481033,-0.051180440786026245,0.04826633414327906,0.19339798931811827,-0.0900208702054754,-0.1391514705196027,-0.053906604647718216,0.043745377348393184
2769,13.549784899994847,0.015119559367225758,-0.09657921546863059,0.0058897719521964435,0.058083399454996576,0.0904246324070938,-0.0516191235051311,0.04758421513178772,0.19312385782142194,-0.08980271041438584,-0.1405163041480707,-0.05857168920768653,0.04571772144963083
2770,13.55414359999122,0.015176035565139537,-0.09659998279053973,0.00593652616064284,0.05831390900360499,0.09136614276087408,-0.05205671885406749,0.046895479155292616,0.19282694504270478,-0.08957493065045495,-0.14186230113474924,-0.06324455768703786,0.04768745678870702
2771,13.558492600001046,0.015211967795110047,-0.09662803320241681,0.005967669180229214,0.05854104313043287,0.09230615062115777,-0.052493179908653,0.04620021872615818,0.19250721468653237,-0.08933754441119385,-0.14318916721068034,-0.06792444132426675,0.049654244869851795
2772,13.564506900002016,0.015266610503635729,-0.09666689894292305,0.006013703513653407,0.058764770206739876,0.09324454456350437,-0.0529284598143447,0.045498527786730275,0.19216463421935706,-0.08909056684899276,-0.14449661157184587,-0.07261056726678806,0.05161774702248512
2773,13.568692799992276,0.01531627513358436,-0.09668821123417126,0.006054476452913418,0.05898505906471923,0.09418121301246392,-0.05336251179433906,0.0447905016923297,0.191799174889268,-0.08883401477182426,-0.1457843469650139,-0.07730215872340064,0.05357762448050189
2774,13.57329220000247,0.015353578987236756,-0.09672468816792382,0.006093369957804077,0.059201879004381154,0.09511604426011105,-0.05379528915767426,0.04407623719382648,0.19141081174499416,-0.08856790664355567,-0.14705208977285747,-0.08199843511834878,0.055533538461839144
2775,13.577486700000009,0.015381240156052696,-0.09673630305350128,0.006146866035385851,0.059415199800351114,0.09604892648467138,-0.054226745307333,0.043355832419798256,0.19099952365415254,-0.08829226258386913,-0.14829956009831283,-0.0866986122469461,0.05748515024830128
2776,13.58175339999434,0.01540814371776866,-0.09673354366325759,0.006168465070752813,0.05962499170858077,0.09697974776923626,-0.054656833748343896,0.042629386858276525,0.19056529332073435,-0.08800710436778854,-0.14952648184814502,-0.09140190243272536,0.05943212126561873
2777,13.585713599997687,0.015478679505956045,-0.0967475223809657,0.006198463090409612,0.05983122547296953,0.09790839612056193,-0.05508550809587965,0.04189700133808478,0.19010810730182234,-0.08771245542481257,-0.15073258281568883,-0.09610751468607741,0.061374113163715265
2778,13.589722199991227,0.015541175524850709,-0.09675407500032336,0.006195256022675925,0.06003387233189454,0.0988347594879492,-0.05551272208334997,0.0411587780097724,0.18962795602353194,-0.08740834083765302,-0.15191759476273317,-0.10081465486434119,0.06331078789715906
2779,13.594398899993394,0.01563799204122866,-0.0967506069012718,0.006196277249776828,0.06023290402464712,0.09975872578219949,-0.055938429570487315,0.040414820326148695,0.18912483379616798,-0.08709478734057756,-0.15308125350051655,-0.10552252583330694,0.06524180780577254
2780,13.602008299989391,0.015906178146884747,-0.09672793394610223,0.006125284162774363,0.06042829279777381,0.10068018289464312,-0.05636258455142339,0.039665233022421295,0.18859873882859057,-0.08677182331735611,-0.1542232989698024,-0.11023032763009318,0.06716683569537606
2781,13.606047299996137,0.016089967667490934,-0.0967347581275838,0.006099094389455342,0.06062001141131963,0.10159901871623604,-0.05678514116275442,0.038910122095943196,0.18804967324178332,-0.08643947879881037,-0.15534347532000392,-0.11493725762735775,0.06908553491863993
2782,13.610368900001047,0.016285500181010937,-0.09670951671049988,0.006042407278251767,0.060808033144971796,0.10251512115672061,-0.05720605369159307,0.03814959478557309,0.1874776430816171,-0.08609778545996562,-0.15644153098732708,-0.11964251069880302,0.07099756945601997
2783,13.615225000001374,0.016497104725249397,-0.09669009459334982,0.005994502342807136,0.06099233180410157,0.10342837816384637,-0.05762527658360494,0.03738375955065359,0.18688265833080242,-0.08574677661680453,-0.15751721877190158,-0.12434527938593382,0.07290260399675091
2784,13.618939399995725,0.01670403822206751,-0.09663015464119312,0.005950750759601992,0.06117288172570255,0.10433867774264645,-0.058042764451027254,0.03661272604961242,0.18626473292002385,-0.08538648722262233,-0.1585702959138682,-0.12904475406602695,0.07480030401987256
2785,13.62298989998817,0.016961075277546898,-0.09657746765534116,0.005924183101915278,0.06134965778422372,0.10524590797476562,-0.058458472080667775,0.03583660511819164,0.18562388473824948,-0.08501695386398336,-0.15960052416839185,-0.13374012312127,0.07669033587526308
2786,13.633013799990296,0.017533255356680256,-0.09642926138393292,0.0058797981844567575,0.06152263539729516,0.1061499570378367,-0.058872354441882,0.0350555087473102,0.18496013564220948,-0.08463821475627967,-0.1606076698795709,-0.13843057310902684,0.07857236686465367
2787,13.637527899991255,0.017820159745136212,-0.09636933030967565,0.005880168295383121,0.06169179053134463,0.10705071322490148,-0.05928436669452689,0.03426955006056515,0.1842735114650382,-0.08425030973889139,-0.16159150405321254,-0.1431152889331863,0.08044606532259856
2788,13.644956699994507,0.018402799035891478,-0.09622270301878577,0.005845710101056806,0.0618570997071037,0.10794806496387183,-0.0596944641968894,0.033478843291377104,0.18356404202407464,-0.08385328026994956,-0.16255180242844522,-0.147793454016551,0.08231110069737484
2789,13.6519924000022,0.018988922801240295,-0.09609802631001306,0.005830059997558826,0.06201854000500136,0.10884190083702693,-0.06010260251358782,0.03268350375978552,0.18283176112781574,-0.08344716942070181,-0.16348834554813924,-0.15246425047422188,0.08416714363178646
2790,13.65671929999371,0.0193160244021648,-0.09601123822764976,0.005819008130075569,0.06217608907044349,0.10973210960054237,-0.060508737423443766,0.03188364784889978,0.18207670658201663,-0.08303202186948179,-0.1644009188281075,-0.15712685928793416,0.08601386604384662
2791,13.660574900000938,0.019650689899669626,-0.09590910829178333,0.005796640615695009,0.06232972511897634,0.11061858020404675,-0.06091282492732279,0.03107939298101184,0.18129892019493243,-0.08260788389528302,-0.16528931262505833,-0.16178046048129888,0.08785094120731246
2792,13.664766100002453,0.020059880354307006,-0.095835788465975,0.005774833325830533,0.06247942694133208,0.11150120181020172,-0.06131482125594197,0.030270857593376877,0.18049844778169774,-0.08217480337093774,-0.1661533223032721,-0.16642423329590408,0.08967804383204607
2793,13.67009319999488,0.020461192070167517,-0.09573209774337431,0.005742188724000587,0.06262517390835498,0.11237986381430146,-0.061714682877642306,0.029458161113667867,0.17967533916783865,-0.0817328297559014,-0.16699274829997326,-0.17105735636822958,0.09149485014417584
2794,13.673717400000896,0.020949677811171664,-0.09561168531761385,0.005735547787274508,0.06276694597580684,0.11325445586388745,-0.062112366506124145,0.02864142393511064,0.1788296481919139,-0.08128201408864404,-0.16780739618937163,-0.1756790079073278,0.09330103796603255
2795,13.677470700000413,0.021452466727456824,-0.09549178999136294,0.0056718642135460025,0.06290472368905003,0.11412486787837418,-0.06250782910814325,0.027820767391306005,0.17796143270728207,-0.08082240897865009,-0.16859707674534546,-0.18028836587322347,0.09509628679583398
2796,13.681396100000711,0.021955102820693698,-0.0953725548699342,0.005596373805259486,0.06303848818760655,0.11499099006868048,-0.06290102791116607,0.02699631373074554,0.177070754582991,-0.08035406859802814,-0.16936160600274072,-0.18488460815598518,0.09688027788709204
2797,13.68583979998948,0.022487190855371385,-0.09523454867631473,0.005514192920689118,0.06316822120959187,0.1158527129568623,-0.06329192041098244,0.026168186091027806,0.17615767970378618,-0.07987704867273204,-0.1701008053172609,-0.18946691275542032,0.09865269432771595
2798,13.689684500001022,0.023021443388651527,-0.09510290056842363,0.005441606685787817,0.06329390509602217,0.116709927395742,-0.06368046437927362,0.02533650847278207,0.1752222779692357,-0.07939140647339492,-0.17081450142392343,-0.19403445796134589,0.10041322111878608
2799,13.693731099992874,0.023574256744079234,-0.094969205680284,0.005337932712839128,0.06341552279499374,0.11756252458853035,-0.06406661787113371,0.02450140571330677,0.17426462329196915,-0.07889720080577757,-0.17150252649405726,-0.19858642253438585,0.10216154525297269
2800,13.697836999999708,0.024144088601256764,-0.09480866596259549,0.005237065588294268,0.0635330578657331,0.11841039610843737,-0.06445033923254277,0.02366300345992976,0.1732847935950272,-0.07839449200083298,-0.17216471819081727,-0.20312198588724606,0.10389735579257411
2801,13.702172499994049,0.024732039071267753,-0.09466425808054077,0.005135492517756959,0.0636464944825168,0.11925343391826797,-0.0648315871077895,0.02282142814309765,0.1722828708083205,-0.07788334190438892,-0.1728009197231913,-0.2076403282664179,0.10562034394714868
2802,13.706430499994894,0.025335728858014304,-0.09454753500421736,0.005019247683159249,0.06375581743845948,0.12009153038999831,-0.06521032044684164,0.02197680694920166,0.1712589408641966,-0.07736381386645064,-0.173410979898475,-0.212140630934261,0.10733020315071523
2803,13.71079529999406,0.025969237070971034,-0.09441867817776244,0.004857763942822477,0.06386101214916873,0.1209245783243283,-0.06558649851266242,0.02112926779314749,0.17021309369211152,-0.07683597273012618,-0.1739947531731911,-0.21662207635141476,0.10902662913849674
2804,13.714609000002383,0.026611716725556747,-0.09423864887931518,0.0046845519447557705,0.06396206465626514,0.1217524709702064,-0.06596008088847155,0.02027893929067689,0.16914542321240522,-0.07629988482017641,-0.1745520997024293,-0.2210838483594887,0.11070932002318169
2805,13.719497400001272,0.027207830901686728,-0.09402014719961009,0.0044677726944565045,0.06405896163076613,0.12257510204432287,-0.06633102748494912,0.01942595073044868,0.16805602732917893,-0.0757556179311917,-0.17508288538758487,-0.22552513236398164,0.11237797637067805
2806,13.723105199998828,0.027809658913365433,-0.0938012427440295,0.004207135002341933,0.06415169037633207,0.12339236575056686,-0.06669929854738033,0.018570432045886924,0.16694500792227224,-0.07520324131539778,-0.175586981922474,-0.22994511551737962,0.11403230127533472
2807,13.727325599989854,0.02843070634400648,-0.09355168928998214,0.003974513077358292,0.06424023883237319,0.12420415679944258,-0.06706485466273902,0.01771251378680426,0.16581247083834044,-0.0746428256700933,-0.1760642668378046,-0.23434298690238203,0.11567200043460603
2808,13.731494799998472,0.029137977257311765,-0.09333618673867171,0.0037536445016374577,0.06432459557701649,0.12501037042744026,-0.06742765676670863,0.01685232709080841,0.164658525881032,-0.07407444312472214,-0.17651462354398245,-0.23871793771520533,0.11729678222313437
2809,13.735398599994369,0.0299232001291664,-0.09309860607685885,0.0034611639193109344,0.06440474982993179,0.1258109024163574,-0.06778766615063823,0.015990003654500075,0.16348328680026525,-0.07349816722758316,-0.17693794137223143,-0.2430691614489134,0.11890635776622711
2810,13.739537100002051,0.03069740836530435,-0.09289811852319824,0.003172522103932209,0.06448069145501624,0.12660564911256567,-0.06814484446843232,0.015125675704470489,0.16228687128060515,-0.07291407293218016,-0.17733411561400883,-0.24739585407672335,0.12050044101270373
2811,13.74402279999049,0.031512265860731185,-0.09264845046992733,0.0028873192109754586,0.06455241096293626,0.12739450744621936,-0.06849915374337238,0.014259475968106861,0.16106940092874056,-0.07232223658321509,-0.1777030475586954,-0.25169721423523395,0.1220787488070895
2812,13.749801799989656,0.03224471143630542,-0.09233393919077772,0.0025442724285321024,0.06461989951352623,0.12817737495040113,-0.06885055637486935,0.013391537644214229,0.15983100126006258,-0.07172273590222808,-0.17804464452954197,-0.2559724434075248,0.1236410009611317
2813,13.753915299996152,0.03292924102884903,-0.09195702716477011,0.0021526235878840862,0.06468314891804253,0.1289541497802012,-0.06919901514514502,0.012521994373462252,0.15857180168434584,-0.07111564997288825,-0.17835881991785588,-0.2602207461060743,0.12518692032461523
2814,13.75985170000058,0.03456254658013538,-0.09125026840155076,0.0014168902419309463,0.06474215164127238,0.12972473073172502,-0.06954449322584143,0.011650980208665567,0.1572919354905339,-0.0705010592259385,-0.17864549321541037,-0.2644413300554466,0.12671623285545353
2815,13.771211999992374,0.03631343461642929,-0.09052403518369191,0.0006175811019036564,0.06479690080349669,0.1304890172610252,-0.06988695418455626,0.010778629584906493,0.15599153983063052,-0.06987904542379805,-0.17890459004506126,-0.2686334063746955,0.1282286676890316
2816,13.775148799992166,0.03722896002487454,-0.0900589057856976,0.00012678244928514097,0.06484739018230638,0.13124690950295287,-0.07022636199130311,0.009905077289508837,0.15467075570269828,-0.06924969164482617,-0.17913604218955512,-0.2727961897594339,0.1297239572067776
2817,13.779203899990534,0.03813210663539191,-0.08960526616560345,-0.00043603386818364363,0.06489361421427124,0.13199830828992448,-0.07056268102489506,0.009030458431871705,0.15332972793296637,-0.06861308226725102,-0.17933978761851418,-0.27692889866351633,0.1312018371039401
2818,13.789161199994853,0.04097777458298948,-0.0879853808187039,-0.0020869387984097532,0.06493556799646066,0.13274311517059884,-0.07089587607924976,0.008154908413172278,0.15196860515704885,-0.06796930295276794,-0.17951577051358458,-0.2810307554802834,0.13266204645654958
2819,13.793946999998298,0.04197822651220065,-0.08741869593950735,-0.0026716611287111933,0.06497324728781567,0.13348123242846016,-0.07122591236961454,0.007278562895946596,0.15058753980027545,-0.06731844062981059,-0.17966394129173485,-0.2851009867233164,0.13410432778754203
2820,13.798070999997435,0.04298466854452576,-0.08683628227660066,-0.003218914417524619,0.06500664851037158,0.13421256310030313,-0.07155275553871003,0.006401557773557406,0.14918668805713675,-0.06666058347649922,-0.17978425662669215,-0.2891388232066501,0.13552842713202276
2821,13.802066499993089,0.04382891124712242,-0.0862210660496965,-0.0038057995375464834,0.06503576875033108,0.13493701099461594,-0.07187637166279064,0.005524029139558227,0.1477662098698472,-0.0659958209032707,-0.17987667946850405,-0.29314350022439173,0.13693409410164953
2822,13.806168800001617,0.04472735171959639,-0.08555221120772794,-0.004366401508987691,0.06506060575898699,0.13565448070985686,-0.07219672725761994,0.004646113256962857,0.1463262689060289,-0.06532424353519464,-0.1799411790612146,-0.2971142577296948,0.13832108194811385
2823,13.810497599988594,0.045563923734700376,-0.08482787015391956,-0.005019771729890885,0.06508115795349435,0.13636487765261973,-0.0725137892843596,0.0037679465274296086,0.1448670325355199,-0.06464594319398059,-0.17997773095864397,-0.3010503405130364,0.13968914762569973
2824,13.8167584999901,0.0465028477833741,-0.08412063181714262,-0.005606752310896094,0.06509742441749158,0.1370681080556845,-0.07282752515537036,0.0028896654603695507,0.1433886718063107,-0.06396101287968067,-0.1799863170382632,-0.3049509983797468,0.14103805185289867
2825,13.820602899999358,0.04727679292345411,-0.08345546719300674,-0.006218706704842082,0.06510940490157,0.13776407899594895,-0.07313790273992392,0.002011406641988104,0.14189136141961256,-0.06326954675209268,-0.17996692551315482,-0.3088154863267395,0.14236755917306096
2826,13.825260400000843,0.04815986418243541,-0.0827114492690698,-0.006816621914093893,0.06511709982359123,0.13845269841223734,-0.07344489036982438,0.0011333067042693988,0.14037527970406155,-0.0625716401118682,-0.17991955094205184,-0.31264306471839143,0.1436774380140632
2827,13.831196899991482,0.04983931783809892,-0.08133128319517363,-0.008045910074300878,0.06512051026885277,0.13913387512298134,-0.0737484568449375,0.0002555022939128547,0.13884060858906255,-0.06186738938133041,-0.17984419423744744,-0.3164329994615219,0.1449674607469732
2828,13.83547809999436,0.05069748040576317,-0.0805392788917339,-0.00880372661362719,0.06511963799010133,0.13980751884376819,-0.07404857143862635,-0.0006218699587685074,0.13728753357727677,-0.061156892085006596,-0.17974086267176895,-0.32018456217941943,0.14623740374369248
2829,13.841586800001096,0.051509420482546656,-0.07972978157669083,-0.009583180179277838,0.06511448540739377,0.1404735402047527,-0.0743452039030914,-0.0014986734709785,0.13571624371625673,-0.06044024682988062,-0.17960956988160934,-0.3238970303848663,0.14748704743355737
2830,13.845890299999157,0.05235419914411894,-0.07895785710444338,-0.010296790306590083,0.06510505560780593,0.14113185076792753,-0.07463832447461374,-0.002374771738587393,0.13412693156923458,-0.059717553285370754,-0.17945033587001052,-0.3275696876521107,0.14871617635888046
2831,13.849731299997076,0.05316026527775431,-0.07818501890559747,-0.011057727284635601,0.06509135234498951,0.1417823630442474,-0.0749279038787005,-0.003250028367291143,0.132519793185069,-0.058988912163038316,-0.17926318700679433,-0.33120182378773716,0.1499245792294147
2832,13.856560300002457,0.0547441547740957,-0.076668262035289,-0.012782085916180439,0.06507338003857716,0.14242499051060345,-0.07521391333513157,-0.004124307103770621,0.13089502806735612,-0.0582544251960317,-0.1790481560269371,-0.33479273500038487,0.15111204897572128
2833,13.863688500001444,0.0556496993661679,-0.07586779764761314,-0.01363256680615231,0.0650511437734353,0.14305964762664433,-0.07549632456290592,-0.004997471866841214,0.12925283914270871,-0.0575141951182714,-0.178805282026985,-0.33834172406926566,0.15227838280142422
2834,13.868565600001602,0.057330971902849415,-0.07429471735465802,-0.01538915108492292,0.06502464929876478,0.1436862498514403,-0.07577510978508684,-0.005869386778583156,0.1275934327282107,-0.05676832564338149,-0.17853461045950825,-0.3418481005114335,0.15342338223433472
2835,13.87295209999138,0.058097702159947036,-0.07350597325557491,-0.01640046411645112,0.0649939030270496,0.1443047136599866,-0.076050241733545,-0.00673991619544292,0.1259170184980535,-0.05601692144337368,-0.17823619312559286,-0.34531118074775813,0.15454685317642802
2836,13.877022200002102,0.05886239325196163,-0.07266363237524595,-0.017314391870724633,0.06495891203285364,0.14491495655954087,-0.07632169365359824,-0.007608924739296008,0.12422380944936086,-0.0552600881270895,-0.17791008816536916,-0.34873028826755303,0.1556486059526572
2837,13.881222999989404,0.0596687001578743,-0.07177365911780104,-0.018251211349181146,0.06491968405146531,0.14551689710579022,-0.07658943930854668,-0.00847627732846151,0.1225140218672085,-0.05449793221840643,-0.17755636004657716,-0.35210475379180817,0.15672845535858798
2838,13.885799499999848,0.06047312100981859,-0.07088800384879092,-0.019262939335595544,0.0648762274773898,0.14611045491884353,-0.07685345298410133,-0.009341839208658786,0.12078787528884646,-0.053730561134213914,-0.17717507955116982,-0.35543391543498026,0.15778622070683954
2839,13.889653499994893,0.06130306846655463,-0.07010939953762663,-0.02022173135639881,0.06482855136268934,0.1466955506990444,-0.07711370949270481,-0.01020547598389662,0.11904559246713148,-0.052958083162164965,-0.17676632375995688,-0.35871711886529484,0.15882172587231672
2840,13.893935499989311,0.062079510390266664,-0.06924797401588423,-0.02120530615099036,0.06477666541517135,0.1472721062426011,-0.07737018417774359,-0.011067053647285286,0.11728739933317636,-0.05218060743820958,-0.17633017603529225,-0.3619537174635128,0.15983479933622022
2841,13.901456299994608,0.06343437206839875,-0.06744794132487116,-0.023172828117931213,0.06472057999642516,0.1478400444570296,-0.07762285291765054,-0.011926438611761793,0.11551352495822419,-0.051398243923915996,-0.1758667260018092,-0.3651430724801164,0.16082527422882156
2842,13.90611139999237,0.06412712829361412,-0.0664854020331882,-0.02408717040901706,0.06466030611970752,0.14839928937640598,-0.07787169212989702,-0.012783497740718639,0.11372420151475486,-0.050611103383585945,-0.17537606952520798,-0.36828455319086933,0.1617929883709894
2843,13.910306599995238,0.06475850372572971,-0.0654777687563836,-0.025066779914836204,0.06459585544767754,0.14894976617642333,-0.07811667877487312,-0.013638098378526399,0.11191966423683318,-0.049819297361170176,-0.17485830868910152,-0.3713775370507036,0.16273778431445365
2844,13.914773199998308,0.06528461552809348,-0.0643919393880973,-0.02605418943583446,0.0645272402899813,0.14949140118925117,-0.07835779035965505,-0.014490108380940595,0.11010015137970601,-0.04902293815699072,-0.17431355176992494,-0.37442140984588956,0.1636595093807941
2845,13.923072599995066,0.06667713803731234,-0.06255301027162628,-0.027959672449675108,0.06445447360068685,0.15002412191819198,-0.07859500494165819,-0.015339396145383337,0.10826590417865763,-0.04822213880427625,-0.17374191320991594,-0.377415565844447,0.16455801569914172
2846,13.92826659999264,0.06704647227531214,-0.06134644606537653,-0.029019642468714964,0.06437756897557045,0.1505478570521307,-0.07882830113217504,-0.01618583064109023,0.10641716680713187,-0.047417013045517195,-0.173143513588173,-0.38035940794475415,0.16543316024258164
2847,13.933323799996288,0.06768272015686717,-0.06043314955717516,-0.030179378995336553,0.06429654064925505,0.15106253647977314,-0.07905765809979678,-0.01702928143911299,0.10455418633413086,-0.046607675308647116,-0.17251847958979966,-0.38325234782231116,0.16628480486324676
2848,13.937689699989278,0.06846961083620681,-0.059469322359859696,-0.0310915927676213,0.06421140349220177,0.15156809130367002,-0.07928305557371741,-0.017869618742168292,0.10267721268089884,-0.04579424068305665,-0.17186694397314287,-0.38609380607461463,0.16711281632609057
2849,13.943789600001764,0.06968258774726267,-0.05720576234780154,-0.0328824568327334,0.064122173007556,0.15206445385402356,-0.07950447384691949,-0.01870671341432359,0.10078649857690064,-0.04497682489544664,-0.17118904553513503,-0.38888321236409906,0.16791706634132844
2850,13.95019499999762,0.07018886899946966,-0.05622074441859071,-0.03394784444671736,0.06402886532784884,0.1525515577022733,-0.0797218937792408,-0.019540437010510447,0.09888229951510424,-0.04415554428552699,-0.17048492907475052,-0.39162000555910287,0.16869743159553777
2851,13.954652000000353,0.07054892913741653,-0.05529996965005113,-0.03515102803702339,0.06393149721155447,0.15302933767445862,-0.07993529680032069,-0.02037066180585612,0.09696487370657808,-0.04333051578156788,-0.16975474535458906,-0.3943036338728159,0.1694537937814087
2852,13.958814899990102,0.07109934896944145,-0.05427258640054215,-0.035863951005554964,0.06383008603950421,0.15349772986435484,-0.08014466491242492,-0.02119726082482402,0.09503448203441271,-0.042501856875810116,-0.16899865106059844,-0.3969335550001668,0.1701860396261376
2853,13.965153400000418,0.07195212070809766,-0.05226369554449518,-0.03768666905532721,0.06372464981115851,0.1539566716463801,-0.08034998069314832,-0.02202010787015408,0.09309138800697649,-0.0416696855997415,-0.16821680875994882,-0.3995092362526107,0.17089406091845444
2854,13.9693125999911,0.07232580943318538,-0.05119458177629393,-0.03865686495611437,0.06361520714073772,0.15440610168827076,-0.08055122729799474,-0.022839077551593905,0.09113585771051556,-0.04083412049924603,-0.16740938685707302,-0.4020301546907797,0.17157775453427668
2855,13.975724699994316,0.07262206979610364,-0.0501449385429719,-0.03971203778499775,0.06350177725321238,0.1548459599635219,-0.08074838846283353,-0.023654045314411665,0.08916815976110921,-0.03999528060963298,-0.16657655954788766,-0.40449579725495827,0.1722370224609816
2856,13.98186669999268,0.07340777607519139,-0.04820297488535946,-0.041300628388379154,0.06338437998015412,0.15527618776358962,-0.08094144850623171,-0.024464887467681773,0.08718856525599085,-0.03915328543055253,-0.16571850677221023,-0.4069056608933462,0.1728717718202906
2857,13.989950099989072,0.07414962750940046,-0.046136235761890194,-0.04348991193358365,0.06326303575544866,0.15569672770985227,-0.08113039233166192,-0.025271481212334513,0.08519734772424567,-0.038308254900804896,-0.16483541416438716,-0.4092592526880694,0.17348191488975903
2858,13.99637249999796,0.07457888639309374,-0.04507700481402002,-0.04443215569607037,0.0631377656108719,0.15610752376532736,-0.08131520542958573,-0.026073704668960702,0.08319478307689644,-0.037460309373049866,-0.16392747300215008,-0.41155608997890314,0.1740673691228659
2859,14.001751899995725,0.07555543885974646,-0.042990889885439636,-0.04593137045431179,0.06300859117152997,0.15650852124614067,-0.08149587387941194,-0.026871436905362676,0.08118114955638928,-0.036609569588423534,-0.16299488015371788,-0.41379570048467024,0.17462805716769775
2860,14.005955599990555,0.07605069906475723,-0.04188535353408781,-0.04700947084880154,0.0628755346511647,0.15689966683274545,-0.08167238435132973,-0.027664557963842904,0.07915672768549124,-0.03575615665106916,-0.16203783802316257,-0.4159776224222798,0.17516390688422234
2861,14.010486300001505,0.07651873540298379,-0.040844832380753725,-0.047910438803792005,0.06273861884732557,0.15728090858088967,-0.08184472410801617,-0.028452948888221703,0.07712180021561217,-0.03490019200258911,-0.16105655449405834,-0.41810140462337264,0.17567485136014888
2862,14.014444599990384,0.07694367973752506,-0.03973101086475346,-0.048689876859708936,0.06259786713640973,0.15765219593232854,-0.08201288100621774,-0.02923649175057559,0.0750766520745624,-0.03404179739642485,-0.1600512428714341,-0.42016660664853944,0.17616082892537077
2863,14.018844499994884,0.07735993573119516,-0.03862739562808406,-0.04938527371793101,0.06245330346857166,0.15801347972527927,-0.0821768434982052,-0.03001506967768813,0.0730215703137587,-0.033181094872172225,-0.15902212182205014,-0.4221727988990791,0.1766217831649882
2864,14.023236399996676,0.07788846043992567,-0.03744055104648198,-0.04999297263657693,0.06230495236250378,0.158364712204616,-0.08233660063310198,-0.03078856687720523,0.07095684405489003,-0.03231820672983902,-0.15796941531301942,-0.4241195627262631,0.17705766293090755
2865,14.028041500001564,0.07835156784165773,-0.036198694121074966,-0.05072641669346232,0.062152838900089706,0.1587058470318028,-0.08249214205808617,-0.031556868663486844,0.06888276443605575,-0.03145325550405176,-0.1568933525487947,-0.42600649053807343,0.17746842235201554
2866,14.033242799996517,0.07874040951599506,-0.03498483670406737,-0.051339834875073195,0.061996988720931484,0.15903683929456167,-0.08264345801946572,-0.032319861483147,0.06679962455738858,-0.03058636393821886,-0.15579416790654296,-0.4278331859033845,0.17785402084292531
2867,14.038142799996422,0.07915366846153096,-0.03374769781815169,-0.05198925134198578,0.06183742801675236,0.1593576455162739,-0.0827905393636269,-0.03307743294027429,0.06470771942617573,-0.029717654958657115,-0.1546721008699297,-0.4295992636535583,0.17821442311129337
2868,14.043110599988722,0.0799121738038541,-0.03116977804576243,-0.05308167379414631,0.0616741835256766,0.15966822366511196,-0.08293337753785533,-0.03382947182132499,0.06260734590149135,-0.0288472516486885,-0.15352739596133755,-0.4313043499814245,0.17854959916370597
2869,14.047599500001525,0.08035353814004309,-0.029811919245432153,-0.05341128227064555,0.06150728252638779,0.15996853316289963,-0.08307196459102992,-0.03457586811968098,0.06049880263835339,-0.027975277222714222,-0.15236030267254486,-0.4329480825376154,0.1788595243101342
2870,14.051981899989189,0.0805477311992515,-0.028619188692706563,-0.05390363011277284,0.061336752832167614,0.16025853489369749,-0.08320629317418933,-0.03531651305986502,0.058382390031417486,-0.02710185500027312,-0.1511710753938889,-0.4345301105242294,0.17914417916695802
2871,14.0562990999897,0.0806524433910065,-0.027366731604754065,-0.05442738598563879,0.061162622784816975,0.16053819121211088,-0.08333635654097087,-0.03605129912140566,0.05625841015822124,-0.026227108380091284,-0.14995997334193997,-0.4360500947857956,0.17940354965856073
2872,14.060703099996315,0.08093927218669021,-0.026121264487898317,-0.05487584365143576,0.060984921248461235,0.16080746595131867,-0.0834621485479217,-0.03678012006234475,0.05412716672199234,-0.025351160814130042,-0.14872726048571294,-0.43750770789751786,0.17963762701749472
2873,14.06458130000101,0.08122236714243883,-0.02480909802625466,-0.05538646018200609,0.060803677603241506,0.16106632443082114,-0.08358366365468246,-0.03750287094238015,0.05198896499403433,-0.024474135781639237,-0.14747320547144385,-0.43890263425077464,0.17984640778321964
2874,14.069770199988852,0.0814347452842742,-0.023515414819421262,-0.05587867224716451,0.06061892173889407,0.16131473346390554,-0.0837008969240432,-0.038219448145636416,0.04984411175570349,-0.02359615676322273,-0.14619808154595876,-0.44023457013584777,0.1800298937994143
2875,14.079286199994383,0.08175269002010084,-0.021050926349503476,-0.056905982331053186,0.06043068404821983,0.16155266136482824,-0.08381384402187157,-0.038929749403056754,0.04769291523999029,-0.022717347214923023,-0.14490216647866322,-0.4415032238218582,0.1801880922098647
2876,14.082973500000662,0.08193493913784584,-0.01982684708680342,-0.05733239828028595,0.060238995420445834,0.16178007795571153,-0.08392250121691361,-0.03963367381440954,0.04553568507271958,-0.02183783054233192,-0.14358574248218145,-0.4427083156338858,0.18032101545293072
2877,14.090512800001306,0.08247530830501777,-0.01737222755847678,-0.05797166485314549,0.060043887234480446,0.16199695457315316,-0.08402686538046701,-0.04033112186990265,0.04337273221338322,-0.02095773007473416,-0.14224909613167477,-0.44384957802725444,0.1804286812545955
2878,14.102195499988738,0.08302419633221024,-0.013769724963555344,-0.05881898992524036,0.05984539135206409,0.16220326407454783,-0.08412693398592724,-0.04102199547139925,0.041204368895618966,-0.02007716903929088,-0.1408925182828686,-0.4449267556589626,0.18051111262010205
2879,14.10624339999049,0.08329880282675153,-0.012619696457911144,-0.05906949237174723,0.059643540110817454,0.16239898084411847,-0.08422270510820644,-0.04170619795322893,0.03903090856734984,-0.019196270535269917,-0.13951630398881784,-0.44593960545624095,0.18056833782418144
2880,14.110324799999944,0.08353049317440794,-0.011445302896618534,-0.059307062214879774,0.05943836631718931,0.16258408079865652,-0.08431417742302508,-0.04238363410258759,0.03685266583059787,-0.018315157508329852,-0.13812075241544194,-0.4468878966822158,0.18060039039987638
2881,14.115304699997068,0.08386504353193869,-0.010284089728420199,-0.05945630288988867,0.059229903239305916,0.162758541392969,-0.08440135020607677,-0.04305421017952022,0.034669956380986355,-0.017433952724864504,-0.13670616675586128,-0.4477714109986592,0.18060730912596643
2882,14.119107199992868,0.08414355549912907,-0.009110438540769355,-0.059581672265715084,0.05901818459972369,0.1629223416250322,-0.08448422333206662,-0.04371783393648052,0.032483096946944894,-0.016552778746414663,-0.13527285414356732,-0.4485899425258073,0.18058913801299925
2883,14.123059399993508,0.08445656468131411,-0.00789094756278989,-0.05980939637104826,0.05880324456808713,0.1630754620408501,-0.08456279727362352,-0.04437441463746157,0.030292405228631702,-0.01567175790415378,-0.1338211255644595,-0.4493432978992329,0.1805459262879342
2884,14.127034999997704,0.08475328527672475,-0.006684417960604955,-0.06000863584257553,0.05858511775369406,0.16321788473901577,-0.08463707310008686,-0.04502386307669187,0.02809819983658764,-0.014791012273454463,-0.13235129576778193,-0.45003129632375677,0.1804777283774052
2885,14.131321699998807,0.08501918249332593,-0.00557984040929454,-0.06013248767603574,0.0583638391979705,0.163349593374974,-0.08470705247616851,-0.0456660915968916,0.025900800230136783,-0.013910663648542553,-0.13086368317599323,-0.45065376962438586,0.18038460388961103
2886,14.135405199995148,0.08532677753192264,-0.004475407048735035,-0.06025630953132926,0.05813944436685722,0.16347057316498426,-0.08477273766049065,-0.04630101410708373,0.023700526655548223,-0.013030833517245542,-0.12935860979360284,-0.4512105622942661,0.18026661759484125
2887,14.139426299996558,0.08562740347194468,-0.0033567678216427843,-0.06045996234132732,0.05791196914310979,0.16358081088978194,-0.08483413150400008,-0.04692854609995508,0.021497700083974003,-0.012151643035841953,-0.1278364011150078,-0.451701531539638,0.1801238394046458
2888,14.145831799993177,0.08593631791577289,-0.0022756660478120095,-0.060647738909856135,0.05768144981851452,0.1636802948979383,-0.08489123744825974,-0.04754860466876206,0.019292642149177967,-0.01127321300401834,-0.12629738603136434,-0.45212654732178176,0.1799563443496568
2889,14.152192199995625,0.08656589329511644,-0.00017401546010309497,-0.060919172610103954,0.0574479230860222,0.16376901510891814,-0.08494405952361812,-0.04816110852377627,0.01708567508507038,-0.01039566383994042,-0.12474189673652865,-0.45248549239594,0.179764212556071
2890,14.157002099993406,0.08674730200999198,0.0008447832375751245,-0.061031989203444624,0.05721142603180203,0.16384696301583432,-0.08499260234725718,-0.04876597800826496,0.014877121663063129,-0.009519115555444834,-0.12317026863210134,-0.45277826234720875,0.1795475292208029
2891,14.160782499995548,0.08696510029382988,0.0019295762602557671,-0.06122418299515994,0.05697199612721789,0.16391413168789834,-0.08503687112111849,-0.0493631351140019,0.01266730512926042,-0.008643687731358003,-0.12158284023161119,-0.4530047656233872,0.17930638458531828
2892,14.165305099988473,0.08721990487400319,0.00290904554071626,-0.06135227905350483,0.056729671220729555,0.16397051577256688,-0.08507687162970846,-0.049952503496304576,0.010456549141499996,-0.0077694994929485,-0.11997995306387393,-0.45316492356477833,0.17904087390815845
2893,14.168872800000829,0.08745826240789828,0.003870143830256946,-0.061438022764861724,0.05648448952972094,0.16401611149738343,-0.08511261023778299,-0.050534008488593685,0.008245177706259897,-0.006896669485519298,-0.11836195157556226,-0.4532586704309357,0.1787510974361649
2894,14.17292539999471,0.08764968179169952,0.00485928801028879,-0.06146233791552912,0.0562364896322579,0.1640509166715151,-0.0851440938879126,-0.051107577116471146,0.0060335151154457195,-0.006025315850146164,-0.11672918303302247,-0.4532859534243521,0.17843716037441493
2895,14.177441699997871,0.08791574608338285,0.005849612049913214,-0.061467833242793306,0.05598571045877775,0.1640749306869836,-0.08517133009792889,-0.051673138111312786,0.0038218858830733607,-0.005155556199568415,-0.1150819974233752,-0.4532467327110864,0.17809917285487878
2896,14.1896362999978,0.08858279003402122,0.008721825198203652,-0.061502662814226505,0.055732191283712644,0.16408815451958939,-0.08519432695825369,-0.05223062192337231,0.0016106146818622483,-0.004287507594238247,-0.11342074735493667,-0.45314098143832493,0.17773724990381007
2897,14.196575399997528,0.08892637639408119,0.009683488035361558,-0.061476546132429935,0.05547597171704926,0.16409059072952994,-0.08521309312911156,-0.05277996073439326,-0.0005999737202458623,-0.0034212865185347576,-0.11174578795699827,-0.4529686857488745,0.17735151140788183
2898,14.20154100000218,0.08951729364387667,0.011538429673746832,-0.06154317702849266,0.05521709169582744,0.16408224346171044,-0.08522763783762667,-0.053321088469726226,-0.002809554523627475,-0.0025570088571486944,-0.11005747677900196,-0.4527298447925863,0.17694208207908146
2899,14.205951899988577,0.08988246328956333,0.012427612405910326,-0.06158622970193407,0.05495559147558014,0.16406311844574661,-0.08523797087480461,-0.053853940809948084,-0.005017802960562253,-0.0016947898716439282,-0.10835617368914932,-0.45242447073471265,0.17650909141837712
2900,14.209811399996395,0.08988246328956333,0.012427612405910326,-0.06158622970193407,0.0546915116217173,0.16403322299566014,-0.08524410259240014,-0.05437845520198056,-0.007224394358847199,-0.0008347441772016262,-0.1066422407724823,-0.45205258876119314,0.17605267367816804
2901,14.214340999998967,0.09059362233671268,0.014220376809435397,-0.06153099642970537,0.05442489300085577,0.16399256600926534,-0.08524604389967223,-0.05489457086970551,-0.009429004205425074,2.3014280447020062e-05,-0.10491604222847391,-0.45161423708087134,0.17557296782353365
2902,14.218828999990365,0.09099819717483856,0.01517065175368915,-0.061526473497179726,0.05415577677209757,0.1639411579672466,-0.08524380626002746,-0.05540222882407452,-0.011631308210012032,0.0008783722478936999,-0.10317794426816664,-0.45110946692464465,0.17507011749229512
2903,14.223021199999494,0.09138324297053547,0.01606471174202046,-0.061570184685371385,0.0538842043782591,0.16387901093192622,-0.08523740168755298,-0.055901371872710645,-0.013830982368709414,0.001731217186725798,-0.1014283150108975,-0.45053834254155023,0.17454427095390365
2904,14.227240299995174,0.09174784286070013,0.016937682426932277,-0.061650517502488414,0.053610217537053924,0.16380613854572318,-0.08522684274344006,-0.05639194462900025,-0.01602770302758476,0.002581437295993459,-0.0996675243806485,-0.44990094119178936,0.17399558106717036
2905,14.231529700002284,0.09212926252272861,0.017850652424654875,-0.06182458642979179,0.053333858232231635,0.16372255602930258,-0.0852121425322994,-0.05687389352067343,-0.0182211469462071,0.0034289215344653176,-0.09789594400206128,-0.4491973531366948,0.1734242052368523
2906,14.235906799993243,0.09242048132640165,0.018746804500989898,-0.061794339039904826,0.0530551687046754,0.1636282801794157,-0.08519331469836906,-0.05734716679787141,-0.020410991361121518,0.004273559642667367,-0.09611394709615433,-0.4484276816256453,0.17283030536910993
2907,14.241696400000365,0.09284574197857584,0.019642067854796323,-0.06189249334906214,0.05277419144346088,0.16352332936642977,-0.0851703734216158,-0.057811714540699256,-0.022596914049248115,0.005115242164699539,-0.09432190837578175,-0.4475920428799321,0.17221404782585104
2908,14.24552969999786,0.09320122169420653,0.020539438906794653,-0.06203598224957414,0.05249096917687907,0.16340772353154787,-0.08514333341373095,-0.05826748866626278,-0.024778593391190436,0.005953860469824628,-0.09252020394087207,-0.4466905660735849,0.17157560337797753
2909,14.249771599992528,0.09351710916168103,0.02137100495367589,-0.06216347451028219,0.05220554486342587,0.1632814841837192,-0.08511220991402213,-0.0587144429351885,-0.026955708434438574,0.006789306773824307,-0.0907092111734858,-0.44572339331116656,0.17091514715755088
2910,14.254248799989,0.09380613251177553,0.022253456436307304,-0.06228432727238002,0.05191796168276089,0.1631446343962401,-0.08507701868520215,-0.059152532957626014,-0.029127938956452267,0.007621474160117022,-0.08888930863273019,-0.4446906796025455,0.17023285860889228
2911,14.260192199988523,0.09460267527184357,0.024020278031469722,-0.06251576506733449,0.05162826302663826,0.1629971988030457,-0.08503777600907636,-0.05958171619873199,-0.03129496552760943,0.008450256600632693,-0.08706087594956964,-0.4435925928346572,0.1695289214386341
2912,14.264369899989106,0.09494799495996507,0.024923755083540555,-0.06271359328264468,0.05133649248981179,0.1628392035946931,-0.08499449868212952,-0.060001951983635414,-0.03345646957400539,0.009275548976439197,-0.08522429372157006,-0.4424293137402642,0.16880352356473996
2913,14.275688900001114,0.09557647280078874,0.026783058681524384,-0.06306371452407034,0.05104269386091677,0.1626706765140361,-0.08494720401101341,-0.06041320150188377,-0.03561213344008819,0.010097247098115686,-0.08337994340761638,-0.44120103586372744,0.16805685706451134
2914,14.281491799993091,0.09615323833001549,0.028578701285281737,-0.06337598462608209,0.05074691111333106,0.1624916468515921,-0.08489590980793674,-0.06081542781137051,-0.03776164045111518,0.01091524772586788,-0.08152820722264208,-0.43990796552380235,0.16728911812159797
2915,14.28538019998814,0.09636662919658155,0.029461071072905277,-0.06354260161152239,0.050449188396018044,0.16230214544060245,-0.08484063438595857,-0.06120859584174418,-0.03990467497541603,0.011729448589380546,-0.07966946803240885,-0.4385503217734723,0.16650050697203023
2916,14.29029809999338,0.09663330020052537,0.030394824048782677,-0.06368958789752553,0.05014957002435403,0.16210220465178796,-0.08478139655418668,-0.06159267239729971,-0.04204092248644794,0.012539748407402521,-0.07780410924837479,-0.43712833635683584,0.16569122784929177
2917,14.298483999999007,0.09704662022017124,0.03222288905685828,-0.06406520949896816,0.049848100470942854,0.1618918583877994,-0.08471821561288244,-0.061967626159352494,-0.044170069624628605,0.013346046907059648,-0.07593251472268962,-0.43564225366305964,0.1648614889284506
2918,14.306561599994891,0.09740450102032945,0.034036772288329555,-0.06459390096579518,0.04954482435642013,0.16167114207736497,-0.08465111134847388,-0.06233342768809613,-0.046291804258932964,0.014148244842891176,-0.07405506864335515,-0.434092330677415,0.1640115022693666
2919,14.311817099995096,0.09754803911392394,0.03497435621045583,-0.0648944365453157,0.049239786440249726,0.1614400926691359,-0.08458010402847853,-0.06269004942394488,-0.04840581554823951,0.0149462440156051,-0.07217215542958921,-0.4324788369294161,0.16314148375899384
2920,14.31633950000105,0.09771197672755771,0.0358902213394797,-0.06522653721478264,0.04893303161151475,0.16119874862523256,-0.08450521439633729,-0.06303746568836179,-0.050511794002411944,0.015739947290548183,-0.0702841596274315,-0.4308020544380783,0.16225165305279685
2921,14.32094849999703,0.09778730213477364,0.036744446315002226,-0.06556520990524958,0.048624604879705685,0.16094714991449133,-0.08442646366615994,-0.06337565268417399,-0.05260943154310228,0.016529258615886465,-0.06839146580562919,-0.42906227765431276,0.16134223351529958
2922,14.32484580000164,0.09805499510242202,0.03780697601175086,-0.06572416698283019,0.04831455136550815,0.16068533800541424,-0.08434387351738314,-0.06370458849537639,-0.054698421564261336,0.017314083040492072,-0.06649445845184021,-0.42725981340047897,0.16041345215978642
2923,14.33120259999123,0.09822405194016513,0.03954249204566536,-0.06639610871779635,0.04800291629159281,0.16041335585882335,-0.08425746608934237,-0.06402425308642536,-0.05677845899234293,0.01809432673153229,-0.06459352186919116,-0.4253949808071132,0.15946553958717366
2924,14.33543419999478,0.09836641161571612,0.040461528983012904,-0.06678831566795937,0.047689744973409894,0.16013124792022057,-0.08416726397575905,-0.06433462830102471,-0.05884924034618762,0.018869896991756965,-0.06268904007322675,-0.4234681112468519,0.15849872992407146
2925,14.339535099992643,0.09850085349721709,0.04137248380544505,-0.06717280063487667,0.04737508280999083,0.15983906011185472,-0.08407329021914449,-0.06463569786040578,-0.060910463796572355,0.019640702276480432,-0.06078139668928712,-0.42147954826557255,0.1575132607600561
2926,14.344177499995569,0.09869419946337267,0.04242047100200375,-0.06753172995525683,0.047058975274759635,0.15953683982449784,-0.08397556830512237,-0.06492744736110409,-0.06296182922541213,0.02040665221025418,-0.058870974850349686,-0.4194296475107724,0.1565093730841727
2927,14.350955999994769,0.09873799542390235,0.04331649962205639,-0.06797809526979452,0.0467414679063565,0.15922463590893218,-0.0838741221566708,-0.06520986427223487,-0.06500303828460036,0.021167657603226475,-0.05695815709537101,-0.4173187766572065,0.15548731122068857
2928,14.356337599994731,0.09892858955438122,0.04511252380279619,-0.06889329327548244,0.04642260629947607,0.1589024986671497,-0.08376897612828563,-0.06548293793227024,-0.06703379445447442,0.021923630467185318,-0.05504332526816483,-0.41514731532980687,0.15444732276411677
2929,14.360396199990646,0.09912126463717741,0.045978819139796616,-0.06930320565394406,0.04610243609572288,0.15857047984326686,-0.0836601550000665,-0.06574665954532051,-0.06905380310189299,0.02267448403128128,-0.05312686041685158,-0.4129156550239056,0.15338965851353029
2930,14.364795199988292,0.09923144835044918,0.04691403014435263,-0.06979597917697705,0.0457810029744866,0.15822863261415612,-0.08354768397172707,-0.06600102217692294,-0.07106277153791227,0.023420132757426864,-0.051209142693914765,-0.41062419902278813,0.15231457240618737
2931,14.368880099995296,0.09927287717324612,0.04782729975889993,-0.07006935385082513,0.04545835264383961,0.15787701157979614,-0.08343158865653127,-0.06624602074934094,-0.0730604090750485,0.02416049235536912,-0.049290551256899184,-0.40827336231260253,0.1512223214504894
2932,14.373029900001711,0.09932948817459208,0.048703369964945814,-0.07043910869153384,0.045134530831459435,0.1575156727533429,-0.08331189507515692,-0.06648165203637674,-0.07504642708411413,0.024895479797432403,-0.04737146416978546,-0.4058635714946525,0.15011316565829236
2933,14.37779149999551,0.09936311095271158,0.04961954619992733,-0.07088185694591462,0.044809583275578234,0.15714467355092407,-0.08318862964948812,-0.06670791465770098,-0.07702053905061454,0.02562501333292813,-0.04545225830507491,-0.40339526469510134,0.14898736797659332
2934,14.384945500001775,0.09945721871270687,0.051209959633484126,-0.07170530551646959,0.04448355571596187,0.15676407278115914,-0.08306181919633823,-0.06692480907270294,-0.0789824606306931,0.0263490125022287,-0.04353330924661855,-0.4008688914721135,0.14784519421861245
2935,14.389446999994108,0.09946689458858735,0.05206369489804078,-0.07209958246442427,0.04415649388492111,0.1563739306344079,-0.08293149092110533,-0.06713233757386523,-0.08093190970661208,0.027067398150502624,-0.04161499119322344,-0.3982849127204616,0.14668691299429207
2936,14.39601889999176,0.09944649661992999,0.05289829350018079,-0.07257134098657134,0.04382844349835723,0.15597430867175044,-0.08279767241136197,-0.06733050427966726,-0.08286860644175705,0.027780092441108042,-0.039697676863069346,-0.3956438005736273,0.14551279564023437
2937,14.40186939999694,0.09946237564509515,0.054401523567881645,-0.07338872828881521,0.043499450246844186,0.15556526981370228,-0.08266039163038146,-0.06751931512702178,-0.08479227333515257,0.028487018868642022,-0.037781737398967875,-0.39294603830342506,0.14432311614909965
2938,14.40627379999205,0.09944654960063838,0.05516704552488835,-0.0737597518691644,0.043169559786749516,0.15514687832866644,-0.08251967691060207,-0.0676987778632491,-0.08670263527547722,0.029188102271643267,-0.03586754227449583,-0.3901921202171781,0.14311815109848636
2939,14.410830699998767,0.09936176214412876,0.055908695621907534,-0.07422039787007431,0.0428388177313962,0.15471919982112414,-0.08237555694703151,-0.06786890203759337,-0.08859941959456545,0.02988326884494574,-0.0339554592010343,-0.3873825515524758,0.14189817957931514
2940,14.414662499999396,0.09931463479747309,0.05663364028709238,-0.07463376793345114,0.042507269642267656,0.15428230121956693,-0.08222806079059335,-0.06802969899228554,-0.09048235612038472,0.030572446151680796,-0.03204585403574435,-0.3845178483695417,0.14066348312373828
2941,14.419754699993064,0.09924050442266075,0.057287340767608635,-0.07507563762200288,0.04217496102025802,0.15383625076417226,-0.08207721784141712,-0.06818118185315764,-0.09235117722947653,0.031255563134925564,-0.03013909069050975,-0.38159853744124295,0.13941434563259503
2942,14.423784999991769,0.09915782479723621,0.05793975673166377,-0.0755563329507616,0.041841937296970076,0.1533811179942257,-0.08192305784207408,-0.06832336551981257,-0.09420561789885011,0.031932550128995436,-0.02823553104187659,-0.37862515614077424,0.13815105330243402
2943,14.427502899998215,0.09901310892877617,0.058712007045913575,-0.07603216834718629,0.04150824382606297,0.15291697373529226,-0.0817656108707602,-0.06845626665535451,-0.0960454157573179,0.032603338870378536,-0.02633553484201894,-0.3755982523270482,0.13687389455212487
2944,14.435359099996276,0.09877734262844026,0.05999600801688329,-0.07717106125286902,0.041173925874651934,0.15244389008613973,-0.08160490733442824,-0.06857990367568499,-0.09787031113626196,0.03326786250831038,-0.02443945963075945,-0.37251838422782557,0.13558315994908016
2945,14.439614999995683,0.09868641980511565,0.06062586625470606,-0.07763272022123516,0.04083902861476213,0.15196194040541694,-0.08144097796187046,-0.06869429673837057,-0.09968004711982027,0.03392605561498681,-0.02254766064867311,-0.3693861203206195,0.1342791421351094
2946,14.443812099998468,0.09860843754767816,0.06121971555845186,-0.0780948686479773,0.04050359711483869,0.15147119929808814,-0.08127385379675352,-0.06879946773108782,-0.10147436959448225,0.03457785419541359,-0.02066049075130201,-0.36620203921140604,0.13296213575192598
2947,14.44822629999544,0.0985442154528405,0.061878469034707145,-0.07859951550579773,0.04016767633131504,0.1509717426016269,-0.08110356619060749,-0.06889544025965091,-0.10325302729808361,0.035223195696891266,-0.018778300324508158,-0.3629667295111739,0.13163243736632896
2948,14.452150199998869,0.09838571944586062,0.06249036695286232,-0.07911575495965267,0.03983131110024155,0.15046364737197238,-0.0809301467957707,-0.06898223963562782,-0.10501577186819018,0.035862019018133684,-0.01690143720099089,-0.35968078971034806,0.13029034539508175
2949,14.457376299993484,0.09824385773362526,0.06297942801864877,-0.07947612855834371,0.03949454612897668,0.1499469918692511,-0.08075362755829227,-0.06905989286355074,-0.10676235788986024,0.0364942645180192,-0.015030246577994913,-0.3563448280511214,0.1289361600295091
2950,14.461920899993856,0.09807013156574115,0.06357632293585098,-0.07980779004194027,0.039157425987942494,0.14942185554326715,-0.08057404071079428,-0.06912842862772668,-0.10849254294277566,0.037119874023973286,-0.013165070936234237,-0.3529594623977306,0.12757018315983423
2951,14.465479299993603,0.09796714716287566,0.06416201498450108,-0.0801638635124268,0.038819995102446554,0.14888831901876398,-0.08039141876529537,-0.06918787727865387,-0.11020608764773253,0.03773879083998138,-0.01130624996005661,-0.3495253201047116,0.1261927182992769
2952,14.469180899992352,0.09780929455539447,0.0647485980126153,-0.08045168300720544,0.03848229774457222,0.14834646408046048,-0.08020579450599773,-0.0692382708190506,-0.11190275571248207,0.038350959754230994,-0.009454120458872594,-0.34604303788317375,0.1248040705079347
2953,14.473820499988506,0.09764673963193413,0.06530008605468687,-0.08072855945857504,0.03814437802513915,0.14779637365786347,-0.08001720098203903,-0.06927964288950218,-0.11358231397691251,0.03895632704638216,-0.007609016289872686,-0.3425132616651305,0.12340454631646919
2954,14.479118099989137,0.09746369138799492,0.06582591985511266,-0.08106216203368724,0.0378062798857356,0.1472381318098599,-0.07982567150021092,-0.06931202875373252,-0.11524453245756282,0.03955484049446551,-0.005771268282055277,-0.33893664646592564,0.12199445364961761
2955,14.485917199999676,0.09699365266253565,0.06688914068841167,-0.08168544492626802,0.03746804709082473,0.14667182370909304,-0.07963123961764576,-0.06933546528350648,-0.11688918439145879,0.0401464493814074,-0.003941204161587622,-0.3353138562447913,0.12057410174955228
2956,14.490775899990696,0.09676218524093257,0.0674313938018408,-0.08197259143738249,0.03712972321992649,0.14609753562612635,-0.07943393913447394,-0.06934999094316997,-0.11851604627926274,0.04073110450118179,-0.0021191484785212586,-0.3316455637635774,0.11914380109910942
2957,14.495353199992678,0.0965842630796746,0.06790500880722913,-0.08232373563157766,0.03679135165987698,0.14551535491339834,-0.0792338040864538,-0.0693556457738341,-0.12012489792772768,0.04130875816458829,-0.00030542253488267956,-0.3279324504436896,0.11770386334490877
2958,14.499170999988564,0.09634805038491555,0.06837139396735016,-0.08267368273585311,0.036452975597166946,0.1449253699889717,-0.07903086873757616,-0.06935247137721061,-0.12171552249144768,0.0418793642046559,0.001499655685840647,-0.3241752062212748,0.11625460122038525
2959,14.504442999997991,0.09610307641728141,0.06883648251737069,-0.08297588485716972,0.03611463801036129,0.14432767032007923,-0.07882516757264506,-0.06934051089910505,-0.12328770651389635,0.04244287798167205,0.0032957715877994964,-0.3203745294006925,0.11479632846875439
2960,14.514988700000686,0.09542110245426345,0.07023613015275323,-0.08400649509265853,0.035776381662601074,0.14372234640646986,-0.07861673528983626,-0.06931980901257437,-0.12484123996774465,0.042999256387836846,0.005082614030448615,-0.3165311265063101,0.11332935976593271
2961,14.519342799991136,0.09522525159298151,0.07065984430015099,-0.084382071707915,0.035438249094189536,0.14310948976355872,-0.07840560679323519,-0.06929041190075595,-0.12637591629444972,0.043548457851542204,0.006859875394760936,-0.3126457121326612,0.11185401064343459
2962,14.524396799999522,0.09499646567084213,0.07109384862339765,-0.08474749333241426,0.035100282615263885,0.14248919290538445,-0.0781918171853554,-0.06925236723937578,-0.1278915324431074,0.044090442341276063,0.008627251647972966,-0.3087190087930058,0.11037059741126644
2963,14.528203199995914,0.09466574566672739,0.07157534723346859,-0.08516509564658695,0.03476252429855417,0.14186154932737782,-0.07797540175963925,-0.06920572417894306,-0.1293878889085609,0.04462517136915162,0.010384442406844743,-0.30475174676633393,0.10887943708083914
2964,14.532322200000635,0.09435101395389567,0.07201084561295702,-0.0855197947332866,0.03442501597223073,0.14122665348894609,-0.07775639599294262,-0.06915053332663916,-0.13086478976875848,0.045152607994062025,0.012131150999418503,-0.3007446639428507,0.10738084728791863
2965,14.536154899993562,0.0940654189760131,0.07241725820065519,-0.08571078497527312,0.034087799212841635,0.14058460079587656,-0.07753483553800539,-0.0690868467279086,-0.13232204272135192,0.04567271682446092,0.013867084525260873,-0.2966985056679838,0.10587514621563562
2966,14.539876199996796,0.09383712519228878,0.072793863161651,-0.08608661080182352,0.033750915338341334,0.13993548758256433,-0.07731075621590962,-0.06901471784776016,-0.13375945911952955,0.04618546402076916,0.015591953914174143,-0.29261402458495467,0.10436265251757454
2967,14.546116299999994,0.09357282791202504,0.07324782583496067,-0.08642331639828749,0.03341440540121193,0.1392794110940684,-0.07708419400852703,-0.06893420155178523,-0.13517685400707632,0.04669081729740843,0.01730547398336295,-0.28849198047595515,0.10284368524096278
2968,14.552997099992352,0.09295565320053578,0.07416063007081389,-0.08711840771498103,0.03307831018167854,0.13861646946799996,-0.07685518505095705,-0.06884535408690166,-0.13657404615265512,0.04718874592446228,0.019007363493043414,-0.28433314010196753,0.10131856374998034
2969,14.558792299998458,0.0926256869214884,0.07463520942554505,-0.0874724550293756,0.03274267018102013,0.13794676171624545,-0.07662376562395744,-0.06874823306183091,-0.137950858083303,0.04767922072896535,0.020697345200482487,-0.28013827704127037,0.09978760764921024
2970,14.563297299988337,0.09234942791110805,0.0750991949419048,-0.0878287485404895,0.03240752561497736,0.1372703877065286,-0.07638997214636961,-0.06864289742731627,-0.13930711611713603,0.04816221409582151,0.022375145912455933,-0.2759081715266691,0.09825113670724965
2971,14.568289000002553,0.091756250458026,0.07599301269074153,-0.08843588796821773,0.03207291640725853,0.13658744814381596,-0.07615384116753993,-0.06852940745608978,-0.1406426503952559,0.0486376999683522,0.024040496536114234,-0.27164361028149264,0.09670947078050181
2972,14.572992399989744,0.09147862866907122,0.076487907083399,-0.08880086147009413,0.03173888218314496,0.1358980445515702,-0.07591540935973852,-0.06840782472259574,-0.1419572949128538,0.049105653848475664,0.025693132128246324,-0.2673453863543967,0.09516292973716776
2973,14.578223699994853,0.09119214189901904,0.07697538006815037,-0.08917910716256067,0.03140546226319687,0.13520227925285608,-0.07567471351057732,-0.06827821208247867,-0.1432508875495045,0.04956605279651843,0.027332791942931988,-0.26301429895301415,0.09361183338145738
2974,14.583937999996124,0.0909365789413435,0.07744721122459367,-0.08950895126003255,0.0310726956570611,0.13450025535130272,-0.07543179051542949,-0.06814063365184324,-0.14452327009864485,0.05001887543065989,0.028959219477574533,-0.25865115327649507,0.09205650137803877
2975,14.589921499995398,0.09032048364866548,0.07844241814479665,-0.09017688848743625,0.03074062105738161,0.13379207671192542,-0.07518667736985209,-0.06799515478629424,-0.1457742882962326,0.05046410192601148,0.030572162517306,-0.25425676034697753,0.09049725317674581
2976,14.594459899992216,0.09002796234378123,0.07893127294201832,-0.09053698438376638,0.030409276833813816,0.13307784794181146,-0.07493941116201382,-0.06784184205976435,-0.14700379184857984,0.05090171401333154,0.032171373177757936,-0.24983193684003008,0.08893440793756263
2977,14.599339899999904,0.08971610129030445,0.07948534605083962,-0.0909013732809468,0.030078701027143686,0.13235767437067486,-0.07469002906512957,-0.06768076324313771,-0.1482116344593567,0.05133169497737714,0.03375660794619168,-0.24537750491410845,0.08736828445590408
2978,14.603075099992566,0.08942439554567506,0.07997709669038139,-0.09125666808918545,0.029748931343512572,0.13163166203128346,-0.07443856832990375,-0.06751198728267738,-0.1493976738557595,0.05175402965489425,0.035327627720982586,-0.24089429203906773,0.08579920108821136
2979,14.607964199996786,0.08912975861928729,0.08044007681571827,-0.09158969362504349,0.029420005148748738,0.13089991763976302,-0.07418506627698418,-0.06733558427826497,-0.15056177181383984,0.05216870443224792,0.03688419784945346,-0.23638313082377377,0.08422747567788073
2980,14.618702699997812,0.08821309461883023,0.08191756953624657,-0.0927568396854972,0.029091959462806505,0.13016254857578222,-0.07392956028942836,-0.06715162546146136,-0.15170379418298935,0.05257570724269467,0.038426088164053046,-0.2318448588428571,0.08265342548154339
2981,14.62433369999053,0.08789759655131221,0.08241311770629114,-0.09319222225545061,0.028764830954313814,0.12941966286262283,-0.07367208780518389,-0.0669601831733968,-0.15282361090957666,0.052975027563298686,0.03995307301687632,-0.22728031846265045,0.08107736709571484
2982,14.628036399997654,0.0877168563212738,0.08285809698452065,-0.0934935139050406,0.028438655935229134,0.1286713691471397,-0.07341268630958454,-0.06676133084249869,-0.1539210960597335,0.05336665641149378,0.04146493131252397,-0.22269035666635292,0.07949961638383221
2983,14.63572559999011,0.08723653502434384,0.08377319392459985,-0.09419837003248681,0.028113470355608534,0.12791777667961418,-0.07315139332786391,-0.06655514296206554,-0.15499612784128716,0.05375058634129296,0.04296144653929922,-0.21807582487846294,0.07792048840369728
2984,14.639524099999107,0.08689916356954511,0.08422806053333853,-0.0946688598968834,0.027789309798483593,0.12715899529350488,-0.07288824641768847,-0.06634169506769554,-0.156048588624836,0.054126811439147916,0.04444240679874074,-0.21343757878852046,0.07634029733534267
2985,14.643776899989462,0.08663842869129441,0.0847214501157691,-0.09515223339414415,0.027466209474850733,0.12639513538510053,-0.07262328316171197,-0.0661210637145779,-0.1570783649639646,0.05449532731946042,0.045907604833491364,-0.20877647817420183,0.07475935640933808
2986,14.64798319998954,0.08640572049134584,0.08513370599906037,-0.09555124695985652,0.0271442042187727,0.1256263078930794,-0.07235654116015261,-0.0658933264546552,-0.158085347614596,0.05485613111974778,0.04735683805350269,-0.2040933867238104,0.07317797783555341
2987,14.657258299994282,0.08592909633082044,0.08596406021209016,-0.0963791339245747,0.026823328482592945,0.12485262427797915,-0.07208805802339482,-0.06565856181366482,-0.15906943155347886,0.05520922149546451,0.04878990856057633,-0.19938917185820462,0.07159647273239551
2988,14.661187699995937,0.08569370231193732,0.08639123806602206,-0.09679048199819588,0.026503616332263558,0.1240741965015802,-0.07181787136461716,-0.06541684926806773,-0.160030515995807,0.05555459861448302,0.05020662317124362,-0.1946647045522063,0.07001515105653464
2989,14.664874399997643,0.085444753111844,0.08684529673560466,-0.09712163372748325,0.026185101442787153,0.12329113700620646,-0.07154601879244758,-0.06516826922187272,-0.1609685044119686,0.055892264151235424,0.051606793437986416,-0.18992085915552964,0.06843432153313708
2990,14.669012099999236,0.08527089359791486,0.08729121111852327,-0.09743920922150959,0.025867817093773275,0.12250355869394702,-0.07127253790364814,-0.06491290298336429,-0.16188330454342237,0.05622222128051923,0.052990235668802496,-0.18515851321327256,0.06685429158662039
2991,14.672992499996326,0.08512525845707249,0.08770154690115037,-0.09777470420780603,0.025551796165109622,0.12171157490580316,-0.07099746627583056,-0.0646508327417426,-0.1627748284176987,0.056544474670969014,0.05435677094511946,-0.1803785472860111,0.06527536727194687
2992,14.677353899998709,0.08499256421381574,0.08812017301278892,-0.09813299334552739,0.025237071132748482,0.12091529940076463,-0.07072084146020491,-0.06438214154368352,-0.1636429923625241,0.056859030478197306,0.055706225138061595,-0.1755818447695384,0.06369785320647137
2993,14.681539299999711,0.08481023837064883,0.08853357818567022,-0.09857444350835894,0.02492367406460857,0.12011484633481946,-0.07044270097436281,-0.06410691326982698,-0.16448771701906745,0.05716589633760718,0.057038428923075195,-0.17076929171429006,0.06212205250235854
2994,14.685517899997649,0.08470997219273238,0.08901687123774372,-0.09887370520604961,0.024611636616592446,0.11931033023990169,-0.07016308229509703,-0.06382523261120207,-0.16530892735430713,0.05746508135687931,0.05835321779291832,-0.16594177664449802,0.060548266699585136
2995,14.689689499995438,0.0845777653971729,0.0894198677189574,-0.09923042020536196,0.024300990028719903,0.11850186600278197,-0.06988202285125938,-0.06353718504559663,-0.16610655267251778,0.05775659610813648,0.05965043206902154,-0.1611001903771142,0.058976795699541944
2996,14.693679799995152,0.08445335648062959,0.08986406275678617,-0.09958515455698469,0.023991765121377497,0.1176895688439048,-0.06959956001665825,-0.06324285681387945,-0.16688052662587574,0.058040452619788296,0.06092991691122684,-0.15624542584054588,0.0574079376992502
2997,14.700786399989738,0.08439852610419177,0.09030718670855804,-0.10001625494983168,0.023683992291684487,0.11687355429617712,-0.06931573110299707,-0.06294233489628258,-0.16763078722418245,0.05831666436805978,0.06219152232591273,-0.15137837789324332,0.05584198912620707
2998,14.710442499999772,0.08420473280163086,0.09158707114948367,-0.10120371357469228,0.023377701509975254,0.1160539381837122,-0.06903057335285516,-0.06263570698865169,-0.16835727684370566,0.05858524626820708,0.06343510317251434,-0.14649994314218004,0.05427924457387433
2999,14.717706899988116,0.08412304721148688,0.09203455055037775,-0.10158522602865874,0.023072922316398462,0.11523083660053311,-0.0687441239327119,-0.06232306147867231,-0.16905994223513823,0.05884621466542344,0.06466051916844748,-0.14161101976126644,0.052719996737824217
3000,14.723216200000024,0.08396458671125442,0.09286331187825779,-0.10225828110174329,0.022769683817633068,0.11440436588923932,-0.06845641992601637,-0.062004487422079466,-0.1697387345306746,0.059099587325438026,0.0658676348924467,-0.13671250730973802,0.051164536352556154
3001,14.727576799996314,0.08387578999978906,0.09329161302808583,-0.10253823302790424,0.022468014683721185,0.11357464261963983,-0.06816749832630332,-0.06168007451885843,-0.1703936092502054,0.05934538342481108,0.06705631978632742,-0.13180530655055728,0.04961315212899802
3002,14.731219299996155,0.0837532187110124,0.09367622621936002,-0.10278303277493009,0.02216794314501773,0.11274178356735715,-0.0678773960303571,-0.061349913089444826,-0.1710245263066313,0.05958362354092843,0.06822644815518353,-0.12689031926886982,0.04806613069270522
3003,14.735407399988617,0.08367479125469378,0.09407351313051138,-0.10313648637119043,0.02186949698925668,0.11190590569240672,-0.06758614983142437,-0.061014094050931514,-0.17163145001029664,0.059814329641698756,0.06937789916603183,-0.12196844809055461,0.04652375652277075
3004,14.739634699988528,0.08356761441590181,0.09452313660559106,-0.10345717775197061,0.021572703558733808,0.11106712611775611,-0.06729379641247758,-0.06067270889329003,-0.17221434907254368,0.06003752507495716,0.070510556844916,-0.11704059630090721,0.04498631189145918
3005,14.743725799999083,0.0834439858666052,0.09502066018684366,-0.10359670560375642,0.021277589747605682,0.11022556210786845,-0.06700037233953023,-0.0603258496556139,-0.17277319660838802,0.06025323455757857,0.07162431007248243,-0.11210766766349525,0.04345407680457686
3006,14.751504100000602,0.0832389170923177,0.09587136472850599,-0.10405236148904738,0.02098418199930473,0.10938133104723453,-0.06670591405500549,-0.05997360890239113,-0.17330797013831628,0.06046148416430481,0.07271905257804216,-0.10717056623922412,0.041927328942590714
3007,14.75630259999889,0.08312135464657033,0.09632460758480207,-0.10426433068691411,0.020692506304070227,0.10853455041889776,-0.06641045787115946,-0.05961607969981337,-0.17381865158920679,0.060662301316288775,0.0737946829321328,-0.10223019620565084,0.04040634360250756
3008,14.761488399992231,0.0829976082339973,0.09676575516179389,-0.10443739483781528,0.02040258819659495,0.10768533778297677,-0.06611403996355984,-0.059253355592128854,-0.17430522729437464,0.06085571476935952,0.07485110453759496,-0.09728746167658424,0.038891393640525636
3009,14.765741900002467,0.0828912784776752,0.09723841673147329,-0.10464989728433152,0.020114452753787256,0.10683381075519008,-0.06581669636462166,-0.058885530578046616,-0.17476768799274173,0.06104175460201201,0.0758882256191784,-0.09234326652200986,0.03738274941547003
3010,14.772625199999313,0.08269678719287911,0.09812221444621934,-0.10500809287570277,0.019828124592648207,0.10598008698538675,-0.06551846295720118,-0.05851269908719939,-0.17520602882713426,0.06122045220312564,0.07690595921169399,-0.08739851418837727,0.035880678733022996
3011,14.779898499997216,0.08258854751807646,0.09853769723912952,-0.10514430781626083,0.019543627868263608,0.10512428413608763,-0.06521937546824948,-0.05813495595667229,-0.17562024934171044,0.06139184025941524,0.07790422314672751,-0.08245410751928724,0.03438544679075996
3012,14.785100299995976,0.08240506869850998,0.09941517589997623,-0.10532353510990228,0.019260986271910488,0.10426651986104124,-0.06491946946252686,-0.057752396407604364,-0.1760103534785201,0.06155595274261846,0.07888294003793221,-0.07751094857661599,0.03289731612400187
3013,14.789352899999358,0.08229845699066538,0.099829633983536,-0.10536065209715602,0.01898022302927765,0.10340691178379847,-0.06461878033637955,-0.05736511602186969,-0.17637634957319845,0.06171282489642292,0.07984203726491648,-0.07256993846211417,0.03141654655249448
3014,14.793723199996748,0.08217792305885414,0.10026216609529465,-0.10540473584705173,0.018701360898799792,0.10254557747631063,-0.06431734331158002,-0.05697321071884475,-0.1767182503497967,0.06186249322313737,0.08078144695574456,-0.06763197713951691,0.029943395127924658
3015,14.79794319999928,0.08207817192018026,0.10075817352352522,-0.1053256019656159,0.018424422170104694,0.1016826344375549,-0.06401519342923255,-0.05657677673226887,-0.1770360729147522,0.06200499547011043,0.08170110596806772,-0.06269796325720116,0.02847811608228368
3016,14.80786729999818,0.08183891068078031,0.10160904555941172,-0.10529390087538085,0.01814942866257289,0.10081820007219165,-0.063712365543745,-0.05617591058720488,-0.17732983875000144,0.06214037061590138,0.08260095586890433,-0.05776879397142632,0.027020960777087204
3017,14.81318499999179,0.08177951177945277,0.10205275263349144,-0.10538880082746997,0.017876401724009203,0.09995239166925732,-0.06340889431686762,-0.055770709077106684,-0.17759957370523788,0.06226865885620721,0.0834809429130877,-0.05284536477019385,0.02557217765346134
3018,14.81884120000177,0.08159669128877664,0.10293764765287097,-0.10548652847812615,0.017605362229425582,0.09908532638089726,-0.06310481421180032,-0.05536126924100017,-0.17784530798931714,0.06238990158955047,0.08434101802040152,-0.047928569297761126,0.02413201218310392
3019,14.82298539999465,0.08155069687002355,0.10334755250266422,-0.10553112940545295,0.017336330579934788,0.09821712120114258,-0.0628001594873696,-0.05494768834078381,-0.17806707616081394,0.0625041414027322,0.0851811367514227,-0.04301929917984471,0.022700706820129715
3020,14.827457099992898,0.08154361457317637,0.10368326830109378,-0.10565639544697496,0.017069326701754147,0.09734789294473495,-0.06249496419227653,-0.05453006383865553,-0.17826491711773418,0.06261142205605398,0.08600125928209218,-0.038118443849548246,0.0212785009538082
3021,14.83123959999648,0.08141295854043225,0.10412450238446744,-0.10572267620109632,0.016804370045318665,0.09647775822600355,-0.062189262159416704,-0.05410849337467159,-0.1784388740863864,0.06271178846831359,0.08680135037703364,-0.03322689037404945,0.01986563086220215
3022,14.835506299990811,0.0813331950332817,0.10454842815910508,-0.10573753877984055,0.016541479584502843,0.09560683343779763,-0.061883087000272785,-0.053683074744443324,-0.17858899460941594,0.06280528670157859,0.08758137936164165,-0.028345523282080242,0.018462329666715058
3023,14.839649899993674,0.08128395975918962,0.10497333083999548,-0.10572226669461357,0.01628067381595048,0.09473523473047876,-0.06157647209938123,-0.05325390587697746,-0.1787153305330053,0.06289196394574222,0.08834132009296063,-0.02347522439223346,0.017068827287555204
3024,14.84409919999598,0.08126207616524271,0.10536861135386796,-0.10571422420926062,0.0160219707585117,0.09386307799097686,-0.06126945060887437,-0.05282108481266621,-0.17881793799324516,0.06297186850286537,0.08908115092937631,-0.018616872642129714,0.015685350400123782
3025,14.848578199991609,0.08125187601003891,0.10577718407071851,-0.10572051965270658,0.015765387952786522,0.09299047882191441,-0.06096205544309889,-0.052384709681432905,-0.17889687740167926,0.06304504977130981,0.08980085469914188,-0.013771343918477147,0.014312122392334297
3026,14.855787399996188,0.0812403956502339,0.1061893297530194,-0.105707466824166,0.01551094246077401,0.09211755252080274,-0.06065431927331194,-0.05194487868103859,-0.17895221343002823,0.06311155822966676,0.09050041866776101,-0.008939510888056865,0.012949363322870205
3027,14.860229799989613,0.08123434100167069,0.10691107296343652,-0.10584916052987642,0.01525865086562632,0.09124441405931412,-0.0603462745224554,-0.051501690055555265,-0.17898401499409694,0.06317144542048578,0.09117983450425035,-0.004122242829666404,0.011597289880387647
3028,14.864849199992022,0.08117216635963198,0.10724619174799227,-0.10583413215050844,0.01500852927150676,0.0903711780626338,-0.06003795336000935,-0.051055242074011485,-0.1789923552368715,0.06322476393380848,0.09183909824630496,0.0006795945329468805,0.010256115343669697
3029,14.868825300000026,0.08117191254963381,0.10760022501472644,-0.10585697302736614,0.014760593303551058,0.08949795878889627,-0.05972938769692573,-0.05060563300921561,-0.17897731151081028,0.06327156739051176,0.09247821026438949,0.005465139197131002,0.008926049542738247
3030,14.872878900001524,0.0811769045038425,0.10792684917708319,-0.10591964412429009,0.014514858107930849,0.08862487010870995,-0.059420609180643034,-0.05015296111676168,-0.17893896535933385,0.06331191042546565,0.09309717522477877,0.010233533046321991,0.007607298820929407
3031,14.877098299999489,0.08113389998680809,0.10827647744158876,-0.10600597377443827,0.01427133835201852,0.08775202548477382,-0.05911164919018311,-0.049697324614222875,-0.17887740249751785,0.06334584867051005,0.09369600205157158,0.01498392201395324,0.006300065997938067
3032,14.881427000000258,0.08110356744686988,0.10860553773484051,-0.10607209524548264,0.01403004822465248,0.08687953795158988,-0.05880253883133105,-0.04923882166053713,-0.17879271279199466,0.06337343873725529,0.09427470388770201,0.019715456246251237,0.005004550333837097
3033,14.886785299997428,0.08110242072023298,0.1088825540561417,-0.10613092603073304,0.013791001436501846,0.08600752009527544,-0.058493308931899045,-0.04877755033558953,-0.17868499024006973,0.06339473819971107,0.09483329805497281,0.024427290263887774,0.003720947494076322
3034,14.89267370000016,0.08116891316033654,0.10916575820288923,-0.10623056043306739,0.013554211220529631,0.08513608403347896,-0.05818399003707505,-0.04831360861999615,-0.17855433294805842,0.06340980557674841,0.09537180601313563,0.02911858312245904,0.0024494495154661587
3035,14.897830299989437,0.0812469044232967,0.10973067237251882,-0.10634765445862393,0.013319690332553447,0.08426534139540345,-0.057874612404856765,-0.047847094375093754,-0.17840084310884907,0.06341870031439889,0.0958902533180427,0.03378849857176248,0.0011902447731505356
3036,14.906465299995034,0.08133414192080753,0.11025144259414187,-0.10644572171309306,0.013087451051902652,0.08339540330194105,-0.0575652060015715,-0.04737810532313979,-0.17822462697869812,0.06342148276799615,0.09638866957889475,0.03843620521384258,-5.648205142655827e-05
3037,14.911304299996118,0.08137529978346,0.110483690301519,-0.1065172853251642,0.012857505182170879,0.08252638034592236,-0.05725580049748263,-0.0469067390277269,-0.17802579485326422,0.06341821418416412,0.09686708841461034,0.043060876659777134,-0.0012905500015568216
3038,14.91996040000231,0.08142684821258625,0.11072935483656016,-0.10657721987831992,0.01262986405206285,0.08165838257248387,-0.056946425262483315,-0.04643309287441598,-0.17780446104288808,0.06340895668265718,0.0973255474093418,0.04766169168517607,-0.0025117818753018378
3039,14.924483999988295,0.08158110724246387,0.11118607098930147,-0.10670011972881803,0.012404538516334425,0.08079151945955698,-0.056637109361878456,-0.04595726405159181,-0.17756074384712434,0.06339377323805741,0.09776408806716341,0.05223783438436502,-0.0037200042545221463
3040,14.92861489999632,0.08164032633327244,0.11136350436179966,-0.10676608052140026,0.012181538956824767,0.07992589989848246,-0.05632788155225555,-0.04547934953154511,-0.17729476552853124,0.0633727276613328,0.09818275576595721,0.056788494323226635,-0.004915047532897877
3041,14.934953799995128,0.08175608979668135,0.11168471578203294,-0.10683042090144763,0.011960875283579525,0.07906163217475419,-0.056018770277445215,-0.04499944605178474,-0.1770066522857237,0.0633458845812614,0.0985815997105223,0.06131286669067268,-0.006096745942937876
3042,14.939901199992164,0.08181409416334619,0.11186166404503387,-0.10682995395011666,0.011742556936063851,0.07819882394889585,-0.055709803664571865,-0.04451765009658374,-0.17669653422569692,0.06331330942572595,0.0989606728849337,0.06581015244872082,-0.007264937581974516
3043,14.944783799990546,0.0818693473826395,0.11199479044348573,-0.10684585731559214,0.011526592884464115,0.07733758223747467,-0.05540100952019539,-0.04403405787876253,-0.17636454533542728,0.0632750684028839,0.09932003200417656,0.07027955848115004,-0.008419464437141673
3044,14.952276700001676,0.08201818799620908,0.11227109559553858,-0.10691485604777166,0.011312991631077103,0.07647801339425583,-0.05509241532654433,-0.04354876532171268,-0.1760108234527577,0.06323122848221802,0.09965973746508187,0.07472029774070883,-0.009560172409333566
3045,14.956638699994071,0.08209577520079783,0.11238948878647338,-0.10696916490871654,0.01110176121178544,0.07562022309150124,-0.05478404823784112,-0.04306186804166445,-0.17563551023657326,0.06318185737547255,0.09997985329658911,0.07913158939485093,-0.010686911336142427
3046,14.96117399999639,0.08219662075190029,0.11250904227034858,-0.10702080950817788,0.010892909197618048,0.07476431630141575,-0.05447593507671986,-0.04257346133020139,-0.1752387511362738,0.06312702351747977,0.10028044710936167,0.0835126589699743,-0.011799535013773153
3047,14.964727699989451,0.08232136078257211,0.11261335759897799,-0.10707980688079992,0.01068644269639444,0.07391039727774472,-0.05416810233073711,-0.04208364013702484,-0.1748206953605507,0.06306679604688195,0.10056159004478091,0.08786273849413895,-0.012897901217933359
3048,14.969052399988868,0.08246069895875108,0.11273434390498097,-0.10715246478645789,0.010482368354451597,0.07305856953752571,-0.05386057614897608,-0.041592499052971195,-0.17438149584547472,0.06300124478675374,0.10082335672334504,0.09218106663823991,-0.013981871723697607
3049,14.974052399993525,0.08259348307375713,0.11283299169004982,-0.10722076778778597,0.010280692358452257,0.0722089358429977,-0.05355338233874524,-0.04110013229328437,-0.17392130922190208,0.06293044022512939,0.10106582519249901,0.09646688885561223,-0.015051312324344786
3050,14.977900099998806,0.08277554483248284,0.11291149065002247,-0.10737141654738178,0.010081420437273348,0.0713615981836706,-0.053246546362371715,-0.04060663368114624,-0.17344029578220618,0.06285445349543982,0.10128907687392145,0.10071945752004477,-0.016106092849167867
3051,14.98513020000246,0.08299310345845472,0.113121858653249,-0.10758132340204768,0.009884557863973341,0.07051665775855842,-0.05294009333409021,-0.04011209663146754,-0.17293861944634267,0.06277335635686478,0.10149319651029458,0.10493803206217969,-0.017146087180255547
3052,14.990051299988409,0.0830998909362297,0.11322031381316551,-0.10763121213658301,0.009690109457837184,0.06967421495857955,-0.052634048017027424,-0.039616614134941414,-0.17241644772725567,0.06268722117460468,0.10167827211158256,0.10912187910427623,-0.018171173268245414
3053,14.993837699992582,0.08320534220489684,0.11332452544577197,-0.10767760314582939,0.009498079586497506,0.06883436934912698,-0.05232843482028273,-0.03912027874236186,-0.1718739516956328,0.06259612090007718,0.10184439490084399,0.11327027259331668,-0.019181233147048494
3054,14.997901199996704,0.08329077490468742,0.11344526594142479,-0.10770685880939006,0.00930847216813081,0.0679972196528111,-0.05202327779610525,-0.038623182549209045,-0.17131130594401597,0.0625001290510433,0.10199165925960454,0.11738249393243314,-0.020176152947545444
3055,15.0020591999928,0.08336641413348787,0.11352374659227095,-0.10773331301736937,0.00912129067372729,0.067162863732378,-0.051718600637167864,-0.038125417180503364,-0.17072868855027673,0.06239931969166832,0.1021201626728159,0.12145783211063407,-0.021155822910254793
3056,15.006219799994142,0.08344093464099131,0.11361731378306504,-0.10775321316583927,0.00893653812943298,0.0663313985738068,-0.05141442667393864,-0.03762707377592995,-0.170126281040464,0.06229376741252235,0.10223000567342636,0.1254955838308106,-0.022120137396973827
3057,15.014243999990867,0.08360048499007548,0.11381034185832946,-0.10779123374851034,0.008754217118962855,0.06550292026958891,-0.05111077887215005,-0.03712824297523513,-0.16950426835103255,0.06218354731052547,0.10232129178658948,0.12949505363600283,-0.023068994901393018
3058,15.018630099992151,0.0837335930368826,0.11388426896514803,-0.10789504753385934,0.008574329786083527,0.06467752400219252,-0.05080767983036595,-0.036629014903896584,-0.1688628387904605,0.06206873496884257,0.10239412747353653,0.1334555540339071,-0.024002298058685114
3059,15.022954799991568,0.08383841036459339,0.11398203684028257,-0.10795594469784256,0.008396877837164182,0.06385530402771486,-0.05050515177764644,-0.03612947915906882,-0.1682021840002647,0.06194940643673287,0.10244862207513789,0.1373764056196051,-0.024919953654070216
3060,15.027444899998954,0.08396234056417533,0.11403337264165717,-0.10799440493601228,0.008221862543794447,0.06303635365972562,-0.050203216571311014,-0.03562972479580506,-0.16752249891542204,0.061825638209359185,0.10248488775517867,0.14125693719649673,-0.025821872630358372
3061,15.0315064000024,0.08409033270076256,0.11410311797207422,-0.10803245497103331,0.008049284745467788,0.06222076525330454,-0.04990189569480011,-0.035129840313557155,-0.16682398172420435,0.06169750720756188,0.10250303944337343,0.14509648589541813,-0.02670797009447148
3062,15.035429199997452,0.08424171555973466,0.11415783866344499,-0.10806078964311433,0.00787914485232913,0.06140863018927571,-0.049601210255635214,-0.0346299136429548,-0.16610683382743638,0.06156509075760275,0.1025031947781447,0.1488943972919264,-0.027578165322946387
3063,15.03988469998876,0.08438391557513343,0.11417682868361179,-0.10809027076432494,0.007711442847985295,0.06060003885864155,-0.049301180983477765,-0.03413003213286526,-0.16537125979718492,0.06142846657088325,0.10248547404919015,0.15265002552173387,-0.02843238176642126
3064,15.048684499997762,0.0847290041130717,0.11423176453899142,-0.10815318807379004,0.007546178292376863,0.059795080647219195,-0.04900182822828671,-0.033630282537734375,-0.16461746733488883,0.06128771272364193,0.10245000013986304,0.15636273339427476,-0.029270547053107627
3065,15.05239260000235,0.08488111481936285,0.11424894528609351,-0.10819264235830299,0.007383350324710072,0.05899384392048214,-0.048703171958574834,-0.03313075100520959,-0.16384566722893848,0.061142907636635956,0.10239689846938993,0.1600318925043877,-0.030092592991250715
3066,15.056525899999542,0.08505992244663851,0.11426324957887787,-0.1082122357506389,0.0072229576664474306,0.058196416008609475,-0.04840523175976381,-0.032631523064045466,-0.1630560733117144,0.060994130054812155,0.10232629693495032,0.1636568833420974,-0.030898455570580633
3067,15.060707199998433,0.08520814321924018,0.11424583375274686,-0.10822754684186663,0.00706499862435567,0.05740288319174545,-0.04810802683263776,-0.03213268361229198,-0.1622489024160932,0.06084145902697199,0.10223832585364247,0.1672370954004803,-0.03168807496275746
3068,15.065078999992693,0.08540597698576116,0.11421819087844665,-0.10823936935169076,0.006909471093609622,0.05661333068547204,-0.047811575991895165,-0.03163431690576612,-0.16142437433143014,0.06068497388543494,0.10213311790435878,0.17077192728159946,-0.0324613955208135
3069,15.068882899999153,0.08558055378855003,0.11418520162889845,-0.1082703291688742,0.006756372560950671,0.05582784262649674,-0.047515897664799,-0.031136506546806938,-0.16058271175902744,0.06052475422570492,0.10201080806959431,0.1742607868004945,-0.033218365777596376
3070,15.073592999993709,0.08577627552314043,0.11414084985125333,-0.10827696896677982,0.006605700107898396,0.055046502058558267,-0.04722100988992536,-0.03063933547331423,-0.15972414026709775,0.06036087988614458,0.10187153357721139,0.17770309108721247,-0.03395893844321649
3071,15.077376100001857,0.08596971680106198,0.11408643173768662,-0.1082792107031362,0.006457450414013975,0.05426939091855283,-0.04692693031601048,-0.030142885948070696,-0.15884888824523316,0.06019343092766204,0.10171543384218311,0.18109826668686688,-0.03468307040150287
3072,15.081373499997426,0.0861857037263589,0.11403208536281129,-0.10827238790009251,0.006311619760214,0.05349659002288351,-0.04663367620089608,-0.029647239548347967,-0.1579571868583901,0.06002248761341486,0.10154265040833815,0.18444574965771174,-0.03539072270547153
3073,15.085774799998036,0.08637152906803133,0.11397073111921761,-0.10829894083580069,0.006168204032133318,0.052728179054035026,-0.046341264410572874,-0.02915247715579645,-0.1570492700004,0.05984813038853593,0.10135332689012838,0.18774498566721812,-0.03608186057181082
3074,15.089815100000123,0.08657224370809169,0.11390989137062912,-0.10830237427055235,0.006027198723535535,0.05196423654737607,-0.04604971141832238,-0.028658678946618707,-0.15612537424701606,0.05967043985988528,0.10114760891444102,0.19099543008614048,-0.036756453374388445
3075,15.094654699991224,0.0867776184422353,0.11385697832231097,-0.1082846242228618,0.0058885989397698376,0.051204839878191286,-0.04575903330395696,-0.02816592438202588,-0.1551857388085055,0.05948949677583284,0.1009256440624769,0.19419654808056014,-0.037414474636785024
3076,15.099496099996031,0.08699461732600708,0.11379016976925801,-0.10827953935576373,0.005752399401272708,0.050450065248945006,-0.045469245753158215,-0.02767429219897667,-0.15423060548179765,0.05930538200607698,0.10068758181171572,0.19734781470189475,-0.03805590202385947
3077,15.10624419999658,0.08741242919090818,0.11368621125723574,-0.10836910276303813,0.005618594447113202,0.049699987676778946,-0.04518036405691328,-0.027183860401198336,-0.15326021860219774,0.05911817652150344,0.10043357347798959,0.20044871497486272,-0.03868071733235152
3078,15.110323100001551,0.08763051905491008,0.11363707390232154,-0.10844123624673496,0.005487178038580411,0.04895468098124602,-0.044892403111048945,-0.026694706250489194,-0.1522748249946761,0.05892796137408916,0.10016377215768552,0.20349874398339135,-0.039288906480526894
3079,15.114873099999386,0.08783824663195822,0.11357680721691009,-0.10851710432022647,0.005358143762811744,0.04821421777228225,-0.0446053774158634,-0.026206906258301726,-0.1512746739247417,0.058734817676856184,0.09987833267009753,0.20649740695445784,-0.03988045949687091
3080,15.11899170000106,0.08805318947934825,0.11351079112735654,-0.10861759495494423,0.005231484836460659,0.04747866943841893,-0.044319301075855716,-0.025720536177605436,-0.15026001704891037,0.05853882658388012,0.09957741149994885,0.20944421933985358,-0.04045537050783612
3081,15.12300310000137,0.08826278741390928,0.11344061284907007,-0.10870913860910725,0.005107194109402519,0.04674810613523718,-0.044034187799552815,-0.025235670995028374,-0.1492311083647781,0.05834006927035832,0.09926116674010435,0.21233870689586243,-0.04101363772464999
3082,15.127431899993098,0.08850125496517394,0.11336739203964095,-0.10886294155559996,0.004985264068477238,0.04602259677406671,-0.0437500508994337,-0.024752384923276353,-0.14818820416070982,0.05813862691274207,0.09892975803449323,0.2151804057608438,-0.04155526342918902
3083,15.1313145999884,0.08870451604500922,0.11330238863585276,-0.10896280854965504,0.004865686841267379,0.04530220901093064,-0.04346690329195068,-0.0242707513938288,-0.14713156296515312,0.05793458066893753,0.09858334652126055,0.2179688625307118,-0.04208025395892557
3084,15.135927299998002,0.08890752359386812,0.11322809906459454,-0.1090340744073281,0.004748454199910373,0.0445870092357382,-0.043184757497647566,-0.02379084304990995,-0.1460614454955877,0.05772801165857994,0.09822209477616659,0.22070363433230206,-0.042588619690954226
3085,15.139629299999797,0.08909272039795788,0.11317267235750872,-0.10911349417810845,0.004633557564943587,0.04387706256172729,-0.04290362564137452,-0.02331273173973408,-0.144978114607122,0.05751900094338553,0.09784616675625318,0.22338428889461787,-0.0430803750251043
3086,15.143730399999184,0.08927610121354469,0.11311112025199167,-0.10919870373924012,0.004520988009180892,0.04317243281515865,-0.04262351945259912,-0.02283648851002313,-0.14388183524074633,0.057307629507585674,0.09745572774379488,0.2260104046179487,-0.043555538366145265
3087,15.152620799999568,0.08970110148766482,0.11299961930214371,-0.10940538010959235,0.004410736261619452,0.042473182525263206,-0.042344450265813474,-0.02236218359979529,-0.14277287437125177,0.057093978238447585,0.0970509442905525,0.22858157064085483,-0.04401413210509223
3088,15.15652720000071,0.08989819955524968,0.11298034354443864,-0.10951970241958202,0.004302792711375427,0.04177937291444402,-0.042066429021036716,-0.021889886434422953,-0.14165150095482582,0.056878127906885775,0.09663198416234595,0.23109738690501241,-0.04445618259961846
3089,15.161517000000458,0.09010932423926567,0.1129447010179367,-0.10963912551914447,0.004197147411647347,0.04109106388873451,-0.04178946626441273,-0.02141966561995834,-0.14051798587633396,0.05666015914816861,0.09619901628396292,0.23355746421791346,-0.04488172015358255
3090,15.16525669999828,0.0903443197980414,0.11291486771746982,-0.10976337232714233,0.004093790083705864,0.040408314028514546,-0.04151357214890245,-0.02095158893772501,-0.13937260189629785,0.0564401524427239,0.09575221068442019,0.23596142431341538,-0.045290778995678085
3091,15.170831800001906,0.09057231062038701,0.11289921660830404,-0.10990438742090876,0.003992710120908614,0.03973118057948581,-0.04123875643507045,-0.020485723339173405,-0.1382156235975806,0.05621818809704754,0.09529173844259337,0.23830889991013482,-0.04568339725721374
3092,15.175330599988229,0.09080193043605238,0.11289643799103627,-0.11002192294650777,0.003893896592738913,0.03905971944390741,-0.04096502849196529,-0.020022134940998495,-0.1370473273317907,0.05599434622471942,0.09481777163323092,0.2405995347676795,-0.04605961694903177
3093,15.182898699989892,0.09130740136390947,0.11287232214782482,-0.11041889635770157,0.003797338248867043,0.03839398517209302,-0.04069239729809291,-0.019560889020517547,-0.13586799116541484,0.05576870672753071,0.09433048327336742,0.2428329837407151,-0.0464194839375733
3094,15.18761509998876,0.09154025187865125,0.1128903188706996,-0.11058227229291001,0.003703023523232879,0.03773403095417081,-0.04042087144248268,-0.019102050011306087,-0.13467789482568943,0.055541349276726805,0.09383004726915078,0.24500891283086312,-0.04676304792009872
3095,15.191834699988249,0.09178203571269941,0.11290940515781588,-0.11074738243621501,0.003610940538148648,0.03707990861210726,-0.040150459125845334,-0.018645681499089833,-0.13347731964622075,0.05531235329437045,0.09331663836309882,0.24712699923642642,-0.04709036239907181
3096,15.19869839999592,0.0923004655039854,0.11292689237564398,-0.1112133042923373,0.0035210771084206133,0.036431668591996084,-0.039881168161822446,-0.01819184621789042,-0.1322665485123635,0.05508179793482911,0.09279043208179924,0.24918693139993872,-0.04740148465571627
3097,15.202157199993962,0.09253364331914403,0.11292331197969066,-0.11144305722496406,0.003433420745488488,0.035789359956613385,-0.039613005978326746,-0.017740606046422653,-0.13104586580636665,0.05484976206639079,0.09225160468406703,0.2511884090535356,-0.047696475722753595
3098,15.206476299994392,0.09277934308288435,0.11293737239538965,-0.1116117099431336,0.0033479586615814028,0.03515303037824057,-0.03934597961897253,-0.017292022004740924,-0.12981555735229797,0.054616324253012216,0.09170033310957253,0.25313114326214403,-0.04797540035633134
3099,15.210784299997613,0.09301846485148388,0.11293407256868083,-0.11174674800890708,0.0032646777738892375,0.03452272613175579,-0.039080095744595415,-0.016846154251132426,-0.12857591036075694,0.05438156273620321,0.0911367949279533,0.255014856464489,-0.04823832700715106
3100,15.21471780000138,0.09323442697443002,0.11291028573710848,-0.11190743679499955,0.00318356470874816,0.03389849208799501,-0.03881536063486068,-0.01640306207925471,-0.1273272133733874,0.05414555541705114,0.0905611682884225,0.25683928251191634,-0.04848532779080547
3101,15.218968499990297,0.09346009490318594,0.11291400833311983,-0.11202008561858888,0.00310460580583921,0.03328037170738385,-0.038551780189959466,-0.015962803915514957,-0.1260697562072004,0.0539083798383896,0.0899736318698857,0.2586041667050289,-0.0487164784573342
3102,15.223778399988078,0.0936814195902108,0.11291215595227426,-0.112137397927145,0.003027787122398781,0.03266840703384098,-0.03828935993239207,-0.01552543731668845,-0.12480382989871802,0.053670113167115466,0.08937436483157801,0.2603092658281366,-0.04893185836000798
3103,15.22751430000062,0.09388980838864275,0.11290298730619484,-0.1122490860058332,0.0029530944374398602,0.03206263868895406,-0.03802810500883732,-0.015091018967773626,-0.12352972664794848,0.053430832176657846,0.08876354676423304,0.2619543481815215,-0.04913155042335118
3104,15.23137529999076,0.09409221639383225,0.11288727660934941,-0.11237313119374157,0.0028805132559829153,0.031463105866428955,-0.037768020192107385,-0.01465960468008108,-0.12224773976220331,0.05319061322960272,0.08814135764179443,0.2635391936115165,-0.04931564111041267
3105,15.235395499999868,0.0943200821222904,0.11287356841836976,-0.11252306338826472,0.0028100288132953256,0.0308698463268129,-0.03750910988318719,-0.01423124938955374,-0.12095816359976704,0.0529495322604771,0.0875079777736809,0.265063593538402,-0.049484220389295376
3106,15.239990799993391,0.09451527039755797,0.11286677446317933,-0.11267253233680069,0.002741626079138263,0.030282896392492247,-0.03725137811335769,-0.01380600715531541,-0.11966129351342979,0.05270766475869613,0.08686358775761535,0.26652735098212155,-0.04963738169895464
3107,15.244962500000838,0.09472605289040424,0.11286716350654523,-0.1128560525664198,0.002675289762019941,0.029702290942965625,-0.03699482854640221,-0.013383931158444827,-0.11835742579389452,0.05246508575167676,0.08620836843302765,0.26793028058581886,-0.04977522191427596
3108,15.248498599990851,0.0949390030317722,0.11285933883326396,-0.11304694381476313,0.0026110043134541638,0.02912806341039296,-0.036739464480894816,-0.012965073700972418,-0.11704685761306965,0.05222186978812148,0.08554250083504053,0.26927220863719736,-0.04989784131044262
3109,15.252748899991277,0.09515201832202641,0.11283882224573236,-0.11322108937968574,0.0025487539322231246,0.028560245775420937,-0.03648528885256995,-0.012549486205096891,-0.11572988696725783,0.051978090921475616,0.08486616614904773,0.2705529730877069,-0.050005343526604316
