,time,x,y,z,vx,vy,vz,ax,ay,az,jx,jy,jz
2791,12.053287000002456,-0.017317659696291177,-0.05629886074072385,0.014469669281635171,0.001714455005470612,-0.01121369962737945,0.019578545490450967,0.06180343137823497,0.016790529283169823,0.03191271366912732,0.17036347611836475,0.14431995771586054,-0.10973342544271707
2792,12.05706080001255,-0.017301509560933875,-0.05635946863293195,0.014528153863843384,0.0019828488750187156,-0.01113987392112585,0.01971531485681704,0.06253806746082236,0.017415329014529354,0.03143396493951329,0.16997025726590845,0.14512171348318154,-0.1120075789888639
2793,12.061238900001626,-0.017279779494916346,-0.05641054947083904,0.014574330254230763,0.002254410408565419,-0.011063343224809882,0.019849995535532624,0.06327093733117604,0.018043553358445794,0.030945389440254087,0.16954532359914573,0.14590661198431804,-0.11428535039521927
2794,12.06564490000892,-0.017271265803740735,-0.056466381174481696,0.014612831299690746,0.0025291316827533885,-0.010984092916957608,0.019982545059750972,0.06400190378594532,0.018675129052923997,0.030446972370020912,0.16908852450990658,0.14667442900739963,-0.11656641252839667
2795,12.071673500002362,-0.01723656669401655,-0.05653790877869409,0.014694290717003976,0.0028070041807110925,-0.010902108694703342,0.020112920902488094,0.06473082898403218,0.01930998187298803,0.029938700347341307,0.16859971476499247,0.14742494237367396,-0.11885043532447637
2796,12.07593460001226,-0.017216752137435714,-0.05657331780671352,0.014740631761239954,0.00308801878935438,-0.010817376577920491,0.020241080482794528,0.06545757446989522,0.019948036639577112,0.029420561423085637,0.16807875457444307,0.1481579319914937,-0.1211370858228263
2797,12.079965900004026,-0.017203331651205488,-0.05660709838214329,0.014776719601167628,0.0033721657967892196,-0.010729882913313058,0.020366981171980405,0.06618200119714515,0.02058921722867396,0.028892545092804013,0.16752550965910035,0.14887317991014848,-0.12342602820067175
2798,12.08410810001078,-0.017198485701542716,-0.056642393826694455,0.01480808877460524,0.0036594348898168366,-0.010639614378466845,0.02049058029989308,0.06690396955242899,0.02123344658066487,0.028354642308910532,0.1669398513174455,0.14957047037352944,-0.12571692380841737
2799,12.088940700006788,-0.017198485701542716,-0.056642393826694455,0.01480808877460524,0.003949815151542486,-0.010546557985859335,0.02061183516124666,0.06762333937960018,0.021880646709930722,0.027806845492711604,0.16632165649168482,0.1502495898736154,-0.12800943120572558
2800,12.092563600002904,-0.017198485701542716,-0.056642393826694455,0.01480808877460524,0.004243295059089079,-0.010450701086827259,0.02073070302200274,0.06833997000417164,0.022530738714668087,0.027249148546275123,0.16567080783306137,0.15091032720376749,-0.13030320619835462
2801,12.096576100011587,-0.017314054283650803,-0.05679431976711962,0.014924824389424992,0.004539862481416895,-0.010352031375490843,0.020847141125801518,0.06905372025804825,0.02318364278693961,0.026681546864137193,0.16498719376636875,0.15155247351181944,-0.13259790187575998
2802,12.100865400003386,-0.017215605171058204,-0.05679693919892255,0.014983680779893458,0.004839504677250579,-0.010250536892633803,0.02096110670044238,0.0697644485045357,0.023839278222952936,0.02610403734484308,0.16427070855364378,0.15217582235294894,-0.13489316864946393
2803,12.104731500003254,-0.01721705367225831,-0.0568004394475645,0.01492117561487302,0.005142208293114634,-0.010146206029538139,0.021072556964412997,0.070472012663622,0.024497563433567193,0.025516618402319235,0.16352125235701484,0.1527801697423173,-0.13718865429219645
2804,12.109058800007915,-0.017235765478217573,-0.056859385526276306,0.01492085092113578,0.0054479593614785455,-0.01003902753177279,0.02118144913346607,0.07117627023752793,0.025158415955026006,0.02491928997707314,0.1627387313006818,0.15336531420746505,-0.13948400397781188
2805,12.113398700006655,-0.017246240585552183,-0.05690115484392805,0.014933994555124681,0.005756743299012715,-0.009928990502935239,0.021287740427243063,0.07187707833652249,0.025821752459915876,0.02431205354721775,0.1619230575320037,0.15393105684045014,-0.14177886032198483
2806,12.11730019999959,-0.01724615409046755,-0.05694444161606845,0.014966542411588837,0.006068544904956311,-0.009816084408345086,0.02139138807594418,0.07257429370499957,0.02648748876834869,0.023694912139317154,0.16107414928166955,0.15447720134971624,-0.14407286342368833
2807,12.1213975000137,-0.017247534593876356,-0.0569897488923302,0.014995188831830208,0.006383348359598167,-0.00970029907868861,0.021492349327043758,0.07326777274781207,0.027155539859367115,0.023067870339050025,0.1601919309229285,0.15500355411167774,-0.14636565090745687
2808,12.126115100007157,-0.017250311080649595,-0.05704081271552879,0.015006298414908073,0.006701137222871809,-0.009581624713613391,0.02159058145205036,0.07395737155685972,0.027825819882571618,0.02243093430168776,0.15927633302985522,0.1555099242220081,-0.14865685796643713
2809,12.1306295000104,-0.017253442134808592,-0.057096563859156214,0.015018570799613058,0.007021894433065666,-0.009460051885272002,0.021686041753310768,0.07464294593792657,0.02849824216996788,0.021784111762383967,0.15832729243462693,0.15599612354661752,-0.15094611740622949
2810,12.13510590000078,-0.017257348065541505,-0.05714635815684535,0.01502918693537611,0.007345602305649528,-0.009335571541813827,0.021778687570857203,0.07532435143776386,0.02917271924803321,0.021127412046272054,0.15734475228378828,0.1564619667723067,-0.1532330596895233
2811,12.14003870000306,-0.017257510901840044,-0.057288438137730435,0.01500712647429276,0.007672242532218278,-0.009208175010824115,0.021868476289297004,0.07600144337141403,0.029849162850000673,0.02046084607836753,0.15632866209348079,0.15690727145708322,-0.15551731298152813
2812,12.144453200002316,-0.01726440025504493,-0.05733004137372862,0.015018213848085021,0.008001796179553959,-0.009077854002709352,0.021955365344743807,0.07667407684977151,0.030527483928359467,0.019784426393271607,0.1552789778036137,0.15733185808012742,-0.1577985031962033
2813,12.148774300003424,-0.017271712834003573,-0.05736153063104706,0.015027446727098754,0.008334243688807186,-0.008944600614028035,0.0220393122317894,0.07734210680737606,0.031207592667570026,0.019098167144672808,0.1541956618309527,0.15773555009139417,-0.16007625404328932
2814,12.153021000005538,-0.0173113381514397,-0.057410396508864626,0.015014113281253547,0.00866956487479888,-0.008808407330765948,0.022120274510515226,0.07800538803043341,0.03188939849699226,0.018402084114643256,0.1530786831211033,0.15811817396083758,-0.16235018707614304
2815,12.157506800009289,-0.017317967830891384,-0.0574478867994206,0.015025252245820575,0.009007738925443275,-0.008669267031555045,0.022198209813542733,0.07866377518505849,0.032572810104025234,0.017696194722726353,0.15192801719936544,0.1584795592272454,-0.16461992174037934
2816,12.16133990000526,-0.01732839532042244,-0.05748215533564148,0.015021054759393491,0.009348744401293126,-0.008527172990835108,0.022273075853121597,0.07931712284573597,0.033257735447456686,0.01698051803481239,0.15074364622043654,0.15881953854666947,-0.16688507542332034
2817,12.165431300003547,-0.017349656084712065,-0.05751797557752066,0.015050494823450429,0.00969255923520798,-0.008382118881957347,0.022344830428255004,0.07996528552399293,0.033944081771020644,0.01625507477179875,0.1495255590169385,0.1591379477404385,-0.16914526350425488
2818,12.1697669000132,-0.01735874003968131,-0.05754797853712761,0.01506229623697446,0.01003916073214644,-0.008234098780228977,0.022413431431861027,0.08060811769727864,0.034631755617161336,0.015519887318031363,0.1482737511467455,0.15943462584274065,-0.1714000994055092
2819,12.173048200013,-0.01735874003968131,-0.05754797853712761,0.01506229623697446,0.010388525569083342,-0.008083107165897916,0.02247883685796913,0.08124547383804663,0.035320662841001584,0.014774979729524055,0.1469882249390892,0.15970941514776255,-0.1736491946443299
2820,12.176884700005758,-0.01735874003968131,-0.05754797853712761,0.01506229623697446,0.010740629795052645,-0.007929138927076753,0.022541004808950747,0.08187720844303359,0.036010708624513686,0.014020377741952429,0.14566898953941912,0.15996216125637214,-0.1758921588855801
2821,12.181781900013448,-0.01737559938925043,-0.05771061233015068,0.015149597240932814,0.011095448831316931,-0.0077721893626051045,0.0225998935027829,0.08250317606272996,0.03670179749089062,0.01325610877841882,0.14431606095299587,0.1601927131223328,-0.17812859999525116
2822,12.186389400012558,-0.017366866332439182,-0.05772948841916701,0.01508833426250274,0.011452957471664296,-0.0076122541848495495,0.02265546128034386,0.08312323133103641,0.03739383331911538,0.012482201956984922,0.1429294620871947,0.16040092309803508,-0.1803581240947909
2823,12.19061530000181,-0.017355292937406227,-0.05779820977475894,0.015082890027407456,0.011813129882833399,-0.007449329522440265,0.02270766661273985,0.08373722899510071,0.03808671935872639,0.011698688097968703,0.14150922279249653,0.16058664697973232,-0.18258033561625073
2824,12.194617700006347,-0.017357545279467403,-0.057840071131919316,0.015084742670386755,0.012175939605067413,-0.007283411922943601,0.022756468108661772,0.08434502394532957,0.038780358244776776,0.010905599731002129,0.14005537990214417,0.16074974405226572,-0.1847948373582519
2825,12.19895470001211,-0.017366437937656208,-0.05787774138674607,0.015086171760242946,0.012541359552797565,-0.007114498355469753,0.02280182452177092,0.08494647124556962,0.03947465201298517,0.010102971101846258,0.1385679772704417,0.16089007713326609,-0.18700123054277162
2826,12.203033400001004,-0.017367822091050984,-0.05790390294537089,0.015086218371289822,0.012909362015456984,-0.006942586213214706,0.022843694758112553,0.08554142616345123,0.04016950211507575,0.009290838178960256,0.1370470658096751,0.16100751261681936,-0.1891991148727484
2827,12.206430200007162,-0.017367822091050984,-0.05790390294537089,0.015086218371289822,0.013279918658425491,-0.006767673315935598,0.022882037883556115,0.08612974420088951,0.04086480943430529,0.008469238659820877,0.13549270352563292,0.1611019205165823,-0.1913880885905058
2828,12.211511300003622,-0.017530799270489218,-0.058052195247582525,0.015178286595063902,0.013653000524106075,-0.0065897579123587215,0.02291681313126098,0.08671128112473549,0.041560474301174544,0.0076382119769890225,0.13390495555170642,0.16117317450833454,-0.19356774853699452
2829,12.215586800011806,-0.01738389983325055,-0.05798561225208515,0.01516663672608277,0.014028578033133694,-0.006408838682519416,0.022947979909166683,0.08728589299757204,0.04225639650932168,0.006797799303919995,0.1322838941815479,0.1612211519719543,-0.19573769021185225
2830,12.219904900004622,-0.017356910964987687,-0.057995451148958495,0.015119309923765183,0.014406620985716956,-0.006224914740033063,0.022975497807506504,0.08785343620864858,0.04295247533159503,0.005948043560514057,0.13062959890026618,0.16124573403280365,-0.19789750783427937
2831,12.223984800002654,-0.0173551275974149,-0.058038830567949944,0.015109126638724067,0.014787098563113277,-0.006037985634296402,0.022999326606343247,0.0884137675049484,0.04364860953630281,0.005088989418403859,0.12894215641413795,0.16124680560251042,-0.20004679440472872
2832,12.228065300005255,-0.01735120629910808,-0.05807822139493135,0.015111385386210686,0.015169979329237991,-0.00584805135261845,0.02301942628312623,0.0889667440223823,0.04434469740363704,0.0042206833059753555,0.1272216606788144,0.1612242554191342,-0.20218514176740757
2833,12.232451100004257,-0.017353180545555357,-0.0581172207382853,0.015117255879817935,0.015555231232407958,-0.005655112322280301,0.023035757020268277,0.08951222331710189,0.0450406367422691,0.0033431734131188265,0.12546821292600244,0.16117797608670384,-0.20431214067358966
2834,12.235767400008626,-0.017353180545555357,-0.0581172207382853,0.015117255879817935,0.01594282160722017,-0.005459169412523112,0.023048279212741683,0.09005006339692583,0.0457363249061142,0.0024565096957066394,0.12368192168859969,0.16110786411411446,-0.20642738084573553
2835,12.24053220001224,-0.017566732482419235,-0.05824160848921897,0.015167765343513946,0.01633271717656589,-0.005260223936463572,0.023056953475691856,0.09058012275287235,0.04643165881126181,0.0015607438797943835,0.12186290282426442,0.16101381995337172,-0.20853045104241869
2836,12.244596200005615,-0.017369389307281265,-0.058286129004049184,0.015211863248986091,0.016724884053780687,-0.005058277652936176,0.023061740652067415,0.09110226039079108,0.047126534953068906,0.0006559294655420002,0.12001127953739998,0.16089574803717016,-0.2106209391240551
2837,12.248696400012705,-0.01735521880885403,-0.05830585866650652,0.015148000185033629,0.017119287744930753,-0.004853332768261647,0.02306260182026547,0.09161633586308753,0.047820849423413116,-0.0002578782691484284,0.11812718239953464,0.1607535568157925,-0.21269843211943315
2838,12.252237300010163,-0.01735521880885403,-0.05830585866650652,0.015148000185033629,0.017515893151235945,-0.004645391937940843,0.023059498301790948,0.09212220930053343,0.0485144979281027,-0.0011806222652815863,0.11621074936807764,0.16058715879331756,-0.21476251629304138
2839,12.257361600000875,-0.01754212490081405,-0.05847955080191931,0.015236240844351394,0.017914664571629865,-0.004434458268273483,0.02305239166892884,0.09261974144415601,0.049207375804440324,-0.0021122436797078475,0.1142621258034325,0.1603964705631243,-0.21681277721319128
2840,12.26152600000205,-0.017355759380736746,-0.058476171406763575,0.015219519995053565,0.018315565705457365,-0.004220535317901027,0.023041243752428088,0.09310879367719854,0.04989937803893736,-0.003052681882355526,0.11228146448444898,0.16018141284267987,-0.218848799820931
2841,12.26492660000804,-0.017355759380736746,-0.058476171406763575,0.015219519995053565,0.018718559655309733,-0.0040036270992730785,0.02302601664919577,0.09358922805714505,0.05059039928517556,-0.004001874453759742,0.11026892562219609,0.15994191050759907,-0.22087016849974617
2842,12.268404300004477,-0.017355759380736746,-0.058476171406763575,0.015219519995053565,0.019123608929997832,-0.0037837380800367043,0.023006672730000403,0.09406090734780156,0.05128033388181267,-0.0049597571828911766,0.10822467687203906,0.15967789262496415,-0.22287646714604326
2843,12.27391850001004,-0.01737332834093531,-0.05862889645241279,0.015291333407993818,0.019530675447663536,-0.0035608731843480446,0.022983174647183083,0.09452369505142676,0.051969075870728874,-0.005926264065287964,0.10614889334400349,0.15938929248589215,-0.2248672792404113
2844,12.277991200011456,-0.017373199729213414,-0.058649536955671225,0.01535098139802615,0.019939720539029662,-0.0033350377941056344,0.022955485342375268,0.09497745544090452,0.05265651901531089,-0.006901327301493929,0.10404175761140962,0.15907604763733768,-0.22684218791965588
2845,12.282499700013432,-0.017384799812270087,-0.05867317960627993,0.01539558821677527,0.02035070495078849,-0.003106237750104866,0.022923568054221802,0.09542205359195136,0.05334255681887063,-0.007884877295806359,0.10190345971776059,0.15873809991311882,-0.22880077604959978
2846,12.286357600009069,-0.017394022915664942,-0.05875474842469088,0.015435848285926423,0.02076358884912893,-0.002874479353113028,0.022887386326107876,0.0958573554153504,0.05402708254319505,-0.008876842655336479,0.09973419718186895,0.15837539546415397,-0.23074262629864462
2847,12.2906124000001,-0.017431577093148444,-0.05877989810399347,0.015477800548515507,0.0211783318234025,-0.0026397693648643828,0.022846904013888617,0.09628322768920514,0.0547099892272238,-0.009877150189385793,0.09753417500120556,0.15798788478789794,-0.23266732121208694
2848,12.294851600003312,-0.017444948906780524,-0.05882623303193496,0.015511072392232369,0.021594892889928233,-0.002402115008974759,0.022802085293620076,0.09669953809120535,0.05539116970585111,-0.010885724909141366,0.09530360565345591,0.15757552275696604,-0.23457444328718302
2849,12.2989355000027,-0.01749566770694414,-0.058884581098523056,0.015515060683768784,0.022013230495936658,-0.0021615239717751454,0.022752894669290206,0.0971061552308973,0.056070516628848155,-0.011902490027693191,0.09304270909626895,0.15713826864693417,-0.23646357504895493
2850,12.303131200009377,-0.017499239899789385,-0.05896359802309238,0.015514185948790536,0.02243330252365284,-0.0019180044030637875,0.02269929698054838,0.09750294868195027,0.05674792247990246,-0.01292736696037669,0.09075171276518508,0.1566760861633034,-0.23833429912673046
2851,12.307240900001489,-0.017507933459924283,-0.05902360169487079,0.015529122472710585,0.02285506629451845,-0.0016715649167763093,0.022641257410432138,0.09788978901441146,0.05742327959577082,-0.013960275325443451,0.08843085156972981,0.15618894346761852,-0.24018619833140895
2852,12.311464000013077,-0.017532009854043372,-0.05911458732737555,0.015543225813278834,0.023278478573552842,-0.0014222145915733675,0.02257874149308976,0.09826654782694169,0.05809648018554194,-0.015001132945063212,0.08608036788766012,0.15567681320272986,-0.24201885573344536
2853,12.315620800000032,-0.0175341167938042,-0.05918654524400355,0.015600024182664528,0.023703495573852908,-0.001169962971345369,0.022511715121497227,0.09863309777902403,0.058767416350004965,-0.016049855846660053,0.08370051155735042,0.1551396725171859,-0.2438318547415444
2854,12.31962829999975,-0.017575507331085375,-0.059246192085505675,0.015608919818894954,0.024130072961231607,-0.0009148200656338168,0.022440144555168143,0.09898931262313704,0.05943598010112033,-0.017106358264585734,0.08129153986830549,0.15457750308874654,-0.24562477918205566
2855,12.32401710000704,-0.017590247407858074,-0.05927389582556826,0.015578258647923797,0.024558165858994962,-0.0006567963499688602,0.02236399642785518,0.09933506723688384,0.06010206338158881,-0.018170552642133003,0.07885371754978857,0.15399029114700566,-0.2473972133790588
2856,12.328578500004369,-0.017590247407858074,-0.05927389582556826,0.015578258647923797,0.024987728852857456,-0.00039590276612263864,0.022283237755241565,0.0996702376550692,0.06076555808451515,-0.019242349633891823,0.07638731675755295,0.15337802749511248,-0.24914874223512823
2857,12.33229740000388,-0.017784431748907883,-0.05940191018845104,0.01560891047033606,0.025418715995995565,-0.00013215072227802739,0.02219783594262111,0.09999470110171653,0.06142635607316238,-0.020321658108451254,0.0738926170586657,0.15274070753058022,-0.25087895131276877
2858,12.337218900007429,-0.01765036634097664,-0.05941078561040551,0.01558821251504721,0.02585108081423923,0.00013444790688759534,0.022107758792565428,0.10030833602201637,0.06208434920079334,-0.021408385151449785,0.07136990541441289,0.15207833126517242,-0.25258742691651126
2859,12.340661000009275,-0.017641131086914678,-0.05945421444448659,0.01562699359622926,0.02628477631140092,0.00040388078020391944,0.022012974512576996,0.10061102211419774,0.06273942933059518,-0.022502436068976745,0.06881947616127598,0.15139090334385666,-0.25427375617565773
2860,12.344751100012218,-0.017650548686798308,-0.059465985613919733,0.015603406353825108,0.02671975497474201,0.0006761350900949586,0.021913451722726573,0.10090264036131434,0.06339148835568278,-0.023603714391327437,0.06624163098996999,0.15067843306281523,-0.25593752712766377
2861,12.34868070000084,-0.017665900279566462,-0.05952576519150214,0.015630666993664034,0.02715596878057605,0.0009511975627523178,0.021809159463273525,0.10118307306293721,0.06404041821917696,-0.024712121877114582,0.06363667892253444,0.14994093438650352,-0.2575783288021445
2862,12.353170300004422,-0.017674138411347996,-0.0595498246752058,0.015598927314091657,0.027593369200008416,0.001229054458394786,0.02170006720226753,0.10145220386674525,0.06468611093435322,-0.02582755851773873,0.061004936287468434,0.14917842596374775,-0.2591957513054906
2863,12.357322700001532,-0.017689852733166988,-0.05960230564233086,0.015581321772588853,0.028031907204811798,0.0015096915716145513,0.021586144843130158,0.10170991780000577,0.06532845860485728,-0.026949922542220176,0.058346726692902,0.14839093114287322,-0.2607893859060807
2864,12.361286800005471,-0.01769600711088819,-0.059649893716789776,0.015571414388737995,0.028471533273437,0.00179309423181032,0.02146736273221476,0.10195610130093637,0.06596735344498313,-0.028079110422394936,0.055662380997796135,0.14757847798585425,-0.2623588251200766
2865,12.365040300006513,-0.01769600711088819,-0.059649893716789776,0.015571414388737995,0.02891219739715847,0.0020792473037076,0.02134369166634302,0.10219064224993998,0.06660268780000934,-0.029215016878477204,0.05295223728116491,0.1467410992814778,-0.26390366279778693
2866,12.369465000010678,-0.017883859692630937,-0.05978309899227151,0.015597257836633594,0.029353849086354175,0.0023681351879664015,0.021215102900316616,0.10241343000070462,0.06723435416658952,-0.030357534884990614,0.05021664080931358,0.14587883255751213,-0.26542349421058303
2867,12.373726300007547,-0.017722535778131147,-0.05980444526407164,0.015541337916392924,0.029796437376919286,0.0026597418218765765,0.02108156815440249,0.102624355411159,0.067862245213193,-0.031506555677070544,0.047455944001086985,0.14499172009187286,-0.26691791613835214
2868,12.37812410001061,-0.017729844406250556,-0.05984201785811239,0.01552857492853353,0.03023991083681315,0.0029540506801410097,0.020943059621790126,0.10282331087427572,0.06848625380059187,-0.03266196875713977,0.04467050639112332,0.14407980892277789,-0.2683865269574729
2869,12.382115400003386,-0.017750966031770885,-0.05987797302036622,0.015516526630503043,0.03068421757273891,0.00325104477574686,0.020799549976019318,0.10301019034871277,0.06910627300238942,-0.033823661901959616,0.04186069459110893,0.14314315085788332,-0.2698289267292968
2870,12.386708600010024,-0.01776894767528598,-0.059906797090725314,0.015511030060511735,0.031129305236955042,0.0035507066609250363,0.020651012378376896,0.1031848893892846,0.069722196125586,-0.034991521170058666,0.03902688224903034,0.14218180248239326,-0.27124471728912003
2871,12.3920652000088,-0.01776894767528598,-0.059906797090725314,0.015511030060511735,0.03157512103421792,0.0038530184281980865,0.020497420485260782,0.10334730517725463,0.07033391673117767,-0.036165430909540934,0.03616945000642067,0.14119582516613627,-0.27263350233562744
2872,12.395493400006671,-0.01776894767528598,-0.059906797090725314,0.015511030060511735,0.03202161172885473,0.0041579617115166286,0.02033874845550982,0.10349733655043986,0.07094132865478377,-0.037345273766275645,0.03328878545359798,0.1401852850696011,-0.2739948875207922
2873,12.3990371000109,-0.01797246982497216,-0.06001547164527605,0.01554175003118521,0.03246872365196582,0.004465517687484459,0.020174970957697817,0.10363488403311874,0.07154432602729874,-0.03853093069247046,0.03038528308289375,0.13915025314892568,-0.2753284805402128
2874,12.403198600004544,-0.017892628288004978,-0.06003715849779579,0.015459505017632807,0.03291640270875567,0.004775667076672434,0.020006063177390173,0.10375984986573306,0.07214280329556381,-0.039722280955630185,0.027459344239870422,0.13809080515983177,-0.27663389122387083
2875,12.406649200012907,-0.017892628288004978,-0.06003715849779579,0.015459505017632807,0.03336459438599184,0.0050883901450212085,0.019832000824361415,0.10387213803437564,0.07273665524305445,-0.040919202147902706,0.024511377072527298,0.13700702166049902,-0.27791073162729013
2876,12.41017770000326,-0.017892628288004978,-0.06003715849779579,0.015459505017632807,0.033813243759590716,0.005403666705332878,0.01965276013977202,0.1039716543000558,0.07332577701057887,-0.04212157019581397,0.021541796478494798,0.1358989880133723,-0.27915861612307713
2877,12.417345699999714,-0.017971521582049368,-0.06012061025167799,0.01544668301179197,0.03426229550232923,0.00572147611885158,0.019468317903302963,0.10405830622773386,0.07391006411698352,-0.04332925937039398,0.018551024050217874,0.13476679438589584,-0.2803771614928228
2878,12.420993000007002,-0.017971521582049368,-0.06012061025167799,0.01544668301179197,0.03471169389168156,0.006041797296933074,0.019278651440246382,0.10413200321511598,0.0744894124798608,-0.04454214229769534,0.015539488018129892,0.13361053575016787,-0.28156598701934676
2879,12.425918600012665,-0.018223609023061506,-0.06024209390850874,0.015433482157897953,0.0351613828177796,0.006364608702803296,0.019083738628550638,0.10419265652120024,0.07506371843625423,-0.04576008996970605,0.01250762319181908,0.13243031188151058,-0.28272471457926235
2880,12.430163700002597,-0.018089926473170346,-0.0602571461043265,0.015396104163870078,0.0356113057914964,0.006689888353405883,0.01888355790581805,0.10424017929456585,0.07563287876335667,-0.04698297175565779,0.009455870899190127,0.13122622735595063,-0.28385296873584254
2881,12.43412520000129,-0.018115768199444913,-0.06028659585656951,0.015384606355896998,0.036061405952651227,0.007017613821338603,0.018678088276253623,0.10427448660139657,0.07619679069919687,-0.04821065541373108,0.006384678923624353,0.1299983915466046,-0.2849503768321663
2882,12.438224700003047,-0.018154833375120725,-0.06031712926355189,0.015384216998264592,0.03651162607833545,0.007347762236878609,0.018467309317563168,0.10429549545322976,0.07675535196330953,-0.04944300710315867,0.0032945014391424516,0.1287469186189637,-0.28601656908452366
2883,12.442165400003432,-0.01819711088418927,-0.06033850844189162,0.015384672913687378,0.03696190859135808,0.007680310290096464,0.018251201187799215,0.10430312483442233,0.07730846077738401,-0.05067989139672817,0.00018579894357444813,0.12747192752507366,-0.28705117867605884
2884,12.44555630000832,-0.018247846747607287,-0.060361866288887595,0.01538291986676402,0.037412195568809904,0.008015234233058841,0.01802974463215294,0.10429729572932538,0.07785601588588674,-0.051921171293684835,-0.0029409618102577404,0.12617354199660608,-0.28805384185062716
2885,12.449138400013908,-0.018298472820455398,-0.06039075090356851,0.015373059238696928,0.037862428750744824,0.008352509882119776,0.017802920989690454,0.10427793114915866,0.07839791657665227,-0.05316670823303554,-0.006085307885339085,0.12485189053681707,-0.28902419800684315
2886,12.453045500005828,-0.018350762816359462,-0.06041051459914524,0.015360765042821689,0.03831254954897718,0.008692112620300388,0.017570712200031827,0.10424495615857646,0.07893406270143856,-0.054416362107254715,-0.009246760233234804,0.12350710641138961,-0.2899618897922969
2887,12.457157600001665,-0.018403701448266672,-0.06042902097490363,0.015357996147500969,0.03876249905599357,0.009034017399756844,0.017333100809971178,0.1041982979019164,0.07946435469644203,-0.05566999127639297,-0.01242483376883087,0.12213932763815537,-0.29086656319791665
2888,12.461448300004122,-0.018454742299468793,-0.06045568256984491,0.015345759485862837,0.0392122180539778,0.0093781987443364,0.01709006998003605,0.10413788562912253,0.07998869360276756,-0.05692745258258913,-0.015619037447033529,0.12074869697569302,-0.2917378676524519
2889,12.465564300000551,-0.018514374407704544,-0.06050296609124029,0.015399839783029407,0.039661647023947706,0.009724630752221328,0.016841603490984347,0.10406365072133429,0.08050698108684894,-0.058188601364986235,-0.018828874341418965,0.11933536191079963,-0.2925754561170538
2890,12.469560400000772,-0.018514374407704544,-0.06050296609124029,0.015399839783029407,0.04011072615500247,0.010073287098660554,0.016587685750237113,0.10397552671613308,0.08101911946081479,-0.05945329147505229,-0.022053841724823532,0.11789947464483243,-0.293378985179927
2891,12.473581900005229,-0.01877169231777251,-0.060542296106907055,0.015377618133533865,0.040559395353678744,0.010424141038788819,0.016328301798245567,0.10387344933243814,0.08152501170279551,-0.06072137529230617,-0.025293431151864224,0.11644119207891845,-0.29414811515102807
2892,12.477796900013344,-0.018697140685115347,-0.06058112494012828,0.01534800321101882,0.04100759425341395,0.010777165410533128,0.016063437314790676,0.10375735649504303,0.08202456147716596,-0.06199270374044875,-0.028547128543378524,0.11496067579803038,-0.2948825101567867
2893,12.48217430000659,-0.018736337600884646,-0.06063952775660903,0.015353539534983888,0.0414552622241149,0.011132332637606218,0.01579307862521371,0.1036271883587846,0.08251767315471886,-0.06326712630389923,-0.03181441427277207,0.11345809205392686,-0.29558183823482415
2894,12.485572200006573,-0.018736337600884646,-0.06063952775660903,0.015353539534983888,0.041902338381830176,0.011489614732586702,0.015517212706575873,0.10348288733233613,0.08300425183276405,-0.0645444910447368,-0.035094763254261925,0.11193361174695601,-0.29624577142864267
2895,12.489692600007402,-0.018736337600884646,-0.06063952775660903,0.015353539534983888,0.04234876159852484,0.011848983300085502,0.015235827193745265,0.10332439810161675,0.08348420335514835,-0.06582464462004764,-0.0383876450330024,0.11038741040672045,-0.29687398588225966
2896,12.495398300001398,-0.01894246887379794,-0.06073731473818866,0.015395932359900097,0.042794470511955854,0.012210409539998164,0.014948910385409351,0.10315166765280914,0.08395743433219158,-0.06710743229967744,-0.04169252387707947,0.10881966817160364,-0.2974661619347609
2897,12.49907119999989,-0.0189860076695927,-0.06078390603561012,0.015316698812770957,0.04323940353564653,0.012573864250842693,0.014656451250011214,0.10296464529497718,0.0844238521605336,-0.0683926979843886,-0.04500885887135955,0.10723056976715707,-0.29802198421474585
2898,12.502995100003318,-0.0189860076695927,-0.06078390603561012,0.015316698812770957,0.04368349886895836,0.01293931783318253,0.01435843943160785,0.10276328268227608,0.08488336504288768,-0.06968028422442155,-0.04833610401317744,0.10562030448334822,-0.2985411417346363
2899,12.507060300005833,-0.0192110652725082,-0.06089214824613715,0.015281708768290539,0.04412669450725848,0.013306740293134273,0.014054865255648764,0.10254753383574723,0.08533588200769468,-0.07097003223845998,-0.05167370830984738,0.10398906615066998,-0.2990233279848204
2900,12.51120420001098,-0.0192110652725082,-0.06089214824613715,0.015281708768290539,0.04456892825218076,0.013676101245959641,0.013745719734673164,0.10231735516468977,0.08578131292867285,-0.07226178193299915,-0.05502111587798072,0.10233705311511254,-0.2994682410276042
2901,12.515229700002235,-0.019366660925219506,-0.06101182700498443,0.015224916731623303,0.04501013772197867,0.014047369919741232,0.013430994573924132,0.10207270548760174,0.0862195685442584,-0.07355537192211688,-0.05837776604459274,0.10066446821199888,-0.2998755835909438
2902,12.519704300008016,-0.019334833877556995,-0.061036980801342476,0.015106990816145176,0.04545026036196814,0.014420515159141624,0.013110682176878018,0.10181354605268302,0.0866505604769318,-0.07485063954764641,-0.06174309344998062,0.09897151873868527,-0.3002450631619298
2903,12.524049100000411,-0.019419049525378297,-0.06110045118113588,0.015039268073947107,0.04588923345505856,0.0147955054292454,0.01278477565068735,0.10153984055789247,0.087074201252425,-0.07614742089974998,-0.06511652815235343,0.09725841642612848,-0.30057639207999715
2904,12.52801150000596,-0.01948035202813618,-0.061152329435470186,0.015004505963634106,0.04632699413236971,0.015172308819483555,0.012453268811535611,0.10125155517055176,0.08749040431880505,-0.07744555083789188,-0.06849749573419484,0.09552537740932154,-0.3008692876298324
2905,12.53239950000716,-0.01954246260383353,-0.06120544344898446,0.014988780503919708,0.04676347938393284,0.01555089304763976,0.012116156189902177,0.10094865854648831,0.0878990840654288,-0.07874486301220986,-0.0718854174103386,0.09377262219660068,-0.30112347213394736
2906,12.536349900008643,-0.019608024105141637,-0.061251301200086906,0.014963515582466601,0.04719862606947389,0.015931225463937933,0.011773433035735694,0.10063112184870997,0.0883001558417637,-0.08004518988528331,-0.07527971013773599,0.0920003756378261,-0.3013386730448879
2907,12.539831500005675,-0.019608024105141637,-0.061251301200086906,0.014963515582466601,0.04763237092927674,0.016313273055210534,0.011425095323534272,0.10029891876560341,0.08869353597606941,-0.08134636275429723,-0.07867978672689388,0.09020886689143946,-0.30151462303704496
2908,12.544519200004288,-0.019869966430410762,-0.06135769041066898,0.014960668468109523,0.04806465059512437,0.01669700244914706,0.0110711397573308,0.09995202552864896,0.08907914179393563,-0.08264821177360075,-0.08208505595496203,0.08839832939040106,-0.30165106009803927
2909,12.549898900004337,-0.019818140099965423,-0.06142256423671883,0.01486057808401191,0.04849540160131608,0.017082379918622183,0.010711563775581618,0.09959042092964437,0.08945689163667109,-0.08395056597765853,-0.0854949226804465,0.08656900080701072,-0.30174772761964946
2910,12.55879910000658,-0.019865679780485902,-0.06148203664040088,0.014793999897743276,0.048924560395758626,0.01746937138610298,0.010346365555956916,0.09921408633743074,0.0898267048795388,-0.08525325330439291,-0.08890878795952613,0.08472112301661613,-0.30180437448825254
2911,12.56631870000274,-0.02009248792110385,-0.06163281536385931,0.014810922310347805,0.04935206335112904,0.017857942428134675,0.009975544020031092,0.09882300571411336,0.090188501949833,-0.08655610061891521,-0.0923260491639478,0.08285494206021297,-0.3018207551747443
2912,12.57158130001335,-0.020200190522977588,-0.06176318586965923,0.014802431637611262,0.04977784677610705,0.0182480582799041,0.009599098837871413,0.09841716563077094,0.09054220434479339,-0.08785893373764353,-0.09574610010047614,0.08097070810594117,-0.3017966298239087
2913,12.576482000004034,-0.020185251278336484,-0.061732764121314974,0.014636217866850588,0.05020184692667475,0.018639683839880128,0.00921703043252325,0.0979965552826467,0.0908877346493522,-0.08916157745280502,-0.09916833113187234,0.07906867540948223,-0.3017317643432048
2914,12.582077800005209,-0.020318883844701676,-0.061813223557761504,0.014486826394835532,0.050624000017481206,0.019032783674530495,0.008829339984390257,0.0975611665038146,0.09122501655370924,-0.09046385555732042,-0.10259212929937601,0.0771491022733626,-0.3016259304909412
2915,12.587862900007169,-0.020396641937084976,-0.061882849286075764,0.014473867197982732,0.05104424223326944,0.01942732202311425,0.008436029435507827,0.0971109937813137,0.09155397487073025,-0.09176559087006819,-0.10601687844666383,0.07521225100516914,-0.3014789059638051
2916,12.592087800003355,-0.02048811871837807,-0.0619637113861946,0.014424701083366642,0.05146250974036339,0.019823262802549084,0.008037101493708194,0.09664603426874406,0.0918745355531641,-0.09306660526152519,-0.10944195934525776,0.07325838787468304,-0.30129047448371576
2917,12.596824000007471,-0.020568947983270528,-0.062019328544600696,0.01437680259692595,0.05187873869821205,0.020220569612352725,0.007632559636675598,0.096166287799318,0.09218662571067415,-0.094366719679781,-0.1128667498213552,0.07128778306993863,-0.30106042588397125
2918,12.60191150000901,-0.020568947983270528,-0.062019328544600696,0.01437680259692595,0.05229286527098851,0.02061920573965765,0.007222408115889821,0.0956717568983605,0.09249017362667894,-0.09566575417692327,-0.11629062488405245,0.06930071065221381,-0.3007885561946574
2919,12.608913600008236,-0.020726366112102414,-0.062152766669080844,0.014329569112574414,0.052704825639241434,0.02101913416429829,0.0068066519604564795,0.09516244679525288,0.09278510877499768,-0.09696352793579079,-0.11971295685493274,0.06729744850995954,-0.30047466772728587
2920,12.612392800001544,-0.02077094789426909,-0.062166012677441575,0.014228535848667121,0.05311455601159664,0.0214203175639697,0.00638529698082249,0.09463836543481408,0.09307136183629601,-0.09825985929709104,-0.12313311549898853,0.0652782783116758,-0.3001185691586283
2921,12.61588570001186,-0.02084780102025945,-0.06225550350211215,0.014202733787286481,0.05352199263650626,0.021822718319456764,0.005958349772375087,0.09409952348811312,0.0933488647143277,-0.0995545657868786,-0.1265504681568474,0.06324348545774147,-0.2997200756137143
2922,12.62021690000256,-0.020897902564168055,-0.062284888119769045,0.01412533614021488,0.053927071814043236,0.02222629851993317,0.00552581771892284,0.09354593436270753,0.09361755055196816,-0.10084746414439094,-0.1299643798782707,0.06119335903120644,-0.29927900874795915
2923,12.62389100001019,-0.02096216546876627,-0.06233178298332046,0.014063624558618763,0.05432972990773857,0.022631019968329245,0.005087708996057065,0.09297761421230222,0.09387735374703524,-0.10213837035023787,-0.1333742135568929,0.05912819174755439,-0.2987951968283861
2924,12.627265700008138,-0.02096216546876627,-0.06233178298332046,0.014063624558618763,0.05472990335645877,0.023036844186767744,0.004644032574392063,0.09239458194582395,0.09412820996789271,-0.1034270996549408,-0.13677933006616866,0.05704827990344487,-0.29826847481390983
2925,12.632257100005518,-0.021229229890006168,-0.06244408099313873,0.014096376183917585,0.055127528686320655,0.02344373242206664,0.004194798222682662,0.09179685923590597,0.0943700561688316,-0.10471346660781802,-0.14017908839649446,0.05495392332444418,-0.2976986844346495
2926,12.636697800000547,-0.021080825213922363,-0.062366294420033754,0.01397669322154837,0.055522542522641244,0.02385164565130798,0.003740016510817505,0.09118447052677747,0.09460283060522436,-0.1059972850862118,-0.14357284579347113,0.052845425311754825,-0.2970856742702397
2927,12.64055520000693,-0.02110391584418431,-0.062390274311911784,0.013903718240008456,0.055914881601919805,0.02426054458747191,0.0032796988126865866,0.09055744304155289,0.09482647284844756,-0.10727836832505339,-0.14695995789727254,0.050723092587953406,-0.29642929982710775
2928,12.644563300011214,-0.02114136488987537,-0.06243498590734117,0.013880765026023352,0.05630448278384954,0.02467038968513482,0.00281385730892156,0.08991580678891575,0.09504092380056833,-0.10855652894676146,-0.15033977888308694,0.04858723524174704,-0.29572942361468463
2929,12.649420000001555,-0.02116210098044191,-0.062425755903125824,0.013791149047880563,0.05669128306335622,0.02508114114623076,0.0023425049895073576,0.08925959456919273,0.09524612570879078,-0.10983157899147,-0.15371166160259636,0.04643816667175876,-0.29498591522051787
2930,12.653939800002265,-0.02115883576970078,-0.062453803958450696,0.013758960786517442,0.05707521958266126,0.025492758925874992,0.0018656556562636503,0.08858884197981341,0.09544202217965833,-0.11110332994758114,-0.157074957726458,0.044276203529352916,-0.29419865138425444
2931,12.65966410000692,-0.02115883576970078,-0.062453803958450696,0.013758960786517442,0.05745622964336652,0.02590520273824858,0.0013833239251947167,0.08790358742015156,0.0956285581930078,-0.1123715927826386,-0.16042901788775188,0.042101665660511545,-0.2933675160704602
2932,12.664282800004004,-0.02140482744218962,-0.06250835161443567,0.013760994536572724,0.05783425071855818,0.026318432062543008,0.0008955252287062918,0.08720387209574328,0.0958056801156706,-0.11363617797451699,-0.16377319182635938,0.039914876046773275,-0.2924924005402421
2933,12.667792700012797,-0.02115857865790115,-0.06246732662945942,0.013591969554054253,0.058209220464927235,0.02673240614896369,0.0004022758176879984,0.08648974002187777,0.09597333571491705,-0.11489689554292265,-0.16710682853423509,0.03771616074524663,-0.29157320342164117
2934,12.67165320001368,-0.02113663151134568,-0.0625122119565212,0.013478633953378972,0.058581076734903696,0.027147084024791292,-9.640723654002665e-05,0.08576123802655722,0.09613147417163966,-0.11615355508120118,-0.17042927640153516,0.035505848827709914,-0.29060983077876157
2935,12.67568110000866,-0.02110982496011039,-0.0625557351800592,0.01339018713374149,0.05894975758880175,0.027562424500499855,-0.000600506040417676,0.08501841575282242,0.09628004609327138,-0.11740596578844581,-0.17373988336356452,0.033284272318810225,-0.2896021961796052
2936,12.680103700011388,-0.02109393168620511,-0.0625715022609715,0.013325024866298604,0.05931520130697315,0.027978386175930528,-0.001110001876473924,0.08426132566044084,0.09641900352643486,-0.11865393650190159,-0.17703799704850418,0.03105176613337432,-0.2885502207625781
2937,12.684053100005258,-0.021090858403920134,-0.06257842761814887,0.013263877232796687,0.059677346401966515,0.028394927446519905,-0.001624875201795705,0.08349002302695363,0.096548299969319,-0.11989727572965965,-0.1803229649258791,0.028808668012844648,-0.28745383330163715
2938,12.687473000012687,-0.021090858403920134,-0.06257842761814887,0.013263877232796687,0.06003613163068973,0.028812006509581777,-0.002145105646637913,0.08270456594807861,0.09666789038377939,-0.12113579168363589,-0.18359413445572836,0.026555318460854,-0.2863129702700461
2939,12.691534800003865,-0.021269582357824904,-0.06262770323196701,0.013214325004888434,0.06039149600657289,0.029229581370641064,-0.0026706720131757936,0.08190501533746655,0.09677773120715809,-0.12236929231282778,-0.18685085323843695,0.024292060677952518,-0.28512757590270815
2940,12.694976800004952,-0.020991843185789973,-0.06253390990432274,0.013076709839301136,0.06074337881172884,0.029647609849818887,-0.0032015522744009823,0.081091434925808,0.09687778036381946,-0.12359758533684302,-0.19009246916518927,0.022019240495501243,-0.28389760225704447
2941,12.702887600011309,-0.020877194843782493,-0.06250404886608231,0.012965843291104768,0.0610917196091086,0.03006604958826749,-0.0037377235731624113,0.0802638912592882,0.09696799727639882,-0.12482047827969404,-0.19331833056900427,0.01973720630874666,-0.2826230092723879
2942,12.707037500003937,-0.020833759371172454,-0.06248609111809635,0.012915793532468734,0.06143645825464933,0.030484858054653972,-0.004279162221353264,0.07942245369738793,0.0970483428767602,-0.1260377785038518,-0.19652778637631133,0.0174463090090911,-0.28130376482786273
2943,12.711444200002006,-0.020714047431722858,-0.06243527308266865,0.012908353647937123,0.06177753490941211,0.030903992551691684,-0.004825843699245145,0.07856719441002827,0.09711877961665955,-0.12724929324455203,-0.19972018625902593,0.01514690191557394,-0.2799398447987198
2944,12.71812280001177,-0.020645203307215344,-0.06240070526189842,0.012869735473910553,0.062114890051706756,0.03132341022271807,-0.0053777426549706095,0.07769818837405729,0.09717927147811016,-0.12845482964434674,-0.2028948807870844,0.012839340705579079,-0.27853123311109906
2945,12.722735900009866,-0.0205947838381666,-0.0623906984131583,0.01280344872500297,0.062448464489200675,0.0317430680583176,-0.0059348329041551545,0.07681551336907663,0.09722978398344731,-0.12965419478789494,-0.2060512215813963,0.010523983344784387,-0.2770779217951885
2946,12.728153700008988,-0.020453970914477544,-0.062356394016198025,0.012675886243855853,0.06277819937100881,0.032162922902988444,-0.006497087429699741,0.07591924997260611,0.09727028420508854,-0.13084719573698553,-0.2091885614671723,0.008201190016369174,-0.2755799110367507
2947,12.732310999999754,-0.020339757270388243,-0.06232598025487653,0.012686728105004767,0.06310403619976163,0.03258293146185149,-0.007064478381714879,0.07500948155458477,0.09730074077498628,-0.13203363956578637,-0.21230625462758462,0.005871323049495872,-0.27403720922698793
2948,12.73627550000674,-0.020250833934912633,-0.06227471152622391,0.012637324731921078,0.06342591684364783,0.03300305030740038,-0.0076369770776072736,0.07408629427120719,0.09732112389376986,-0.13321333339631256,-0.21540365675771717,0.003534746847082537,-0.2724498330107153
2949,12.740646200007175,-0.02016407206231415,-0.06221492945235355,0.012548146567265325,0.06374378354842945,0.03342323588629121,-0.008214554002320013,0.07314977705809393,0.0973314053395738,-0.1343860844341066,-0.21848012521876067,0.0011918278128829657,-0.2708178073328153
2950,12.744637400013744,-0.02006188830746167,-0.06216083619598158,0.012462320880928971,0.0640575789494254,0.0338434445261706,-0.008797178808727194,0.07220002162279525,0.09733155847654933,-0.13555170000412353,-0.22153501919241003,-0.00115706572210851,-0.26914116548294353
2951,12.748838200001046,-0.01992458532628548,-0.062097212880219015,0.01237750825822045,0.0643672460834612,0.03426363244254084,-0.009384820318183862,0.07123712243662728,0.09732155826305669,-0.13670998758681333,-0.22456769983542008,-0.003511563573910209,-0.2674199491384601
2952,12.753084300013144,-0.019794980119613878,-0.06201884605952993,0.012275735755763283,0.06467272840078234,0.034683755745660655,-0.009977446521232137,0.07026117672583937,0.09730138125953582,-0.13786075485439203,-0.22757753043427575,-0.0058712937804466635,-0.2656542084055601
2953,12.757252600000356,-0.01967030816062559,-0.06194037606970303,0.012208163636347275,0.06497396977692863,0.0351037704474803,-0.010575024578464404,0.06927228446211221,0.09727100563605262,-0.1390038097072944,-0.23056387655993224,-0.00823588267706468,-0.2638440018585757
2954,12.762896600004751,-0.01967030816062559,-0.06194037606970303,0.012208163636347275,0.0652709145245667,0.03552363246860936,-0.011177520821544336,0.06827054835238684,0.09723041117951844,-0.1401389603108001,-0.2335261062225815,-0.010604954972653763,-0.2619893965774242
2955,12.766372600002796,-0.019753116786052828,-0.06194020181577143,0.012185568740556468,0.06556350740527775,0.035943297645315765,-0.011784900754386568,0.0672560738280244,0.09717957930057992,-0.14126601513182538,-0.23646359002640002,-0.012978133826352488,-0.2600904681831742
2956,12.77047410000523,-0.01924142064937235,-0.061687983882216704,0.012111836077864053,0.06585169364129753,0.03636272173655448,-0.012397129054495786,0.06622896903329684,0.09711849304017722,-0.14238478297587204,-0.23937570132423325,-0.015355040924822172,-0.25814730087170407
2957,12.774084100004984,-0.019062352195299278,-0.06157147653694815,0.012118846904755051,0.06613541892720551,0.03678186043102433,-0.013014169574465934,0.06518934481320902,0.09704713707576777,-0.143495073024126,-0.2422618163721704,-0.017735296560068933,-0.25615998744542484
2958,12.777981300008832,-0.018880966266139373,-0.0614736184041904,0.012097151459441968,0.06641462944156026,0.0372006693542517,-0.013635985343640142,0.06413731470065269,0.09696549772721322,-0.14459669487069754,-0.2451213144839651,-0.02011851970779505,-0.25412862934304353
2959,12.782334600007744,-0.018622710176476716,-0.061343453962129646,0.012098470240926982,0.06668927185847788,0.03761910407569957,-0.014262538569932004,0.06307299490289328,0.09687356296232787,-0.14568945855999393,-0.24795357818525746,-0.022504328106260272,-0.2520533366673415
2960,12.785525900006178,-0.018622710176476716,-0.061343453962129646,0.012098470240926982,0.0669592933591505,0.038037120115900463,-0.014893790641808747,0.0619965042873904,0.09677132240208608,-0.14677317462421607,-0.25075799336755367,-0.02489233833563341,-0.24993422821094502
2961,12.789230300011695,-0.018622710176476716,-0.061343453962129646,0.012098470240926982,0.06722464164330255,0.03845467295361211,-0.01552970213043685,0.06090796436695287,0.09665876732548649,-0.14784765412097,-0.253533949441917,-0.027282165897814438,-0.24777143148006564
2962,12.794691000002786,-0.017936887765134673,-0.060998526006887044,0.01210718371379722,0.06748526494058171,0.03887171803299414,-0.01617023279199068,0.05980749928423003,0.09653589067407073,-0.1489127086709851,-0.2562808394923235,-0.029673425296707117,-0.24556508271618913
2963,12.798767800006315,-0.017684505698382248,-0.06088988852035943,0.012072773404402614,0.06774111202188228,0.039288210770804285,-0.016815341570124643,0.05869523579554074,0.09640268705609452,-0.1499681504959293,-0.2589980604286374,-0.03206573011892191,-0.2433153269156922
2964,12.80345180000586,-0.017451816962527678,-0.0607635144662133,0.012072498635805496,0.06799213221059816,0.039704106563612444,-0.017464986598609216,0.057571303254042534,0.09625915275034908,-0.15101379245631194,-0.2616850131391597,-0.03445869311488863,-0.24102231784736497
2965,12.807180400006471,-0.017179960585533494,-0.060615140126772875,0.012090068756123978,0.06823827539380221,0.04011936079503131,-0.01811912520413129,0.05643583359224244,0.09610528570963121,-0.1520494480894648,-0.264341102642704,-0.036851926280358244,-0.2386862180678174
2966,12.81144290001248,-0.016899048545265204,-0.060496139528497354,0.01205699530913974,0.06847949203334962,0.04053392884296207,-0.018777713909259107,0.055288961303851795,0.09594108556386008,-0.15307493164759126,-0.266965738240153,-0.03924504093827277,-0.2363071989347502
2967,12.815553400010684,-0.01660586423290099,-0.06037910789296351,0.012066166092424668,0.0687157331769025,0.04094776608685371,-0.01944070843557223,0.054130823424987214,0.09576655362283916,-0.15409005813587429,-0.2695583336654504,-0.041637647820982365,-0.23388544061807126
2968,12.819811200010008,-0.01626933531781072,-0.06020961567095481,0.01211042002566152,0.06894695046887303,0.04136082791497429,-0.020108063706956846,0.05296155951472044,0.09558169287866214,-0.1550946433506337,-0.27211830723598057,-0.04402935715278837,-0.2314211321088391
2969,12.824110800007476,-0.015955321652877486,-0.06002835260945796,0.012165790537710192,0.06917309616128269,0.04177306973169256,-0.020779733853066643,0.05178131163497981,0.09538650800776115,-0.15608850391752357,-0.2746450820022895,-0.0464197787327908,-0.2289144712260139
2970,12.827909100000396,-0.015642869626222643,-0.05984991890524957,0.012210085401357198,0.06939412312453436,0.042184446964768314,-0.02145567221294954,0.050590224329806276,0.09518100537259641,-0.15707145732975997,-0.27713808589710115,-0.048808522018018816,-0.22636566462099852
2971,12.832086600014009,-0.015286049968524871,-0.05967135258611642,0.01229838869184909,0.06960998485809473,0.0425949150726499,-0.022135831338840468,0.049388444603966984,0.09496519302298641,-0.15804332198636944,-0.27959675188358607,-0.05119519620682226,-0.22377492777995206
2972,12.836533600013354,-0.014923471278035274,-0.05949806048807882,0.012418385113099952,0.06982063550108396,0.04300442955177734,-0.022820163000120408,0.04817612190092975,0.09473908069707698,-0.1590039172304491,-0.28202051810283646,-0.053579410322502616,-0.2211424850238601
2973,12.840549700005797,-0.014569950260403674,-0.05935086198174461,0.012519933900174479,0.07002602984276945,0.043412945943889704,-0.02350861818744175,0.04695340808020177,0.0945026798219484,-0.15995306338742749,-0.28440882802050343,-0.05596077329716159,-0.21846856950634572
2974,12.844835200012312,-0.01420038358585116,-0.05920710946161328,0.01259669768024959,0.07022612333296098,0.043820419843334873,-0.02420114711702001,0.04572045739403623,0.09425600351385956,-0.16089058180331633,-0.28676113057255104,-0.05833889405574524,-0.21575342320920643
2975,12.84888220000721,-0.013792254859220211,-0.05905605658368549,0.012682646131834091,0.07042087209230428,0.04422680690438054,-0.024897699235091955,0.044477426463510855,0.09399906657812807,-0.1618162948829432,-0.2890768803100828,-0.060713381600261296,-0.21299729693566283
2976,12.853279500006463,-0.013352824267317962,-0.05892448116271258,0.012812252264823137,0.07061023292247033,0.04463206284852463,-0.025598223222540187,0.04322447425398238,0.09373188550864539,-0.1627300261281543,-0.2913555375431968,-0.06308384509414722,-0.21020045030130596
2977,12.85817850001331,-0.012992179197791392,-0.05879659349412181,0.012915283580093632,0.07079416331623753,0.04503614347180358,-0.026302666999683973,0.04196176204992153,0.09345447848702633,-0.16363160017597841,-0.2935965684838234,-0.06544989394676642,-0.20736315172273143
2978,12.86235250000027,-0.012574375230066869,-0.05867372614753494,0.013076135579207414,0.07097262146746469,0.045439004652096784,-0.027010977731236136,0.04068945342913272,0.09316686538139246,-0.16452084283674126,-0.29579944538749875,-0.06781113789801042,-0.20448567840384732
2979,12.86582890000136,-0.01207243185164263,-0.05851949256202561,0.013260087170744946,0.07114556628095195,0.04584060235642558,-0.027723101831425942,0.03940771423636321,0.0928690677447889,-0.16539758113212,-0.2979636466940322,-0.0701671871029839,-0.20156831631984512
2980,12.86968760000309,-0.011682581137867907,-0.05836822128285777,0.013395660562604987,0.07131295738218713,0.046240892648245116,-0.02843898496928758,0.03811671255630657,0.0925611088132341,-0.16626164333312768,-0.30008865716702116,-0.07251765221675013,-0.19861136019882344
2981,12.873876800003927,-0.01122827124632111,-0.058189371920102574,0.013557396254560703,0.07147475512697496,0.04663983169472759,-0.029158572074113917,0.036816618686005824,0.09224301350340212,-0.1671128589980167,-0.30217396803217106,-0.07486214447911395,-0.1956151135010545
2982,12.877989000000523,-0.010804123533491214,-0.05801805440198116,0.013747066657544082,0.07163092061094661,0.047037375774035016,-0.029881807341075085,0.03550760510666154,0.09191480840993745,-0.16795105901009108,-0.304219077114377,-0.07720027579941943,-0.19257988839588472
2983,12.886339100004989,-0.01041216923509915,-0.05790313181332938,0.014066422939987791,0.07178141567894689,0.04743348128258015,-0.030608634237001546,0.034189846454850216,0.09157652180240265,-0.16877607561541755,-0.3062234889735217,-0.07953165884133877,-0.18950600573626206
2984,12.89139120001346,-0.009375741910638816,-0.05752860550897041,0.014502413174559721,0.0719262029342973,0.047828104742274086,-0.03133899550633118,0.032863519493158966,0.0912281836218596,-0.16958774246042513,-0.30818671503894574,-0.08185590710762915,-0.18639379503088438
2985,12.895068300000275,-0.008918734038134982,-0.05737443685327593,0.014728841717376305,0.0720652457479323,0.04822120280775892,-0.03207283317721999,0.031528803080242244,0.09086982547708443,-0.17038589462938214,-0.31010827374254674,-0.08417263502483446,-0.18324359441396168
2986,12.898935800010804,-0.008432273678813891,-0.057249318519008476,0.014971647402461107,0.07219850826740593,0.04861273227362361,-0.032810088567815886,0.030185878140306637,0.09050148064041681,-0.17117036868174054,-0.3119876906504629,-0.08648145802790873,-0.18005575061258677
2987,12.903003000013996,-0.007840972466121901,-0.057152986317769175,0.015273139204074141,0.07232595542576661,0.04900265008160115,-0.03355070229269477,0.028834927632029793,0.09012318404324375,-0.17194100268933762,-0.31382449859329975,-0.08878199264473757,-0.17683061891170912
2988,12.907258400009596,-0.007296119333091596,-0.057003646668190286,0.015561836865693533,0.07244755295029731,0.04939091332774566,-0.034294614269458144,0.027476136516919797,0.08973497227111861,-0.17269763627344417,-0.3156182377948574,-0.09107385658053459,-0.17356856311670696
2989,12.91206930000044,-0.006814266304182939,-0.05685926838832897,0.015831305578849413,0.07256326737111816,0.04977747926958745,-0.035041763725491566,0.026109691727121742,0.08933688355851642,-0.17344011064164963,-0.3173684559993177,-0.0933566688020888,-0.17026995551355523
2990,12.9156767000095,-0.0063275844888568585,-0.05671744110706913,0.01609621723606624,0.07267306602964925,0.05016230533326464,-0.035792089204883304,0.024735782132678266,0.08892895778322624,-0.17416826862457382,-0.31907470859684905,-0.09563004962183994,-0.16693517682658682
2991,12.9198105000105,-0.005731721873094505,-0.056637172629102714,0.016441742392667595,0.07277691708693061,0.050545349120629635,-0.036545528575502216,0.02335459850825088,0.08851123646038142,-0.1748819547123951,-0.32073655874758705,-0.09789362078175798,-0.1635646161738458
2992,12.927892400010023,-0.004704467091925759,-0.056407798088361466,0.016949667913570884,0.07287478953179702,0.050926568416328775,-0.037302019036234105,0.021966333499309255,0.08808376273612849,-0.17558101509118423,-0.32235357750394783,-0.10014700553700427,-0.16015867102003198
2993,12.932292700003018,-0.0041978129904055505,-0.05624186678228628,0.01723657620702143,0.07296665318890533,0.051305921194853756,-0.038061497124375857,0.02057118158779572,0.08764658138093558,-0.17626529767903265,-0.32392534393123573,-0.10238982873935076,-0.15671774712703793
2994,12.936320100008745,-0.003662347148670712,-0.05610373293349585,0.017548187457178205,0.07305247872661229,0.051683365627563094,-0.038823898723186326,0.019169339057272333,0.08719973878254142,-0.17693465216196377,-0.3254514452265055,-0.10462171692033387,-0.1532422585020797
2995,12.940536300011445,-0.003102014215509846,-0.055968041559771906,0.017913791353581943,0.07313223766470024,0.052058860089672164,-0.03958915906959325,0.01776100395755815,0.08674328293854582,-0.17758893002961645,-0.3269314768356404,-0.10684229837411949,-0.14973262734342355
2996,12.944645600000513,-0.002531804877831661,-0.05576791551961376,0.018247988011235425,0.07320590238194852,0.052432363167210436,-0.04035721276205522,0.016346376068864344,0.08627726344864267,-0.17822798461068892,-0.32836504256860594,-0.10905120324005603,-0.14618928398371225
2997,12.94899260000966,-0.0020292812111232864,-0.05562024882840589,0.018554931041153536,0.07327344612354839,0.052803833663944484,-0.04112799376857765,0.0149256568654351,0.08580173150649713,-0.17885167110813283,-0.32975175471284063,-0.11124806358489267,-0.14261266683089574
2998,12.952960900001926,-0.0014186433345674712,-0.05546154250816495,0.018886735181043373,0.07333484300835959,0.053173230608265266,-0.04190143543488129,0.013499049478702481,0.08531673989126833,-0.1794598466340875,-0.3310912341447456,-0.11343251348463973,-0.1390032223067708
2999,12.957184000013513,-0.0008671655535903789,-0.05531269612588242,0.019195719619876456,0.07339006803600628,0.05354051326003784,-0.04267747049272232,0.012066758659963572,0.08482234295877941,-0.18005237024454385,-0.332383110439236,-0.11560418910604855,-0.13536140478313624
3000,12.961444300002768,-0.0003633071203899955,-0.055199201461096005,0.01946510421538599,0.0734390970938106,0.05390564111741178,-0.04345603106836247,0.010628990742588326,0.0843185966323359,-0.18062910297372783,-0.33362702197731775,-0.11776272878768825,-0.1316876765155697
3001,12.965472700001555,0.00020175607800569,-0.05509838925165038,0.019789084304472376,0.07348190696356173,0.054268573923590746,-0.0442370486911881,0.0091859536037668,0.0838055583931943,-0.18118990786819333,-0.3348226160516539,-0.1199077731205971,-0.12798250757483554
3002,12.970337300008396,0.00020175607800569,-0.05509838925165038,0.019789084304472376,0.0735184753281185,0.05462927167355933,-0.04502045430247721,0.00773785662580447,0.08328328727068306,-0.18173465002061262,-0.33596954897008563,-0.12203896502848624,-0.12424637577593207
3003,12.975545900000723,0.0006422298661102801,-0.055029519445885126,0.020122146618342433,0.07354878077784392,0.05498769462076553,-0.04580617826431314,0.00628491065697448,0.08275184383197724,-0.18226319660325416,-0.33706748615707155,-0.12415594984747264,-0.12047976660478922
3004,12.979008800000884,0.0018875561363978078,-0.05468786936992831,0.020630753228305685,0.07357280281686886,0.055343803283757695,-0.04659415036864379,0.004827327971935855,0.08221129017152871,-0.1827754169011365,-0.33811610225301103,-0.1262583754053189,-0.1166831731426265
3005,12.986317500006407,0.0030340118108489644,-0.054380091791132366,0.021293321696597645,0.07359052186918336,0.05569755845277442,-0.04738429984648504,0.0033653222317268166,0.08166168990015407,-0.18327118234484738,-0.33911508121141615,-0.1283458921001577,-0.11285709598798285
3006,12.990691900005912,0.0035336414033896387,-0.05419337137495939,0.021543840030431256,0.07360191928455394,0.05604892119628568,-0.04817655537726673,0.001899108443342528,0.08110310813378244,-0.18375036654301788,-0.34006411639389983,-0.13041815297867818,-0.10900204317643002
3007,12.994777500003693,0.004172948754383503,-0.053975811200838754,0.021873486018179074,0.07360697734426488,0.056397852867483694,-0.04897084509831965,0.000428902918906731,0.0805356114818654,-0.18421284531444201,-0.3409629106629473,-0.1324748138137514,-0.1051185300979821
3008,12.998871700008747,0.004790816378156777,-0.053798452631468104,0.0221722199551818,0.07360567926668178,0.05674431511072238,-0.04976709661450197,-0.0010450767655530953,0.07995926803545146,-0.1846584967198309,-0.34181117647244086,-0.13451553318147258,-0.10120707941221582
3009,13.003047400008654,0.005331026649894971,-0.053593155060982035,0.02246552186108233,0.07359800921263543,0.057088269867903545,-0.05056523700796332,-0.00252261181171731,0.07937414735492726,-0.18508720109319096,-0.34260863595590546,-0.13653997253759806,-0.09726822096111626
3010,13.007158800013713,0.005903219974812281,-0.05331945302697649,0.022758380179209704,0.07358395229062434,0.057429679384808835,-0.05136519284804489,-0.0040034822409625625,0.07878032045742815,-0.1854988410728163,-0.3433550210124441,-0.1385477962933551,-0.09330249167966388
3011,13.011550900002476,0.006469869122792392,-0.05306991219846471,0.023032762366443957,0.07356349456183454,0.05776850621737613,-0.052166890201313446,-0.005487466936717138,0.07817785980392085,-0.18589330163188597,-0.3440500733903327,-0.14053867189060174,-0.08931043550418018
3012,13.01549660001183,0.007118494743023627,-0.052801814379671595,0.023374471461148745,0.07353662304497521,0.05810471323791905,-0.052970254641727776,-0.006974343687173092,0.07756683928596109,-0.18627047010865624,-0.34469354476824565,-0.14251226987631513,-0.08529260327844956
3013,13.019760000010136,0.007668626783090738,-0.05258630703844909,0.02365512244485875,0.07350332572092853,0.058438263641287944,-0.05377521126093525,-0.008463889228344937,0.0769473342121291,-0.18663023623623798,-0.3452851968340817,-0.14446826397638646,-0.08124955265763603
3014,13.023866900010034,0.008208013910975125,-0.05237443187094678,0.023873885874814142,0.07346359153721246,0.05876912095097084,-0.05458168467869671,-0.009955879287464508,0.07631942129414611,-0.18697249217194944,-0.3458248013613641,-0.14640633116870186,-0.07718184801001365
3015,13.02791530000104,0.00885968869569446,-0.0520854693618387,0.024196606771668322,0.07341741041225498,0.059097249025132824,-0.05538959905343785,-0.011450088626701537,0.0756831786326752,-0.18729713252623517,-0.34631214028318563,-0.1483261517554881,-0.07309006031653087
3016,13.032313800009431,0.009428296543954624,-0.0518486350938881,0.02448373618300214,0.07336477323947871,0.05942261206259287,-0.05619887809292515,-0.01294629108719933,0.07503868570280937,-0.1876040543911416,-0.3467470057636724,-0.15022740943490234,-0.06897476706823
3017,13.038178400005563,0.010032144878647698,-0.051548179644503936,0.024757301642180464,0.07330567189119433,0.059745174608736684,-0.057009445065064474,-0.01444425963341484,0.07438602333925018,-0.18789315736834006,-0.3471292002669412,-0.1521097913718452,-0.06483655216154371
3018,13.042084800006704,0.010711204006160744,-0.05124715038820476,0.025033754321417457,0.07324009922230136,0.06006490156136423,-0.05782122280882043,-0.01594376639775236,0.07372527372117982,-0.1881643435966873,-0.3474585366235246,-0.15397298826797728,-0.06067600579149175
3019,13.0455260000017,0.010711204006160744,-0.05124715038820476,0.025033754321417457,0.07316804907379482,0.06038175817647039,-0.05863413374525414,-0.01744458272547992,0.07305652035683004,-0.18841751777931515,-0.34773483809423794,-0.15581669443091953,-0.05649372434280193
3020,13.048939700005576,0.011204816084047334,-0.05109031552646173,0.02539056834919087,0.07308951627607645,0.060695710073957666,-0.059448099888677754,-0.018946479219917337,0.07237984806775102,-0.18865258721024006,-0.3479579384314674,-0.15764060784261735,-0.052290310278980554
3021,13.053964100006851,0.012615059459838016,-0.05036485118196274,0.02576188034562821,0.0730044966520699,0.061006723243279465,-0.06026304285792388,-0.020449225787884818,0.07169534297278445,-0.18886946180048395,-0.3481276819378547,-0.1594444302268493,-0.04806637202935799
3022,13.059749100008048,0.01321821049737799,-0.050022491498510964,0.02595059256405096,0.07291298702013922,0.06131476404901256,-0.06107888388772753,-0.021952591685400962,0.07100309247174495,-0.18906805410369737,-0.34824392352235684,-0.16122786711586024,-0.043822523874135835
3023,13.065668600000208,0.014580794052742155,-0.04926371142635811,0.026295888680519686,0.07281498519680966,0.061619799236357485,-0.061895543840218184,-0.02345634556361885,0.07030318522881379,-0.18924827934127705,-0.3483065287536601,-0.16299062791610033,-0.039559385827462934
3024,13.069824900012463,0.01522210856010504,-0.048930390719139925,0.026525396371527076,0.07271048999928956,0.06192179593656568,-0.06271294321651985,-0.024960255514988865,0.06959571115564867,-0.18941005542696898,-0.3483153739109299,-0.1647324259730501,-0.03527758351856841
3025,13.073230900001365,0.01522210856010504,-0.048930390719139925,0.026525396371527076,0.07259950124779203,0.06222072167229211,-0.06353100216845703,-0.026464089119636637,0.06888076139421379,-0.18955330299094914,-0.34827034603187673,-0.16645297863511252,-0.030977748070980568
3026,13.076662800012857,0.01522210856010504,-0.048930390719139925,0.026525396371527076,0.07248201976765539,0.06251654436287259,-0.06434964051036392,-0.0279676134919446,0.06815842829933422,-0.18967794540337432,-0.3481713429581192,-0.16815200731655336,-0.026660515979861472
3027,13.080576700012898,0.01522210856010504,-0.048930390719139925,0.026525396371527076,0.07235804739126137,0.06280923232952391,-0.06516877773099504,-0.02947059532732557,0.06742880542097905,-0.18978390879739504,-0.3480182733778284,-0.16982923755947152,-0.022326528987487923
3028,13.084729500013054,0.01571813162404695,-0.04859681616006839,0.026760324382949105,0.07222758695975064,0.06309875430046587,-0.06598833300553449,-0.03097280094917668,0.06669198748627768,-0.18987112209162296,-0.3478110568656359,-0.17148439909478178,-0.017976433956910082
3029,13.090476400000624,0.018592504423096932,-0.04678952346659107,0.02754971686102036,0.07209064232453433,0.06338507941596391,-0.06680822520770151,-0.03247399635600175,0.06594807038127401,-0.18993951701204587,-0.3475496239197906,-0.17311722590219314,-0.013610882743819745
3030,13.094766600013829,0.019243095538032835,-0.046387826997432935,0.027648948028086803,0.07194721834860099,0.06366817723329157,-0.06762837292195024,-0.033973947268690415,0.06519715113242315,-0.18998902811338259,-0.34723391599655073,-0.1747274562691664,-0.00923053206666104
3031,13.099174400005722,0.019926469023246147,-0.04594610881501208,0.0277557263336487,0.07179732090761816,0.06394801773161093,-0.0684486944557613,-0.03547241917794187,0.06443932788783528,-0.19001959279987093,-0.34686388554179554,-0.17631483284883437,-0.00483604337501728
3032,13.102653100009777,0.019926469023246147,-0.04594610881501208,0.0277557263336487,0.07164095689082754,0.06422457131677038,-0.06926910785202271,-0.03696917739182102,0.06367469989827088,-0.1900311513454806,-0.346439496019844,-0.1778791027168683,-0.00042808271630829587
3033,13.107044900010806,0.020602982527637537,-0.045627580531281096,0.027913120706523884,0.07147813420173324,0.06449780882601862,-0.07008953090149801,-0.038463987083435146,0.06290336749789216,-0.19002364691354423,-0.3459607219394682,-0.17942001742727393,0.00399267939916675
3034,13.11152740000398,0.022062714155531342,-0.044681094780726224,0.02800025289806049,0.07130886175858281,0.06476770153263421,-0.07090988115537866,-0.039956613338718784,0.06212543208477547,-0.1899970255757997,-0.3454275488770899,-0.180937333067101,0.008425568134805215
3035,13.115617100003874,0.022740637867766932,-0.04416485794515393,0.028068501628008072,0.0711331494946411,0.06503422115046997,-0.07173007593791869,-0.04144682120431457,0.06134099610118914,-0.1899512363308362,-0.34483997349715,-0.18243081031005068,0.012869904465858995
3036,13.119621400008327,0.023418185783317762,-0.043630832921721124,0.028107723673637352,0.07095100835825636,0.0652973398384112,-0.07255003235914896,-0.042934375735537884,0.06055016301364176,-0.18988623112193725,-0.34419800356964136,-0.18390021446896535,0.017325005319137495
3037,13.1238400000002,0.024119591353913807,-0.04310758475213877,0.02808293540243901,0.07076245031271854,0.06555703020474664,-0.07336966732766813,-0.04441904204441315,0.05975303729270556,-0.18980196485431394,-0.3435016579847937,-0.18534531554718586,0.0217901837142177
3038,13.128103700000793,0.024801177842878604,-0.04260113375193107,0.028081012876587014,0.07056748833590956,0.06581326531145151,-0.07418889756350774,-0.04590058534776934,0.05894972439261974,-0.18969839541172126,-0.34275096676490324,-0.1867658882887615,0.026264748906122806
3039,13.132327800005442,0.025497974914634344,-0.042102615540996716,0.028022911883566703,0.07036613641974532,0.06606601867838129,-0.0750076396110684,-0.047378771015382605,0.058140330730678806,-0.18957548367245225,-0.34194597107330116,-0.18816171222749872,0.03074800652943021
3040,13.137552900006996,0.026225526718163483,-0.04156283973220037,0.02794654671685183,0.07015840956940858,0.06631526428737522,-0.07582580985212366,-0.04885336461815374,0.057324963666411266,-0.18943319352470317,-0.34108672322045874,-0.18953257173483629,0.03523925874376901
3041,13.140949700013152,0.026925587886094768,-0.04115489186911635,0.027788794841554058,0.0699443238023727,0.06656097658626854,-0.07664332451888888,-0.050324131976308015,0.0565037314805536,-0.18927149188130407,-0.3401732866672237,-0.19087825606653394,0.039737804380666576
3042,13.14479800000845,0.027677582687976397,-0.04065638524105267,0.02769193517565678,0.06972389614721611,0.06680313049281275,-0.07746009970715222,-0.05179083920760469,0.05567674335382483,-0.18909034869380884,-0.3392057360251834,-0.19219855940815994,0.044242939091703334
3043,13.14909050001006,0.028419568381516117,-0.04016955143763233,0.02761350396342563,0.06949714464222723,0.06704170139850373,-0.07827605138946475,-0.053253252775543575,0.054844109345506646,-0.18888973696593975,-0.3381841570541539,-0.19349328091936394,0.04875395549793411
3044,13.153000800011796,0.0291136660618155,-0.03960533576410637,0.027496054965130204,0.06926408833379952,0.06727666517231679,-0.07909109542838717,-0.054711139537556186,0.0540059403718343,-0.1886696327663815,-0.33710864665679335,-0.1947622247769223,0.053270143340533815
3045,13.15747670001292,0.02985371777571553,-0.039092349764755986,0.027336653542330197,0.06902474727461727,0.06750799816434801,-0.07990514758979025,-0.05616426679316908,0.05316234818420387,-0.18843001524091899,-0.3359793128703376,-0.196005200216544,0.057790789632624635
3046,13.1613103000127,0.03054079916473288,-0.038525773209255314,0.027141882021948168,0.0687791425216325,0.06773567720936083,-0.0807181235562061,-0.057612402332126854,0.05231344534720113,-0.18817086662391422,-0.3347962748554582,-0.1972220215734255,0.06231517881224133
3047,13.165637500002047,0.03129161179133654,-0.03791369024149002,0.026967057031205627,0.06852729613383268,0.06795967963023723,-0.08152993894022705,-0.059055314482462165,0.05145934521645761,-0.18789217224911758,-0.3335596628822434,-0.19841250832154292,0.06684259289639057
3048,13.169674500008114,0.03129161179133654,-0.03791369024149002,0.026967057031205627,0.06826923116979985,0.06817998324133301,-0.0823405092979492,-0.06049277215850031,0.050600161916339446,-0.18759392055980956,-0.33226961831330404,-0.19957648511167064,0.07137231163615962
3049,13.173829300008949,0.031878766478997594,-0.03748709862254883,0.02678369211834082,0.06800497168506107,0.06839656635173604,-0.08314975014245757,-0.061924544908785815,0.049736010317474426,-0.18727610311826756,-0.3309262935840078,-0.20071378180811578,0.07590361267282941
3050,13.178106200008187,0.03319804438278736,-0.03633822225117671,0.0261703222653016,0.0677345427292307,0.06860940776842682,-0.0839575769573497,-0.06335040296391857,0.04886700601412304,-0.1869387146145536,-0.32952985217984376,-0.20182423352415946,0.08043577169494641
3051,13.182171700012988,0.03383440885171985,-0.03579933876345754,0.025840303504009735,0.0674579703429449,0.06881848679934066,-0.08476390521029437,-0.06477011728428717,0.047993265301399225,-0.18658175287461848,-0.32808046861092066,-0.20290768065619505,0.08496806259630746
3052,13.18632890000299,0.034371098714062305,-0.03528228699515778,0.025551053414725397,0.06717528155458902,0.0690237832563311,-0.08556865036662246,-0.0661834596076871,0.04711490515234645,-0.186205218867718,-0.3265783283836057,-0.20396396891655397,0.08949975763481158
3053,13.190594900006545,0.03500419122482925,-0.03456750270975291,0.02532810637825003,0.06688650437681844,0.06922527745803396,-0.08637172790294735,-0.06759020249681137,0.0462320431948749,-0.18580911671313863,-0.32502362796930795,-0.20499294936501003,0.09403012759213149
3054,13.194653800004744,0.035613244287672055,-0.03391645278012079,0.02504826357903934,0.06659166780287354,0.06942295023263123,-0.08717305332081127,-0.06899011938660088,0.045344797688565766,-0.18539345368622934,-0.3234165747704148,-0.205994478438955,0.09855844193415778
3055,13.198916600013035,0.03615760994038839,-0.03336553351324608,0.024755112923607617,0.06629080180268926,0.06961678292051363,-0.08797254216035498,-0.07038298463144214,0.04445328750134826,-0.1849582402237356,-0.3217573870833888,-0.2069684179822377,0.10308396897216783
3056,13.203026300005147,0.0366733738945441,-0.03295199520337151,0.024343587804408456,0.06598393731880005,0.06980675737684115,-0.08877011001400734,-0.07176857355220011,0.043557632086055384,-0.18450348992843324,-0.320046294059035,-0.20791463527265908,0.10760597602467181
3057,13.20723060000455,0.037177935710766,-0.03245546238167886,0.02392006428216356,0.06567110626204095,0.0699928559740018,-0.0895656725401915,-0.07314666248307365,0.04265795145686405,-0.18402921957305876,-0.3182835356599481,-0.2088330030481159,0.11212372957988744
3058,13.21135320000758,0.037696273879214155,-0.03189556097460411,0.023555836128768482,0.06535234150704569,0.07017506160396779,-0.09035914547704467,-0.0745170288182615,0.04175436616562558,-0.18353544910353398,-0.3164693626151496,-0.20972339953138583,0.11663649545879523
3059,13.21534990001237,0.03820498497436135,-0.031380475938205504,0.02323801690022859,0.06502767688754289,0.07035335768054829,-0.09115044465614815,-0.0758794510584265,0.04084699727809233,-0.18302220164148197,-0.314604036371928,-0.2105857084535479,0.12114353897872493
3060,13.2198505000124,0.03877090688524159,-0.03083915903945493,0.022811081590065868,0.06469714719145131,0.07052772814153832,-0.0919394860162645,-0.07723370885694547,0.039935966350046696,-0.18248950348603202,-0.31268782904489645,-0.2114198190760323,0.12564412511742348
3061,13.223877200012794,0.03918892047044746,-0.030330273306296375,0.022355285052030962,0.06436078815577563,0.07069815745076313,-0.09272618561707896,-0.07857958306593246,0.03902139540333837,-0.18193738411491192,-0.3107210233622779,-0.2122256262112941,0.13013751867755585
3062,13.227978400012944,0.03964503866640314,-0.02982170531154003,0.021831001401357776,0.06401863646130408,0.07086463060001792,-0.09351045965294198,-0.07991685578202336,0.03810340690183591,-0.18136587618482575,-0.30870391260943214,-0.21300303024210504,0.1346229844515892
3063,13.232059900008608,0.040174478913570066,-0.029277899483222892,0.021413145282074983,0.06367072972710927,0.07102713311090257,-0.0942922244666103,-0.08124531039190974,0.037182123727298476,-0.18077501553111527,-0.3066368005696413,-0.21375193713945856,0.13909978738701048
3064,13.237573800011887,0.04063065412360742,-0.02881561170635772,0.020806606752022144,0.06331710650485359,0.07118565103655146,-0.09507139656298322,-0.08256473161760958,0.03625766915517349,-0.18016484116670406,-0.3045200014621729,-0.2144722584790834,0.14356719275182742
3065,13.241235400011648,0.04105708812603204,-0.028349965997854363,0.02026069457792233,0.06295780627290062,0.07134017096325805,-0.09584789262283075,-0.08387490556146276,0.03533016683032622,-0.1795353952803224,-0.3023538398776354,-0.21516391145656275,0.1480244663003031
3066,13.24502480000956,0.041613275571756904,-0.02779764406948139,0.019749803276135923,0.06259286943023393,0.07149068001199423,-0.0966216295165102,-0.08517561975084038,0.0343997407427072,-0.1788867232340128,-0.300138650710645,-0.21582681890105504,0.15247087443887303
3067,13.24903930000437,0.04212093083403538,-0.027252726235078704,0.01917131933194921,0.062222337290184206,0.07163716583982391,-0.09739252431766787,-0.08646666318255578,0.0334665152029637,-0.17821887355991567,-0.29787477908982085,-0.21646090928761366,0.15690568439219343
3068,13.253127300005872,0.04259918458283781,-0.02666908605018923,0.018469671922811393,0.06184625207396646,0.07177961664121119,-0.09816049431692278,-0.0877478263669661,0.0325306148180012,-0.17753189795633478,-0.29556258030513133,-0.2170661167481019,0.1613281643692714
3069,13.257133200007956,0.0430455380680922,-0.026194447664231485,0.017809140700240134,0.061464656904028164,0.07191802114922305,-0.09892545703552917,-0.08901890137175286,0.03159216446650117,-0.176825851283082,-0.2932024197326125,-0.2176423810807011,0.1657375837296257
3070,13.261354300004314,0.043553507406399364,-0.025761627435761807,0.01728712182082895,0.06107759579721008,0.07205236863662673,-0.09968733023901495,-0.09027968186536978,0.03065128927440104,-0.17610079155609912,-0.29079467275648324,-0.21818964775801045,0.1701332131494279
3071,13.26546030001191,0.04406959644230017,-0.025316960894527413,0.016641864775529428,0.06068511365772108,0.0721826489168815,-0.10044603195079335,-0.09152996316014615,0.029708114590342588,-0.17535677994135754,-0.2883397246886783,-0.21870786793373673,0.1745143247875714
3072,13.271873000005144,0.04406959644230017,-0.025316960894527413,0.016641864775529428,0.060287256269928376,0.07230885234502515,-0.10120148046574529,-0.0927695422550349,0.02876276596109485,-0.17459388074803658,-0.28583797068582356,-0.21919699844797427,0.1788801924516181
3073,13.275302699999884,0.04448553265203574,-0.024822105397038906,0.015992236460686385,0.059884070290964764,0.07243096981845473,-0.10195359436376909,-0.0939982178779941,0.027815369106957605,-0.17381216142098152,-0.2832898156636761,-0.21965700183107437,0.18323009176357177
3074,13.278673000007984,0.04555198183270417,-0.02388619353529429,0.014620823336877555,0.05947560324315419,0.07254899277760174,-0.1027022925232945,-0.0952157905279916,0.026866049897151738,-0.1730116925324424,-0.28069567420905445,-0.2200878463061037,0.18756330032542678
3075,13.282187500008147,0.04555198183270417,-0.02388619353529429,0.014620823336877555,0.05906190350625771,0.07266291320650212,-0.10344749413475827,-0.096422062516622,0.02591493432520261,-0.1721925477730941,-0.27805597048928565,-0.22048950578989265,0.19187909788444124
3076,13.286189800011924,0.04595462864179143,-0.023501780657194184,0.014011810314851603,0.058643020309541403,0.07277272363326098,-0.10418911871403849,-0.09761683800932427,0.02496214848432267,-0.17135480394233846,-0.2753711381591968,-0.2208619598926736,0.19617676649808347
3077,13.290676900011022,0.046866208076739704,-0.02264694786590905,0.012333574153898212,0.05821900372366828,0.07287841713041246,-0.1049270861158443,-0.09879992306618916,0.024007818542799347,-0.17049854093789035,-0.27264162026567684,-0.22120519391631133,0.20045559069860044
3078,13.294789700012188,0.04726872051478414,-0.022052536699081922,0.01174046139005558,0.05778990465241589,0.07297998731517429,-0.10566131654705835,-0.09997112568234548,0.02305207071939426,-0.16962384174464978,-0.26986786914983835,-0.22151919885112667,0.20471485765715733
3079,13.298830500003533,0.047687034702686225,-0.021377604409309123,0.011142609212721519,0.057355774824221405,0.07307742834959736,-0.10639173058002908,-0.10113025582791502,0.02209503125875977,-0.16873079242286274,-0.2670503463468075,-0.2218039713713144,0.20895385734749722
3080,13.30304050000268,0.0480767738523046,-0.02101166758290902,0.010243251438943283,0.05691666678355578,0.07317073494061026,-0.10711824916581011,-0.10227712548752609,0.021136826406878955,-0.16781948209557362,-0.26418952248317196,-0.22205951382895797,0.2131718827090702
3081,13.30704600000172,0.048346554646439055,-0.02065182658269797,0.009397902520320859,0.05647263388212856,0.07325990233995901,-0.10784079364734392,-0.10341154869937517,0.020177582386534963,-0.16689000293537137,-0.26128587717211577,-0.22228583424664325,0.2173682298095803
3082,13.31124730000738,0.04867484018891441,-0.01998525934136885,0.008818814685625953,0.05602373026992553,0.07334492634404215,-0.10855928577258651,-0.10453334159382675,0.019217425372815858,-0.16594245015043216,-0.2583398989062726,-0.22248294630867468,0.2215421980069005
3083,13.315473400012706,0.04908523298935943,-0.019424840137720556,0.008040973129324613,0.0555700108860813,0.0734258032936413,-0.1092736477075701,-0.10564232243154169,0.01825648146866091,-0.16497692196986163,-0.2553520849483287,-0.22265086935089667,0.2256930901103061
3084,13.31887070000812,0.04908523298935943,-0.019424840137720556,0.008040973129324613,0.05511153144958897,0.07350253007354739,-0.10998380204940102,-0.1067383116411249,0.01729487668045439,-0.1639935196283392,-0.2523229412194071,-0.22278962834912644,0.2298202125409752
3085,13.323538500000724,0.048743161377345606,-0.01897770307990777,0.007025716326569009,0.0546483484498487,0.07357510411208275,-0.11068967183919022,-0.10782113185628274,0.016332736893672855,-0.16299234735006837,-0.24925298218526684,-0.22289925390620158,0.23392287549170843
3086,13.327738400010276,0.049861930899764755,-0.01797323619802645,0.005780703545712739,0.05418051913705723,0.07364352338051976,-0.11139118057491368,-0.108890607952481,0.015370187848591994,-0.16197351233203688,-0.24614273074034823,-0.22297978223764625,0.23800039308581833
3087,13.33234760000778,0.05018033542805807,-0.01743053947783524,0.005064958786376657,0.05370810151244022,0.07370778639239574,-0.11208825222419963,-0.10994656708309432,0.014407355116059057,-0.16093712472658983,-0.24299271808970108,-0.22303125515596253,0.24205208353513896
3088,13.33674900000915,0.05045694506023904,-0.01693182978411261,0.004194013449245088,0.05323115431833006,0.07376789220272433,-0.11278081123704041,-0.1109888387150374,0.013444364073336755,-0.15988329762332038,-0.2398034836288289,-0.22305372005355203,0.2460772692971054
3089,13.340536200004864,0.050717330676317916,-0.016517926938119987,0.0034870822689762066,0.052749737028091485,0.07382384040710378,-0.11346878255842602,-0.11201725466386951,0.012481339880024622,-0.15881214703028146,-0.23657557482148517,-0.22304722988427444,0.25007527723085415
3090,13.344135900013498,0.050717330676317916,-0.016517926938119987,0.0034870822689762066,0.05226390983589741,0.0738756311407228,-0.1141520916408967,-0.1130316491283638,0.011518407454063755,-0.15772379185452307,-0.233309547075457,-0.22301184314365136,0.25404543875229474
3091,13.348423900009948,0.05039942561514489,-0.0161087843632293,0.0024169245704295204,0.05177373364635725,0.07392326507726389,-0.11483066445701182,-0.11403185872453228,0.01055569144783087,-0.15661835388195977,-0.23000596361637365,-0.22294762384772254,0.25798708998810604
3092,13.351863700008836,0.05039942561514489,-0.0161087843632293,0.0024169245704295204,0.05127927006399999,0.0739667434277048,-0.11550442751173222,-0.11501772251909778,0.009593316224327467,-0.15549595775657282,-0.2266653953595776,-0.22285464151056159,0.26189957192860824
3093,13.355192100003478,0.05039942561514489,-0.0161087843632293,0.0024169245704295204,0.050780581382614355,0.07400606793901883,-0.11617330785471225,-0.1159890820624048,0.008631405833469906,-0.15435673095895183,-0.22328842078009573,-0.22273297112045923,0.2657822305794642
3094,13.360768000013197,0.05213388336821971,-0.014275659906244229,-0.000644378287154186,0.05027773057444877,0.07404124089277422,-0.11683723309249891,-0.11694578142076116,0.007670083988486078,-0.15320080378418155,-0.2198756257807482,-0.22258269311478399,0.26963441711216224
3095,13.3653931000008,0.052404403238985556,-0.01384128988670594,-0.0013721163019761902,0.04977078127927341,0.07407226510363363,-0.11749613140063514,-0.11788766720820282,0.0067094740424243834,-0.15202830931907935,-0.21642760355843532,-0.2224038933535294,0.2734554880132344
3096,13.369951000000585,0.05274405784957784,-0.013323386817718427,-0.0022959014830344496,0.0492597977933069,0.07409914391775355,-0.11814993153566423,-0.11881458861767416,0.005749698964780704,-0.15083938341878897,-0.21294495446864153,-0.22219666309155872,0.2772448052321622
3097,13.373979500000132,0.05302996984886132,-0.012905595334379353,-0.0030779527426471457,0.048744845058010286,0.0741218812110842,-0.11879856284703315,-0.1197263974516164,0.004790881318248982,-0.14963416468273702,-0.20942828588819723,-0.2219610989495565,0.28100173632792563
3098,13.378191000010702,0.053247883746977726,-0.012428699867252268,-0.004005930191113607,0.04822598864875103,0.07414048138757041,-0.11944195528889165,-0.12062294815195694,0.003833143235600977,-0.14841279442995903,-0.20587821207633938,-0.2216973028836965,0.2847256546141491
3099,13.382139600013032,0.053598272286086414,-0.011947239192572486,-0.004802457320903842,0.04770329476333949,0.07415494937725357,-0.12008003943178452,-0.12150409782949297,0.0028766063967007294,-0.1471754166738013,-0.20229535403411222,-0.22140538215403704,0.2884159393027982
3100,13.386411300001782,0.053910408147268454,-0.01138649719604298,-0.005638673055303226,0.047176830210440356,0.07416529063427497,-0.12071274647423416,-0.12236970629266226,0.0019213920056592086,-0.14592217809600574,-0.1986803393621487,-0.2210854492916546,0.2920719756463816
3101,13.390557600010652,0.05412035214165607,-0.010961204989156386,-0.006478992624007047,0.04664666239786176,0.07417151113478075,-0.12134000825421011,-0.12321963607569458,0.0009676207681346154,-0.1446532280201839,-0.1950338021168751,-0.22073762206452527,0.2956931550786148
3102,13.394687400010298,0.05434990503973319,-0.01052613283263419,-0.007426474534766633,0.04611285932072484,0.07417361737472938,-0.12196175726048263,-0.12405375246613698,1.5412868783737833e-05,-0.14336871838468715,-0.19135638266518226,-0.22036202344216557,0.2992788753535021
3103,13.398916400008602,0.054665149982931066,-0.010067142110473638,-0.008179051648126382,0.0455754895495165,0.07417161636760225,-0.12257792664385744,-0.12487192353174631,-0.0009351120511302889,-0.14206880371488032,-0.1876487275376075,-0.2199587815590432,0.3028285406827959
3104,13.403111100007663,0.054854809677386755,-0.00965466215713472,-0.009161677561376041,0.045034622218028085,0.07416551564201783,-0.12318845022828813,-0.1256740201467425,-0.001883834915968515,-0.14075364109482613,-0.18391148928006923,-0.21952802967677015,0.30634156187179246
3105,13.407210900011703,0.05510730718731996,-0.009209299330929633,-0.009931146179120868,0.04449032701118283,0.07415532323924996,-0.12379326252186412,-0.12645991601741732,-0.0028306372377797603,-0.13942339013838856,-0.18014532630419847,-0.21906990614509095,0.309817356453423
3106,13.41133690001152,0.05532818271956359,-0.00879898105172513,-0.01084882130406484,0.0439426741527548,0.07414104771065069,-0.12439229872767227,-0.1272294877070925,-0.0037754011381920644,-0.13807821295976272,-0.17635090273631138,-0.21858455436167848,0.31325534882060063
3107,13.41549730001134,0.05555124320116119,-0.008438191194368323,-0.011718883091360056,0.043391734392981975,0.07412269811497857,-0.12498549475452918,-0.12798261466042327,-0.0047180093701268706,-0.13671827414343835,-0.17252888826506654,-0.21807212273075183,0.3166549703567826
3108,13.419787800012273,0.0557573716992975,-0.008041733914464288,-0.012575655985278374,0.042837578996075994,0.07410028401563308,-0.1255727872275825,-0.12871917922704149,-0.005658345339330864,-0.1353437407136039,-0.16867995798785224,-0.21753276462052984,0.32001565956470795
3109,13.423817100003362,0.05599493961147228,-0.0076469661642161076,-0.013437989968315158,0.04228027972763152,0.07407381547779605,-0.12615411349877784,-0.12943906668453303,-0.0065962931257204675,-0.13395478210299935,-0.16480479225594866,-0.21696663831953475,0.323336862193272
3110,13.428546100010864,0.0562259153187898,-0.007162407065782195,-0.014237835309703649,0.04171990884193791,0.07404330306548107,-0.12672941165718934,-0.13014216526074418,-0.007531737504534025,-0.13255157012122679,-0.16090407651851055,-0.21637390699175912,0.3266180313624985
3111,13.432534800012943,0.05647306359685366,-0.006743176273184739,-0.015033812173055897,0.041156539069196245,0.07400875783849166,-0.12729862053921095,-0.13082836615541185,-0.008464563967286768,-0.1311342789225267,-0.15697850116541573,-0.21575473863071118,0.32985862768657437
3112,13.436383700012811,0.056634560085953196,-0.006414095548396167,-0.015968058111097264,0.0405902436026448,0.07397019134928881,-0.12786167973860577,-0.1314975635611134,-0.009394658742523748,-0.1297030849730291,-0.1530287613690249,-0.21510930601235356,0.33305811939491065
3113,13.440583600007812,0.05690744810301151,-0.005953118376583577,-0.01678657237510372,0.04002109608559539,0.07392761563976846,-0.12841852961641056,-0.13214965468353113,-0.010321908816365978,-0.1282581670174879,-0.14905555692489988,-0.21443778664695032,0.33621598245119166
3114,13.444639600013032,0.05715608221009026,-0.005688417536417406,-0.017639181230942533,0.039449170598383716,0.07388104323795032,-0.12896911131069402,-0.1327845397610275,-0.011246201952845081,-0.12679970604550742,-0.1450595920915274,-0.21374036272983649,0.3393317006703778
3115,13.448936800006775,0.05747193848620638,-0.005318153538613132,-0.01854940606969936,0.03887454164523665,0.07383048715457921,-0.129513366746167,-0.13340212208352642,-0.012167426714021807,-0.12532788525727062,-0.141041575429095,-0.21301722109112675,0.34240476583362794
3116,13.453007000003709,0.05769868251457238,-0.005064712706513621,-0.019429811977488595,0.03829728414105965,0.07377596087963982,-0.1300512386436429,-0.13400230801069707,-0.013085472479883897,-0.12384289002877844,-0.13700221963736592,-0.21226855314438017,0.3454346778011084
3117,13.45724090001022,0.05790951574848352,-0.0048199839851914405,-0.020342144270408334,0.037717473398147267,0.07371747837878567,-0.13058267052934697,-0.1345850069894359,-0.014000229468018812,-0.12234490787660846,-0.1329422413927007,-0.21149455483423765,0.34842094462265827
3118,13.46154440000828,0.058239200632429065,-0.004563435158078937,-0.0212611974577255,0.0371351851128196,0.07365505408968355,-0.13110760674407246,-0.13515013157064412,-0.014911588753056844,-0.12083412842220233,-0.12886236118427247,-0.21069542658304818,0.35136308264627936
3119,13.46556180001062,0.05845310269835742,-0.004234429294809765,-0.02205769908089727,0.03655049535198812,0.07358870291827405,-0.13162599245218204,-0.1356975974252971,-0.01581944228588024,-0.11931074335569139,-0.12476330314952344,-0.209871373236501,0.3542606166244216
3120,13.47057550000318,0.05872527261210196,-0.003988566212993942,-0.02299230447841747,0.0359634805396537,0.07351844023494945,-0.13213777365045262,-0.13622732335980314,-0.016723682912594108,-0.11777494639927091,-0.1206457949089105,-0.2090226040082801,0.3571130798180327
3121,13.474021000001812,0.05899269750565579,-0.003756757129344493,-0.023906852616228904,0.03537421744334004,0.07344428187065026,-0.13264289717676112,-0.1367392313306481,-0.017624204393254867,-0.11622693327013292,-0.11651056739998747,-0.20814933242375727,0.3599200140983434
3122,13.478015600005165,0.05918920254156361,-0.003489743416305633,-0.02466351017543008,0.03478278316046552,0.0733662441128814,-0.13314131071861046,-0.1372332464583223,-0.01852090142035204,-0.11466690164296735,-0.11235835471087177,-0.2072517762627418,0.3626809700463598
3123,13.48249210001086,0.05950407198885396,-0.0031624587495439056,-0.02559825565214516,0.034189255104656674,0.07328434370164912,-0.13363296282149364,-0.1377092970405274,-0.019413669637039548,-0.11309505111204166,-0.1081898939131438,-0.20633015750130526,0.36539550705003454
3124,13.486283900012497,0.059725247737503165,-0.002881258065807669,-0.026390608866596353,0.0335937109920061,0.07319859782531991,-0.13411780289709432,-0.13816731456466047,-0.020302405655112505,-0.1115115831528681,-0.10400592489422639,-0.20538470225270106,0.3680631933990908
3125,13.490536700002847,0.05990544066897405,-0.0026446048156765225,-0.027326375165773246,0.03299622882727803,0.07310902411640266,-0.13459578123132193,-0.13860723371957348,-0.02118700707272563,-0.10991670108346924,-0.09980719018929227,-0.20441564070739612,0.3706836063774718
3126,13.494857900004718,0.060053432619304264,-0.0023316075506380884,-0.02820857766763683,0.03239688689006451,0.07301564064725471,-0.135066848992179,-0.13902899240660624,-0.02206737249184946,-0.1083106100252519,-0.0955944348127481,-0.2034232070722337,0.3732563323533908
3127,13.498848900009762,0.06024585195718786,-0.0020775341582059182,-0.029034561612852238,0.03179576372089527,0.0729184659257132,-0.13553095823745995,-0.13943253174989062,-0.022943401535460626,-0.10669351686350001,-0.09136840608934292,-0.2024076395087452,0.37578096686695783
3128,13.505998100008584,0.0603573699946676,-0.0017914901578309666,-0.029890010916580848,0.031192938107304398,0.07281751889065273,-0.1359880619222792,-0.13981779610592487,-0.023814994864462424,-0.10506563020749686,-0.0871298534849487,-0.20136918007062926,0.378257114715358
3129,13.513878200014004,0.060554055113345155,-0.0011387613352830625,-0.03150389044977948,0.030588489069856818,0.07271281890747032,-0.1364381139064265,-0.140184733072417,-0.024682054194332177,-0.10342716035028784,-0.08287952843706134,-0.2003080746404175,0.3806843900355609
3130,13.518165500005123,0.06060687978353358,-0.0008384459580970886,-0.032330665178195106,0.029982495848138117,0.07260438576349841,-0.13688106896154734,-0.14053329349639557,-0.025544482311491964,-0.10177831922809435,-0.07861818418507045,-0.1992245728653475,0.38306241638453914
3131,13.523835600004531,0.0606710074192399,-0.00032450422366584126,-0.03387470414178523,0.02937503788671086,0.07249223966334728,-0.13731688277814755,-0.14086343148158723,-0.02640218308939934,-0.10011932037938936,-0.07434657560034579,-0.19811892809246284,0.3853908268169737
3132,13.527233100001467,0.0606710074192399,-0.00032450422366584126,-0.03387470414178523,0.02876619482104069,0.07237640122417821,-0.13774551197242124,-0.141175104395061,-0.027255061504354736,-0.09845037890364537,-0.07006545901618814,-0.19699139730296072,0.38766926396042795
3133,13.5320950000023,0.060720921557623805,4.061904770050065e-05,-0.034439663478681506,0.028156046463395507,0.07225689147090852,-0.13816691409289975,-0.1414682728731387,-0.02810302365102233,-0.09677171141976582,-0.06577559205769291,-0.19584224104580708,0.3898973800879702
3134,13.53653560001112,0.06079236743813852,0.0005054311936200961,-0.03622276220991989,0.02754467278872101,0.07213373183134973,-0.13858104762691997,-0.14174290082657118,-0.028945976757661394,-0.09508353602421085,-0.06147773347157373,-0.19467172337063923,0.39207483718822705
3135,13.540619900013551,0.06097414120776018,0.0008244176629109318,-0.036880457689371704,0.02693215392049563,0.07200694413127982,-0.1389878720069113,-0.14199895544498067,-0.029783829201065155,-0.09338607224882914,-0.057172642955993905,-0.19348011175997593,0.3942013070328494
3136,13.54495140000654,0.06101393015091144,0.0010264741039523414,-0.037743002736282436,0.026318570116567824,0.07187655058945085,-0.1393873476164983,-0.1422364072005681,-0.030616490521204257,-0.09167954101840683,-0.05286108099045315,-0.1922676770607556,0.3962764712413731
3137,13.54880060000869,0.06090559093005353,0.0012425867806938802,-0.038665895958423964,0.025704001754979087,0.07174257381253267,-0.13977943579641833,-0.14245522985108588,-0.031443871435571945,-0.08996416460794479,-0.04854380866577698,-0.1910346934152232,0.3983000213434609
3138,13.553192200008198,0.06108458081036079,0.0015650722131731647,-0.03928497561552629,0.025088529319775656,0.0716050367899945,-0.14016409885025247,-0.1426554004420772,-0.03226588385322824,-0.08824016659967483,-0.04422158751425592,-0.1897814381911854,0.4002716588385107
3139,13.557508199999576,0.06119359821897664,0.0019829140478276786,-0.03979493202541694,0.024472233386812096,0.0714639628889254,-0.1405413000499688,-0.1428368993083817,-0.0330824408885404,-0.08650777183982687,-0.039895179339981275,-0.18850819191165527,0.40219109525261776
3140,13.560986700002104,0.06119359821897664,0.0019829140478276786,-0.03979493202541694,0.02385519460954985,0.07131937584879534,-0.14091100364127776,-0.14299971007490828,-0.033893456874617,-0.08476720639515879,-0.0355653460494244,-0.18721523818390648,0.40405805219287744
3141,13.56532760000846,0.06098491190620074,0.002001815125113127,-0.04093907124590332,0.023237493704853996,0.07117129977615833,-0.14127317484879795,-0.14314381965667589,-0.034698847376433105,-0.0830186975092607,-0.03123284948230618,-0.18590286362795783,0.4058722613990165
3142,13.569649200013371,0.06120142701505426,0.0027530470917552867,-0.04212903709237867,0.022619211438791316,0.07101975913929881,-0.14162777988103137,-0.1432692182581231,-0.035498529203644345,-0.08126247355864456,-0.02689845124280296,-0.18457135780450834,0.4076334647923442
3143,13.574849900003755,0.061265442922357756,0.0031691905041244207,-0.042855053428912604,0.022000428612432836,0.0708647787628232,-0.14197478593514826,-0.14337589937168918,-0.03629242042308781,-0.07949876400863087,-0.022562912531134717,-0.1832210131423436,0.40934141452201445
3144,13.578454300004523,0.06126144727939692,0.0035264511140733735,-0.04365677256546181,0.021381226047663935,0.07070638382219765,-0.14231416120158089,-0.1434638597756685,-0.037080440370967485,-0.07772779936904438,-0.018226993975581397,-0.18185212486523503,0.41099587300859325
3145,13.582406500005163,0.061388264384464375,0.00377359712576142,-0.04438541856054481,0.020761684573005156,0.07054459983823398,-0.14264587486842562,-0.14353309953134039,-0.03786250966472199,-0.07594981114973079,-0.013891455464972901,-0.18046499091835322,0.41259661298492273
3146,13.58721380001225,0.061448840231902724,0.004077358213695415,-0.04512541620502366,0.020141885009446834,0.07037945267152479,-0.14296989712565303,-0.143583621979377,-0.03863855021457259,-0.07416503181590657,-0.009557055981697982,-0.1790599118942161,0.4141434175342738
3147,13.59102070001245,0.06141761294088485,0.004325790210512092,-0.04591755736884835,0.01952190815630051,0.07021096851682948,-0.1432861991691262,-0.14361543373553232,-0.039408485234749636,-0.07237369474335363,-0.005224553435276831,-0.17763719095819405,0.4156360801257803
3148,13.595087500012596,0.06141668896691123,0.004530041644006855,-0.04674564310155079,0.018901834777070307,0.07003917389741267,-0.1435947532044255,-0.1436285446856155,-0.04017223925439576,-0.07057603417347047,-0.0008947044965418927,-0.17619713377359378,0.41707440464714735
3149,13.599934300000314,0.061469740973230075,0.004799701421760174,-0.04746916742443497,0.018281745585347356,0.06986409565933699,-0.14389553245047998,-0.14362296797975022,-0.040929738128144134,-0.06877228516819178,0.003431735567528863,-0.17474004842634266,0.41845820543462925
3150,13.603520100004973,0.061469740973230075,0.004799701421760174,-0.04746916742443497,0.017661721230730336,0.06968576096571213,-0.14418851114300388,-0.14359872002592297,-0.041680909046370104,-0.06696268356478859,0.007754013058282341,-0.17326624534929372,0.4197873073002739
3151,13.607967100004316,0.06137951419089373,0.004959329724928992,-0.048184345002381446,0.017041842284775243,0.06950419729090153,-0.14447366453773816,-0.14355582048282367,-0.042425680545114364,-0.06514746593056125,0.012071376009120883,-0.17177603724617216,0.42106154555643155
3152,13.611739200001466,0.061461699106418084,0.005559067222013395,-0.04984213506651979,0.01642218922697748,0.06931943241468817,-0.14475096891349745,-0.14349429225198065,-0.04316398251567608,-0.06332686951743709,0.01638307434844984,-0.17026973901518552,0.4222807660375263
3153,13.616651800010004,0.061461699106418084,0.005559067222013395,-0.04984213506651979,0.01580284243078926,0.06913149441640105,-0.14502040157502194,-0.1434141614691931,-0.043895746213874626,-0.06150113221648447,0.02068836006179943,-0.16874766767231872,0.4234448251190907
3154,13.620027400000254,0.06147191119837207,0.005731891568944285,-0.050569066823367016,0.015183882149675313,0.06894041166900354,-0.14528194085563356,-0.14331545749526484,-0.0446209042689786,-0.059670492512355275,0.02498648735307852,-0.16721014227433606,0.4245535897340643
3155,13.62385030000587,0.06148153789654417,0.006433296801823927,-0.05215480478550452,0.0145653885032099,0.0687462128331452,-0.1455355661196965,-0.14319821290604395,-0.045339390692301376,-0.05783518943766747,0.029276712804918472,-0.1656574838415116,0.42560693738635835
3156,13.627742600001511,0.06148153789654417,0.006433296801823927,-0.05215480478550452,0.013947441463218203,0.06854892685117851,-0.14578125776488163,-0.14306246348177268,-0.046051140885461986,-0.055995462527339286,0.03355829553806565,-0.1640900152801094,0.42660475616168686
3157,13.632232300005851,0.06134302106565695,0.006629142568081157,-0.0528632364499447,0.013330120839965055,0.06834858294114139,-0.14601899722423411,-0.14290824819575126,-0.04675609164831031,-0.05415155177288711,0.03783049736978158,-0.1625080613046361,0.4275469447356682
3158,13.637889900011942,0.06134302106565695,0.006629142568081157,-0.0528632364499447,0.012713506268393982,0.06814521059070698,-0.146248766968045,-0.14273560920232028,-0.0474541811865157,-0.05230369757669844,0.04209258297121008,-0.16091194835988773,0.428433412379202
3159,13.641588700003922,0.061380065298216144,0.007196247108691273,-0.05442905641579886,0.01209767719441961,0.06793883955110203,-0.14647055050552632,-0.1425445918241651,-0.048145349118818265,-0.05045214070629209,0.04634382002367117,-0.15930200454281335,0.42926407896112756
3160,13.64594770000258,0.06146876371136044,0.007673391588651449,-0.05600515543498137,0.011482712861276327,0.06772949983099538,-0.14668433238629017,-0.14233524453894786,-0.04882953648394221,-0.048597122248577096,0.05058347937384218,-0.15767855952421653,0.4300388749481657
3161,13.651004000013929,0.06142002985541635,0.00792744510510672,-0.0568081012579541,0.010868692295926153,0.06751722169035844,-0.14689009820163226,-0.14210761896527116,-0.04950668574717093,-0.04673888356412205,0.05481083518778694,-0.15604194447031683,0.43075774140215045
3162,13.65721650001069,0.06143994908566459,0.008340117182989234,-0.05825886423255111,0.01025569429552862,0.06730203563429882,-0.14708783458561955,-0.14186176984797855,-0.05017674080658332,-0.04487766624144629,0.05902516510379428,-0.15439249196419277,0.43142062997455766
3163,13.660716500002309,0.06143994908566459,0.008340117182989234,-0.05825886423255111,0.009643797413975478,0.06708397240686882,-0.14727752921598158,-0.14159775504279667,-0.05083964699895076,-0.043013712051344466,0.06322575038398777,-0.15273053592712818,0.43202750289833813
3164,13.665773400003673,0.061417917424784106,0.008527082448745773,-0.059015756234938266,0.009033079948492995,0.06686306298484992,-0.14745917081480536,-0.14131563550032522,-0.05149535110529464,-0.041147262901255637,0.06741187606466903,-0.151056411539884,0.43257833297706466
3165,13.670498000006774,0.06132578038390371,0.00904411785063337,-0.06053850722817319,0.00842361992631472,0.06663933857151431,-0.1476327491490331,-0.14101547524937988,-0.052143801356104344,-0.03927856078968842,0.07158283110535758,-0.14937045516391634,0.43307310357140194
3166,13.675081900000803,0.061215835074190886,0.009336957673254664,-0.06135842919066843,0.007815495091427531,0.06641283059036479,-0.14779825503076374,-0.1406973413796945,-0.052784947436215555,-0.03740784776071366,0.07573790853649037,-0.14767300426256272,0.43351180858291083
3167,13.680358600002364,0.06109414427369107,0.009568668957047707,-0.062047168511652165,0.007208782891393697,0.06618357067885479,-0.14795568031735726,-0.14036130402398822,-0.05341874048934908,-0.03553536585853592,0.07987640560574506,-0.14596439732221816,0.43389445243519914
3168,13.68418220001331,0.06109414427369107,0.009568668957047707,-0.062047168511652165,0.0066035604642517565,0.06595159068208985,-0.14810501791134167,-0.14000743633940335,-0.05404513312230994,-0.03366135708215555,0.08399762392295168,-0.14424497377352224,0.4342210500524327
3169,13.688582600007068,0.06087719163205285,0.010055066196542438,-0.06367638144971924,0.005999904625498902,0.06571692264651183,-0.14824626176012362,-0.13963581448832016,-0.05466407940884673,-0.031786063340132356,0.08810086960355774,-0.14251507391257773,0.4344916268352203
3170,13.69289530000242,0.06079024290929412,0.010291982137482484,-0.06434592457108547,0.005397891855157549,0.06547959881356749,-0.14837940685550252,-0.139246517618555,-0.0552755348931715,-0.02990972640546231,0.09218545341061245,-0.14077503882222178,0.4347062186338877
3171,13.696556000009878,0.060671804590413846,0.010482404316681156,-0.0651252154345374,0.004797598284928725,0.06523965161336262,-0.14850444923298925,-0.13883962784294812,-0.055879456593140524,-0.02803258787057816,0.0962506908952359,-0.1390252102933719,0.43486487171915866
3172,13.700789000009536,0.06051530818869313,0.010667155489940102,-0.06602176320646826,0.004199099685434896,0.06499711365830295,-0.1486213859709292,-0.13841523021834715,-0.05647580300309639,-0.0261548891024852,0.1002959025355399,-0.13726593074646803,0.43496764275025573
3173,13.704794600009336,0.060458341079632216,0.010842009831039669,-0.0668159825063275,0.0036024714535547934,0.06475201773672344,-0.14873021518942986,-0.13797341272399358,-0.05706453409637201,-0.024276871198043334,0.10432041387396764,-0.1354975431530319,0.4350145987404388
3174,13.70910210000875,0.06034658118855225,0.011039104315111419,-0.06763200206454102,0.003007788599852808,0.06450439680650724,-0.14883093604909353,-0.13751426623932012,-0.05764561132745747,-0.02239877493940631,0.10832355565302024,-0.13372039095736438,0.43500581701999674
3175,13.712985700010904,0.06034658118855225,0.011039104315111419,-0.06763200206454102,0.002415125736105505,0.06425428398869584,-0.14892354874955546,-0.13703788452116566,-0.0582189976338308,-0.02052084074962893,0.11230466394933887,-0.13193481799840076,0.43494138519670694
3176,13.716881700005615,0.06019501674788075,0.01118167359071916,-0.06842603796187477,0.0018245570629277692,0.06400171256109208,-0.14900805452782842,-0.13654436418041488,-0.05878465743745291,-0.018643308648453025,0.11626308030611202,-0.13014116843174384,0.43482140111378037
3177,13.72074830000929,0.05998009996956345,0.011646479727170643,-0.07006172227552082,0.0012361563575010782,0.0637467159518575,-0.14908445565645506,-0.13603380465806975,-0.059342556645927795,-0.016766418208282927,0.1201981518637776,-0.12833978665189663,0.4346459728053137
3178,13.724299700013944,0.05984619987458466,0.011821477814294754,-0.07086866432637903,0.0006499969614063645,0.06348932773310563,-0.14915275544146944,-0.1355063082007601,-0.059892662653329376,-0.014890408510361048,0.12410923148899147,-0.12653101721471452,0.4344152184492678
3179,13.72807680000551,0.05984619987458466,0.011821477814294754,-0.07086866432637903,6.61517685638864e-05,0.0632295816144921,-0.1492129582201687,-0.13496197983569996,-0.060434944340695754,-0.013015518101154038,0.12799567790183414,-0.12471520476009634,0.4341292663179926
3180,13.732455700010178,0.05965174960419378,0.011979264609353956,-0.07161951202545244,-0.0005153067867175037,0.06296751143680344,-0.14926506935869507,-0.13440092734509806,-0.060969372076192206,-0.011141984948960073,0.1318568558012274,-0.12289269393493304,0.43378825472631805
3181,13.74063240000396,0.05915800549546339,0.012690729951784748,-0.07422768420529567,-0.001094306741579345,0.06270315116554534,-0.1493090952494298,-0.13382326124002977,-0.06149591771494416,-0.009270046400747531,0.13569213598853322,-0.12106382931633379,0.43339233197723437
3182,13.744717900000978,0.059007280503176114,0.012824868831317577,-0.0751167213073461,-0.0016707766163384854,0.06243653488453178,-0.14934504330819934,-0.13322909473377867,-0.06201455459854138,-0.007399939139235297,0.13950089548930808,-0.11922895533514855,0.43294165630518233
3183,13.748506000003545,0.059007280503176114,0.012824868831317577,-0.0751167213073461,-0.002244645426095646,0.06216769678947653,-0.1493729219712948,-0.1326185437146572,-0.06252525755421497,-0.00553189914022481,0.143282517673187,-0.11738841619980582,0.43243639581697924
3184,13.75281520000135,0.05874444700395208,0.012976551511417694,-0.07588346444000559,-0.0028158426922253806,0.06189667118158813,-0.14939274069230568,-0.1319917267183155,-0.06302800289368886,-0.0036661616301939186,0.14703639237187177,-0.11554255582048487,0.43187672843040376
3185,13.75712470000144,0.05827120326197239,0.01340787433575769,-0.07770734306289846,-0.0033842984537452185,0.06162349246117017,-0.1494045099387689,-0.1313487648995478,-0.06352276841170741,-0.0018029610441624867,0.1507619159951994,-0.1136917177336416,0.43126284181046753
3186,13.761467000003904,0.057994958525032295,0.013564247079466197,-0.0786156104244154,-0.003949943278561821,0.06134819512122812,-0.14940824118863336,-0.13068978200360498,-0.06400953338424024,5.746901616047801e-05,0.1544584916452658,-0.11183624502690748,0.43059493330340093
3187,13.765993900000469,0.05775227210519351,0.013687458763919469,-0.07940354362256735,-0.004512708274592004,0.06107081374108405,-0.14940394692654257,-0.13001490433702148,-0.0644882785663662,0.0019148958239384966,0.15812552922858125,-0.10997648026438,0.4298732098683805
3188,13.770638100002545,0.057448301198701535,0.013831032171676815,-0.08035851887877377,-0.005072525100756514,0.0607913829800008,-0.14939164063993618,-0.129324260737965,-0.06495898618983796,0.0037690875684685335,0.161762445566235,-0.10811276541232348,0.4290978880070255
3189,13.774818400008373,0.05723613485251688,0.01400197014663859,-0.08116613463912459,-0.0056293259778444705,0.060509937570816984,-0.14937133681497222,-0.12861798254611675,-0.0654216399603292,0.005619813396131708,0.16536866450204732,-0.10624544176529721,0.42826919369069
3190,13.77812350000022,0.05698880296027605,0.014100013804087085,-0.08193397011896701,-0.0061830436992464655,0.06022651231359421,-0.14934305093227127,-0.1278962035720918,-0.06587622505436629,0.007466843451024496,0.16894361700868757,-0.1043748498727295,0.42738736228558183
3191,13.782235600010608,0.056666106098539046,0.014273533881675841,-0.08290184248850058,-0.006733611641554318,0.05994114206927838,-0.14930679946248462,-0.12715906006640765,-0.06632272811594661,0.00930994891526122,0.17248674129173838,-0.10250132946595543,0.42645263847573495
3192,13.786238800006686,0.05644708922192471,0.014374634121230724,-0.08370246862205619,-0.0072809637750255295,0.05965386175337654,-0.14926259986168816,-0.12640669068801044,-0.06676113725284544,0.011148902048938746,0.17599748289168643,-0.10062521938573588,0.4254652761838665
3193,13.790573400008723,0.05611726872602006,0.014500503689464948,-0.08455146530598948,-0.007825034673910531,0.05936470632965013,-0.14921047056660283,-0.12563923647236688,-0.06719144203261339,0.012983476229754492,0.17947529478382082,-0.09874685751027493,0.42442553849014997
3194,13.794836800007031,0.05581601397463988,0.014629353355451676,-0.08545215776355537,-0.008365759526640856,0.05907371080382625,-0.14915043098964453,-0.12485684079913026,-0.06761363347826646,0.01481344599226889,0.18291963747602016,-0.09686658068375226,0.4233336975489374
3195,13.798970500007272,0.0555429292408486,0.014742427424017601,-0.08622918698227656,-0.008903074145876396,0.05878091021732832,-0.14908250151380611,-0.1240596493593892,-0.06802770406367088,0.01663858706680364,0.18632997910440952,-0.09498472464538738,0.42219003450346015
3196,13.802805100000114,0.0555429292408486,0.014742427424017601,-0.08622918698227656,-0.009436914978409953,0.058486339641027334,-0.14900670348737313,-0.12324781012250847,-0.06843364770862465,0.018458676417967154,0.18970579552687006,-0.09310162395905223,0.42099483939854015
3197,13.806090700003551,0.0555429292408486,0.014742427424017601,-0.08622918698227656,-0.009967219114927374,0.05819003416901492,-0.14892305921847476,-0.12242147330257147,-0.06883145977363851,0.02027349228279884,0.1930465704143847,-0.09121761194344781,0.419748411091344
3198,13.809570800003712,0.0555429292408486,0.014742427424017601,-0.08622918698227656,-0.010493924299621574,0.05789202891239966,-0.14883159196947124,-0.12158079132443393,-0.06922113705441893,0.022082814208523874,0.19635179534020403,-0.08933302060286051,0.4184510571602144
3199,13.813031100013175,0.05513374668626605,0.014820486719924468,-0.0869899017081208,-0.011016968939658815,0.05759235899312806,-0.14873232595118036,-0.1207259187893984,-0.06960267777605542,0.023886423089910475,0.1996209698668182,-0.08744818055851376,0.4171030938116147
3200,13.81667240000388,0.05415872273232418,0.015410312816481794,-0.08943929346526258,-0.011536292114495653,0.05729105953783168,-0.1486252863169456,-0.11985701244051883,-0.069976081586915,0.02568410120622165,0.2028536016307206,-0.08556342098053052,0.4157048457852186
3201,13.820341800004826,0.053867416898662854,0.015510385795361426,-0.09024035200560314,-0.01205183358504501,0.05698816567170133,-0.14851049915654804,-0.11897423112754549,-0.07034134955224604,0.02747563225775359,0.20604920642495025,-0.08367906952052219,0.4142566462571818
3202,13.824591300013708,0.05340905319526324,0.01567020518775249,-0.09116621579159474,-0.012563533802689876,0.056683712512389565,-0.1483879914899648,-0.11807773577151953,-0.07069848414749419,0.02926080140195312,0.20920730827939982,-0.08179545224481918,0.4127588367416282
3203,13.828517500005546,0.053096681641187866,0.015757657788245723,-0.09186880112697572,-0.013071333918143184,0.056377735163942504,-0.148257791260976,-0.1171676893290275,-0.07104748925133303,0.031039395289106736,0.21232743953887737,-0.07991289356835755,0.4112117669903873
3204,13.832219100004297,0.05271715506958262,0.01587110514698022,-0.0926349598348881,-0.013575175790152466,0.05607026871076203,-0.14811992733062226,-0.11624425675612512,-0.07138837013841187,0.03281120209759376,0.21540914093891095,-0.07803171618923607,0.40961579489101807
3205,13.836761200000185,0.052249666343228904,0.016043667011683426,-0.0934172872763374,-0.014075001994047884,0.05576134821159977,-0.14797442947051406,-0.11530760497193968,-0.07172113347182356,0.03457601156869626,0.21845196167928446,-0.07615224102395797,0.4079712863631547
3206,13.84050120000029,0.05189988523087397,0.016147607739080014,-0.09419054933860835,-0.014570755830132266,0.0554510086935837,-0.14782132835599412,-0.11435790282196122,-0.0720457872952953,0.036333615040958535,0.2214554594952955,-0.07427478714337185,0.40627861525320885
3207,13.843937400000868,0.05189988523087397,0.016147607739080014,-0.09419054933860835,-0.015062381331911796,0.05513928514627884,-0.14766065555915386,-0.11339532104103309,-0.07236234102510523,0.03808380548408916,0.2244192007267268,-0.0723996717093258,0.40453816322746566
3208,13.847699600009946,0.05189988523087397,0.016147607739080014,-0.09419054933860835,-0.015549823274166135,0.05482621251578304,-0.1474924435417052,-0.11242003221605198,-0.07267080544172737,0.03982637753239906,0.2273427603845235,-0.07052720991204806,0.40275031966361136
3209,13.852808900002856,0.05049232042847951,0.016550197133708606,-0.09636299565460336,-0.01603302718085677,0.05451182569885933,-0.1473167256477098,-0.1114322107483869,-0.07297119268120832,0.04156112751776887,0.23022572221516752,-0.06865771490826773,0.40091548154072876
3210,13.857087500000487,0.050091332765698326,0.016695497531503126,-0.09711163599909955,-0.016511939332872424,0.05419615953710572,-0.14713353609616686,-0.11043203281602702,-0.07326351622627918,0.0432878535021393,0.23306767876274295,-0.06679149776008868,0.3990340533277985
3211,13.86134000000311,0.049696102392697006,0.016824827105292255,-0.09781319289409107,-0.016986506775610456,0.05387924881116362,-0.14694290997346215,-0.1094196763354688,-0.0735477908972058,0.045006355309517986,0.235868231428687,-0.06492886737462954,0.397106446870745
3212,13.86604890000308,0.04919452563082074,0.01704336650854158,-0.09856441073659471,-0.017456677326393086,0.05356112823496592,-0.1467448832256807,-0.10839532092335223,-0.07382403284238097,0.04671643455749714,0.23862699052922123,-0.0630701304444422,0.39513308127806634
3213,13.870824900004664,0.04880534724263291,0.017152979548833117,-0.09924776648765156,-0.01792239958171749,0.05324183245002574,-0.14653949265078536,-0.10735914785785622,-0.07409225952866165,0.048417894688275676,0.24134357535045953,-0.06121559138872065,0.3931143828050896
3214,13.874166600013268,0.04834857280936974,0.017294705948966003,-0.10003978154491511,-0.01838362292433867,0.05292139601976719,-0.14632677589066456,-0.10631134003986277,-0.07435248973145514,0.050110540999180504,0.2440176142011887,-0.05936555229531237,0.39105078473688887
3215,13.878142100002153,0.04791755513477914,0.017427376536969366,-0.10069985580524116,-0.01884029753018419,0.05259985342389942,-0.14610677142305073,-0.10525208195389987,-0.0746047435245577,0.051794180672681565,0.2466487444633188,-0.05752031286354337,0.38894272726990425
3216,13.882754200007184,0.04791755513477914,0.017427376536969366,-0.10069985580524116,-0.01929237437509976,0.052277239052834885,-0.14587951855331147,-0.10418155962887268,-0.07484904226974953,0.05346862280589508,0.2492366126400011,-0.05568017034786821,0.3867906573923005
3217,13.888702700001886,0.04791755513477914,0.017427376536969366,-0.10069985580524116,-0.01973980524142481,0.05195358720215291,-0.14564505740611564,-0.1030999605985939,-0.07508540860614926,0.05513367843956969,0.2517808744014116,-0.053845419502355926,0.3845950287631053
3218,13.892500400004792,0.047395512934446216,0.0174307434479374,-0.10122190270607731,-0.02018254272439719,0.05162893206710945,-0.1454034289169773,-0.10200747386212351,-0.0753138664393313,0.05678916058655026,0.2542811946281992,-0.05201635252602289,0.3823563015901678
3219,13.89938410000468,0.04594276778601178,0.018280742578227975,-0.10407738858192513,-0.02062054023838623,0.05130330773719408,-0.14515467482367989,-0.10090428984392778,-0.07553444093020957,0.05843488425971448,0.2567372474525978,-0.050193259009022516,0.38007494250697854
3220,13.903042000005373,0.045554781576809006,0.018386466969703592,-0.10478138844649919,-0.021053752022953426,0.050976748190735166,-0.14489883765758207,-0.09979060035386708,-0.0757471584836913,0.06007066649937774,0.2591487162972024,-0.048376425879702055,0.37775142444838916
3221,13.907256700011205,0.04518605040823475,0.018505645078604444,-0.10554124568482212,-0.02148213314874001,0.05064928728955433,-0.14463596073480792,-0.09866659854702285,-0.07595204673710428,0.06169632640016164,0.2615152939114109,-0.04656613735253596,0.3753862265252716
3222,13.911520500012555,0.044843268582599675,0.018656436326333153,-0.10627453433895423,-0.021905639523180705,0.050320958773671196,-0.14436608814732288,-0.09753247888337392,-0.07614913454840118,0.06331168513732184,0.26383668240553504,-0.044762674876945414,0.3729798338981576
3223,13.915557700005593,0.044417614158595596,0.018838421370474853,-0.10695526222840585,-0.02232422789604295,0.04999179625605927,-0.14408926475389902,-0.09638843708733226,-0.07633845198414477,0.06491656599253101,0.2661125932825822,-0.04296631708701309,0.37053273764989925
3224,13.919816800000262,0.044061157857294905,0.018945324775275163,-0.10760432682201634,-0.022737855864791125,0.04966183321745407,-0.14380553617097208,-0.09523467010714817,-0.07652003030727753,0.06651079437911284,0.26834274746771214,-0.04117733975210191,0.36804543465739054
3225,13.923757300013676,0.04364353018807016,0.01919830721515253,-0.10836092495992379,-0.023146481879775093,0.04933110300121439,-0.14351494876339213,-0.09407137607419483,-0.07669390196467976,0.06809419786672304,0.2705268753353737,-0.03939601572838628,0.36551842746238933
3226,13.928046000000904,0.04319867565352642,0.01938810945471534,-0.10893608743095837,-0.023550065249242573,0.04899963880823748,-0.14321754963507016,-0.09289875426214168,-0.07686010057451989,0.06966660620547396,0.272664716734124,-0.0376226149113039,0.36295222414148093
3227,13.932324400011566,0.04274504133089966,0.019583066946453457,-0.1094946167082274,-0.02394856614417477,0.04866747369192898,-0.1429133866195232,-0.09171700504602676,-0.07701866091340084,0.07122785134949941,0.27475602100913576,-0.03585740418893598,0.3603473381752238
3228,13.936319100001128,0.04225777546402107,0.01973726733050546,-0.1101833437670195,-0.024341945602944837,0.04833464055322852,-0.14260250827032056,-0.09052632986123807,-0.07716961890330652,0.07277776747995637,0.27680054702239804,-0.034100647396323264,0.35770428831651513
3229,13.940532500011614,0.04189981153573471,0.019912232181902398,-0.11084245857815915,-0.024730165535798643,0.04800117213569185,-0.14228496385143308,-0.08932693116241425,-0.07731301159835267,0.07431619102746083,0.2787980631706199,-0.03235260527072499,0.3550235984582159
3230,13.943948300002376,0.04189981153573471,0.019912232181902398,-0.11084245857815915,-0.025113188729157587,0.04766710102063046,-0.14196080332748792,-0.08811901238227417,-0.07744887717134628,0.07584296069395431,0.2807483474008428,-0.030613535407827786,0.3523057975000741
3231,13.947535900006187,0.04189981153573471,0.019912232181902398,-0.11084245857815915,-0.025490978849743252,0.04733245962230934,-0.14163007735393143,-0.08690277789038567,-0.07757725490015731,0.07735791747399832,0.28265118722376953,-0.028883692218911027,0.3495514192149851
