,time,x,y,z,vx,vy,vz,ax,ay,az,jx,jy,jz
2243,10.151133699997445,-0.08240362312924528,-0.012873816452040708,0.019319528668772453,-0.004775173591225027,-0.02035079727572922,0.01506914416136169,0.06447370768356574,0.02626745985994025,0.0015077069808218594,0.18661205709155815,0.24950496107010614,-0.19896047903847866
2244,10.15546720000566,-0.08242762424718111,-0.012857005325871636,0.01933542625284926,-0.004482946234542524,-0.020230006243868056,0.015073949712309995,0.06531286897255563,0.02739508232364043,0.000606322266051052,0.18604822481498132,0.2512755904936401,-0.20137137346837594
2245,10.159654600007345,-0.0824362012323115,-0.012837882652996908,0.019368451899633234,-0.00418694538137052,-0.02010411918089263,0.015074671434105538,0.06614941654090693,0.0285306287709777,-0.0003058984157494947,0.1854517453110854,0.25302497150333214,-0.20377269634265044
2246,10.1630359999981,-0.0824362012323115,-0.012837882652996908,0.019368451899633234,-0.0038871831298726172,-0.01997310061473426,0.015071260615806747,0.066983203070033,0.029674002535166253,-0.0012289110131714044,0.18482250132692524,0.2547526899575905,-0.2061640219331264
2247,10.168866500011063,-0.08260880091594613,-0.01280602006814435,0.019382742902735523,-0.003583672243002693,-0.01983691551309455,0.015063668749378686,0.06781408072621288,0.030825105089956378,-0.0021626695567363873,0.1841603807522993,0.2564583328967416,-0.2085449239723349
2248,10.172498700005235,-0.08248305566570617,-0.012773581870446818,0.019443588635044338,-0.003276426150780473,-0.019695529291815336,0.015051847538349285,0.06864190118394026,0.03198383605522483,-0.003107126156629986,0.18346527667751644,0.2581414886291709,-0.21091497572780904
2249,10.17625410000619,-0.08249657596442132,-0.012743095216531842,0.019484304974783456,-0.002965458952461172,-0.019548907823222363,0.01503574890647471,0.06946651564952938,0.033150093202950016,-0.004062231000770399,0.1827370874505503,0.25980174681784357,-0.21327375007683383
2250,10.180383900005836,-0.08251320630613586,-0.012722290603904248,0.01951675852721082,-0.002650785418598045,-0.019397017444440837,0.015015325006412384,0.07028777488497527,0.03432377246357348,-0.005027932353214385,0.18197571673356303,0.2614386985671887,-0.2156208195816361
2251,10.186669400005483,-0.08254386832110791,-0.01268117722295926,0.019578656068917198,-0.0023324209929966866,-0.019239824965681038,0.014990528228400165,0.07110552923206519,0.0355047679327493,-0.006004176552902193,0.18118107355877924,0.2630519365103338,-0.21795575656500177
2252,10.190676500002157,-0.08256120707409037,-0.012662950188706047,0.019612066464223664,-0.0020103817945599295,-0.019077297678492294,0.014961311208940105,0.07191962863673833,0.03669297187848292,-0.006990908012743398,0.18035307238369275,0.26464105489667245,-0.220278133186307
2253,10.197136100003265,-0.08260680791931142,-0.012617452146557132,0.019682891247937737,-0.001684684619022187,-0.018909403363983605,0.014927626839485298,0.07272992267369088,0.03788827474866089,-0.007988069219045477,0.1794916331455867,0.26620564967975074,-0.2225875215179485
2254,10.20134610000241,-0.0826340543612819,-0.012596881656752807,0.01971435100987559,-0.0013553469405721227,-0.018736110301009096,0.01488942827512826,0.07353626057122292,0.03909056517897265,-0.008995600731286827,0.17859668131534995,0.26774531860545847,-0.22488349362215743
2255,10.20539600000484,-0.08267476765641328,-0.012576043421234282,0.01975467261392098,-0.0010223869133625452,-0.018557387274316512,0.014846668943289284,0.07433849123632393,0.04029973000122568,-0.01001344118223594,0.17766814795057118,0.269259661300508,-0.22716562162818185
2256,10.209468900007778,-0.08269202061035773,-0.012542716119418852,0.019793772901490658,-0.0006858233729064505,-0.018373203582657066,0.014799302552403243,0.07513646327999376,0.04151565425205503,-0.011041527278418369,0.17670596974789268,0.27074827936118423,-0.22943347780982312
2257,10.214208700010204,-0.0827224490608847,-0.012513662853607324,0.019820443411202742,-0.0003456758373581417,-0.01818352904685473,0.014747283100603203,0.0759300250427956,0.04273822118202845,-0.01207979380093309,0.17571008909460592,0.27221077644234815,-0.23168663466331238
2258,10.217852900008438,-0.08275093344497077,-0.01248468346148734,0.019851323638559775,-1.964508678365592e-06,-0.01798833401783325,0.014690564884399317,0.07671902462063708,0.0439673122651481,-0.01312817360661968,0.17468045411946978,0.27364675834667684,-0.23392466498551143
2259,10.22211360000074,-0.0827794415899852,-0.012466788130056194,0.019888074624254508,0.00034528972631757366,-0.017787589384599126,0.014629102507351386,0.07750330989077601,0.045202807208749654,-0.01418659762957774,0.173617018742732,0.2750558331141223,-0.23614714195242326
2260,10.22607980000612,-0.08280499981195014,-0.012425812192927651,0.019905097095604,0.0006960652950297484,-0.017581266582178692,0.014562850888733393,0.07828272853804664,0.046444583963799614,-0.015254994883039911,0.1725197427253352,0.2764376111115705,-0.2383536391979967
2261,10.23046950000571,-0.08283745751249441,-0.012423508504856908,0.019932515963913218,0.0010503399382625945,-0.017369337599507453,0.014491765272188444,0.07905712808130276,0.04769251873559172,-0.01633329246159968,0.1713885917172891,0.2777917051226827,-0.24054373089320977
2262,10.23512810000102,-0.0828573389529584,-0.012378051517991727,0.01996137043131809,0.0014080907095339412,-0.017151774987269906,0.014415801234372434,0.07982635590007371,0.04894648599484306,-0.017421415543795164,0.17022353730519,0.2791177304379003,-0.2427169918254164
2263,10.238709400000516,-0.08288018473880364,-0.012359558263608982,0.019981913785679806,0.0017692939745050497,-0.01692855186568822,0.014334914693584867,0.08059025926142926,0.050206358489190375,-0.018519287395049953,0.16902455705886935,0.28041530494459205,-0.24487299747794083
2264,10.24300729999959,-0.08292151816685182,-0.01234143851285013,0.020000271411711186,0.0021339254105326054,-0.016699641932257966,0.014249061918385231,0.08134868534704952,0.05147200725508743,-0.019626829370972192,0.16779163457715124,0.2816840492173246,-0.24701132410990403
2265,10.246540799998913,-0.08292151816685182,-0.01234143851285013,0.020000271411711186,0.0025019600063435963,-0.01646501946942913,0.01415819953619332,0.08210148128049546,0.05274330163010397,-0.02074396092101297,0.16652475953270018,0.2829235866082376,-0.24913154883626676
2266,10.250686900006258,-0.0830765078273205,-0.01229929327451418,0.019991063187717685,0.0028733720618339853,-0.016224659352230445,0.014062284541871918,0.08284849415467645,0.054020109265627024,-0.021870599592485034,0.1652239277159411,0.28413354333750535,-0.2512332497080737
2267,10.255047400001786,-0.08300863661275071,-0.012303481818122283,0.02004705866660104,0.003248135187992075,-0.015978537055835282,0.013961274306290163,0.08358957105951033,0.05530229613996508,-0.02300666103494278,0.16388914107803315,0.28531354858386415,-0.2533160057928823
2268,10.259818799997449,-0.08300863661275071,-0.012303481818122283,0.02004705866660104,0.00362622230694743,-0.015726628663067118,0.013855126584865842,0.08432455910977217,0.05658972657185536,-0.02415205900492424,0.16252040777287835,0.2864632345751866,-0.25537939725536046
2269,10.263792300000205,-0.08315660126407289,-0.012274428571178268,0.020048608996419855,0.004007605652146209,-0.015468910871842729,0.013743799526085095,0.08505330547312713,0.057882263234374356,-0.025306705371055727,0.1611177421981467,0.2875822366790824,-0.2574230054380356
2270,10.26785160000145,-0.08310145739301483,-0.012279565682463627,0.020099668007482276,0.0043922567686537324,-0.015205361002551208,0.01362725167999778,0.08577565739834299,0.05917976716925151,-0.02647051011951975,0.1596811650352991,0.28867019349350587,-0.25944641294217863
2271,10.272056900008463,-0.08313414235915491,-0.012278060809505909,0.020121659381089566,0.0047801465135851005,-0.014935957005366964,0.01350544200668685,0.08649146224367706,0.060482097801586164,-0.027643381359886827,0.1582107032885893,0.2897267469373483,-0.26144920370880753
2272,10.276466399998752,-0.08317040935459585,-0.012270358275539947,0.020136008073434464,0.005171245056664636,-0.014660677467494792,0.013378329884710178,0.08720056750543312,0.06178911295496773,-0.02882522533131145,0.1567063903230268,0.29075154234099426,-0.26343096309979325
2273,10.280454599997029,-0.08321177972256984,-0.012268264033795214,0.02015363725584491,0.0055655218809149394,-0.014379501620345231,0.013245875119513245,0.08790282084668376,0.06310066886699894,-0.030015946409092574,0.1551682659012831,0.29174422853682164,-0.26539127797905127
2274,10.284699399999226,-0.08325902748495675,-0.012288919161059252,0.020148244297130254,0.005962945783476278,-0.014092409346638291,0.013108037951811024,0.0885980701261534,0.064416620205222,-0.031215447111599043,0.1535963762195232,0.2927044579496216,-0.26732973679380106
2275,10.28874450000876,-0.08329911176224779,-0.012296650899596301,0.020151171515673985,0.006363484876557,-0.013799381187433745,0.012964779065937413,0.08928616342725695,0.06573682008344715,-0.03242362810756042,0.15199077394214483,0.2936318866869182,-0.2692459296558759
2276,10.292909900002996,-0.08332898180909623,-0.012304958235984794,0.02016479018064169,0.006767106588515666,-0.013500398349086108,0.012816059598160554,0.08996694908728935,0.06706112007848315,-0.033640388223723304,0.15035151823540724,0.2945261746291669,-0.2711394484230644
2277,10.297458700006246,-0.08336015844735166,-0.012312325196114159,0.020178454099149125,0.007173777665075528,-0.013195442710122582,0.012661841144962362,0.09064027572676121,0.06838937024726897,-0.034865624452873285,0.1486786747999321,0.2953869855198094,-0.27300988678046473
2278,10.301235200007795,-0.08338786813171402,-0.01232716737959449,0.02018989548036744,0.007583464170671977,-0.012884496828042201,0.012502085771280591,0.09130599227887547,0.06972141914440601,-0.036099231962222644,0.14697231590205928,0.2962139870551616,-0.27485684032183444
2279,10.30544589999772,-0.08341942721024306,-0.012342685694706286,0.020204269432403766,0.007996131489933556,-0.01256754394603437,0.012336756018711752,0.09196394801913955,0.07105711384009028,-0.037341104102163895,0.14523252040403978,0.29700685097411167,-0.2766799066309187
2280,10.30897850000474,-0.08341942721024306,-0.012342685694706286,0.020204269432403766,0.008411744329297073,-0.012244567999615095,0.012165814913673217,0.092613992595108,0.07239629993844408,-0.03859113241538913,0.14345937379304863,0.29776525314760405,-0.27847868536273845
2281,10.312300800011144,-0.08341942721024306,-0.012342685694706286,0.020204269432403766,0.00883026671875741,-0.011915553623179174,0.011989225975522912,0.09325597605625001,0.07373882159624605,-0.039849206646375,0.14165296820899986,0.2984888736678868,-0.28025277832481876
2282,10.315588400000706,-0.08341942721024306,-0.012342685694706286,0.020204269432403766,0.009251662013752512,-0.011580486156466487,0.011806953224634875,0.09388974888393666,0.0750845215420585,-0.04111521475123303,0.13981340247114638,0.29917739693749984,-0.2820017895583372
2283,10.32014049999998,-0.08341942721024306,-0.012342685694706286,0.020204269432403766,0.009675892897184098,-0.011239351650940668,0.011618961190429053,0.09451516202154238,0.07643324109575086,-0.0423890429079251,0.13794078210344873,0.29983051175798214,-0.283725325419175
2284,10.324276400002418,-0.08341942721024306,-0.012342685694706286,0.020204269432403766,0.010102921381574547,-0.010892136876078366,0.011425214919353612,0.0951320669046557,0.0777848201884183,-0.04367057552684358,0.13603521935869597,0.30044791141827426,-0.2854229946588524
2285,10.327994999999646,-0.08358325676289063,-0.012335248218686055,0.02019448989013649,0.010532708811360475,-0.01053882932556736,0.01122567998281813,0.09574031549139365,0.07913909738269435,-0.044959695261755875,0.1340968332413614,0.301029293782793,-0.28709440850532963
2286,10.332242500007853,-0.08362861354670968,-0.012452358990502052,0.020234013725821204,0.01096521586532348,-0.01017941722341177,0.011020322485076037,0.09633976029281398,0.08049590989345629,-0.04625628302111263,0.13212574952917572,0.30157436137915467,-0.28873918074365484
2287,10.33640820000437,-0.08364948759255571,-0.012487394993082887,0.020256578139636123,0.011400402559158522,-0.009813889529942603,0.010809109071054628,0.09693025440341878,0.0818550936089211,-0.04756021797971882,0.13012210079340072,0.3020828214855228,-0.29035692779643996
2288,10.3405819000036,-0.0836792162097589,-0.012502251102779707,0.02024888238839402,0.011838228248180318,-0.009442235947731845,0.010592006934131,0.097511651531744,0.08321648311213058,-0.04887137759076665,0.12808602641778755,0.302554386217557,-0.2919472688041464
2289,10.34478690000833,-0.08370818861200965,-0.01251366509829765,0.02024976368111729,0.012278651630168056,-0.009064446927408253,0.01036898382385233,0.0980838060310289,0.08457991170282354,-0.05018963759822915,0.12601767261620286,0.30298877261493967,-0.29350982570516465
2290,10.35321390000172,-0.0838853798137758,-0.012505625762249199,0.0202344706186932,0.01272163074834882,-0.008680513673373165,0.01014000805359888,0.09864657292995926,0.08594521141969384,-0.05151487204961365,0.12391719244890823,0.30338570272745524,-0.29504422331566904
2291,10.359967700002016,-0.08381224424636424,-0.012591802482768344,0.02022882543434166,0.013167122994520004,-0.008290428149414553,0.009905048508188095,0.09919980796347812,0.08731221306303236,-0.05284695330907432,0.12178474583747588,0.3037449037005975,-0.2965500894092282
2292,10.364700300007826,-0.08384600879151652,-0.012597700273463791,0.020224164205682932,0.013615085112311067,-0.007894183084217616,0.009664074651418213,0.09974336760365757,0.08868074621775092,-0.05418575207088276,0.11962049957832492,0.3040661078606817,-0.2980270547961522
2293,10.368888800003331,-0.08384600879151652,-0.012597700273463791,0.020224164205682932,0.014065473200584815,-0.007491771976770225,0.009417056533549725,0.10027710909062625,0.09005063927678608,-0.05553113737325588,0.11742462735486202,0.30434905279943564,-0.2994747534025569
2294,10.372092300007353,-0.08400267382191015,-0.012591028286065412,0.020195624601228847,0.014518242716978472,-0.007083189101661468,0.009163964798723126,0.10080089046354608,0.09142171946488019,-0.05688297661253952,0.11519730974821234,0.30459348145804405,-0.3008928223491264
2295,10.376208500005305,-0.08392286770590653,-0.012635214191307151,0.02021264455681498,0.014973348481584754,-0.006668429514271667,0.00890477069231125,0.10131457059163243,0.09279381286273707,-0.058241135557746626,0.1129387342465252,0.30479914221062304,-0.3022809020295546
2296,10.380346600009943,-0.0839378957142917,-0.012646768390952206,0.020218545003197107,0.015430744680773118,-0.006247489055852171,0.00863944606820462,0.10181800920521156,0.09416674443154947,-0.05960547836544858,0.11064909525283963,0.3049657889470992,-0.30363863618864845
2297,10.384842900006332,-0.08396792208749985,-0.012664689931062895,0.02021777647743407,0.015890384871151363,-0.00582036435849331,0.008367963396028267,0.10231106692680866,0.0955403380378959,-0.06097586759501829,0.10832859409149481,0.30509318115546574,-0.30496567200007435
2298,10.388814000005368,-0.08399232445416106,-0.012665979656904192,0.02022038826775062,0.016352221983667665,-0.005387052849978884,0.008090295768288451,0.10279360530226006,0.0969144164790039,-0.062352164224223454,0.10597743901307119,0.30518108400339,-0.30626166014373024
2299,10.392873000004329,-0.08401642418899533,-0.01267069420495123,0.020228456276907395,0.016816208327853157,-0.004947552758525571,0.00780641690744769,0.10326548683184282,0.09828880150837711,-0.06373422766516833,0.10359584519784813,0.3052292684191475,-0.3075262548827243
2300,10.398075900011465,-0.0840405734179764,-0.012652676779033591,0.02026196024989078,0.01728229559620511,-0.004501863117405623,0.007516301172926468,0.10372657500141548,0.09966331386178344,-0.0651219157805826,0.10118403475776416,0.305237511171856,-0.3087591141399425
2301,10.401520700004768,-0.08406713971350638,-0.012651889547750542,0.020269479408121398,0.01775043486871073,-0.004049983769451217,0.007219923568030111,0.10417673431356345,0.10103777328360142,-0.06651508490045557,0.09874223673686601,0.30520559495098415,-0.3099598995741876
2302,10.405522300003213,-0.08408735267707358,-0.012644410688001845,0.020273644860335203,0.018220576617511454,-0.0035919153714389367,0.0069172597467992815,0.10461583031874254,0.10241199855352198,-0.06791358983901377,0.09627068711023325,0.30513330844510855,-0.3111282766558703
2303,10.411566700000549,-0.08411305906561282,-0.012642859256146643,0.02028804131628882,0.018692670711707653,-0.003127659398352749,0.006608286020782537,0.10504372964641348,0.1037858075136024,-0.06931728391204005,0.09376962878136587,0.3050204464198929,-0.31226391474223486
2304,10.417628900002455,-0.08418721724395889,-0.012647332638626234,0.02031867858227133,0.01916666642230374,-0.002657218147523942,0.006292979365729501,0.10546030003616032,0.10515901709566927,-0.07072601895453189,0.09123931157802256,0.30486680979526304,-0.3133664871521004
2305,10.42184609999822,-0.08420882128658473,-0.012640182367504403,0.02033898753526526,0.019642512427293632,-0.0021805947426464557,0.00597131742820315,0.10586541036878622,0.10653144334906699,-0.07213964533869699,0.08867999224649734,0.30467220572175263,-0.31443567124009736
2306,10.42609100000118,-0.08422867516249473,-0.012635106957338871,0.02035661807857498,0.020120156816886395,-0.00169779313766609,0.005643278532109723,0.10625893069737996,0.10790290146874795,-0.07355801199228448,0.08609193444432223,0.30443644765599503,-0.31547114847038216
2307,10.430408200001692,-0.08425811057732663,-0.01262034460593594,0.02037466705579303,0.020599547098871806,-0.0012088181205420967,0.005308841685144778,0.10664073227834608,0.10927320582370129,-0.07498096641724909,0.08347540873138429,0.30415935543533534,-0.31647260448981385
2308,10.434653800009984,-0.08429483307857183,-0.012611430461668844,0.020416215303790782,0.021080630204125653,-0.0007136753168796515,0.0049679865851539285,0.10701068760239135,0.11064216998571588,-0.07640835470874537,0.08083069255944518,0.3038407553515366,-0.3174397292005743
2309,10.438789500010898,-0.08431682037742198,-0.012604434276905998,0.020435069602658232,0.021563352492254495,-0.00021237119343173554,0.004620693626406803,0.10736867042545978,0.11200960675847418,-0.07784002157444897,0.0781580702600525,0.3034804802235522,-0.3183722168322136
2310,10.442176600001403,-0.08431682037742198,-0.012604434276905998,0.020435069602658232,0.02204765975737957,0.00029508693853103263,0.0042669439057827765,0.10771455579960937,0.11337532820697287,-0.0792758103542022,0.07545783303083176,0.3030783694693385,-0.3192697660131031
2311,10.446689300006256,-0.08450565832800691,-0.01256396835606828,0.02043597765906774,0.02253349723405956,0.000808690919984044,0.003906719228867069,0.10804822010382338,0.11473914568726679,-0.08071556303998069,0.07273027892014848,0.30263426917668396,-0.3201320798412775
2312,10.45119110000087,-0.08438780486812068,-0.012574706624609269,0.020493027341696203,0.02302080960335184,0.0013284317410472365,0.0035400021159557563,0.10836954107474912,0.11610086987653163,-0.08215912029617813,0.0699757128101304,0.30214803217302805,-0.32095886595465
2313,10.455343900001026,-0.08442301983891379,-0.012571047513494388,0.020495533252897456,0.023509540999011893,0.001854299538019916,0.0031667758079683126,0.10867839783735708,0.11746031080344076,-0.08360632148020597,0.06719444639803995,0.3016195180942457,-0.3217498366005812
2314,10.459436800010735,-0.08443421049477572,-0.012535728074254853,0.020544707146145504,0.023999635013830595,0.002386283590553227,0.002787024272266285,0.1089746709355126,0.11881727787885189,-0.08505700466340504,0.06438679817598811,0.3010485934523695,-0.32250470870478387
2315,10.463671300007263,-0.0844781146074533,-0.012546972729245178,0.020555610094627898,0.02449103470610895,0.0029243723189616238,0.0024007322083767378,0.1092582423624524,0.12017157992679889,-0.08651100665226587,0.06155309340898083,0.30043513170222336,-0.3232232039395428
2316,10.472132399998372,-0.0845170203015061,-0.012518870765731598,0.020573847976030138,0.024983682606269833,0.0034685532816746624,0.002007885053619115,0.10952899559115815,0.12152302521578337,-0.08796816300995437,0.0586936641112895,0.2997790133069406,-0.32390504879123105
2317,10.47872670000652,-0.0845170203015061,-0.012518870765731598,0.020573847976030138,0.025477520723606227,0.004018813172830403,0.00160846898863416,0.10978681560461881,0.12287142149036147,-0.08942830807813998,0.05580884902113723,0.2990801258023402,-0.3245499746271057
2318,10.483047000001534,-0.08471757570599525,-0.012488929039059786,0.02056826272601636,0.02597249055316545,0.0045751378200117035,0.001202470942813566,0.11003158892597459,0.12421657600302068,-0.0908912749991228,0.052898993573693626,0.29833836386013424,-0.32515771776136515
2319,10.48880089999875,-0.08458377774042451,-0.012465616573300677,0.020611845783873418,0.026468533082768822,0.00513751218212664,0.0007898785996290322,0.1102632036485349,0.12555829554634124,-0.09235689573825685,0.04996444987237048,0.2975536293499416,-0.3257280195204508
2320,10.493978800004696,-0.08460045207095797,-0.012436987678665705,0.020611981899590546,0.02696558880016625,0.0057059203474342825,0.00037068040185944,0.11048154946566278,0.1268963864854365,-0.09382500110666579,0.04700557665841135,0.29672583140008146,-0.32626062630757746
2321,10.497338700006368,-0.08461393674129224,-0.012426600752149495,0.020614374030107737,0.02746359770032504,0.0062803455317170295,-5.5134443285141515e-05,0.11068651770051853,0.12823065479066678,-0.09529542078424816,0.04402273927876795,0.29585488645711894,-0.32675528966647277
2322,10.501248700005815,-0.08463365118497355,-0.012439680063362693,0.020636690190937335,0.02796249929285222,0.00686077007660066,-0.0004875759591438712,0.11087800133565444,0.12956090607062073,-0.09676798334296871,0.04101630965225739,0.29494071834413815,-0.32721176634430776
2323,10.505514200005564,-0.08464690817836382,-0.01243052911547003,0.020641309096319168,0.028462232609549602,0.007447175448023264,-0.0009266533946912264,0.11105589504245346,0.1308869456053589,-0.09824251627043233,0.037986666233994514,0.2939832583177166,-0.32762981835380356
2324,10.509762400004549,-0.08466503853667356,-0.012421880057550247,0.020643819723688377,0.02896273621210078,0.008039542234854145,-0.0013723752197299971,0.11122009521040399,0.13220857837991407,-0.09971884599373652,0.03493419397809439,0.2929824451235762,-0.3280092130344969
2325,10.51378079999995,-0.08468517198318501,-0.012420663981433738,0.020649485874398167,0.029463948199889182,0.008637850147663799,-0.0018247491201923989,0.1113704999762031,0.13352560911804232,-0.10119679790359924,0.03185928429864025,0.2919382250508849,-0.3283497231131469
2326,10.517887599999083,-0.08470587467324597,-0.0124069900255075,0.02065332315163364,0.029965806217946256,0.009242078017646059,-0.0022837819935504957,0.11150700925268071,0.1348378423162197,-0.10267619637875784,0.02876233502891252,0.2908505519851843,-0.32865112676326785
2327,10.52306820001104,-0.08474157836109196,-0.012405121181920456,0.02065870717916882,0.030468247465028988,0.009852203795693456,-0.0027494799443371094,0.11162952475753617,0.1361450822778783,-0.1041568648106349,0.025643750378875195,0.2897193874599184,-0.32891320766377125
2328,10.526411900005767,-0.08474157836109196,-0.012405121181920456,0.02065870717916882,0.030971208701825813,0.01046820455162681,-0.0032218482797783726,0.11173795004187939,0.13744713314787574,-0.10563862562826692,0.022503940890916323,0.28854470070653787,-0.3291357550567004
2329,10.53149910000502,-0.08474157836109196,-0.012405121181920456,0.02065870717916882,0.03147462625928998,0.011090056473580037,-0.0037008915055390707,0.1118321905185687,0.1387437989471925,-0.10712130032349233,0.019343323393839876,0.28732646870315226,-0.32931856380404206
2330,10.53971250000177,-0.08476779076390827,-0.012386034851788302,0.020653992487808345,0.0319784360470994,0.011717734867541104,-0.004186613321581891,0.11191215349033734,0.14003488360785066,-0.10860470947639421,0.016162320955106627,0.286064676221708,-0.32946143444360015
2331,10.543278900004225,-0.08496627098122338,-0.012386805767420322,0.020636869359895293,0.03248257356224202,0.012351214157050153,-0.0046790166181416805,0.11197774817770083,0.1413201910080467,-0.11008867278099406,0.012961362831322152,0.2847593158736702,-0.32956417324391535
2332,10.547524499997962,-0.08486228365012806,-0.012405834866739292,0.02060704393994525,0.032986973897725654,0.01299046788305571,-0.005178103471815798,0.11202888574663691,0.14259952500749173,-0.11157300907119165,0.0097408844169707,0.28341038815418257,-0.32962659225821417
2333,10.551753599997028,-0.0848700472635038,-0.012423428383135633,0.02060356963426116,0.03349157175141139,0.013635468703929813,-0.005683875141771632,0.11206547933603107,0.14387268948295143,-0.11305753634694629,0.0065013271913941465,0.28201790148468153,-0.32964850937737195
2334,10.557305100010126,-0.08488589017871197,-0.012450805296317664,0.020602449088014035,0.033996301434969366,0.014286188395642985,-0.0061963320660723175,0.11208744408487997,0.1451394883639792,-0.11454207180069521,0.0032431386640157764,0.28058187225394093,-0.3296297483818751
2335,10.561550600003102,-0.08488589017871197,-0.012450805296317664,0.020602449088014035,0.03450109688295591,0.014942597852099919,-0.006715473858121668,0.11209469715924558,0.14639972566883425,-0.11602643184400452,-3.322768219095995e-05,0.27910232485752445,-0.32957013899276677
2336,10.565899400011403,-0.08504714366195953,-0.012445308065197362,0.02056219076449744,0.03500589166201078,0.015604667085636648,-0.007241299303229308,0.11208715777895133,0.14765320554057787,-0.117510432134448,-0.003327312448987974,0.2775792917356237,-0.3294695169215611
2337,10.570007500005886,-0.08493749235399299,-0.012504607336538224,0.020530932502425235,0.03551061898017294,0.01627236522767999,-0.0077738063552969736,0.11206474724401282,0.14889973228334094,-0.11899388760270968,-0.006638650382911096,0.2760128134092602,-0.32932772391911175
2338,10.57396580000932,-0.08494594624348713,-0.012520173102868855,0.020525843818906,0.03601521169631354,0.016945660529569962,-0.008312992133626938,0.11202738896079505,0.15013911039875594,-0.12047661247990493,-0.00996677043705987,0.2744029385148306,-0.3291446078234222
2339,10.580247400008377,-0.08496966129595164,-0.012544089205920766,0.020506577994720658,0.036519602329684826,0.01762452036354583,-0.008858852919853513,0.11197500846788863,0.15137114462254514,-0.12195842032511518,-0.013311195834636236,0.27274972383697155,-0.3289200226063861
2340,10.584622299997136,-0.08499573079871375,-0.012561601336693897,0.020494204744238482,0.03702372306958362,0.01830891122389646,-0.009411384154998528,0.11190753346169727,0.15259563996125644,-0.12343912405313098,-0.016671444134229198,0.2710532343397235,-0.328653828419443
2341,10.589122600009432,-0.08501492679529575,-0.012577100402062079,0.020492263900636597,0.03752750578512827,0.01899879872827563,-0.009970580436651643,0.11182489382172842,0.15381240172913926,-0.12491853596239838,-0.02004702729684203,0.26931354319597145,-0.3283458916381345
2342,10.592506700006195,-0.08501492679529575,-0.012577100402062079,0.020492263900636597,0.03803088203514763,0.019694147619182995,-0.010536435516276426,0.1117270216355786,0.1550212355851532,-0.12639646776316357,-0.02343745175465803,0.26753073181514375,-0.3279960849055465
2343,10.59714920000988,-0.08519411720437868,-0.012567998257717011,0.02046833623119144,0.038533783078180624,0.020394921765611345,-0.011108942296643026,0.11161385122360631,0.15622194757010255,-0.12787273060581128,-0.026842218481540305,0.2657048898691486,-0.3276042871746254
2344,10.602699299997768,-0.08506323393874396,-0.012603770242260426,0.02047261118769344,0.03903613988258498,0.021101084164860638,-0.011688092829388244,0.11148531916328489,0.1574143441438893,-0.12934713510939203,-0.030260823065260407,0.263836115316528,-0.32717038374935314
2345,10.60619520000182,-0.08507403464261921,-0.012633471949996967,0.02048898275147974,0.03953788313675367,0.021812596944519275,-0.01227387831270376,0.1113413643132278,0.15859823222287686,-0.13081949139033353,-0.03369275578145021,0.2619245144248091,-0.3266942663247692
2346,10.610685999999989,-0.08508681673437811,-0.012648531445186576,0.02049636651337332,0.0400389432594375,0.022529421364612962,-0.012866289089153233,0.11118192783687811,0.1597734192173554,-0.13228960909133206,-0.03713750166927075,0.2599702017910321,-0.3261758330258274
2347,10.6143582000077,-0.08508681673437811,-0.012648531445186576,0.02049636651337332,0.040539250410172485,0.023251517819921536,-0.013465314643619001,0.11100695322585438,0.16093971306910032,-0.13375729741041817,-0.04059454060879137,0.2579733003604355,-0.3256149884450735
2348,10.6227571000054,-0.08511807874700232,-0.012734593006819995,0.020524866279864617,0.04103873449981023,0.023978845842464118,-0.01407094360137916,0.11081638632294602,0.16209692228901487,-0.13522236513019062,-0.04406334740007163,0.2559339414432777,-0.3250116436791341
2349,10.626227900007509,-0.08511724732183899,-0.012761225663552991,0.020542001836314574,0.04153732520114974,0.024711364104152974,-0.014683163726315692,0.11061017534474936,0.1632448559948485,-0.13668462064721307,-0.047543391843938104,0.25385226472977723,-0.3243657163640026
2350,10.630507100009709,-0.08511473416243093,-0.012789764118721403,0.02056145803256039,0.042034951959669054,0.02544903041961633,-0.015301961919254337,0.11038827090393781,0.16438332394898245,-0.13814387200156744,-0.051034138824447135,0.25172841830315285,-0.3236771307091118
2351,10.634537500009174,-0.08510922835362904,-0.012824322448731749,0.02057660576257249,0.042531544004355035,0.026191801749190235,-0.01592732421643686,0.11015062603115942,0.16551213659627334,-0.1395999269065582,-0.05453504839302447,0.2495625586507466,-0.32294581753018275
2352,10.63868889999867,-0.08508967450166324,-0.01286582380693891,0.020599047944438904,0.04302703035862989,0.02693963420207967,-0.016559235788126327,0.10989719619655451,0.1666311051019466,-0.1410525927785615,-0.05804557585427194,0.2473548506732118,-0.32217171428083946
2353,10.642809199998736,-0.08508170059668964,-0.012906536307965883,0.020628617376424917,0.04352133985137258,0.027692483039689166,-0.017197680937345944,0.10962793933088644,0.1677400413895304,-0.14250167676701336,-0.06156517185343064,0.2451054676917483,-0.32135476508297817
2354,10.647159000000102,-0.08506437804841882,-0.012948637271789742,0.020660303483194732,0.04401440112803334,0.028450302679122956,-0.017842643098752088,0.1093428158462782,0.168838758178821,-0.14394698578453227,-0.06509328246548966,0.24281459145336862,-0.3204949207558794
2355,10.650539399997797,-0.08506437804841882,-0.012948637271789742,0.020660303483194732,0.044506142661839596,0.02921304669685466,-0.01849410483764204,0.10904178865654768,0.1699270690238699,-0.14538832653717063,-0.06862934928592887,0.2404824121341794,-0.3195921388440517
2356,10.654323499999007,-0.08506437804841882,-0.012948637271789742,0.020660303483194732,0.04499649276509136,0.029980667832566504,-0.01915204784909691,0.10872482319713457,0.17100478835098354,-0.14682550555478924,-0.07217280952308316,0.23810912834066192,-0.3186463836437952
2357,10.65757450000092,-0.08506437804841882,-0.012948637271789742,0.020660303483194732,0.045485379600544135,0.03075311799315824,-0.019816452957260366,0.10839188744461149,0.17207173149672597,-0.1482583292215488,-0.07572309609211528,0.2356949471089382,-0.3176576262284757
2358,10.661393900008989,-0.08523207025263074,-0.012961776100200667,0.020681037083826646,0.045972731192877446,0.03153034825692573,-0.020487300114753623,0.10804295193577192,0.1731277147459145,-0.149686603806512,-0.079279637710584,0.23324008390201015,-0.3166258444725002
2359,10.664774200005922,-0.08523207025263074,-0.012961776100200667,0.020681037083826646,0.046458475440247025,0.0323123088779091,-0.021164568402227305,0.10767798978628765,0.17417255536959833,-0.1511101354943507,-0.08284185899559386,0.23074476260495755,-0.31555102307398414
2360,10.66824510000879,-0.08513834152817792,-0.01309505196770301,0.02080354988745369,0.046942540125918655,0.033098949290410386,-0.021848236028050784,0.10729697670892854,0.17520607166301022,-0.15252873041615211,-0.08640918056251155,0.22820921551808315,-0.31443315357610113
2361,10.672230900003342,-0.08493171668444717,-0.013199454022556324,0.02088284163582292,0.04742485292998168,0.033890218113680405,-0.02253828032813927,0.10689989103133771,0.176228082983482,-0.15394219468031836,-0.08998101912523343,0.22563368334799364,-0.31327223438710705
2362,10.676446400000714,-0.0848957356986348,-0.013245290701391146,0.020918682014353207,0.047905341441140246,0.03468606315677446,-0.02323467776591916,0.10648671371335536,0.1772384097883145,-0.15535033440355356,-0.0935567875979885,0.22301841519660365,-0.31206827079903016
2363,10.680962700003874,-0.08486062232207871,-0.013303661816193734,0.02094153281556359,0.04838393316858033,0.03548643142357648,-0.0239374039324321,0.10605742836388458,0.17823687367259203,-0.15675295574193224,-0.09713589519866041,0.2203636685480523,-0.3108212750050186
2364,10.68852580001112,-0.08478867146366464,-0.013418001671604026,0.02102170915953227,0.04886055555391047,0.03629126911799151,-0.02464643354657812,0.10561202125729173,0.1792232974069316,-0.15814986492204286,-0.1007177475536113,0.21766970925352044,-0.30953126611533655
2365,10.692876700006307,-0.08474865899011144,-0.01346468422807323,0.021054845842701723,0.04933513598317433,0.03710052164930631,-0.025361740455498154,0.10515048134933462,0.1801975049751585,-0.15954086827220096,-0.10430174680398975,0.21493681151393892,-0.3081982701720011
2366,10.697183900003438,-0.08471368768821513,-0.013512782884872239,0.02108780044481021,0.04980760179893283,0.03791413363771769,-0.026083297635096262,0.1046728002926116,0.1811593216118981,-0.16092577225372612,-0.10788729171350435,0.2121652578605777,-0.30682232016205163
2367,10.701342500004102,-0.08467148767022753,-0.013578047351865706,0.021123738670601404,0.05027788031241398,0.03873204892002827,-0.026811077190701797,0.104178972451525,0.18210857384007545,-0.16230438349227594,-0.11147377777764442,0.2093553391335065,-0.30540345602944224
2368,10.705420800004504,-0.08460426554209546,-0.013634076691989048,0.021170116086161997,0.05074589881572823,0.039554210555508854,-0.027545050357871786,0.10366899491675284,0.18304508950831255,-0.1636765088092314,-0.11506059733432797,0.20650735445791848,-0.3039417246855511
2369,10.711657699997886,-0.08456633583874901,-0.01367308716908599,0.021208263666033955,0.05121158459414729,0.04038056083192721,-0.02828518750333367,0.10314286751922212,0.18396869782821418,-0.16504195525312682,-0.11864713967595718,0.20362161121830746,-0.3024371800183005
2370,10.715637200002677,-0.08452628114174088,-0.013702836164794951,0.021232858150192685,0.05167486493844413,0.0412110412717428,-0.029031458126068575,0.10260059284357813,0.18487922941153223,-0.16640053013111805,-0.1222327911628613,0.20069842503049135,-0.3008898828998823
2371,10.719624700010172,-0.08448717921380652,-0.013738255894051558,0.0212651809450587,0.05213566715729218,0.04204559263846685,-0.02978383085853535,0.10204217624114302,0.18577651630720055,-0.1677520410404829,-0.12581693533810584,0.1977381197114754,-0.2992999011930826
2372,10.723891900008311,-0.08445098965590205,-0.013767297141365866,0.021302385865383522,0.052593918589721705,0.042884154943187085,-0.030542273468035463,0.10146762584235768,0.18666039203823095,-0.1690962959001465,-0.12939895304364574,0.1947410272471501,-0.29766730975620037
2373,10.72809910000069,-0.08439934274152795,-0.013797513627128393,0.021330182583980204,0.05304954661763089,0.043726667451256356,-0.031306752858218774,0.1008769525687008,0.1875306916384609,-0.17043310298222406,-0.1329782225378003,0.19170748775781787,-0.2959921904465541
2374,10.732216000003971,-0.08435734565841178,-0.013825097630849192,0.021354703395307283,0.05350247867834941,0.04457306868914456,-0.03207723507073044,0.10027017014407932,0.18838725168914278,-0.17176227094357566,-0.13655411961402708,0.18863784946154485,-0.2942746321225722
2375,10.736320600000909,-0.08427913355269706,-0.013841364759547383,0.021394902804322803,0.053952642277252195,0.045423296451453425,-0.0328536852869987,0.09964729510568406,0.1892299103553651,-0.1730836088573656,-0.1401260177209705,0.18553246863533385,-0.29251473064446304
2376,10.739707500004442,-0.08423291897066167,-0.01387122705777714,0.021414630680905745,0.054399965000421,0.046277287808093204,-0.033636067830163666,0.099008346814305,0.190058507422296,-0.17439692624461997,-0.14369328808376192,0.18239170957411552,-0.2907125888734609
2377,10.744341600002372,-0.08417936783781622,-0.013897749431395455,0.02142428286512164,0.05484437452735139,0.04713497911162035,-0.03442434616714675,0.09835334746410085,0.19087288433123933,-0.1757020331057762,-0.14725529982654526,0.17921594454755538,-0.2888683166696426
2378,10.747774400006165,-0.08417936783781622,-0.013897749431395455,0.02142428286512164,0.05528579864370271,0.04799630600473511,-0.035218482910860965,0.09768232209181697,0.19167288421549372,-0.1769987399522182,-0.1508114200962029,0.17600555375467414,-0.2869820308883101
2379,10.751299499999732,-0.08427134623069639,-0.01391516029876894,0.021429569138387543,0.05572416525408845,0.04886120342793802,-0.03601843982256198,0.09699529858544584,0.1924583519360055,-0.17828685783779014,-0.1543610141872564,0.1727609252762799,-0.28505385537493766
2380,10.755669100006344,-0.08405222255881754,-0.013964157161428497,0.021477852656397206,0.05615940239490488,0.049729605627344624,-0.036824177814340234,0.09629230769232414,0.1932291341168061,-0.17956619839028146,-0.1579034456679151,0.16948245502521167,-0.2830839209586789
2381,10.759676500005298,-0.08398311744056901,-0.01398347176312572,0.02150923115364092,0.05659143824719537,0.05060144616265734,-0.03763565695175397,0.0955733830266618,0.19398507918022334,-0.1808365738428766,-0.16143807650724482,0.1661705466943942,-0.2810723654444323
2382,10.763791400007904,-0.08393936403786804,-0.014005022003489302,0.02152594539046286,0.05702020114954768,0.05147665791529347,-0.03845283645660313,0.094838561076498,0.19472603738185654,-0.1820977970655629,-0.1649642672034282,0.16282561170270476,-0.2790193336034632
2383,10.767925400010428,-0.08389536906803774,-0.014020555450780844,0.02154085491415476,0.05744561961102137,0.05235517309666832,-0.03927567470984387,0.09408788121007952,0.19545186084530505,-0.18334968159649018,-0.1684813769130877,0.15944806913865292,-0.27692497716258163
2384,10.772417100000894,-0.08384708406420523,-0.014032904328635557,0.021552216165849014,0.05786762232410326,0.053236923256632124,-0.040104129254643656,0.09332138568165654,0.19616240359664014,-0.18459204167327523,-0.17198876358164256,0.1560383457018756,-0.27478945479187733
2385,10.776207100003376,-0.08379277090255943,-0.014055357175556034,0.02155942104120366,0.0582861381776884,0.054121839292059326,-0.04093815679957668,0.0925391196366918,0.1968575215986099,-0.1858246922642447,-0.17548578407466967,0.152596875642449,-0.27261293209101073
2386,10.780199900007574,-0.08373977748502012,-0.01406307146013027,0.02156534125408831,0.05870109627008389,0.05500985145558898,-0.0417777132219594,0.09174113111647843,0.19753707278456764,-0.18704744909961027,-0.17897179431023946,0.149124100698021,-0.2703955815740599
2387,10.783886600009282,-0.08373977748502012,-0.01406307146013027,0.02156534125408831,0.05911242592203294,0.055900889364515434,-0.042622753571325764,0.09092747106216263,0.1982009170921146,-0.18826012870256975,-0.18244614939219597,0.14562047002876918,-0.2681375826529243
2388,10.788180800009286,-0.08386980484896646,-0.014063421670051464,0.021576374547261693,0.05952005668975664,0.05679488200982828,-0.043473232073041615,0.09009819331816744,0.19884891649644718,-0.18946254842032803,-0.18590820374435127,0.1420864401501894,-0.26583912161928486
2389,10.792666800000006,-0.08360832305922507,-0.014098185873490387,0.021614234113643542,0.05992391837801098,0.05769175776540017,-0.04432910213205797,0.08925335463501348,0.19948093504339837,-0.19065452645503259,-0.18935731124556374,0.13852247486372077,-0.2635003916251197
2390,10.797092799999518,-0.08355454747651027,-0.01411517216017064,0.02162602338355788,0.06032394105315669,0.05859144439732129,-0.045190316336802504,0.08839301467153317,0.20009683888216323,-0.19183588189461692,-0.19279282536566858,0.1349290451852131,-0.2611215926617752
2391,10.801995000001623,-0.0835079074304109,-0.014127651100409271,0.02163159005974034,0.060720055056239446,0.059493869073379335,-0.04605682646320891,0.08751723599647479,0.20069649629769873,-0.1930064347435464,-0.1962140993022284,0.13130662927124523,-0.2587029315375932
2392,10.8056030000007,-0.08346013029617273,-0.01414213672695796,0.021646015510081128,0.06111219101607739,0.060398958372683706,-0.04692858347888349,0.08662608408949284,0.20127977774278719,-0.1941660059534595,-0.19962048611807054,0.127655712343303,-0.25624462185409663
2393,10.809514400010812,-0.08341539050152229,-0.014166092424448601,0.021670381842354803,0.06150027986235317,0.06130663829543257,-0.04780553754740859,0.08571962734152101,0.2018465558697547,-0.19531441745369826,-0.20301133887957762,0.12397678660982475,-0.25374688398073414
2394,10.813812300009886,-0.0833527790208533,-0.01417772577265388,0.02171162606511799,0.06188425283870746,0.06221683427282152,-0.04868763803278243,0.08479793705452435,0.2023967055618354,-0.19645149218172095,-0.20638601079569757,0.12027035118612359,-0.25120994502818533
2395,10.818980700001704,-0.08330284422858257,-0.014192195007212974,0.021721893228081428,0.06226404151583125,0.06312947117709264,-0.049574833503994824,0.08386108744062712,0.20293010396417255,-0.19757705411339113,-0.20974385535763923,0.11653691201219617,-0.24863403882022986
2396,10.822741299998595,-0.08330284422858257,-0.014192195007212974,0.021721893228081428,0.06263957780455437,0.06404447333172239,-0.05046707173973851,0.08290915562061334,0.20344663051444625,-0.19869092829313706,-0.21308422647921876,0.11277698176842864,-0.24601940586418156
2397,10.826261100010017,-0.08330284422858257,-0.014192195007212974,0.021721893228081428,0.063010793968927,0.06496176452174716,-0.05136429973325533,0.08194222162179692,0.20394616697311768,-0.199792940863975,-0.21640647863782117,0.10899107978921171,-0.24336629331989196
2398,10.830357800005004,-0.08341099650766888,-0.014198298582127063,0.021709337598728427,0.06337762263929121,0.06588126800422443,-0.052266463697316606,0.08096036837525883,0.20442859745328076,-0.2008829190973899,-0.21970996701594137,0.10517973197447823,-0.24067495496732694
2399,10.834002400006284,-0.08341099650766888,-0.014198298582127063,0.021709337598728427,0.06373999682533894,0.06680290651882786,-0.05317350906933712,0.07996368171244889,0.20489380845011132,-0.20196069142306652,-0.2229940476432691,0.10134347069917596,-0.23794565117272087
2400,10.838567099999636,-0.08322639096918123,-0.014242741789357347,0.02174371868871041,0.0640978499291541,0.06772660229857502,-0.05408538051662195,0.07895225036115004,0.2053416888699055,-0.20302608745846473,-0.22625807753928,0.0974828347206895,-0.23517864885331205
2401,10.842869800006156,-0.08295708433299073,-0.01430833009112811,0.021749610148845307,0.06445111575823602,0.06865227708068562,-0.055002021941745555,0.07792616594080264,0.20577213005869865,-0.20407893803823215,-0.229501414856296,0.09359836908422638,-0.23237422144066436
2402,10.847044000009191,-0.0828847026443682,-0.014324149763509672,0.021769050932286822,0.06479972853850174,0.0695798521175686,-0.055923376488062365,0.07688552295718629,0.2061850258304543,-0.20511907524344872,-0.23272341902297708,0.08969062502618318,-0.22953264884257998
2403,10.851559800008545,-0.08282574477812564,-0.014343547695341349,0.021777353154471248,0.06514362292726446,0.07050924818793602,-0.05684938654534825,0.07583041879645754,0.20658027249481334,-0.20614633243069597,-0.23592345088820654,0.08576015987550806,-0.22665421740360797
2404,10.855615699998452,-0.08272283107051452,-0.014371347418969959,0.021793797413793822,0.06548273402618512,0.0714403856080418,-0.05777999375557224,0.07476095371854086,0.20695776888439502,-0.2071605442609457,-0.23910087286532983,0.08180753695307691,-0.22373921986415551
2405,10.859871300010129,-0.08265697249689238,-0.014396971226037033,0.021790865959802175,0.0658169973941941,0.0723731842430431,-0.058715139018797824,0.07367723084987142,0.20731741638164097,-0.20816154672826198,-0.24225504907670814,0.0778333254691014,-0.22078795531820866
2406,10.86379719999968,-0.08265697249689238,-0.014396971226037033,0.021790865959802175,0.06614634906037975,0.07330756351848224,-0.059654762499212886,0.07257935617548868,0.20765911894519262,-0.20914917718831033,-0.24538534549854737,0.07383810041858746,-0.21780072916967
2407,10.867996400003904,-0.08271455190825752,-0.014458276246156266,0.021730948310753815,0.06647072553684083,0.07424344243188741,-0.060598803631287536,0.07146743853047949,0.20798278313579338,-0.21012327438666786,-0.2484911301059624,0.06982244247486326,-0.21477785308732034
2408,10.872012799998627,-0.0824288113901239,-0.01454287135101967,0.021728381267104614,0.06679006383149964,0.07518073956449048,-0.06154720112605899,0.07034158959076978,0.20828831814170712,-0.2110836784869273,-0.2515717730182377,0.0657869378811975,-0.21171964495841153
2409,10.876254600007089,-0.08235419173291374,-0.014582935758570123,0.02171604269947642,0.06710430146087305,0.07611937309305951,-0.062499892977542625,0.06920192386326367,0.20857563580364397,-0.21203023109858907,-0.25462664664424345,0.06173217834052834,-0.20862642884089758
2410,10.880275100003928,-0.08228583872701041,-0.014616126445938618,0.02169498862687275,0.06741337646279859,0.0770592608018442,-0.06345681646926842,0.0680485586753294,0.20884465063918545,-0.21296277530473506,-0.2576551258279677,0.0576587609033245,-0.20549853491431178
2411,10.88763409999956,-0.08221469911672113,-0.014649815806458936,0.02167228439342541,0.06771722740911275,0.07800032009463234,-0.06441790818094174,0.0668816141636315,0.2090952798667009,-0.21388115568947777,-0.2606565879941223,0.05356728785360044,-0.20233629942929943
2412,10.89255000000412,-0.08204023658790055,-0.01471728808144607,0.02161175888763238,0.06801579341827843,0.0789424680069146,-0.06538310399522755,0.06570121326230859,0.209327443428747,-0.2147852183651781,-0.2636304132937832,0.04945836659310903,-0.19914006465581582
2413,10.89720400000806,-0.08195015020887167,-0.01474495812260594,0.021571089310383162,0.06830901416795881,0.07988562121815591,-0.0663523391046569,0.06450748169049657,0.20954106401494363,-0.21567481099942518,-0.26657598475002503,0.04533260952373504,-0.19591017882999845
2414,10.901146900010644,-0.08185749119453382,-0.014779626024878933,0.021523699117880775,0.0685968299075345,0.08082969606417117,-0.06732554801865487,0.06330054793919715,0.20973606708431738,-0.2165497828417713,-0.2694926884035088,0.041190633928113896,-0.19264699609972274
2415,10.905279500002507,-0.08176357850429858,-0.014805129468853071,0.021461102580423934,0.06887918147056067,0.08177460854960245,-0.06830266457068883,0.06208054325749157,0.20991238088710595,-0.2174099847502168,-0.2723799134579791,0.037033061848500935,-0.18935087646885124
2416,10.909623700004886,-0.08166337024348436,-0.014810850472097521,0.021390427500213405,0.06915601028716144,0.08272027436049567,-0.06928362192553653,0.06084760163809982,0.21006993648601585,-0.2182552692174383,-0.2752370524256279,0.03286051996391689,-0.1860221857401864
2417,10.913618700011284,-0.0815281784121676,-0.014832524118995048,0.021314600226837656,0.06942725839635873,0.0836666088769743,-0.07026835258667292,0.05960185980228587,0.21020866777692537,-0.21908549039675496,-0.278063501272284,0.02867363946559646,-0.18266129545713783
2418,10.917938800004777,-0.08140465141225338,-0.01485533919418256,0.02122691157084056,0.06969286845833317,0.08461352718600786,-0.07125678840377525,0.05834345718410975,0.2103285115090244,-0.21990050412782808,-0.28085865956238626,0.024473055930767245,-0.17926858284411434
2419,10.922029699999255,-0.08126275010060717,-0.014885923782607518,0.021131373859135702,0.06995278376661415,0.08556094409427352,-0.07224886058034513,0.0570725359140274,0.21042940730438378,-0.2207001679620889,-0.28362193060370156,0.020259409194786908,-0.17584443074565181
2420,10.926387900006375,-0.08112908369652182,-0.014922320552722945,0.021011379886355916,0.0702069482601957,0.08650877414110866,-0.0732444996814468,0.055789240801839605,0.21051129767694654,-0.2214843411878898,-0.28635272159174413,0.01603334322166751,-0.17238922756428904
2421,10.933776500009117,-0.08097337840033449,-0.014934066951277792,0.020902082783271124,0.07045530653557536,0.0874569316115517,-0.07424363564156015,0.054493719318991024,0.21057412805093317,-0.2222528848553751,-0.2890504437538534,0.011795505973016271,-0.1689033671972043
2422,10.937525400004231,-0.08097337840033449,-0.014934066951277792,0.020902082783271124,0.07069780385871291,0.08840533054946886,-0.07524619777254749,0.0531861215802209,0.21061784677865383,-0.22300566180106557,-0.2917145124928875,0.007546549275422757,-0.16538724897162468
2423,10.94236549999914,-0.08042955166807679,-0.014891748531903823,0.020524826336364328,0.07093438617690585,0.08935388477076375,-0.07625211477173238,0.05186660032456699,0.2106424051577197,-0.22374253667215094,-0.2943443475304891,0.0032871286863229996,-0.16184127757902067
2424,10.946824400001788,-0.08026725758431535,-0.014878430558118837,0.020389223308955345,0.07116500013057858,0.09030250787666665,-0.07726131473008924,0.05053531089572426,0.21064775744764647,-0.22446337595048468,-0.296939373049882,-0.0009820966416281291,-0.15826586300810028
2425,10.951188000006368,-0.08008207219788992,-0.014844267005048407,0.02022870778363977,0.07138959306498292,0.09125111326710102,-0.07827372514054216,0.04919241122176049,0.2106338608858427,-0.22516804797627657,-0.29949901783815375,-0.005260464097644322,-0.15466142047661618
2426,10.955255900000338,-0.07988586833648183,-0.014797597356902392,0.020071635194688988,0.07160811304180689,0.0921996141541248,-0.07928927290637242,0.04783806179419121,0.21060067570297702,-0.22585642297147834,-0.302022715427981,-0.009547307751322405,-0.15102837036200015
2427,10.95875000000524,-0.07988586833648183,-0.014797597356902392,0.020071635194688988,0.07182050885068889,0.09314792357544373,-0.08030788434973272,0.04647242564641642,0.21054816513771674,-0.22652837306285706,-0.3045099042387543,-0.013841958492550873,-0.14736713813083865
2428,10.963361600006465,-0.0798212705904545,-0.014771269432362266,0.019886975667607134,0.07202673002063421,0.09409595440799418,-0.081329485220267,0.045095668331521746,0.21047629545083227,-0.2271837723047513,-0.30696002771706077,-0.018143744172778566,-0.14367815426720423
2429,10.967656000007992,-0.07926538661191758,-0.01468496464753088,0.01953595188833549,0.07222672683133075,0.09504361938159282,-0.08235400070383428,0.04370795789944685,0.21038503593865998,-0.2278224967015029,-0.3093725344764824,-0.022451989747609067,-0.1399618541998568
2430,10.97198470000876,-0.07902682380356689,-0.014605101118113913,0.01935001096746412,0.07242045032436016,0.09599083109265073,-0.08338135543133546,0.04230946487352424,0.2102743589459169,-0.22844442422955943,-0.31174687843666676,-0.026766017420685816,-0.13621867822832984
2431,10.97620070000994,-0.07871452042413883,-0.014507710713963944,0.019119610016116347,0.07260785231430188,0.09693750201794826,-0.08441147348764134,0.0409003622263918,0.21014423987786038,-0.2290494348592434,-0.31408251896162603,-0.03108514678883229,-0.13244907144791535
2432,10.98068510000303,-0.07847061912145208,-0.01438015297144767,0.018873995079669588,0.07278888539972697,0.09788354452846748,-0.08544427842062002,0.03948082535528245,0.20999465721178723,-0.22963741057618162,-0.3163789209972212,-0.03540869498841101,-0.1286534836735626
2433,10.98488420000649,-0.07815639115007221,-0.014261771850637235,0.018653880919084414,0.07296350297407903,0.09882887090327917,-0.08647969325026181,0.03805103205669476,0.20982559250786645,-0.23020823540239088,-0.3186355552077882,-0.03973597684286466,-0.12483236936270795
2434,10.988756500009911,-0.07790135572151627,-0.014159402149853501,0.018432505071642798,0.07313165923643886,0.09977339334348188,-0.08751764047789967,0.036611162500448116,0.20963703041930062,-0.23076179541701355,-0.3208518981118638,-0.04406630501140202,-0.12098618753705245
2435,10.993032099999256,-0.07762372504922153,-0.014044375938814808,0.018175588448447674,0.07329330920217049,0.10071702398618985,-0.08855804209552358,0.03516139920312667,0.20942895870181044,-0.23129797877669886,-0.32302743221697006,-0.048398990138790975,-0.11711540170330428
2436,10.997096400009468,-0.07731811669753173,-0.013894910719442943,0.017894940232205173,0.07344840871344584,0.1016596749185663,-0.08960081959518715,0.033701927000916,0.2092013682224377,-0.2318166757356243,-0.3251616461534141,-0.05273334100622008,-0.11322047977290246
2437,11.001089199999114,-0.07700406907021037,-0.013721080010861364,0.01754299623926875,0.07359691444964551,0.1026012581918989,-0.09064589397850521,0.032232933021837135,0.20895425296766182,-0.23231777866515374,-0.3272540348070607,-0.05706866468318985,-0.10930189398073895
2438,11.005415999999968,-0.07667742827157731,-0.013529733110776,0.017318587247378222,0.07373878393763307,0.10354168583571442,-0.0916931857662407,0.030754606657382617,0.20868761005082503,-0.23280118207312564,-0.32930409945103556,-0.06140426668039422,-0.1053601208028969
2439,11.009663200005887,-0.07631129066159183,-0.013341640736639394,0.01705267693311097,0.07387397556189997,0.1044808698719294,-0.09274261500797931,0.029267139533559337,0.20840143971886266,-0.23326678262276848,-0.33131134787631744,-0.06573945110355227,-0.10139564087342287
2440,11.01394760000403,-0.07590192953187196,-0.013117483758600895,0.016726045390975636,0.07400244857457845,0.10541872232903361,-0.09379410129189064,0.027770725481342875,0.2080957453583329,-0.23371447915123836,-0.3332752945211791,-0.07007352080814976,-0.09740893890015073
2441,11.018077500004438,-0.07556538650411054,-0.012895578668172933,0.016374498672548612,0.07412416310531968,0.10635515525630304,-0.09484756375457437,0.026265560506548723,0.20777053350074282,-0.23414417268777413,-0.33519546059943295,-0.07440577755504975,-0.09340050357959585
2442,11.022549100001925,-0.07520998220091916,-0.012681661060933996,0.01605954774272817,0.07423908017103455,0.10729008073803874,-0.0959029210909897,0.024751842759125807,0.20742581382716635,-0.23455576647146473,-0.33707137422744177,-0.07873552216693076,-0.08937082751093796
2443,11.02780399999756,-0.07479003200085987,-0.012387217389564517,0.01572113003694505,0.07434716168549439,0.10822341090782901,-0.09696009156446596,0.02322977250187774,0.20706159917215072,-0.2349491659686246,-0.3389025705498522,-0.08306205468551028,-0.08532040710911164
2444,11.03365219999978,-0.0743626242628939,-0.012098437403155441,0.015377380404250462,0.07444837046878845,0.10915505796283129,-0.09801899301679215,0.02169955207861749,0.20667790552690854,-0.23532427888977284,-0.34068859186400996,-0.08738467452951126,-0.081249742517024
2445,11.0375245000032,-0.0743626242628939,-0.012098437403155441,0.015377380404250462,0.07454267025663604,0.11008493417807075,-0.09907954287838398,0.020161385881761265,0.20627475204179127,-0.23568101520621157,-0.3424289877430158,-0.0917026806533286,-0.07715933751691896
2446,11.043184800000745,-0.07311608082130705,-0.01113815824746443,0.014290985780592983,0.0746300257095506,0.11101295192075247,-0.10014165817852627,0.018615480319367758,0.20585216102804182,-0.23601928716620094,-0.34412331515737987,-0.09601537170635267,-0.07304969944090756
2447,11.047035900002813,-0.07265285290756562,-0.010789529704474242,0.013883186817767922,0.07471040242185359,0.1119390236645836,-0.10120525555568878,0.01706204378162902,0.20541015795882306,-0.23633900931072752,-0.3457711385952366,-0.10032204619290629,-0.06892133908068462
2448,11.051413100009086,-0.07218368991623643,-0.010387062043885547,0.013453807472403254,0.07478376693053565,0.11286306200410177,-0.10227025126791382,0.015501286606819457,0.2049487714695193,-0.23664009848886228,-0.3473720301810798,-0.10462200263275033,-0.06477477059645173
2449,11.055547700001624,-0.0717066468899544,-0.010027128225530688,0.013036985492099057,0.07485008672396253,0.11378497966900639,-0.10333656120327417,0.013933421046709589,0.20446803335730918,-0.23692247387270507,-0.3489255697929798,-0.10891453972211385,-0.06061051142506698
2450,11.059491100008016,-0.07119987929011334,-0.009599995339643376,0.012661856647721613,0.07490933025042328,0.11470468953848863,-0.10440410089039928,0.012358661231451433,0.20396797858000804,-0.23718605697191214,-0.3504313451782414,-0.1131989564952031,-0.05642908218744325
2451,11.066543599998113,-0.07073593023341262,-0.009159496126253608,0.012205564577300055,0.07496146692651884,0.115622104655557,-0.10547278550906787,0.010777223133942564,0.20344864525417847,-0.2374307716478043,-0.35188895206746545,-0.11747455248614445,-0.05223100659521591
2452,11.071478900004877,-0.06968025641246722,-0.008210936102050627,0.011282432328044099,0.07500646714538867,0.11653713824135407,-0.1065425299008647,0.009189324533676215,0.20291007465250835,-0.23765654412705212,-0.3532979942869754,-0.12174062789131562,-0.04801681135670128
2453,11.076570899997025,-0.06912181308640847,-0.007799451728812246,0.010808226716815446,0.07504430228477312,0.1174497037094606,-0.10761324857989954,0.0075951849800847005,0.202352311200455,-0.23786330301493505,-0.35465808386957415,-0.1259964837320205,-0.043787026082167675
2454,11.080113700008951,-0.06912181308640847,-0.007799451728812246,0.010808226716815446,0.07507494471490957,0.1183597146801835,-0.10868485574358656,0.0059950257553837445,0.20177540247215442,-0.23805097930817085,-0.3559688411635912,-0.1302414220174613,-0.039542183188440376
2455,11.085731900006069,-0.06912181308640847,-0.007799451728812246,0.010808226716815446,0.07509836780626025,0.11926708499482405,-0.10975726528348229,0.0043890698369254385,0.20117939918559352,-0.23821950640731204,-0.3572298949401828,-0.13447474590796224,-0.03528281780286221
2456,11.089413900001093,-0.06912181308640847,-0.007799451728812246,0.010808226716815446,0.07511454593706943,0.12017172872992257,-0.11083039079618005,0.002777541859067758,0.20056435519704396,-0.23836882012870708,-0.35844088249884787,-0.13869575987839788,-0.031009467666631735
2457,11.093006199997037,-0.06874482485223131,-0.0073333467799152965,0.010247097586797222,0.0751234545007478,0.12107356021147574,-0.11190414559425896,0.0011606680745687348,0.1999303274947574,-0.23849885871602308,-0.3596014497711225,-0.14290376988178027,-0.026722673037541292
2458,11.097100800005135,-0.06634486905911663,-0.005308117833665288,0.008134652049445693,0.07512506991308253,0.12197249402912295,-0.1129784427172856,-0.00046132368448646976,0.19927737619192273,-0.2386095628513283,-0.3607112514224182,-0.14709808351295686,-0.022422976592137267
2459,11.100612000009278,-0.06634486905911663,-0.005308117833665288,0.008134652049445693,0.07511936961927074,0.12286844505029804,-0.11405319494286711,-0.0020882040462171666,0.19860556451888578,-0.2387008756657319,-0.3617699509519655,-0.1512780101723721,-0.018110923327325508
2460,11.10533099999884,-0.06576943694966046,-0.004751287352742649,0.007588603764880712,0.07510633210077423,0.12376132843434202,-0.11512831479775307,-0.003719742138928836,0.19791495881463111,-0.23877274274957877,-0.36277722079082886,-0.15544286122984535,-0.013787060461444924
2461,11.108975100010866,-0.06576943694966046,-0.004751287352742649,0.007588603764880712,0.07508593688199357,0.12465105964657366,-0.11620371456898392,-0.005355705631536188,0.19720562851752618,-0.2388251121621968,-0.3637327423979574,-0.1595919501883167,-0.009451937334832274
2462,11.113310600005208,-0.06456317139832185,-0.0037364887217421826,0.006284249545712191,0.07505816453675959,0.12553755447231382,-0.11727930631508408,-0.006995860774418698,0.19647764615532792,-0.23885793444119527,-0.36463620635423943,-0.16372459284751276,-0.005106105309901466
2463,11.1176589000097,-0.06307725007162361,-0.0025472928731043918,0.00504032453461054,0.07502299669464034,0.12642072903086038,-0.11835500187729742,-0.008639972440699582,0.19573108733445235,-0.23887116261131347,-0.3654873124545272,-0.1678401074674852,-0.0007501176707609076
2464,11.1222196000017,-0.06307725007162361,-0.0025472928731043918,0.00504032453461054,0.07498041604706095,0.12730049978941085,-0.11943071289086295,-0.010287804167938987,0.1949660307285071,-0.23886475219281747,-0.3662857697975975,-0.17193781493197507,0.0036154704776074635
2465,11.126440500011086,-0.06262536030556075,-0.001992053812551021,0.0043620177221037545,0.0749304063532355,0.12817678357692908,-0.12050635079632914,-0.011939118200232067,0.1941825580660885,-0.2388386612094439,-0.3670312968740164,-0.17601703891155393,0.007990102310583613
2466,11.131654800003162,-0.06104036498363567,-0.0007783019636372836,0.002988255638913643,0.0748729524459092,0.12904949759795112,-0.12158182685090374,-0.01359367553070243,0.19338075411784372,-0.23879285019588842,-0.3677236216518758,-0.18007710602649327,0.012373219385535383
2467,11.135213000001386,-0.06034275438420493,-0.00019227602300544728,0.002251922811725357,0.07480804023690925,0.12991855944632652,-0.12265705213983655,-0.01525123594438124,0.19256070668279904,-0.2387272822048367,-0.3683624816603687,-0.18411734600931232,0.0167642617438109
2468,11.138941099998192,-0.059677995673353544,0.0004257736980564819,0.0015303283474743766,0.07473565672250279,0.13078388711889147,-0.12373193758783296,-0.016911558061462176,0.19172250657395531,-0.23864192281353477,-0.36894762407117343,-0.1881370918669558,0.02116266801307317
2469,11.142474899999796,-0.059677995673353544,0.0004257736980564819,0.0015303283474743766,0.07465578998856019,0.1316453990290708,-0.124806393970496,-0.018574399380922292,0.19086624760315224,-0.23853674012989834,-0.36947880577761427,-0.19213568004255316,0.025567875509952407
2470,11.147001999997885,-0.05905038407142403,0.0010564975408826954,0.0007707965273998953,0.07456842921552174,0.1325030140204062,-0.12588033192579445,-0.020239516324498753,0.18999202656520348,-0.23841170479815932,-0.3699557934715734,-0.19611245057671126,0.02997932034299173
2471,11.151708999997936,-0.05751756046352942,0.002299467900911409,-0.0008271562649536379,0.07447356468316596,0.13335665138000793,-0.12695366196555447,-0.02190666428101117,0.1890999432213048,-0.23826679000404918,-0.370378363718124,-0.20006674726829182,0.03439643751586144
2472,11.159536899998784,-0.05595883509115147,0.003639145829979141,-0.0024484007656421364,0.07437118777517761,0.13420623085192704,-0.12802629448697203,-0.023575597651019135,0.18819010028171762,-0.23810197147951875,-0.3707463030278593,-0.2039979178346258,0.03881866103081709
2473,11.163910800009036,-0.055165887925195,0.004307995008030199,-0.003308872677473103,0.07426129098351437,0.13505167265044454,-0.1290981397841446,-0.025246069891804442,0.18726260338773076,-0.23791722750699343,-0.3710594079268928,-0.20790531407111568,0.04324542399237646
2474,11.169399600010363,-0.05436522689225375,0.005024106225478799,-0.004113756700596046,0.07414386791257058,0.13589289747327432,-0.13016910805961945,-0.02691783356266733,0.18631756109290326,-0.23771253892316363,-0.3713174850245023,-0.21178829201017732,0.04767615871119054
2475,11.172953600005712,-0.05366161693051714,0.0056566198474711235,-0.004909635599002281,0.07401891328313656,0.13672982651467674,-0.13123910943595612,-0.028590640370526173,0.185355084843591,-0.23748788912230828,-0.3715203510783936,-0.2156462120794736,0.05211029680808322
2476,11.176397300005192,-0.05285998317808311,0.006389834379753119,-0.005786344705675715,0.07388642293615215,0.13756238147848115,-0.1323080539673014,-0.030264241215809833,0.18437528895875968,-0.23724326405915117,-0.37166783305755896,-0.21947843925939142,0.0565472693182343
2477,11.180507700002636,-0.05203536219949184,0.007128400799766768,-0.00659966322617744,0.0737463938362528,0.13839048459101405,-0.13337585165097482,-0.03193838623863181,0.18337829060908772,-0.23697865225125078,-0.3717597682027075,-0.2232843432397152,0.060986506795480996
2478,11.184524500000409,-0.05126784845489702,0.007831884252127747,-0.0074360627007194514,0.07359882407510682,0.13921405861392927,-0.1344424124390624,-0.03361282486523492,0.1823642097953627,-0.23669404478092346,-0.37179600408424396,-0.22706329857544869,0.0654274394167124
2479,11.188662000000477,-0.050553326043412575,0.008594513649590022,-0.008270961463718762,0.07344371287454254,0.14003302685693714,-0.1355076462500156,-0.03528730585469539,0.181333169326175,-0.23638943529669876,-0.37177639865777395,-0.23081468484173687,0.06986949708633149
2480,11.192828700004611,-0.04976034954438215,0.009416484565028232,-0.009049715004063746,0.07328106058946439,0.1408473131904298,-0.13657146298025324,-0.036961577345875005,0.18028529479491343,-0.23606482001430618,-0.37170082031711454,-0.23453788678783982,0.0743121095407592
2481,11.19715210000868,-0.048964846858841456,0.010247908284223037,-0.00982978622297167,0.07311086871055651,0.14165684205800053,-0.13763377251576422,-0.03863538690461003,0.17922071455606703,-0.23572019771719221,-0.37156914794478935,-0.23823229449011127,0.07875470645295525
2482,11.201416000010797,-0.04831050378094302,0.011006083248177718,-0.010643159148576775,0.07293313986677266,0.1424615384888542,-0.13869448474370874,-0.040308481571125446,0.17813955970083725,-0.23535556975656824,-0.3713812709599898,-0.24189730350393443,0.08319671753692956
2483,11.205442999998922,-0.04754470428598506,0.011822248545171329,-0.011382590080530225,0.07274787782761136,0.14326132811010706,-0.13975350956401633,-0.041980607907662996,0.17704196403206554,-0.23497094005098884,-0.37113708936398215,-0.2455323150145673,0.08763757265221873
2484,11.208881900005508,-0.04754470428598506,0.011822248545171329,-0.011382590080530225,0.07255508750517567,0.14405613715897225,-0.14081075690097852,-0.04365151204631164,0.17592806403848135,-0.234566315085461,-0.3708365137829412,-0.2491367359868504,0.09207670190830226
2485,11.21229160000803,-0.04754470428598506,0.011822248545171329,-0.011382590080530225,0.07235477495601682,0.14484589249482807,-0.14186613671483297,-0.04532093973702848,0.17479799886827654,-0.23414170391008404,-0.3704794655081931,-0.25270997931373107,0.09651353576893265
2486,11.216331900010118,-0.046947885408434684,0.012621053957481709,-0.012122188895011966,0.07214694738276121,0.14563052161116458,-0.14291955901333697,-0.04698863639583829,0.17365191030201108,-0.2336971181382207,-0.3700658765338521,-0.2562514639635582,0.10094750515635355
2487,11.220013400001337,-0.046947885408434684,0.012621053957481709,-0.012122188895011966,0.07193161313551992,0.14640995264740647,-0.14397093386332813,-0.048654347153199766,0.17248994272485565,-0.23323257194420108,-0.3695956895918354,-0.2597606151261011,0.10537804155538001
2488,11.22761210000317,-0.04390852061229287,0.01600114243888636,-0.015142943223673249,0.07170878171307986,0.14718411440060883,-0.14502017140227083,-0.05031781690252628,0.17131224309817722,-0.23274808206056083,-0.3690688581842434,-0.2632368643572475,0.10980457711731509
2489,11.23119430000952,-0.043228455757251545,0.01685722844972677,-0.015853035447737585,0.07147846376387605,0.147952936337023,-0.14606718184978668,-0.05197879034884932,0.17011896093047363,-0.23224366777481484,-0.3684853466130891,-0.26667964972233377,0.11422654476367707
2490,11.235229300000356,-0.04248180273313036,0.017720705604676812,-0.016584875349597135,0.07124067108674452,0.14871634860352892,-0.14711187551916674,-0.05363701205761228,0.16891024824766313,-0.23171935092576695,-0.3678451300073652,-0.27008841593806254,0.11864337828971208
2491,11.238880400007474,-0.04176275283367552,0.018603140897171265,-0.017310564328512204,0.07099541663145546,0.1494742820389307,-0.14815416282886298,-0.05529222650358229,0.16768625956273414,-0.23117515589935672,-0.3671481943474333,-0.2734626145129631,0.12305451246766608
2492,11.243045700000948,-0.04106281629592505,0.019511998480182004,-0.017996653727932795,0.0707427144990264,0.15022666818511288,-0.14919395431395677,-0.05694417811986809,0.16644715184476086,-0.23061110962404444,-0.36639453648672454,-0.27680170388634984,0.12745938314978997
2493,11.246446899996954,-0.04106281629592505,0.019511998480182004,-0.017996653727932795,0.07048257994181432,0.15097343929805343,-0.15023116063760267,-0.058592611347031635,0.16519308448729095,-0.23002724156573673,-0.36558416417073974,-0.2801051495657372,0.13185742737105222
2494,11.25093029999698,-0.040524595094151114,0.02039113607668984,-0.01867518636544524,0.07021502936338624,0.15171452835869031,-0.15126569260244593,-0.06023727068228127,0.16392421927611323,-0.2294235837222531,-0.3647170960533408,-0.28337242426266906,0.13624808345153308
2495,11.255020800002969,-0.03898777177346798,0.022218065598067244,-0.02005184419738701,0.06994008031816759,0.15244986908363745,-0.1522974611620117,-0.06187790072873413,0.16264072035641308,-0.22880017061733368,-0.3637933617103234,-0.28660300802691996,0.14063079109847418
2496,11.260765300001369,-0.038278997753152924,0.023116728867175283,-0.020735991481145504,0.06965775151086875,0.1531793959357475,-0.15332637743206357,-0.06351424624473524,0.16134275419932342,-0.22815703929418976,-0.3628130016502648,-0.2897963883790255,0.14500499150795845
2497,11.26469760001055,-0.03754379943757689,0.024037680303414716,-0.021391979053546457,0.06936806279568944,0.15390304413451925,-0.15435235270193115,-0.06514605219322119,0.16003048956788046,-0.2274942293085983,-0.3617760673226396,-0.29295206044109945,0.14937012746619438
2498,11.26863200000662,-0.03685992236765602,0.024958557435359848,-0.022077215882523846,0.06907103517530101,0.15462074966634642,-0.15537529844580544,-0.06677306379111582,0.1587040974823921,-0.22681178272154176,-0.36068262112319804,-0.29606952706589423,0.15372564345037887
2499,11.272505800006911,-0.03618883875015891,0.025870207000247048,-0.022736306221734493,0.0687666907996064,0.15533244929460494,-0.15639512633400066,-0.0683950265587455,0.15736375118522702,-0.22610974409139378,-0.35953273639660255,-0.29914829896406264,0.15807098572911385
2500,11.276377700007288,-0.03548704330278195,0.026790667724987047,-0.023298041773217742,0.06845505296427784,0.15603808056957513,-0.1574117482441805,-0.07001168636926108,0.1560096261050336,-0.22538816046565224,-0.35832649743631634,-0.3021878948295807,0.16240560246235042
2501,11.280393699998967,-0.034806656216175416,0.02774121030226348,-0.023977832502788055,0.06813614610907219,0.15673758183819603,-0.1584250762725459,-0.07162278949805422,0.15464189982039725,-0.22464708137222097,-0.3570639994817408,-0.30518784146329186,0.16672894380083525
2502,11.284519699998782,-0.034139205441034486,0.02869029315320906,-0.02462766939194506,0.0678099958159237,0.15743089225364915,-0.15943502274498128,-0.07322808267215532,0.15326075202294517,-0.22388655881024314,-0.35574534871259944,-0.30814767389453246,0.1710404619850335
2503,11.288541200003236,-0.033456731980582785,0.029636024295742563,-0.025262328919253143,0.06747662880681467,0.15811795178476978,-0.1604415002281567,-0.07482731311960113,0.15186636447990837,-0.22310664724048865,-0.3543706622405688,-0.31106693550080017,0.1753396114435037
2504,11.292830200007302,-0.0327394833849603,0.030554258355401962,-0.025882414412426304,0.06713607294142454,0.15879870122528428,-0.1614444215405839,-0.0764202286187593,0.15045892099615032,-0.22230740357529813,-0.3529400680981551,-0.31394517812542677,0.17962584889069996
2505,11.297176000007312,-0.0320928102957582,0.031522413003586984,-0.026529598167979545,0.06678835721455727,0.15947308220287143,-0.16244369976362416,-0.078006577547598,0.14903860737567226,-0.22148888716808576,-0.3514537052248193,-0.31678196219321714,0.183898633424177
2506,11.301410000000033,-0.0314404994473642,0.032505134930081794,-0.027138694104809295,0.06643351175334752,0.16014103718804684,-0.16343924825244707,-0.07958610893288778,0.14760561138260386,-0.22065115980240427,-0.3499117234503485,-0.31957685682401576,0.18815742662117355
2507,11.30554739999934,-0.030824385967157628,0.03343736810655105,-0.02779297789818285,0.06607156781424568,0.16080250950286684,-0.16443098064693704,-0.08115857249932339,0.14616012270168915,-0.219794285680576,-0.34831428347547866,-0.322329439944165,0.19240169263454984
2508,11.30893840000499,-0.030824385967157628,0.03343736810655105,-0.02779297789818285,0.06570255777978172,0.16145744332944958,-0.16541881088254573,-0.08272371871855295,0.14470233289827747,-0.21891833141189365,-0.3466615568497709,-0.3250392983958174,0.19663089828805586
2509,11.313778800002185,-0.03026926176386113,0.03437492335818107,-0.02836953275138238,0.06532651515510848,0.16210578371831172,-0.16640265320108819,-0.08428129885810248,0.14323243537782915,-0.21802336600039401,-0.3449537259467469,-0.32770602804406457,0.20084451317090563
2510,11.317956400002004,-0.028897622019126587,0.036398374992434354,-0.0296121365124032,0.06494347456432453,0.16274747659651892,-0.16738242216148108,-0.08583106503018272,0.14175062534494523,-0.21710946083220803,-0.3431909839362896,-0.33032923388184515,0.2050420097316346
2511,11.321438700004364,-0.028897622019126587,0.036398374992434354,-0.0296121365124032,0.06455347174657726,0.16338246877564744,-0.16835803265042126,-0.08737277024036585,0.14025709976193174,-0.2161766896624897,-0.34137353475431415,-0.3329085301325958,0.20922286337121554
2512,11.326447800005552,-0.028399460891017594,0.03736531280601076,-0.030313961700969273,0.06415654355194673,0.16401070795955458,-0.16932939989300205,-0.08890616843611945,0.13875205730690882,-0.2152251286019288,-0.3395015930697146,-0.33544354035061036,0.2133865525354092
2513,11.330300100002203,-0.026967973080197955,0.03943599674291661,-0.031558407449059064,0.06375272793711066,0.16463214275195695,-0.17029643946326564,-0.09043101455518492,0.13723569833147592,-0.21425485610284994,-0.33757538424859707,-0.3379338975190744,0.21753255880632683
2514,11.334647900002892,-0.026378547214549967,0.04043982832284947,-0.03219670338840804,0.06334206396079096,0.16524672266381424,-0.1712590672946899,-0.09194706457378893,0.13570822481794326,-0.2132659529449023,-0.3355951443158056,-0.3403792441457449,0.22166036699318145
2515,11.338757600009558,-0.02574743218632717,0.04149734305594911,-0.03281872874844012,0.0629245917789825,0.16585439812051678,-0.1722171996906072,-0.09345407555467584,0.13416984033614016,-0.2122585022203428,-0.33356111991375165,-0.3427792323562426,0.22576946522220462
2516,11.342491700008395,-0.02574743218632717,0.04149734305594911,-0.03281872874844012,0.06250035263996467,0.16645512046887537,-0.17317075333455292,-0.09495180569494854,0.1326207499998117,-0.21123258931891528,-0.33147356825855817,-0.34513352398492403,0.22985934502570612
2517,11.346732400008475,-0.025252479686366448,0.042569060573688165,-0.0333803368700801,0.062069388879096826,0.16704884198391157,-0.17411964530054122,-0.09644001437370578,0.13106116042261484,-0.2101883019123306,-0.3293327570935324,-0.3474417906633039,0.2339295014302547
2518,11.350877200005923,-0.023949109785012048,0.04481344479465955,-0.03468926567716274,0.06163174391339837,0.16763551587544742,-0.1750637930632666,-0.09791846219946383,0.1294912796737255,-0.20912572993835107,-0.32713896463997955,-0.34970371390599875,0.23797943304395702
2519,11.355331300001126,-0.023347952752789433,0.04587448519547002,-0.03529319887777119,0.06118746223591444,0.16821509629449255,-0.17600311450822967,-0.09938691105735044,0.12791131723306776,-0.2080449655844839,-0.3248924795453689,-0.35191898519416526,0.24200864214281306
2520,11.3593847000011,-0.022788116101043723,0.046983158873356495,-0.035972426102352996,0.06073658940986856,0.16878753833942786,-0.17693752794178458,-0.10084512415605935,0.12632148394617682,-0.20694610327128624,-0.32259360082886457,-0.35408730605640426,0.24601663475612667
2521,11.363713800004916,-0.022186661905140806,0.0480955628832679,-0.03660425453631929,0.06027917206260341,0.16935279806198467,-0.1778669521011077,-0.10229286607455393,0.12472199197870676,-0.20582923963528793,-0.320242637824238,-0.35620838814710265,0.2500029207509492
2522,11.367940299998736,-0.021565996617597127,0.04923145881875986,-0.03727735034679744,0.05981525787931081,0.16991083247301783,-0.1787913061640854,-0.10372990280850757,0.12311305477059353,-0.20469447351153627,-0.31783991012017787,-0.35828195332218415,0.2539670139155349
2523,11.37154659999942,-0.021565996617597127,0.04923145881875986,-0.03727735034679744,0.05934489559655239,0.17046159954807122,-0.17971050975911942,-0.1051560018164693,0.1214948869898849,-0.20354190591576596,-0.31538574749801707,-0.3603077337122448,0.257908432041787
2524,11.37612739999895,-0.02114017399266805,0.050275137169229836,-0.03790095532988413,0.058868134995572224,0.17100505823273351,-0.1806244829748489,-0.10657093206574302,0.11986770448624924,-0.20237164002619953,-0.31288048986689554,-0.3622854717930471,0.26182669700667405
2525,11.38026780000655,-0.01986406028316056,0.05255085056895065,-0.03915682767778425,0.05838502689540246,0.17154116844778378,-0.18153314636978754,-0.10797446407796943,0.11823172424417548,-0.2011837811649832,-0.31032448719637884,-0.36421492045334797,0.2657213348525956
2526,11.384402000010596,-0.019311106733278804,0.053756415669104066,-0.03987139061382194,0.05789562314576362,0.17206989109412482,-0.18243642098187487,-0.10936636997439876,0.1165871643358769,-0.19997843677926344,-0.30771809944655515,-0.3660958430600366,0.26959187586667677
2527,11.387919100001454,-0.019311106733278804,0.053756415669104066,-0.03987139061382194,0.05739997661976092,0.17259118805750356,-0.1833342283379399,-0.11074642352084287,0.1149342438739114,-0.19875571642191012,-0.3050616964956338,-0.36792801352055904,0.27343785465896975
2528,11.391346700009308,-0.019311106733278804,0.053756415669104066,-0.03987139061382194,0.05689814120637809,0.17310502221301732,-0.18422649046307557,-0.1121144001722957,0.11327318296353008,-0.19751573173189155,-0.30235565806506737,-0.3697112163426058,0.2772588102395407
2529,11.395847400010098,-0.018938503648277105,0.054801990770821825,-0.04047920131618925,0.05639017180276978,0.17361135742940495,-0.18511312988992273,-0.11347007711721138,0.11160420265476735,-0.1962585964143064,-0.29960037364222114,-0.37144524669104095,0.28105428609442545
2530,11.40084570000181,-0.017204374082520516,0.05835289038071492,-0.04263716666549623,0.055876124306354184,0.17411015857312284,-0.18599406966786197,-0.11481323332142916,0.10992752489428526,-0.19498442622007708,-0.2967962424006139,-0.373129910442052,0.28482383026043356
2531,11.404256599998916,-0.017204374082520516,0.05835289038071492,-0.04263716666549623,0.05535605560670724,0.17460139151220444,-0.18686923337211228,-0.11614364957173413,0.10824337247698389,-0.19369333892530888,-0.29394367311775405,-0.374765024234502,0.2885669953987812
2532,11.407658000010995,-0.017204374082520516,0.05835289038071492,-0.04263716666549623,0.054830023577260176,0.175085023119903,-0.1877385451127358,-0.11746110851904289,0.10655196899739101,-0.19238545431032017,-0.2910430840905972,-0.3763504155184654,0.2922833388675349
2533,11.411493699997663,-0.016908169339456082,0.059413083266296546,-0.04328894810396667,0.05429808706680203,0.17556102127811732,-0.1886019295435475,-0.11876539472120297,0.1048535388008435,-0.19106089413834929,-0.28809490304865243,-0.3778859226009286,0.2959724227928461
2534,11.415329700001166,-0.016908169339456082,0.059413083266296546,-0.04328894810396667,0.05376030589078903,0.17602935488059995,-0.18945931187092865,-0.12005629468539587,0.1031483069344734,-0.18971978213394264,-0.28509956706476397,-0.3793713946886373,0.29963381413895995
2535,11.41888270000345,-0.015862681909137536,0.061767574596903504,-0.04469262951620018,0.05321674082246281,0.17648999383594716,-0.19031061786254264,-0.12133359691013268,0.10143649909801093,-0.1883622439610299,-0.28205752246359866,-0.38080669192807426,0.30326708477698155
2536,11.422770999997738,-0.014749711265343596,0.06406201189612076,-0.04626926475852959,0.052667453583779326,0.1769429090703695,-0.19115577385595167,-0.12259709192683216,0.09971834159441738,-0.18698840720069218,-0.27896922472786717,-0.3821916854425546,0.3068718115523818
2537,11.426249000011012,-0.01427252594253119,0.06524175698285253,-0.04704185210147986,0.05211250683615019,0.17738807253024316,-0.1919947067671341,-0.12384657234097142,0.09799406128036106,-0.1855984013286289,-0.2758351384023086,-0.3835262573664229,0.3104475763512251
2538,11.432485800003631,-0.013808368401885403,0.0664161550006621,-0.04780236884162073,0.051551964170998624,0.17782545718444143,-0.19282734409890095,-0.12508183287279848,0.09626388551654946,-0.18419235769233008,-0.2726557369954689,-0.38481030087634044,0.3139939661651033
2539,11.436658300008276,-0.013385026528871649,0.06760412991663219,-0.04859239432004982,0.05098589010013226,0.1782550370264454,-0.19365361394921102,-0.12630267039759685,0.09452804211793062,-0.1827704094879594,-0.26943150287930573,-0.38604372021964867,0.31751057315475956
2540,11.443309200010845,-0.012462272401963674,0.06997147759900493,-0.050239157076117175,0.05041435004593472,0.1786767870762328,-0.19447344501938404,-0.12750888398549168,0.09278675930377688,-0.1813326917369537,-0.26616292718665086,-0.3872264307397968,0.32099699471238835
2541,11.448505100008331,-0.012042542440454782,0.07117099188316912,-0.05114205914351766,0.04983741033137811,0.17909068338194442,-0.19528676662221126,-0.1287002749407874,0.09104026564766421,-0.17987934126234442,-0.2628505097065613,-0.3883583588988243,0.3244528335225964
2542,11.455470100001548,-0.01119536755461102,0.07350652549817797,-0.05276909335139499,0.0492551381698589,0.17949670302132711,-0.19609350868996125,-0.1298766468408273,0.08928879002736045,-0.1784104966648067,-0.2594947587775928,-0.389439442296889,0.32787769762201063
2543,11.460640000004789,-0.010843264046472501,0.07470683405041303,-0.053684067046311595,0.04866760165485922,0.1798948241029524,-0.1968936017822806,-0.13103780557436515,0.08753256157463568,-0.17692629829844173,-0.25609619117902804,-0.3904696296888307,0.331271200457518
2544,11.465645100004622,-0.010441615478154032,0.07589798787712249,-0.05451454195777512,0.048074869749435825,0.18028502576721045,-0.19768697709398725,-0.1321835593794389,0.08577180962500794,-0.17542688824629776,-0.2526553320200937,-0.3914488809977654,0.3346329609431237
2545,11.47213740000734,-0.009652950855281086,0.07831757018735977,-0.0562272014632204,0.04747701227553911,0.18066728818707883,-0.1984735664627561,-0.1333137188807387,0.08400676366743805,-0.17391241029563642,-0.24917271462720225,-0.3923771673257021,0.33796260351541296
2546,11.476476800002274,-0.00925240694998954,0.07950136508654466,-0.0571488515858453,0.04687409990316443,0.1810415925686653,-0.1992533023766953,-0.13442809712646017,0.08223765329398683,-0.1723830099129507,-0.24564888042925268,-0.393254470961175,0.3412597581876039
2547,11.48240120000264,-0.008910154877290986,0.08068276114222106,-0.0580887930968141,0.04626620413933797,0.18140792115152496,-0.20002611798181144,-0.1355265096246354,0.08046470814944816,-0.17083883421874213,-0.24208437884102668,-0.3940807853838839,0.3445240606021803
2548,11.486630300001709,-0.00859090088349413,0.08185203609369306,-0.059012791614180424,0.045653397316939424,0.18176625720875175,-0.20079194708936263,-0.13660877437893182,0.07868815788097087,-0.16928003196206381,-0.23847976714471733,-0.39485611526633957,0.34775515208209173
2549,11.489979700010736,-0.00859090088349413,0.08185203609369306,-0.059012791614180424,0.045035752583363925,0.18211658504684472,-0.20155072418309783,-0.13767471192391015,0.0769082320876827,-0.16770675349483563,-0.23483561036962683,-0.39558047647250955,0.35095267968051036
2550,11.501937900000485,-0.007282805934003128,0.08640388776447835,-0.06280105991780652,0.04441334388902594,0.1824588900053488,-0.2023023844263825,-0.13872414535973282,0.07512516027032959,-0.16611915074593886,-0.23115248117007073,-0.39625389605346273,0.35411629622913415
2551,11.506062800006475,-0.006972839872374036,0.08754013629191151,-0.06379935704862864,0.0437862459757075,0.18279315845626987,-0.20304686366921001,-0.1397569003863144,0.07333917178094408,-0.16451737719509743,-0.22743095970152843,-0.39687641224001186,0.3572456603850265
2552,11.51107680000132,-0.006972839872374036,0.08754013629191151,-0.06379935704862864,0.04315453436475346,0.18311937780326448,-0.2037840984550981,-0.14077280533690442,0.07155049577255626,-0.16290158784655168,-0.22367163349507863,-0.39744807443235464,0.36034043667598264
2553,11.515378700001747,-0.006812469021270955,0.08863540976636296,-0.06488205988159773,0.04251828534511655,0.1834375364806049,-0.20451402602786956,-0.14177169121109487,0.0697593611489609,-0.16127193920253108,-0.2198750973301586,-0.3979689431867142,0.3634002955444121
2554,11.518936100008432,-0.006136038373389132,0.09079343511046117,-0.06705065994359914,0.041877575961254916,0.18374762395192024,-0.2052365843383169,-0.14275339170724458,0.06796599651455415,-0.15962858923653261,-0.2160419531056881,-0.39843909019897944,0.3664249133897277
2555,11.52283850000822,-0.005841213477647964,0.09187585288224648,-0.06817388447544659,0.041232484000884584,0.18404963070871427,-0.20595171205075025,-0.14371774325431372,0.0661706301242534,-0.15797169736641153,-0.21217280970959795,-0.3988585982853494,0.36941397260923237
2556,11.526360000003478,-0.005841213477647964,0.09187585288224648,-0.06817388447544659,0.040583087982589715,0.1843435482686606,-0.20665934854942783,-0.144664585043101,0.06437348983351397,-0.15630142442729136,-0.20826828288680516,-0.3992275613599873,0.3723671616374953
2557,11.530562300002202,-0.005665488105627482,0.09292812500129526,-0.06932192121263535,0.039929467143293214,0.18462936917367465,-0.2073594339448676,-0.1455937590568771,0.06257480304845595,-0.15461793264429935,-0.20432899510567704,-0.39954608440968625,0.3752841749842092
2558,11.53476270000101,-0.00498520658323915,0.09500335995139514,-0.07168390459498104,0.039271701425590465,0.184907086987764,-0.20805190908003854,-0.1465051101014077,0.06077479667611462,-0.15292138560513444,-0.20035557542302687,-0.3998142834655522,0.37816471327052215
2559,11.538857400009874,-0.004745219360059692,0.09599554837936998,-0.07296113400693845,0.03860987146494885,0.18517669629465702,-0.20873671553643058,-0.14739848583435936,0.05897369707482787,-0.15121194823247391,-0.19634865934768359,-0.40003228557170967,0.38100848326383735
2560,11.542930499999784,-0.004487279672395029,0.09697438080325718,-0.07418554391241668,0.0379440585767758,0.18543819269521106,-0.20941379564000243,-0.14827373679408196,0.05717173000477346,-0.14948978675622526,-0.19230888870267895,-0.40020022875103634,0.3838151979110739
2561,11.546338600004674,-0.004487279672395029,0.09697438080325718,-0.07418554391241668,0.03727434474335829,0.1856915728046004,-0.21008309246700613,-0.14913071642776196,0.055369120578669356,-0.14775506868562976,-0.1882369114860958,-0.4003182619679325,0.386584576370382
2562,11.553267100011,-0.0042262755819349705,0.09791328152666921,-0.07556671640053574,0.036600812600676755,0.18593683424928503,-0.21074454984968657,-0.14996928111894023,0.053566093212650115,-0.14600796278122485,-0.1841333817306214,-0.4003865450881344,0.3893163440413064
2563,11.558046300007843,-0.003594088096376284,0.09990703737705584,-0.07818922232375743,0.03592354542509627,0.18617397566376076,-0.21139811238185502,-0.15078929021438886,0.05176287157733278,-0.14424863902667268,-0.1799989593618511,-0.4004052488355801,0.3920102325933928
2564,11.561521399999036,-0.003594088096376284,0.09990703737705584,-0.07818922232375743,0.035242627119937926,0.1864029966870923,-0.21204372542433675,-0.1515906060503412,0.0499596785490852,-0.14247726860046225,-0.17583431005538547,-0.4003745547463398,0.3946659799932338
2565,11.565102599997772,-0.003594088096376284,0.09990703737705584,-0.07818922232375743,0.03455814220193328,0.18662389795922932,-0.2126813351102925,-0.15237309397806925,0.048156736161509776,-0.1406940238474923,-0.17164010509276592,-0.4002946551196234,0.39728333052994974
2566,11.568585700006224,-0.0035462835820803257,0.1008366806336086,-0.07946920405764321,0.03387017578756486,0.18683668111710597,-0.21331088835041334,-0.1531366223888045,0.046354265557155556,-0.13889907825054207,-0.1674170212162934,-0.40016575296587537,0.39986203483910093
2567,11.572212800005218,-0.0027177540776449557,0.10390818118936368,-0.08346196422624634,0.03317881357929556,0.18704134879052436,-0.21393233283798835,-0.1538810627379969,0.04455248693947173,-0.13709260640163692,-0.16316574048277538,-0.39998806195197095,0.4024018499250269
2568,11.576788600010332,-0.0025710627074052687,0.10489747686096333,-0.08481030497603823,0.03248414185168997,0.1872379045978242,-0.21454561705384498,-0.15460628956890807,0.04275161952501538,-0.1352747839733162,-0.15888695011624687,-0.39976180634353004,0.4049025391816111
2569,11.580383300009998,-0.002433913532729891,0.10587797001454867,-0.08600229270082183,0.03178624743743071,0.18742635314133926,-0.2151506902711621,-0.1553121805355346,0.04095188149592642,-0.13344578768981044,-0.15458134235971138,-0.3994872209443619,0.4073638724114694
2570,11.58672469999874,-0.0022722384815275914,0.10682850062770467,-0.08732212444559674,0.031085217713232798,0.18760670000264232,-0.2157475025601538,-0.15599861642485846,0.03915348995268257,-0.13160579529813532,-0.1502496143259475,-0.3991645510330591,0.4097856258435608
2571,11.590682499998366,-0.0021143323174358103,0.1078645197076667,-0.08857537056718201,0.030381140585659435,0.18777895173757883,-0.2163360047926246,-0.15666548117841975,0.0373566608671471,-0.1297549855391098,-0.1458924678474266,-0.39879405229675796,0.4121675821492184
2572,11.595194100009394,-0.0020138721579853885,0.10887737047941175,-0.0898185439545654,0.029674104476842343,0.1879431158710912,-0.21691614864639644,-0.15731266191320875,0.03556160903592164,-0.1278935381183056,-0.1415106093253885,-0.39837599076208324,0.4145095304566004
2573,11.598870400004673,-0.0019486106087967872,0.10991189683605762,-0.09103619525810576,0.028964198310109397,0.18809920089183524,-0.21748788660960802,-0.15794004894187338,0.03376854803401649,-0.126021633676935,-0.13710474957812244,-0.3979106427232966,0.41681126636356397
2574,11.607043500000144,-0.0017331485527774596,0.11188606238700147,-0.09339542057218668,0.02825151149552278,0.18824721624658963,-0.21805117198488622,-0.15854753579223846,0.03197769016885054,-0.12413945376268497,-0.13267560368849876,-0.397398294667672,0.4190725919489612
2575,11.611332000000402,-0.0016039285464358108,0.11279889741201081,-0.09466545469261461,0.027536133915330715,0.18838717233446015,-0.21860595889338902,-0.15913501922613355,0.03018924643459326,-0.12224718080050416,-0.12822389085079738,-0.39683924319811875,0.4212933157823593
2576,11.615520699997433,-0.0014496615940675153,0.11378350623425539,-0.09591894854433636,0.026818155909335877,0.18851908050088007,-0.21915220227871912,-0.15970239925752647,0.028403426466860875,-0.12034499806335017,-0.12375033421687939,-0.39623379495307504,0.4234732529321895
2577,11.619631100009428,-0.0013444347738024442,0.1146028076957533,-0.09701890220099278,0.02609766826018358,0.18864295303140954,-0.21968985791070875,-0.16024957916996033,0.026620438497778738,-0.11843308964290412,-0.11925566074174895,-0.3955822665236941,0.42561222497232515
2578,11.623578800004909,-0.0013444347738024442,0.1146028076957533,-0.09701890220099278,0.025374762178572957,0.1887588031453364,-0.2202188823890737,-0.16077646553329114,0.024840489311421986,-0.11651164042026045,-0.11474060102855227,-0.3948849843683466,0.42771005998709105
2579,11.62703830000828,-0.0013417821122696377,0.11559856001815684,-0.09810804367101456,0.0246495292883944,0.18886664498907987,-0.22073923314693725,-0.16128296821972388,0.02306378419964611,-0.11458083603659892,-0.11020588917306064,-0.3941422847244642,0.4297665925747084
2580,11.635117400001036,-0.0012208483829968461,0.11815066444602118,-0.10168102790323741,0.023922061611796393,0.18896649362939882,-0.22125086845422445,-0.16176900041914483,0.021290526918319088,-0.11264086286384564,-0.10565226260768475,-0.3933545135177505,0.431781663849179
2581,11.642652499998803,-0.0013904683589740785,0.11974317134033849,-0.10404545710367742,0.0231924515541849,0.18905836504640497,-0.2217537474209259,-0.16223447865374876,0.019520919643966864,-0.11069190797532988,-0.10108046194506758,-0.3925220262687887,0.43375512144061185
2582,11.646381500002462,-0.0013904683589740785,0.11974317134033849,-0.10404545710367742,0.02246079188915839,0.1891422761263818,-0.22224783000023068,-0.16267932279195804,0.017755162930843758,-0.10873415911644409,-0.09649123082130327,-0.3916451879970712,0.435686819493995
2583,11.650633900004324,-0.0013744046147277991,0.12062175909193712,-0.10502889365716173,0.02172717574338187,0.1892182446544114,-0.22273307699152933,-0.16310345606163182,0.01599345566843924,-0.1067678046753135,-0.09188531573882892,-0.39072437312247976,0.43757661866641795
2584,11.655001400009496,-0.0013876455704508461,0.1223763808831642,-0.10727411063943224,0.02099169658140317,0.18928628930681154,-0.22320945004328702,-0.16350680506256454,0.014235995039432339,-0.10479303365348173,-0.08726346590903569,-0.38975996536424456,0.4394243861227501
2585,11.659326300010434,-0.0014381685511164269,0.12311534259340798,-0.1083640300596754,0.02025444819041476,0.1893464296433856,-0.22367691165578663,-0.16388929977827243,0.012482976478104833,-0.10281003563661884,-0.0826264330946456,-0.3887523576374133,0.4412299955297796
2586,11.663767700010794,-0.001462229825723485,0.12396702434657278,-0.10944092895601897,0.019515524664964336,0.18939868609948676,-0.22413542518374113,-0.16425087358706672,0.010734593629224276,-0.10081900076525882,-0.07797497145190051,-0.3877019519468583,0.4429933270488182
2587,11.672214700010954,-0.0017189609758084604,0.12466969812486607,-0.11045498531751488,0.018775020391617353,0.18944307997789855,-0.22458495483877625,-0.16459146327241325,0.008991038307407748,-0.09882011970557406,-0.07330983737260997,-0.38660915927885403,0.4447142673267794
2588,11.676311800008987,-0.0015831533671066406,0.12653331582923025,-0.11262132801950367,0.018033030033574957,0.18947963344053395,-0.22502546569178197,-0.16491100903257888,0.0072525004569771265,-0.0968135836201933,-0.06863178932610389,-0.38547439949025464,0.446392709485738
2589,11.68140190000122,-0.0016776367921503901,0.12736946186223905,-0.11370249630561861,0.017289648515250444,0.18950836949995525,-0.22545692367513223,-0.1652094544895645,0.005519168112316444,-0.09479958413907054,-0.06394158770113609,-0.3842981011953038,0.44802855311097795
2590,11.685098600006311,-0.0016776367921503901,0.12736946186223905,-0.11370249630561861,0.016544971006807598,0.18952931201071724,-0.22587929558477174,-0.16548674669732466,0.0037912273587418647,-0.09277831333041146,-0.05923999464778542,-0.38308070165010877,0.4496217042375363
2591,11.688566299999366,-0.0016776367921503901,0.12736946186223905,-0.11370249630561861,0.015799092908664065,0.18954248566053555,-0.2262925490821702,-0.16574283614927385,0.002068862293894575,-0.09074996367166373,-0.0545277739194001,-0.3818226466348117,0.4511720753352552
2592,11.692520500000684,-0.001838993353246568,0.1281553709714572,-0.11474645902603327,0.015052109835962965,0.18954791596128256,-0.22669665269614395,-0.16597767678508052,0.00035225498966678595,-0.0887147280205772,-0.049805690714630514,-0.3805243903334919,0.4526795852923517
2593,11.697034800003166,-0.0018891772511403157,0.1307789145878647,-0.11789001216515996,0.014304117603016132,0.18954562923981347,-0.22709157582454506,-0.16619122599674901,-0.0013584145453291272,-0.08667279958634065,-0.045074511519595635,-0.3791863952118341,0.45414415939751307
2594,11.70127620000858,-0.0018843214029015051,0.13167687975330927,-0.11896361978735191,0.013555212207722279,0.18953565262862448,-0.22747728873581877,-0.1663834446339905,-0.0030629684027384673,-0.08462437190080167,-0.04033500395022827,-0.3778091318925983,0.45556572932052886
2595,11.705431000009412,-0.0019073929432050704,0.13255957022170442,-0.1199370460200262,0.012805489815963333,0.18951801405634522,-0.2278537625704294,-0.16655429700888214,-0.004761230810879319,-0.08256963878977672,-0.03558793659484409,-0.3763930790289274,0.45694423309146903
2596,11.71004210000683,-0.0019735132089180943,0.13340885761606355,-0.12101444608740099,0.012055046745982241,0.18949274223806736,-0.22822096934215697,-0.16670375089981637,-0.006453028170585354,-0.08050879434445836,-0.030834078856978833,-0.3749387231755302,0.45827961507841813
2597,11.715744900007849,-0.002150078220614797,0.1342652652149264,-0.12202049456568093,0.011303979452745423,0.1894598666655124,-0.22857888193926396,-0.16683177755474196,-0.008138189090466933,-0.07844203289292588,-0.02607420079853792,-0.37344655865777726,0.4595718259637794
2598,11.719862199999625,-0.002213743273018931,0.13511737727399936,-0.12305034182384203,0.010552384512293041,0.18941941759704123,-0.2289274741255347,-0.16693835169369817,-0.009816544421581249,-0.0763695489717654,-0.021309072983302268,-0.37191708743874813,0.4608208227191596
2599,11.725005600004806,-0.002321390228754952,0.13598764409833128,-0.12404060029533047,0.009800358606080266,0.1893714260475079,-0.22926672054118785,-0.16702345151064352,-0.01148792729150244,-0.07429153729780576,-0.016539466320833782,-0.37035081898426736,0.462026568578846
2600,11.730103599998984,-0.0024506623724592017,0.13681148584220731,-0.12509021189850286,0.00904799850531279,0.18931592377796,-0.22959659670366295,-0.16708705867458123,-0.013152173137782741,-0.07220819273997627,-0.01176615191082373,-0.36874827012596945,0.4631890330118857
2601,11.7344305000006,-0.0028095357488335873,0.13764401412314722,-0.12617159436370323,0.008295401055279785,0.18925294328518874,-0.22991707900828268,-0.16712915832998423,-0.014809119740795946,-0.07011971029129288,-0.006989900887926728,-0.36710996492243303,0.4643081916927807
2602,11.739561700000197,-0.002928488471181122,0.139326975306034,-0.12828590750427213,0.007542663159687448,0.18918251779113135,-0.2302281447287915,-0.16714973909652178,-0.0164586072559546,-0.06802628504097916,-0.002211484267122629,-0.3654364345184259,0.46538402647081406
2603,11.744728000005123,-0.003022663724516511,0.1401789849267362,-0.12942751940246172,0.006789881764996243,0.1891046812321289,-0.23052977201777064,-0.16714879306809063,-0.01810047824529257,-0.06592811214672811,0.0025683272103518085,-0.36372821700230185,0.4664165253380209
2604,11.7492995000066,-0.0031569607617007722,0.1410445851076324,-0.13042714568359334,0.0060371538447649845,0.18901946824804303,-0.23082193990692987,-0.1671263158111539,-0.01973457770840465,-0.06382538680711072,0.007348763230460001,-0.3619858572615899,0.467405682395821
2605,11.753534000003128,-0.003298723076967186,0.14190863435881937,-0.13147369752848428,0.0052845763840049555,0.18892691417123433,-0.23110462830727588,-0.16708230636239108,-0.021360753112735224,-0.06171830423413686,0.012129054059170377,-0.36020990683681736,0.4683514978203267
2606,11.757536500008428,-0.003340490491966823,0.1427682578821512,-0.13251321195812554,0.004532246363547209,0.18882705501540506,-0.23137781800915766,-0.16701676722566228,-0.022978854423208107,-0.0596070596259746,0.016908430694568394,-0.3584009237736092,0.46925397782634276
2607,11.761545500005012,-0.0035595681540637955,0.14357999809422578,-0.1336168950581752,0.0037802607444261654,0.18871992746430902,-0.23164149068218956,-0.16692970436829002,-0.024588734131189966,-0.05749184813983368,0.021686125018235695,-0.35655947247310577,0.4701131346300741
2608,11.765495500003452,-0.003736879061058067,0.14437107346351644,-0.13474838657334434,0.003028716452282571,0.1886055688603314,-0.23189562887505297,-0.16682112721666087,-0.026190247282779727,-0.05537286486501858,0.026461369945856784,-0.3546861235407425,0.4709289864105594
2609,11.76926660000754,-0.003736879061058067,0.14437107346351644,-0.13474838657334434,0.0022777103617889036,0.1884840171929415,-0.23214021601517631,-0.16669104865115,-0.02778325150641679,-0.053250304796157194,0.03123339957701407,-0.3527814536334341,0.4717015572698471
2610,11.772800400009146,-0.003995053507350833,0.14512944887062906,-0.1357416846557309,0.0015273392811002606,0.18835531108702247,-0.23237523640829444,-0.16653948500037194,-0.029367607039800837,-0.05112436280661075,0.036001449344132665,-0.3508460453052059,0.4724308771919324
2611,11.776267900000676,-0.00416835395063965,0.1470031857066015,-0.13794375918999136,0.0007776999363337611,0.18821948979108136,-0.23260067523788885,-0.16636645603476116,-0.0309431767561163,-0.04899523362207059,0.040764756160537,-0.3488804868513194,0.47311698200047225
2612,11.78035909999744,-0.004270421191363734,0.14786617105812086,-0.1391059811479891,2.8888956079464877e-05,0.18807659316534311,-0.23281651856451016,-0.16617198495948668,-0.032509826189554836,-0.04686311179434732,0.04552255856758188,-0.3468853721509373,0.4737599133152974
2613,11.784705400001258,-0.004425109753283904,0.1486896217254495,-0.14018973824005215,-0.0007189971440541974,0.18792666166973154,-0.23302275332498276,-0.16595609840670517,-0.03406742356012937,-0.04472819167535765,0.050274096880820955,-0.34486130050837327,0.4743597185077435
2614,11.78885930000979,-0.004670540244402388,0.14959999638608396,-0.1413233398340282,-0.0014658619768575139,0.1877697363517403,-0.2332193673314921,-0.16571882642715746,-0.03561583979777329,-0.04259066739131409,0.055018613335176096,-0.34280887649297226,0.4749164506548183
2615,11.792906300004688,-0.0047671094241438505,0.15054139344307615,-0.14241243930174985,-0.0022116092988961585,0.18760585883419725,-0.23340634927055598,-0.16546020248111254,-0.037154948565718666,-0.040450732817122914,0.05975535222907221,-0.3407287097776703,0.4754301684922203
2616,11.796889300007024,-0.0049647218050458825,0.15139239220799158,-0.14352181660263263,-0.0029561430258445067,0.18743507130292586,-0.23358368870187962,-0.1651802634286636,-0.038684626283147644,-0.03830858155099555,0.06448356006750229,-0.33862141497627835,0.4759009363662285
2617,11.802178600002662,-0.0051983616923611115,0.152326781136757,-0.14463328093489208,-0.0036993672477727093,0.18725741649430658,-0.2337513760570951,-0.16487904951938073,-0.04020475214711123,-0.03616440688927822,0.06920248570398817,-0.33648761147953754,0.47632882418448386
2618,11.806047100006252,-0.0051983616923611115,0.152326781136757,-0.14463328093489208,-0.004441186244384648,0.1870729376827419,-0.2339094026383853,-0.1645566043813245,-0.04171520815371046,-0.034018401801505005,0.0739113804814032,-0.33432792328999295,0.47671390736568126
2619,11.809570099998382,-0.005596728186686439,0.1530692193597996,-0.14566222187476627,-0.00518150450020393,0.18688167866802832,-0.23405776061699368,-0.16421297500942467,-0.043215879118534486,-0.03187075890567938,0.07860949837162351,-0.332142978855736,0.4770562667881927
2620,11.814091400010511,-0.005726712957111094,0.1550590868054188,-0.1478299324754061,-0.005920226719705113,0.18668368376263858,-0.23419644303162115,-0.1638482117532294,-0.04470665269635056,-0.029721670443788924,0.0832960961139753,-0.32993341090306366,0.4773559887376439
2621,11.81796490000852,-0.005903908581805395,0.15592748333651354,-0.1489013996083505,-0.006657257842387345,0.18647899777891747,-0.23432544378671147,-0.16346236830403027,-0.04618741940004103,-0.027571328257558005,0.08797043335244592,-0.32769985626810094,0.4776131648534647
2622,11.82222410000395,-0.005903908581805395,0.15592748333651354,-0.1489013996083505,-0.007392503057787682,0.18626766601619343,-0.23444475765062478,-0.1630555016813697,-0.04765807261878283,-0.025419923764442895,0.09263177277162736,-0.32544295572743576,0.4778278920744335
2623,11.826381799997762,-0.006098239110801901,0.1567615017928099,-0.1499238499462178,-0.008125867820431305,0.18604973424780943,-0.2345543802537016,-0.16262767221893665,-0.049118508635465075,-0.02326764793387396,0.09727938023136118,-0.32316335382781525,0.47800027258323824
2624,11.830431900001711,-0.006458785095187776,0.15862583524756874,-0.1520301275740294,-0.008857257864715938,0.18582524870807712,-0.23465430808621898,-0.162178943549857,-0.050568626643340525,-0.02111469126374923,0.1019125249000548,-0.32086169871495385,0.4781304137500758
2625,11.834635400009574,-0.006781398071826539,0.15954773767747235,-0.1531891084146704,-0.009586579219727782,0.18559425607915803,-0.23474453849623955,-0.16170938259138448,-0.05200832876190676,-0.018961243757183593,0.10653047938663995,-0.31853864196150133,0.47821842807530984
2626,11.840719400002854,-0.00708781853137052,0.16038539217520528,-0.1542393744040063,-0.0103137382239864,0.18535680347787475,-0.23482506968735542,-0.1612190595289984,-0.05343752005201335,-0.016807494899517793,0.11113251987114445,-0.3161948383942206,0.47826443313121
2627,11.846123900002569,-0.0073428546441665216,0.16122523791995225,-0.15537965525369676,-0.011038641540115917,0.18511293844245647,-0.234895900716328,-0.16070804779991585,-0.054856108530191336,-0.01465363363559121,0.11571792623384901,-0.31383094592042354,0.4782685515027927
2628,11.850896400006604,-0.007982483354379816,0.16290506034407254,-0.15756626070223523,-0.01176119616943991,0.18486270891922163,-0.23495703149062483,-0.1601764240760247,-0.056264005182201746,-0.012499848347282445,0.12028598218300247,-0.31144762535371423,0.4782309107277871
2629,11.855435600009514,-0.008179538720366926,0.16374348159355712,-0.1586601319649424,-0.01248130946649745,0.18460616324919987,-0.23500846276585508,-0.15962426824624437,-0.05766112397580014,-0.010346326831321431,0.12483597538106901,-0.30904554023908853,0.47815164323575227
2630,11.8597596000036,-0.00844336818195323,0.16463687484905748,-0.15975189637446016,-0.013198889153477797,0.18434335015469583,-0.2350501961431051,-0.15905166339832122,-0.05904738187271408,-0.008193256277376786,0.12936719756948206,-0.3066253566774409,0.47803088628636853
2631,11.864238399997705,-0.008749679985082554,0.16539823382599023,-0.16078742334397986,-0.01391384333457124,0.1840743187257979,-0.23508223406617806,-0.15845869580006564,-0.06042269883983061,-0.0060408232464219695,0.1338789446918795,-0.30418774314952757,0.47786878190692855
2632,11.868908200005537,-0.009044751854471102,0.16631191376886612,-0.1618769217240411,-0.014626080510233614,0.18379911840683613,-0.23510457981873797,-0.1578454548800386,-0.061786997859591124,-0.0038892136493838035,0.13837051701579503,-0.3017333703394351,0.4776654768290503
2633,11.87219229999755,-0.009282560314636049,0.1671035128221548,-0.162919642830939,-0.015335509591362076,0.1835177989827928,-0.23511723752136068,-0.15721203320769386,-0.06314020493959119,-0.0017386127260767433,0.14284121925278237,-0.29926291095760216,0.4774211224246346
2634,11.876732300006552,-0.009563804684065029,0.16792204978783168,-0.16394631855892267,-0.016042039913379724,0.18323041056566963,-0.23512021212849066,-0.15655852647298327,-0.0644822491213834,0.0004107949755737465,0.14729036067694887,-0.2967770395634431,0.4771358746410915
2635,11.880369899998186,-0.009897053422001527,0.16874290771218367,-0.16511500268805668,-0.016745581250226644,0.18293700358081535,-0.2351135094253042,-0.15588503346543242,-0.06581306248848089,0.002558825620015512,0.1517172552418765,-0.2942764323876222,0.4768098939358621
2636,11.884633900001065,-0.010147634899571906,0.16960782240680503,-0.1660423827955121,-0.017446043828255098,0.18263762875321776,-0.23509713602447993,-0.1551916560526938,-0.06713258017355976,0.0047052961042586255,0.15612122169590822,-0.2917617671540281,0.4764433452102612
2637,11.88869780000823,-0.010147634899571906,0.16960782240680503,-0.1660423827955121,-0.018143338340026696,0.18233233709376415,-0.2350710993628788,-0.1544784991585852,-0.06844074036485896,0.006850024077765899,0.16050158369577863,-0.28923372290150007,0.4760363977426665
2638,11.892835799997556,-0.010578507552961865,0.17041884001217888,-0.1670931382715719,-0.01883737595800941,0.18202117988547345,-0.23503540769813508,-0.15374567074062107,-0.0697374843117766,0.008992827962042114,0.16485766991856898,-0.2866929798053554,0.47558922512108043
2639,11.89719889999833,-0.011098654019795512,0.17208652589258105,-0.16921497657645584,-0.019528068348172202,0.1817042086697042,-0.23499007010515924,-0.1529932817670449,-0.07102275632966171,0.011133526969919223,0.16918881417196815,-0.2841402189987682,0.4751020051750906
2640,11.901153800004977,-0.01147308618678406,0.17297523552239533,-0.1702183391635087,-0.020215327683475105,0.18138147523234194,-0.23493509647255292,-0.15222144619336986,-0.07229650380380066,0.013271941124534887,0.17349435550282086,-0.28157612239405094,0.4745749199072541
2641,11.905410500010476,-0.011781713782348081,0.1737843654252365,-0.17129054146286418,-0.02089906665725269,0.18105303158997105,-0.23487049749893793,-0.15143028093843564,-0.073558677192598,0.015407891278001861,0.1777736383039461,-0.279001372503889,0.4740081554239322
2642,11.90982630000508,-0.012074657832412669,0.17466960219114666,-0.17225776445055574,-0.021579198496488775,0.18071892997603425,-0.23479628468919908,-0.15061990585999027,-0.07480923002995112,0.017541199129765806,0.18202601241921032,-0.27641665226257706,0.47340190186560255
2643,11.913698200005456,-0.012492911554081769,0.1754020870179713,-0.17335119159471937,-0.022255636974980265,0.18037922282698357,-0.2347124703506418,-0.1497904437298048,-0.07604811892681884,0.01967168724464925,0.18625083324683928,-0.27382264484730895,0.47275635333667554
2644,11.917777200011187,-0.012705562396745064,0.17624443394600486,-0.17434120330456512,-0.022928296426388106,0.18003396276842604,-0.2346190675890656,-0.14894202020832875,-0.077275303571984,0.021799179070579454,0.1904474618409539,-0.271220033499571,0.47207170783484315
2645,11.921984900007374,-0.013114797380531389,0.17705678292724952,-0.175398813629477,-0.023597091757173335,0.1796832026012677,-0.23451609030475493,-0.14807476381889415,-0.0784907467320107,0.02392349895599817,0.19461526501131615,-0.2686095013466902,0.4713481671799839
2646,11.92531869999948,-0.013114797380531389,0.17705678292724952,-0.175398813629477,-0.02426193845941629,0.17932699528785884,-0.2344035531883881,-0.14718880592147587,-0.07969441425039632,0.0260444721669514,0.19875361542127123,-0.2659917312235877,0.47058593694265133
2647,11.928926799999315,-0.013114797380531389,0.17705678292724952,-0.175398813629477,-0.02492275262351698,0.1789653939381437,-0.23428147171686617,-0.1462842806860161,-0.08088627504591912,0.02816192490385719,0.2028618916838739,-0.2633674054947876,0.46978522637217307
2648,11.93224160000682,-0.013114797380531389,0.17705678292724952,-0.175398813629477,-0.02557945095077483,0.1785984517958184,-0.2341498621490636,-0.14536132506532112,-0.08206630111018277,0.03027568431794988,0.20693947845618682,-0.26073720587672955,0.4689462483243843
2649,11.937098399997922,-0.01354202227395964,0.17771464757146974,-0.1763670583277783,-0.026231950765845963,0.1782262222245011,-0.2340087415215026,-0.14442007876753832,-0.08323446750435928,0.0323855785273992,0.21098576653173948,-0.2581018132604343,0.4680692191890223
2650,11.942417700003716,-0.014809944181455564,0.18103078866135053,-0.18045057466959943,-0.026880170029076222,0.17784875869391828,-0.23385812764395258,-0.1434606842282212,-0.08439075235513209,0.03449143663310267,0.21500015293113717,-0.2554619075345692,0.4671543588168077
2651,11.94675719999941,-0.01512292285193844,0.18187030703939708,-0.1814624364871656,-0.027524027348708197,0.17746611476611157,-0.23369803909495562,-0.14248328658199125,-0.08553513684984138,0.036593088734150056,0.21898204099081137,-0.2528181674089619,0.4662018904462403
2652,11.951070700000855,-0.015523797400047522,0.18264998763696733,-0.18245621577179064,-0.02816344199296062,0.17707834408166834,-0.23352849521727906,-0.14148803363380588,-0.0866676052308337,0.038690365942958785,0.22293084044990233,-0.2501712702386083,0.4652120406301347
2653,11.95517590000236,-0.01593016202156107,0.1834813830220703,-0.1833766807362565,-0.02879833390197839,0.1766855003459782,-0.23334951611329602,-0.14047507582984162,-0.08778814478901825,0.04078310040007923,0.22684596753526623,-0.24752189184822143,0.4641850391619243
2654,11.959354700011318,-0.01637349972467292,0.18430079591307302,-0.1843724401288433,-0.029428623699651598,0.17628763731551939,-0.2331611226402953,-0.13944456622800022,-0.08889674585663235,0.04287112528866888,0.23072684504459867,-0.24487070635736977,0.46312111900175906
2655,11.962694000001648,-0.01637349972467292,0.18430079591307302,-0.1843724401288433,-0.030054232705301828,0.1758848087841783,-0.2329633364057225,-0.13839666046804616,-0.08999340179921922,0.044954274848634235,0.23457290242766993,-0.24221838600625162,0.46202051620242857
2656,11.965921299997715,-0.01637349972467292,0.18430079591307302,-0.1843724401288433,-0.03067508294523416,0.17547706856960532,-0.2327561797623537,-0.13733151674138425,-0.09107810900682144,0.0470323843904395,0.2383835758656681,-0.23956560098215293,0.46088346983513556
2657,11.969933800006402,-0.016993250006433716,0.18497660072095662,-0.18528302923666962,-0.03129109716415324,0.17506447049960974,-0.23253967580340332,-0.13624929576048572,-0.09215086688439297,0.04910529030858142,0.2421583083486433,-0.23691301924663483,0.4597102219151496
2658,11.974090000003343,-0.017774634097528108,0.18673279861925118,-0.1871246126740841,-0.031902198836441756,0.1746470683985976,-0.23231384835756838,-0.13515016072797179,-0.09321167784143355,0.05117283009472965,0.24589654975104974,-0.23426130636349676,0.45850101732736576
2659,11.978094999998577,-0.018301302958068304,0.18761399533925224,-0.18805870617829656,-0.03250831217729966,0.17422491607405516,-0.2320787219840103,-0.1340342773053635,-0.09426054728084927,0.05323484235053216,0.2495977569053833,-0.23161112532756287,0.4572561037517943
2660,11.982395500002896,-0.018784674562193772,0.18841812488026255,-0.18883813075325873,-0.033109362153742536,0.17379806730308206,-0.23183432196727619,-0.13290181358150588,-0.09529748358704344,0.055291166800085535,0.25326139367391265,-0.22896313639433566,0.45597573158900795
2661,11.988378800000646,-0.019844561991963522,0.19006773871287092,-0.19050596538944567,-0.03370527449545735,0.17336657581897746,-0.23158067431215987,-0.1317529400406756,-0.0963224981132413,0.05734164430206953,0.2568869310185023,-0.22631799691056123,0.4546601538855718
2662,11.99280200000794,-0.020387953070244935,0.19081814140388184,-0.1913201246310374,-0.034295975705514146,0.17293049529788312,-0.2313178057385053,-0.1305878295303811,-0.0973356051680527,0.05938611686154562,0.26047384706852733,-0.22367636114575154,0.45330962625948407
2663,11.996848900002078,-0.020933758738223937,0.19152453143391435,-0.1921927335431388,-0.034881393070932284,0.17248987934548693,-0.2310457436759532,-0.1294066572288641,-0.09833682200127679,0.061424427641419276,0.2640216271868779,-0.22103888012470752,0.4519244068256556
2664,12.00160109999706,-0.020933758738223937,0.19152453143391435,-0.1921927335431388,-0.03546145467309959,0.17204478148379104,-0.23076451625863312,-0.12820960061231146,-0.09932616878895338,0.06345642097356605,0.26752976403405315,-0.21840620146108697,0.4505047561214541
2665,12.005415100007667,-0.020933758738223937,0.19152453143391435,-0.1921927335431388,-0.0360360893980433,0.1715952551379482,-0.23047415231980298,-0.12699683942178613,-0.10030366861766606,0.06548194236962174,0.2709977576303459,-0.21577896919206194,0.4490509370323395
2666,12.009447300006286,-0.021601967983510974,0.19214612046988705,-0.1931112134555943,-0.03660522694655145,0.17114135362316987,-0.23017468138643968,-0.12576855562988706,-0.10126934746810148,0.06750083853143675,0.27442511541611947,-0.2131578236141087,0.44756321471761845
2667,12.013647500003572,-0.023049928368373246,0.19420810922388942,-0.19606190197492693,-0.037168797844143474,0.17068313013170935,-0.22986613367378175,-0.1245249334071461,-0.10222323419787055,0.0695129573611954,0.2778113523101794,-0.21054340111997247,0.4460418565363419
2668,12.017778900000849,-0.023550705387358824,0.19484738219437847,-0.19711917753667113,-0.03772673345088845,0.17022063771992368,-0.22954854007982603,-0.12326615908817119,-0.10316536052359666,0.07151814797120042,0.28115599076624354,-0.2079363340368489,0.4444871319733707
2669,12.022025700003724,-0.024087784646081377,0.19545385635164816,-0.19800470620097063,-0.038278965971070264,0.1697539292954172,-0.22922193217978004,-0.12199242113754363,-0.10409576100227667,0.07351626069332332,0.2844585608275131,-0.20533725046582382,0.4428993125656358
2670,12.02544100000523,-0.024087784646081377,0.19545385635164816,-0.19800470620097063,-0.03882542846269815,0.16928305760426984,-0.22888634222047238,-0.12070391011547714,-0.10501447301192016,0.0755071470881212,0.28771860017934886,-0.20274677412261077,0.44127867182861624
2671,12.029915699997218,-0.025435907929997864,0.19553676006498022,-0.20042839281666133,-0.039366054846861884,0.16880807521835298,-0.2285418031147226,-0.11940081864324674,-0.1059215367314727,0.07749065995362096,0.2909356542000576,-0.200165524179628,0.4396254851830596
2672,12.034524900009274,-0.02634198090411532,0.19685424545772995,-0.2023363260431495,-0.0399007799169305,0.16832903452273618,-0.22818834843567207,-0.11808334136839585,-0.10681699512002894,0.0794666533337719,0.29410927600979364,-0.1975941151094549,0.4379400298819687
2673,12.038588399998844,-0.02616791537459493,0.1980619149958604,-0.2016631535042217,-0.04042953934759374,0.16784598770318856,-0.22782601241107764,-0.11675167492972961,-0.10770089389534145,0.08143498252656768,0.2972390265175828,-0.19503315652970882,0.4362225849378801
2674,12.04289530000824,-0.026920942178107483,0.19855681986774018,-0.20271495818208263,-0.040952269703745124,0.1673589867337784,-0.2274548299175705,-0.11540601792210359,-0.1085732815116322,0.08339550409183903,0.3003244744664775,-0.19248325304938063,0.43447343105045994
2675,12.047007100001792,-0.02740964737081511,0.19922509708424446,-0.20352119317546974,-0.041468908449205824,0.16686808336457448,-0.22707483647488172,-0.11404657086101619,-0.10943420913671263,0.08534807585871865,0.30336519647684806,-0.18994500411666784,0.43269285053443945
2676,12.051119499999912,-0.028140740320623935,0.19982378448138496,-0.20449476240017783,-0.0419793939552882,0.16637332910945196,-0.22668606824003673,-0.11267353614701374,-0.11028373062841894,0.08729255693277989,0.3063607770878193,-0.18741900386834356,0.430881127247917
2677,12.055695400005789,-0.02871128688745203,0.20044226111198826,-0.20532531420101155,-0.042483665509198014,0.16587477523400496,-0.22628856200152067,-0.11128711802991609,-0.1111219025103701,0.0892288077028508,0.30931080879685785,-0.18490584098069862,0.4290385465210511
2678,12.05947880000167,-0.029400084534282264,0.20107583425655348,-0.20636187848953946,-0.04298166332227448,0.16537247274356998,-0.22588235517341756,-0.10988752257287034,-0.11194878394705533,0.0911566898475053,0.31221489209752123,-0.18240609852209416,0.42716539508517076
2679,12.063980699997046,-0.029920326659437925,0.20168374139376133,-0.20716710542085892,-0.04347332853806751,0.1648664723713631,-0.2254674857895249,-0.10847495761624106,-0.11276443671825827,0.09307606634123324,0.3150726355153794,-0.1799203538071614,0.4252619610023257
2680,12.06819840001117,-0.029920326659437925,0.20168374139376133,-0.20716710542085892,-0.04395860324025121,0.16435682456673345,-0.2250439924974449,-0.10704963274134488,-0.11356892519282581,0.09498680146029168,0.3178836556421199,-0.17744917825268447,0.42332853359530126
2681,12.072318600010476,-0.030336529125363818,0.20217009538412925,-0.20781130316644297,-0.04443743046037276,0.16384357948353656,-0.22461191455265375,-0.10561175923403797,-0.11436231630178924,0.09688876078823944,0.3206475771678492,-0.1749931372352018,0.42136540337812084
2682,12.07704350000131,-0.030336529125363818,0.20217009538412925,-0.20781130316644297,-0.044909754185436225,0.16332678696863137,-0.22417129181255038,-0.10416155004816409,-0.11514467951084573,0.09878181122115728,0.32336403291160226,-0.17255278995036066,0.4193728619870574
2683,12.080406300010509,-0.030336529125363818,0.20217009538412925,-0.20781130316644297,-0.04537551936532035,0.16280649655050355,-0.2237221647304837,-0.10269921976887135,-0.1159160867922085,0.10066582097255616,0.3260326638500727,-0.17012868927405855,0.4173512021121774
2684,12.085422000003746,-0.030336529125363818,0.20217009538412925,-0.20781130316644297,-0.045834671920030004,0.16228275742801723,-0.22326457434976002,-0.10122498457580548,-0.11667661259583408,0.10254065957797619,0.3286531191445764,-0.16772138162540498,0.4153007174294412
2685,12.088850200001616,-0.030336529125363818,0.20217009538412925,-0.20781130316644297,-0.04628715874678061,0.1617556184592979,-0.2227985622976321,-0.09973906220618795,-0.11742633382003505,0.10440619789927927,0.33122505616626385,-0.16533140683153685,0.41322170253338025
