,time,x,y,z,vx,vy,vz,ax,ay,az,jx,jy,jz
1891,9.354991000000156,-0.09729879963428899,-0.08889897914108144,-0.06397571780354032,0.00519156585442289,0.0024978756334026646,0.006049890642248362,0.020246484949203353,0.07878798707109981,-0.07063905749695978,0.0853839708976891,0.228739886567492,-0.18462535855522946
1892,9.360415500006638,-0.09726386433464417,-0.08896169328454447,-0.06392900259927177,0.005291761639526767,0.0028865904403463866,0.005701617509532869,0.020665042601483764,0.07990929841910564,-0.07154291006327418,0.08552213135327918,0.229022479549019,-0.1843561777084724
1893,9.36633580000489,-0.09717221403754182,-0.08905122568343236,-0.06387294099721245,0.005394008998394232,0.0032808016788191652,0.005348919491961437,0.021084249721294863,0.081031902102331,-0.07244538975674511,0.08564792461634016,0.2292669596511131,-0.184064829529198
1894,9.37047550000716,-0.09714299699960371,-0.08911370370343384,-0.0638517661914286,0.005498310972349353,0.003680515226634805,0.004991803581296992,0.021504045710793934,0.082155610858088,-0.07334638782305142,0.085761301940821,0.2294730714252389,-0.18375124229515674
1895,9.374928500008537,-0.09710571332679545,-0.08918353951197672,-0.06382973947825539,0.005604670305924114,0.004085736041759622,0.004630277303021666,0.021924369736509564,0.08328023618872167,-0.07424579516511667,0.08586221666025078,0.22964056623090148,-0.1834153475080636
1896,9.379183700002612,-0.09706535255660523,-0.08923587457207373,-0.06382187131631774,0.005713089445726236,0.004496468156344951,0.004264348717977448,0.022345160739451916,0.08440558839507573,-0.07514350235897228,0.0859506242000698,0.22976920231580583,-0.18305707993056508
1897,9.38344629999483,-0.09702924006107108,-0.08931060361043021,-0.06379697467740221,0.005823570539356136,0.004912714670923913,0.0038940264239283886,0.02276635744528358,0.08553147661034805,-0.07603939966979983,0.08602648208958508,0.22985874489484726,-0.18267637762276503
1898,9.387309800004005,-0.09700578293604757,-0.08935844738140407,-0.06378780108395213,0.0059361154343733295,0.005334477748774372,0.003519319557043495,0.02318789837454928,0.0866577088343301,-0.07693337706815066,0.08608974997354328,0.22990896622790738,-0.1822731819782924
1899,9.39706240000669,-0.09691804459002205,-0.08949636071860326,-0.06374904513726345,0.006050725677312537,0.005761758610449902,0.0031402377932994528,0.0236097218529627,0.08778409196802446,-0.07782532424633996,0.08614038962331458,0.22991964569643084,-0.18184743775989443
1900,9.403939299998456,-0.0968441043876315,-0.08964708045938068,-0.06369151774301497,0.006167402512749796,0.006194557528480585,0.0027567913498023153,0.024031766021748627,0.08891043184863459,-0.07871513063501331,0.08617836494768073,0.22989056987875658,-0.18139909313453875
1901,9.40817120000429,-0.09678024698921246,-0.08974160537403988,-0.06362918541036633,0.0062861468824188345,0.006632873822245431,0.0023689909860272968,0.02445396884803858,0.09003653328492166,-0.07960268541988322,0.08620364200322113,0.2298215326241779,-0.18092809970800677
1902,9.413912300005904,-0.09675174889279536,-0.08980693632794662,-0.06359212747404912,0.006406959424377971,0.007076705853018222,0.001976848004975852,0.02487626813531798,0.09116220009292225,-0.08048787755863315,0.08621618900429029,0.22971233512570502,-0.18043441255896184
1903,9.42336040000373,-0.09669850226320685,-0.08995336264112593,-0.06351734650689969,0.006529840472227787,0.007526051019188498,0.0015803742542492322,0.02529860153392295,0.09228723513202056,-0.08137059579798647,0.08621597633258031,0.22956278599150648,-0.17991799027247604
1904,9.428801800007932,-0.09664005728774129,-0.09004712928811223,-0.06343606282221707,0.006654790054379762,0.007980905751659363,0.001179582127037705,0.02572090655158494,0.09341144034136861,-0.08225072869093727,0.08620297654626184,0.22937270131500517,-0.17937879497299952
1905,9.435835099997348,-0.09662670514337333,-0.09010773997634974,-0.06339681210666843,0.00678180789337613,0.008441265509423758,0.0007744845630246558,0.02614312056402102,0.09453461677664762,-0.0831281646141405,0.08617716438869698,0.22914190474360457,-0.17881679235675516
1906,9.441398299997672,-0.09660529823541884,-0.09022548501141277,-0.06330350560050658,0.006910893405261154,0.008907124775320763,0.00036509504920480095,0.026565180825567913,0.09565656464716328,-0.08400279178545861,0.08613851679671766,0.2288702275460202,-0.17823195172354211
1907,9.4463412000041,-0.09661917652943683,-0.09027999997596682,-0.06326762687434818,0.007042045699004044,0.009378477051973502,-4.8572379384248065e-05,0.026987024479857513,0.09677708335326801,-0.08487449828166145,0.08608701290846302,0.22855750867819194,-0.17762424600793272
1908,9.450143299996853,-0.09661876341162351,-0.09033398738952521,-0.06319987085024363,0.007175263575973694,0.009855314857910245,-0.0004665031390178202,0.02740858857053186,0.09789597152410338,-0.0857431720562761,0.08602263407076924,0.22820359484775302,-0.17699365180984689
1909,9.45390910000424,-0.09661555852204705,-0.09037214222324909,-0.0631427733866676,0.0073105455294654705,0.010337629723870263,-0.0008886820967281505,0.027829810051995536,0.09901302705565532,-0.08660870095758343,0.08594536384610599,0.22780834057703217,-0.17634014942448792
1910,9.4584307000041,-0.09661648542955688,-0.09042712005015865,-0.06306114516285509,0.007447889744280214,0.01082541218929593,-0.0013150935698371872,0.028250625800203304,0.10012804714911464,-0.08747097274675776,0.08585518801905298,0.2273716082645663,-0.1756637228716238
1911,9.462243800007856,-0.09660534324990419,-0.09049022113514557,-0.06299157256138309,0.007587294096355645,0.01131865179901255,-0.0017457213255789388,0.028670972623480662,0.10124082834953643,-0.08832987511614658,0.08575209460231051,0.22689326824509973,-0.1749643599241978
1912,9.467059800008428,-0.09660820034558798,-0.09056822090767118,-0.06294925412194748,0.007728756152450356,0.011817337100097431,-0.0021805485808120374,0.029090787273375218,0.1023511665847912,-0.08918529570768681,0.08563607384223745,0.226373198848048,-0.17424205213625224
1913,9.471176599996395,-0.0966000283023765,-0.09064888845340702,-0.06287461820921104,0.007872273169880544,0.012321455638939641,-0.0026195580018231815,0.029510006455536596,0.10345885720479958,-0.0900371221314543,0.08550711822391041,0.22581128645440268,-0.1734967948701504
1914,9.479554599995026,-0.09658925980633595,-0.09081024796750634,-0.06277482034157132,0.008017842096309635,0.012830993958491868,-0.003062731704222109,0.029928566840622808,0.10456369502104275,-0.09088524198434346,0.08536522247569836,0.22520742555205517,-0.17272858732307933
1915,9.483639300000505,-0.09660641452048341,-0.09090123725284696,-0.0627182610315919,0.008165459569590944,0.013345937595715706,-0.0035100512529287185,0.03034640507523077,0.10566547434634085,-0.09172954286887397,0.08521038357334691,0.2245615187895159,-0.17193743255281865
1916,9.487539099995049,-0.09660641452048341,-0.09090123725284696,-0.0627182610315919,0.008315121917663515,0.01386627107922171,-0.003961497662252945,0.03076345779284856,0.10676398903489137,-0.09256991241212108,0.08504260074356616,0.22387347702800767,-0.17112333750275996
1917,9.492639799995231,-0.09663087118560344,-0.0910470861267595,-0.06263619634604031,0.008466825158501255,0.014391977927105453,-0.0044170513960679735,0.031179661624826986,0.10785903252255916,-0.09340623828476549,0.0848618754671172,0.22314321939190845,-0.1702863130261606
1918,9.502526399999624,-0.09665662244548452,-0.09122184521494357,-0.06256011007813678,0.008620565000115462,0.014923040644980816,-0.004876692368077361,0.03159495321136828,0.10895039786741029,-0.09423840822025949,0.08466821148139196,0.2223706733175219,-0.16942637390961623
1919,9.506624400004512,-0.09665886722745376,-0.09129860246652327,-0.06252037614424286,0.00877633684061082,0.015459440724211675,-0.00534039994217661,0.032009269212529425,0.11003787779048145,-0.09506631003410572,0.08446161478248121,0.2215557746001531,-0.16854353889573592
1920,9.51236140000401,-0.09666222515208019,-0.09145869831115513,-0.06237966579559198,0.00893413576829495,0.01600115864034309,-0.005808152932909729,0.03242254631923761,0.11112126471677666,-0.0958898316432451,0.08424209362672597,0.22069846743946836,-0.1676378307050035
1921,9.516396000006353,-0.09665817016912305,-0.09153803681984671,-0.06233344948853542,0.009093956561841586,0.016548173851733197,-0.006279929606021314,0.03283472126431531,0.11220035081648336,-0.09670886108555021,0.08400965853174769,0.21979870448311678,-0.16670927605681052
1922,9.521089000001666,-0.09666427245462592,-0.09161565459245259,-0.06228449914083506,0.009255793690507403,0.017100464798386904,-0.006755707679104619,0.03324573083351238,0.11327492804639906,-0.09752328653942016,0.08376432227695248,0.2188564468685938,-0.1657579056896462
1923,9.531006400007756,-0.09671224545489049,-0.09176801744052282,-0.062214868241268505,0.0094196413144025,0.0176580089009924,-0.00723546432234609,0.03365551187654262,0.11434478819156042,-0.09833299634347237,0.08350609990350501,0.21787166426332558,-0.16478375438042925
1924,9.537765800007037,-0.09672553343399201,-0.09190593057645048,-0.06218091510314072,0.009585493284814551,0.01822078256016154,-0.007719176159366786,0.03406400131812233,0.115409722907066,-0.09913787901632694,0.083235008713768,0.216844334902955,-0.1637868609629678
1925,9.5428724999947,-0.09674576265281376,-0.09195653030951952,-0.06216841321141285,0.00975334314458658,0.0187887611558751,-0.008206819268161091,0.034471136169008175,0.11646952376008433,-0.09993782327647961,0.08295106827020324,0.21577444562780887,-0.1627672683455339
1926,9.546824400007608,-0.09674576265281376,-0.09195653030951952,-0.06216841321141285,0.009923184128548337,0.01936191904713392,-0.008698369182133146,0.03487685353703185,0.11752398227203836,-0.10073271806225856,0.08265430039373031,0.2146619919175287,-0.16172502352753834
1927,9.550283500007936,-0.09674576265281376,-0.09195653030951952,-0.06216841321141285,0.010095009164001276,0.019940229571816674,-0.009193800891231292,0.035281090638128905,0.11857288996095706,-0.1015224525518607,0.08234472916153915,0.21350697792384585,-0.16066017761529203
1928,9.55380760000844,-0.09674576265281376,-0.09195653030951952,-0.06216841321141285,0.010268810871257089,0.020523665046745004,-0.009693088843180923,0.03568378480735936,0.1196160383839857,-0.10230691618346277,0.0820223809043527,0.21230941650148322,-0.15957278583684137
1929,9.558470500007388,-0.09686664528576912,-0.09221861706383565,-0.06213325603890717,0.01044458156422974,0.021112196767956698,-0.010196206944816094,0.036084873509917466,0.12065321918004542,-0.10308599867540265,0.0816872842031368,0.21106932923716404,-0.1584629075558648
1930,9.56243849999737,-0.09692113836852916,-0.0922735348645801,-0.06212681086915879,0.010622313251080978,0.02170579501118775,-0.0107031285635102,0.03648429435212785,0.12168422411263251,-0.10385959004642624,0.08133946988525402,0.2097867464767102,-0.15733060628461648
1931,9.566522099994472,-0.09694928957007802,-0.09232457155108006,-0.06210607112704236,0.01080199763491924,0.022304429032564056,-0.011213826528706063,0.03688198509242528,0.12270884511274796,-0.1046275806359951,0.08097897102005817,0.20846170735021285,-0.1561759496959043
1932,9.57473019999452,-0.09700489905907561,-0.09245367642330436,-0.06206696428278049,0.010983626114551918,0.022908067069503366,-0.011728273133545693,0.037277883652315304,0.12372687432194752,-0.1053898611246502,0.08060582291392697,0.20709425979525883,-0.15499900963408936
1933,9.583442899995134,-0.09705351883513055,-0.09252485150517112,-0.06206081538188453,0.01116718978529089,0.02351667634182799,-0.012246440136599911,0.037671928127313015,0.12473810413550179,-0.10614632255442731,0.08022006310473022,0.20568446057819637,-0.15379986212509492
1934,9.587345399995684,-0.09706444324658126,-0.0925970321154293,-0.06203283144739268,0.011352679439811128,0.024130223053088956,-0.01276829876369803,0.038064056797857515,0.1257423272456566,-0.10689685634931938,0.07982173135573116,0.2042323753134252,-0.15257858738541275
1935,9.59184439999808,-0.09710615751653452,-0.09263202348243109,-0.06204396494468791,0.011540085569062277,0.02474867239210211,-0.013293819709857789,0.03845420814019906,0.12673933668498438,-0.10764135433578029,0.0794108696489189,0.2027380784806963,-0.151335269830095
1936,9.595615300000643,-0.09713041222303882,-0.09265112465632568,-0.06202794785510769,0.011729398363233027,0.02537198853469668,-0.013822973141315744,0.03884232083725619,0.12772892586981643,-0.10837970876326553,0.07898752217777048,0.20120165344040586,-0.15006999807971888
1937,9.59993920000852,-0.09716670665453218,-0.0926835380197232,-0.0620289002387627,0.01192060771276809,0.02600013464567669,-0.014355728697658226,0.03922833378944004,0.12871088864374683,-0.10911181232480426,0.07855173533944079,0.19962319244686896,-0.14878286496631327
1938,9.604095500006224,-0.09720145719283078,-0.09269589047843321,-0.062040437661221616,0.012113703209437618,0.02663307288099544,-0.014892055494053,0.03961218612544298,0.12968501932119839,-0.10983755817759763,0.07810355772637892,0.19800279665956014,-0.14747396753823552
1939,9.612374100004672,-0.09723797259657914,-0.09271913670919357,-0.061956901052025865,0.01230867414745885,0.027270764390143424,-0.01543192212358171,0.03999381721298873,0.13065111273104074,-0.11055683996363848,0.07764304011736953,0.19634057615230635,-0.14614340706398748
1940,9.616804000004777,-0.0972617505069155,-0.09273901287698949,-0.061958408128689725,0.01250550952466981,0.027913169318750004,-0.015975296659673205,0.040373166669541063,0.1316089642602509,-0.1112695518303471,0.0771702354679983,0.19463664992041924,-0.14479128903495875
1941,9.620924600007127,-0.09724833835220627,-0.09275182445435884,-0.061902661578569426,0.01270419804375492,0.028560246811399216,-0.016522146658637733,0.04075017437296829,0.13255836989760506,-0.11197558845121841,0.07668519890054065,0.19289114588575318,-0.14341772316708784
1942,9.628884100005962,-0.0972585594127367,-0.09282271138921556,-0.06182346318146673,0.012904728113522269,0.029211955014660004,-0.017072439162302055,0.041124780472160706,0.13349912627739083,-0.11267484504647446,0.0761879876932729,0.1911042008996771,-0.14202282340143144
1943,9.632594900002005,-0.0972585594127367,-0.09282271138921556,-0.06182346318146673,0.013107087850232391,0.029868251080330935,-0.017626140700745523,0.04149692539759819,0.13443103072312984,-0.1133672174037173,0.07567866126920546,0.18927596074394992,-0.14060670790363175
1944,9.639731600007508,-0.09727845329910874,-0.09284494029878611,-0.06177842861162493,0.013311265078978304,0.03052909116889955,-0.018183217295137045,0.04186654987186517,0.13535388129130033,-0.11405260189857686,0.0751572811842384,0.18740658012948902,-0.1391694990622731
1945,9.64367879999918,-0.09727993993351124,-0.09291655968616952,-0.0617290966300188,0.013517247335116602,0.031194430453216376,-0.018743634460672887,0.04223359492011041,0.13626747681505041,-0.11473089551534871,0.07462391111473944,0.18549622269302146,-0.137711323486119
1946,9.64962640000158,-0.09729859231764376,-0.09300678401415996,-0.06168796308841288,0.013725021865749303,0.03186422312238373,-0.01930735720961516,0.04259800188044853,0.13717161694789193,-0.11540199586761607,0.07407861684454498,0.1835450609916081,-0.13623231200022132
1947,9.655087100007222,-0.09729366584855936,-0.0930370290618225,-0.06167016454299361,0.013934575631256144,0.032538422385859155,-0.019874350054430924,0.04295971241430067,0.13806610220736465,-0.11606580121885064,0.07352146625138486,0.1815532764950315,-0.13473259964089346
1948,9.659953599999426,-0.09730100148058904,-0.0930663042259986,-0.06166440276310509,0.014145895306877014,0.03321698047777321,-0.020444577011031844,0.04331866851667118,0.13895073401866087,-0.11672221050298721,0.07295252929273234,0.17952105957603784,-0.13321232564953978
1949,9.664461899999878,-0.09735119093770873,-0.09311313171562427,-0.06167249973153361,0.014358967284344258,0.033899848661461354,-0.021018001602114242,0.04367481252635765,0.13982531475819965,-0.11737112334496633,0.07237187799108084,0.17744860949842486,-0.1316716334653331
1950,9.675103200002924,-0.09732819685811003,-0.09313064860287168,-0.06159166316437322,0.014573777673564608,0.03458697723420963,-0.021594586860599375,0.04402808713609132,0.14068964779714102,-0.11801244008123966,0.07177958641864925,0.17533613440296825,-0.13011067071673324
1951,9.67907080000441,-0.09732331116015394,-0.09314342664021784,-0.06154746832222104,0.014790312304350373,0.035278315532213715,-0.02217429533317367,0.04437843540260524,0.1415435375448295,-0.11864606178023285,0.07117573068151739,0.17318385129117958,-0.1285295892118389
1952,9.683607500002836,-0.0973250088280953,-0.09316878743338768,-0.06150563139981158,0.015008556728199576,0.03597381193575091,-0.022757089083928733,0.04472580075662743,0.14238678949215638,-0.11927189026276033,0.0705603889031943,0.1709919860068891,-0.12692854492756678
1953,9.688106400004472,-0.09730367040434088,-0.0932148245508444,-0.061451296450055,0.01522849622012464,0.036673413874564575,-0.023342929698100975,0.04507012701279608,0.1432192102548299,-0.11988982812238706,0.06993364120762129,0.16876077321564775,-0.12530769799765273
1954,9.691887900000438,-0.09729076126806327,-0.09324775737588824,-0.0614220798947148,0.01545011578052918,0.037377067833460516,-0.023931778285910473,0.04541135837949403,0.14404060761654205,-0.12049977874573188,0.069295569701613,0.16649045638194374,-0.12366721269946909
1955,9.69614499999443,-0.09730201884077605,-0.0933064078609947,-0.06142554818487313,0.015673400137132507,0.03808471935811468,-0.02452359548649871,0.04574943946859992,0.14485079057202088,-0.12110164633270602,0.06864625845673919,0.16418128774422996,-0.12200725743965331
1956,9.700424199996633,-0.09728105708000126,-0.09332050818916493,-0.06137979930807309,0.01589833374694141,0.0387963130610919,-0.02511834147196482,0.04608431530515315,0.14564956936995752,-0.12169533591668137,0.0679857934906507,0.16183352828775782,-0.12032800473854369
1957,9.704108400008408,-0.09731313336263686,-0.09338293393774474,-0.06137247027283841,0.016124900798268827,0.039511792628075255,-0.025715975951499943,0.046415931336930005,0.1464367555557978,-0.12228075338458237,0.0673142627478537,0.1594474477152152,-0.11862963121341774
1958,9.708335200004512,-0.09732212301905585,-0.0933940548281674,-0.06134928115803235,0.016353085212799087,0.04023110082430525,-0.02631645817561927,0.04674423344392754,0.1472121620143881,-0.12285780549689647,0.0666317560799358,0.15702332441516684,-0.11691231756052951
1959,9.714572299999418,-0.09729672889110604,-0.09339971878344229,-0.06131016901970525,0.016582870647699234,0.0409541795012281,-0.02691974694049123,0.04706916794775275,0.1479756030124649,-0.1234263999075965,0.06593836522524862,0.15456144542829528,-0.11517624853594223
1960,9.718290200005868,-0.09731815545992,-0.09342163853639232,-0.06129660642929335,0.016814240497775985,0.04168096960335237,-0.027525800592363293,0.04739068162091435,0.14872689424097693,-0.12398644518396909,0.06523418378805139,0.15206210641144155,-0.11342161293515271
1961,9.724132300005294,-0.09728940375352448,-0.09340978557781522,-0.06122671204547004,0.017047177897677943,0.04241141117531287,-0.028134577032083764,0.047708721696014256,0.1494658528572291,-0.12453785082634367,0.06451930721712028,0.14952561159944375,-0.11164860357150476
1962,9.72862750000786,-0.09728312042431106,-0.09339456159906695,-0.06117348970401126,0.017281665724142633,0.04314544336914097,-0.028746033719719073,0.048023235874836,0.15019229752683771,-0.1250805272877158,0.0637938327838286,0.14695227376477377,-0.10985741725338934
1963,9.73304819999612,-0.09727228019460483,-0.09337727519200717,-0.061133509496022254,0.01751768659828786,0.043883004451740225,-0.029360127679265983,0.04833417233732743,0.15090604846548528,-0.12561438599325905,0.06305785955970321,0.14434241417497232,-0.10804825476022993
1964,9.737686599997687,-0.0973267674734646,-0.09338789962489727,-0.06115094718658035,0.017755222887946915,0.044624031812566266,-0.029976815503458164,0.04864147975047501,0.1516069274804647,-0.1261393393597203,0.062311488393462885,0.14169636254788298,-0.1062213208172518
1965,9.74186579999514,-0.09727712876406602,-0.09341279289540594,-0.061074678588845396,0.017994256710047302,0.045368461971510135,-0.030596053358666556,0.04894510727706733,0.15229475801200149,-0.126655300814692,0.061554821887544055,0.13901445700468704,-0.1043768240690342
1966,9.745809000000008,-0.09727712876406602,-0.09341279289540594,-0.061074678588845396,0.01823476993303264,0.04611623058698401,-0.031217796989892906,0.04924500458434544,0.15296936517434287,-0.12716218481575597,0.060787964374119846,0.1362970440207413,-0.1025149770518456
1967,9.749874400004046,-0.09720535439313834,-0.0934172073460753,-0.061012092499314774,0.018476744179327074,0.04686727246420826,-0.03184200172585582,0.04954112185253736,0.15363057579660278,-0.1276599068694921,0.06001102189061876,0.13354447837422245,-0.10063599616476168
1968,9.754185600002527,-0.0971885127132576,-0.09346303354151748,-0.060958011167946545,0.018720160827841743,0.04762152156369871,-0.0324686224841687,0.04983340978327388,0.15427821846335216,-0.12814838355034622,0.05922410215474921,0.13075712309258197,-0.09874010163956669
1969,9.75801330000104,-0.0971885127132576,-0.09346303354151748,-0.060958011167946545,0.0189650010165228,0.04837891100995297,-0.033097613776608796,0.05012181960788334,0.15491212355494452,-0.12862753251935097,0.05842731453903724,0.1279353493968157,-0.09682751750943895
1970,9.762039399996866,-0.09716799436571066,-0.0935049789914009,-0.06093136804922578,0.019211245644940526,0.049139373100334255,-0.03372892971447677,0.05040630309556299,0.1555321232875664,-0.12909727254269368,0.05762077004488459,0.125079536643553,-0.09489847157642192
1971,9.76644419999502,-0.09713748192708012,-0.09353245380587769,-0.060908631353047304,0.01945887537691895,0.049902839314151494,-0.03436252401404607,0.05068681256142447,0.1561380517530022,-0.1295575235101247,0.05680458127615482,0.12219007226497253,-0.09295319537768273
1972,9.772262800004684,-0.09713728294470256,-0.09353958785102158,-0.060888983570028955,0.019707870643205366,0.0506692403219343,-0.0349983500021015,0.05096330087441077,0.15672974495810268,-0.13000820645319958,0.05597886241229522,0.1192673517065512,-0.09099192415056051
1973,9.776308600004995,-0.09713036997011294,-0.09352556741447406,-0.06085523121948462,0.019958211644179037,0.05143850599490146,-0.035636360621566256,0.05123572146508242,0.15730704086394706,-0.13044924356334905,0.05514372918100277,0.11631177836265381,-0.08901489679640698
1974,9.781455600008483,-0.0971322601747887,-0.09351791505577178,-0.060831010690622654,0.020209878352598517,0.052210565414621504,-0.036276508437216734,0.05150402833327086,0.15786977942468697,-0.13088055820977088,0.054299298830442315,0.11332376350997153,-0.08702235584322315
1975,9.78688699999475,-0.09714814447597005,-0.09346349570430978,-0.06077702093994383,0.020462850516386966,0.05298534688286391,-0.036918745641484146,0.051768176055596485,0.15841780262606228,-0.13130207495713717,0.05344569010102602,0.110303726238819,-0.08501454740709576
1976,9.791991100006271,-0.09713999148185921,-0.09345502722681044,-0.06075370300949808,0.020717107661454674,0.05376277793163918,-0.03756302406034211,0.05202811979284893,0.15895095452357827,-0.13171371958310998,0.05258302319676313,0.10725209338229923,-0.08299172115243776
1977,9.795531399999163,-0.09713999148185921,-0.09345502722681044,-0.06075370300949808,0.020972629094558132,0.054542785333425776,-0.03820929515927901,0.05228381529722751,0.15946908128033266,-0.13211541909565905,0.051711419756189564,0.10416929944334714,-0.08095413025103783
1978,9.799238100007642,-0.09713999148185921,-0.09345502722681044,-0.06075370300949808,0.02122939390619489,0.05532529511158221,-0.03885751004935441,0.052535218919439484,0.15997203120448042,-0.13250710175017616,0.050831002822886634,0.10105578651966267,-0.0789020313399237
1979,9.803807799995411,-0.09714273726784169,-0.09344470518978967,-0.060674764375239186,0.021487380973533688,0.05611023255094249,-0.0395076194933384,0.05278228761565386,0.16045965478632646,-0.13288869706638073,0.049941896815598824,0.09791200422654567,-0.07683568447804512
1980,9.80817040000693,-0.09713295432551039,-0.09346391370170289,-0.06064505485520883,0.021746568963379315,0.0568975222085932,-0.040159573911933005,0.05302497895430891,0.16093180473503613,-0.13326013584501026,0.04904422749796036,0.09473840961764542,-0.07475535310178186
1981,9.81255489999603,-0.09713208873722692,-0.09347643176963047,-0.060621696779879844,0.02200693633517146,0.05768708792483051,-0.040813323390074395,0.05326325112277152,0.1613883360149534,-0.13362135018429058,0.04813812194784075,0.0915354671036377,-0.07266130397928294
1982,9.816806100003303,-0.09714158103074202,-0.09350242412998538,-0.06058192150581193,0.022268461344016825,0.0584788528342954,-0.04146881768331489,0.05349706293384658,0.1618291058815169,-0.13397227349618046,0.047223708526319914,0.08830364836884402,-0.07055380716364386
1983,9.820880400002352,-0.09714841099903762,-0.09352706413876972,-0.06055271146151972,0.022531122043753796,0.059272739377285,-0.042126006224283544,0.05372637383213467,0.16225397391676374,-0.13431284052238462,0.04630111684630377,0.08504343228580805,-0.06843313594492947
1984,9.825124299997697,-0.09715106803954345,-0.09353962886914878,-0.060514604326927096,0.02279489629004901,0.06006866931123809,-0.04278483812922406,0.053951143900236226,0.16266280206441125,-0.13464298735012972,0.04537047774079131,0.08175530482784509,-0.06629956680105084
1985,9.829019500000868,-0.09716750596157049,-0.09356443598107576,-0.06049284215766286,0.02305976174352495,0.0608665637223927,-0.04344526220460906,0.054171333864800525,0.16305545466450638,-0.13496265142769778,0.044431923230804304,0.07843975897958111,-0.06415337934750456
1986,9.837251899996772,-0.09725731544906166,-0.09356591896437717,-0.060490850209721565,0.0233256958729179,0.06166634303761347,-0.04410722695382946,0.05438690510241747,0.16343179848763362,-0.135271771579711,0.04348558649299117,0.07509729464549819,-0.06199485628598412
1987,9.842807599998196,-0.09727773387983965,-0.09357244099147387,-0.06048143219291207,0.023592675958265478,0.06246792703638652,-0.04477068058395787,0.054597819645350786,0.163791702768671,-0.13557028802216167,0.04253160182691667,0.07172841855650423,-0.05982428335187272
1988,9.851082399996812,-0.09731817345071554,-0.09357597448987015,-0.0604711302397146,0.023860679094122917,0.06327123486297932,-0.04543557101258473,0.05480404018711096,0.1641350392400855,-0.13585814237718216,0.04157010462204956,0.0683336441745452,-0.05764194926062767
1989,9.856224400005884,-0.0973332463232779,-0.09360007555476632,-0.06047186654966871,0.0241296821928074,0.06407618503876296,-0.04610184587472609,0.05500553008786648,0.16446168216475826,-0.13613527768754924,0.04060123132446017,0.06491349159527875,-0.05544814565306691
1990,9.859963299997617,-0.0973409801963123,-0.09364911925076683,-0.060467989999569295,0.02439966198766957,0.06488269547469394,-0.046769452529801615,0.05520225337969184,0.16477150836833016,-0.13640163843091815,0.03962511940324027,0.06146848744882843,-0.05324316703956903
1991,9.86457920000248,-0.0973428972853071,-0.09370690174784702,-0.06046395573540678,0.024670595036391397,0.06569068348395313,-0.04743833806868144,0.05539417477165068,0.16506439727105765,-0.13665717053378057,0.0386419073166578,0.05799916479863902,-0.05102731074319825
1992,9.86918290000176,-0.09736640809231066,-0.09377324807448721,-0.060466352013570826,0.02494245772430962,0.0665000657947392,-0.04810844932080029,0.055581259654712924,0.16534023091917036,-0.13690182138514134,0.037651734478059126,0.05450606303845437,-0.048800876841766455
1993,9.874812900001416,-0.09736640809231066,-0.09377324807448721,-0.060466352013570826,0.02521522626776382,0.0673107585632141,-0.04877973286133758,0.05576347410650449,0.16559889401572178,-0.13713553984990803,0.03665474122153155,0.05098972778743909,-0.04656416810884485
1994,9.87872170000628,-0.09737716686204426,-0.09400439113999608,-0.06038909653521311,0.02548887671746835,0.0681226773865977,-0.04945213501846212,0.05594078489588821,0.16584027395092404,-0.13735827628198738,0.03565106876733931,0.04745071078346642,-0.04431748995373812
1995,9.88349950000702,-0.09738672632440884,-0.09407062429327917,-0.060354603010425875,0.0257633849619074,0.06893573731640927,-0.05012560188064002,0.056113159487375,0.1660642608319566,-0.13756998253708383,0.03464085918714639,0.0438895697745952,-0.04206115036043443
1996,9.887374300000374,-0.0974217963374233,-0.09411752024274156,-0.06030889918650367,0.026038726730752366,0.06974985287185315,-0.05080007930400436,0.05628056604536392,0.1662707475122405,-0.13777061198519575,0.03362425536903932,0.04030686840875938,-0.03979545982554524
1997,9.891592800006038,-0.09744927788650266,-0.09416910123463833,-0.060260964918465894,0.026314877598300705,0.07056493805334613,-0.05147551291978507,0.0564429734382101,0.1664596296201693,-0.137960119522804,0.03260140098236359,0.03670317612169449,-0.037520731295248744
1998,9.895847899999351,-0.09748106734542225,-0.09420992288779045,-0.060230115141614436,0.026591812986935415,0.07138090635618362,-0.052151848141797394,0.05660035124211946,0.16663080558728813,-0.13813846158474785,0.031572440442387446,0.03307906802312612,-0.035237280101251926
1999,9.904469800007064,-0.09759027316053454,-0.09430920181407274,-0.060175214386976386,0.026869508170604236,0.07219767078434204,-0.052829030173987816,0.056752669744869234,0.16678417667591294,-0.1383055961557836,0.03053751887480713,0.02943512478124629,-0.03294542389578645
2000,9.908292699998128,-0.09764161550668723,-0.0943432587604045,-0.06017196950140041,0.027147938278317848,0.0730151438644148,-0.05350700401803609,0.056899899949353676,0.16691964700618217,-0.13846148278182108,0.029496782080107354,0.025771932505503813,-0.030645482585654096
2001,9.913134899994477,-0.09769490026597798,-0.09438815878339868,-0.06016761016826514,0.027427078297666104,0.07383323765967897,-0.05418571448101206,0.05704201357695383,0.1670371235825324,-0.13860608258083376,0.0284503764977912,0.02209008262773557,-0.028337778265337937
2002,9.91756929999974,-0.09774206223839071,-0.09445691234822107,-0.060140342767695275,0.027706903078351323,0.07465186378429002,-0.05486510618308528,0.057178983070730625,0.16713651631958915,-0.1387393582534382,0.027398449170493454,0.018390171781666246,-0.026022635149195863
2003,9.924589000002015,-0.0977998953375041,-0.09459370327230641,-0.06010637473517427,0.02798738733573763,0.07547093341760122,-0.05554512356528581,0.05731078159844075,0.16721773806746604,-0.13886127409313906,0.026341147707991855,0.014672801680804832,-0.02370037950275335
2004,9.928826000003028,-0.09784648863960108,-0.09469173044136237,-0.06011054125325769,0.028268505654415434,0.07629035731860528,-0.05622571089731485,0.05743738305537427,0.16728070463646458,-0.13897179599623494,0.02527862025113074,0.01093857899476675,-0.021371339573113088
2005,9.933337099995695,-0.09785846429686007,-0.0947902390063342,-0.06007189347401641,0.02855023249178018,0.07711004584049527,-0.056906812285403396,0.057558762067013505,0.16732533482116654,-0.13907089147138066,0.02421101543567167,0.007188115224051106,-0.01903584551849953
2006,9.937676800007466,-0.09784651063581369,-0.09487953825298308,-0.06005629725816081,0.028832542181624652,0.07792990894534169,-0.05758837168021726,0.05767489399151269,0.1673515504239109,-0.13915852964880226,0.02313848235608567,0.0034220265733031384,-0.016694229336956752
2007,9.941946999999344,-0.09786155941305547,-0.09497479425710392,-0.060030938770577136,0.02911540893774401,0.07874985621888289,-0.05827033288480669,0.05778575492199794,0.16735927627764724,-0.13923468128916003,0.022061170529301958,-0.0003590661769072908,-0.014346824794218298
2008,9.946169500006365,-0.09787366245132331,-0.09503256066945143,-0.06002235854508204,0.02939880685755282,0.07956979688542615,-0.05895263956259911,0.05789132168868728,0.16734844026815837,-0.13929931879205598,0.0209792298584281,-0.004154537799759964,-0.011993967350768141
2009,9.950522200000703,-0.09788334533567167,-0.09508265264852706,-0.06000434545388957,0.029682709925713112,0.08038963982285623,-0.059635235245433425,0.057991571860830295,0.1673189733556445,-0.1393524162041821,0.019892810596456333,-0.007963758753279497,-0.009635994088112396
2010,9.955981899998733,-0.09788385202679728,-0.09513005214358237,-0.06000142817922874,0.02996709201777259,0.08120929357774845,-0.0603180633416343,0.05808648374846703,0.1672708095956616,-0.13939394922710538,0.018802063309971043,-0.011786095312819052,-0.007273243634281842
2011,9.959878800000295,-0.09791211103995691,-0.09516131130718784,-0.06002755765330263,0.0302519269038121,0.08202866638058283,-0.061001067144124586,0.058176036404006114,0.16720388615940684,-0.139423895224686,0.017707138842872398,-0.015620909704899572,-0.004906056088585632
2012,9.964509199999156,-0.09793875734362159,-0.09517300474545995,-0.06005019752935115,0.03053718825210149,0.08284766616105627,-0.06168418983857387,0.05826020962362198,0.16711814335334435,-0.1394422332301247,0.016608188280131057,-0.019467560242371017,-0.0025347729456370593
2013,9.968518499998028,-0.09795153540637426,-0.09517860393107203,-0.0600867546105565,0.030822849632762963,0.0836662005634896,-0.062367374511581614,0.05833898394847143,0.16701352463816543,-0.13944894395263635,0.015505362911588933,-0.023325401460861504,-0.00015973701867255338
2014,9.972502200005692,-0.09798965414761891,-0.09519114652578532,-0.060144054187543206,0.031108884521441015,0.0844841769623266,-0.0630505641588931,0.058412340665729395,0.16688997664707722,-0.13944400978374719,0.014398814195821017,-0.027193784256479746,0.0022187076378145246
2015,9.976255999994464,-0.09798965414761891,-0.09519114652578532,-0.060144054187543206,0.03139526630297803,0.08530150247772164,-0.0637337016936461,0.058480261809444156,0.16674744920341267,-0.13942741480321164,0.013288693724073325,-0.031072056024735683,0.0046002158061033424
2016,9.983549600001425,-0.09799084815759161,-0.09525262542676104,-0.06029808977731922,0.03168196827509471,0.08611808399121287,-0.0644167299546464,0.05854273016121205,0.1665858953375555,-0.13939914478454626,0.01217515318429196,-0.03495956080064379,0.006984441183916016
2017,9.988238799996909,-0.09797825392330778,-0.09525641340107738,-0.06032664774955512,0.031968963652074266,0.0869338281614778,-0.06509959171467002,0.05859972925067185,0.16640527130317398,-0.13935918720017787,0.011058344325258332,-0.03885563939997281,0.009371036463706312
2018,9.994158000001336,-0.09794368028857602,-0.09528776982311611,-0.06035072319187193,0.03225622556844949,0.08774864144016767,-0.0657822296887906,0.05865124335581924,0.16620553659275802,-0.139307531226203,0.009938418920845578,-0.04275962956160538,0.011759653412543635
2019,10.001954200008186,-0.09789599913537629,-0.09532790610440493,-0.06041372315333147,0.032543727082692146,0.08856243008781764,-0.06646458654272978,0.05869725750314235,0.1659866539524534,-0.1392441677467563,0.008815528734411202,-0.0466708660909705,0.014149942952568936
2020,10.01042530000268,-0.09785020219837069,-0.09536486765047703,-0.06044488095639873,0.03283144118090393,0.08937510018982929,-0.06714660490122867,0.05873775746757865,0.1657485893961883,-0.13916908935798497,0.0076898254833409506,-0.05058868100451148,0.01654155524199887
2021,10.01535960000183,-0.09782275366764587,-0.09536392932689818,-0.060474094455799834,0.0331193407805081,0.09018655767252186,-0.06782822735643837,0.05877272977229401,0.16549131221908714,-0.13908229037162784,0.006561460803758859,-0.054512403675151595,0.018934139756654134
2022,10.021489899998414,-0.09780967083119874,-0.09532706616154232,-0.0607230875887384,0.03340739873394082,0.09099670831924844,-0.06850939647632727,0.05880216168828457,0.1652147950101666,-0.13898376681819616,0.005430586215418331,-0.058441360978719305,0.021327345371987633
2023,10.03373609999835,-0.09776517612608138,-0.09516048330346931,-0.06099064208926035,0.033695587832341035,0.09180545778657352,-0.06919005481310343,0.058826041233802064,0.16491901366431003,-0.13887351644975354,0.004297353086789156,-0.06237487744129462,0.023720820445587758
2024,10.041819999998552,-0.09770653452145603,-0.09502680951934556,-0.06118241011814646,0.03398388080923831,0.09261271162050802,-0.0698701449116494,0.05884435717360359,0.16460394739351542,-0.13875153874229393,0.003161912600355271,-0.0663122753874379,0.026114212900131824
2025,10.045859300007578,-0.09765858527748658,-0.09498283774203965,-0.06126930642798848,0.0342722503442378,0.09341837527279861,-0.07054960931796785,0.05885709901802663,0.16426957873741188,-0.138617834897715,0.0020244157181379136,-0.07025287508926158,0.028507170306764428
2026,10.050179500001832,-0.09758850823297327,-0.09493730936670824,-0.06137149896135001,0.0345606690667017,0.0942223541172676,-0.07122839058763598,0.058864257021890354,0.16391589357304134,-0.1384724078453851,0.0008850131474587392,-0.07419599491630487,0.03089933996887518
2027,10.054217400000198,-0.09749987049676288,-0.0948845047101286,-0.06146002192768081,0.03484910955942626,0.09502455346619969,-0.07190643129426695,0.0588658221832242,0.16354288112390183,-0.138315262243301,-0.0002561446930425683,-0.07814095148617135,0.03329036900624989
2028,10.058497100006209,-0.09741549678457403,-0.09481156607280192,-0.061546178869354005,0.03513754436231337,0.09582487858677192,-0.07258367403797597,0.058861786241824754,0.16315053396824863,-0.13814640447883492,-0.0013989077071217815,-0.0820870598158889,0.035679904439569116
2029,10.063186800005496,-0.09732747159915078,-0.09475582249445834,-0.06168901407116181,0.03542594597603577,0.09662323471752353,-0.07326006145384988,0.058852141677642494,0.16273884804664968,-0.13796584266906767,-0.0025431261543604157,-0.08603363347395061,0.03806759327522771
2030,10.069204100000206,-0.09721944823290678,-0.09470317024707813,-0.061796393282134585,0.0357142868656947,0.09741952708486208,-0.0739355362204177,0.05883688170899998,0.16230782266879198,-0.13777358666070738,-0.003688650683298654,-0.08997998473299558,0.04045308259044889
2031,10.074045000001206,-0.09700611740571528,-0.09454540741524678,-0.06207386962767829,0.03600253946446938,0.09821366091960287,-0.07461004106812003,0.058816000290642906,0.16185746051953628,-0.13756964802959132,-0.004835332364256893,-0.09392542472308826,0.04283601961866612
2032,10.078991300004418,-0.09689677688493613,-0.09443405794210934,-0.062230870298992325,0.03629067617725737,0.09900554147353761,-0.0752835187877753,0.05878949211162571,0.16138776766421709,-0.13735404007976995,-0.005983022721832013,-0.09786926358555459,0.04521605183514571
2033,10.08262050000485,-0.09689677688493613,-0.09443405794210934,-0.062230870298992325,0.03657866938430516,0.09979507403602796,-0.07595591223904057,0.05875735259303308,0.16089875355318572,-0.13712677784217242,-0.007131573767054644,-0.10181081062733316,0.04759282704282265
2034,10.087076900003012,-0.09682179628198125,-0.09432754431544951,-0.06243699439682592,0.036866491444828016,0.10058216395062014,-0.07662716435886474,0.058719577885539165,0.1603904310255931,-0.1368878780728519,-0.00828083802919387,-0.10574937447579992,0.049965993458322235
2035,10.091832100006286,-0.0966158431191828,-0.09406420965227408,-0.06279267049446412,0.037154114700618114,0.10136671663167696,-0.07729721816993242,0.0586761648668058,0.15986281631240953,-0.13663735925080936,-0.00943066858719593,-0.1096842632340238,0.052335199798139734
2036,10.096454500002435,-0.09651986054905054,-0.09391119754374302,-0.06299747149056177,0.03744151147964021,0.10214863758102287,-0.0779660167890968,0.058627111138721655,0.1593159290386803,-0.13637524157539435,-0.010580919100743724,-0.11361478463641082,0.054700095364950296
2037,10.099956799997017,-0.09637002024831202,-0.09370404130023573,-0.06319008342007607,0.037728654099614366,0.10292783240459867,-0.0786335034357999,0.0585724150244841,0.15874979222501534,-0.13610154696328208,-0.011731443840924076,-0.11754024620469396,0.05706033013402084
2038,10.104804400005378,-0.09620606049654333,-0.09350169775397035,-0.06339440977331239,0.0380155148715848,0.10370420682912171,-0.07929962144047813,0.058512075565525457,0.15816443228831092,-0.13581629904502635,-0.012882097720489954,-0.12145995540422665,0.05941555483969558
2039,10.108542900008617,-0.09604068884669015,-0.09328384812251851,-0.06359763276306583,0.038302066103474114,0.104477666718748,-0.07996431425295104,0.05844609251828567,0.15755987904170218,-0.13551952316118815,-0.014032736323704945,-0.12537321980053648,0.061765421061926645
2040,10.112280900008043,-0.09604068884669015,-0.09328384812251851,-0.06359763276306583,0.03858828010362184,0.1052481180917326,-0.08062752545079137,0.05837446635083354,0.15693616569374597,-0.13521124635803952,-0.015183215935757553,-0.12927934721609563,0.06410958131282124
2041,10.116509800005588,-0.09584984442533821,-0.09307454049473779,-0.06384465281849722,0.03887412918430649,0.10601546713708397,-0.08128919874767405,0.058297198239339015,0.15629332884683178,-0.13489149738284242,-0.016333393571733093,-0.13317764588726458,0.06644768912317632
2042,10.12079139999696,-0.09546822124746882,-0.09258329020509248,-0.0643517848753772,0.03915958566525027,0.106779620231209,-0.08194927800170243,0.058214290064398766,0.15563140849482032,-0.1345603066787027,-0.017483127005131195,-0.1370674246213647,0.06877939912897227
2043,10.12488580000354,-0.0952380988124585,-0.09234468278683547,-0.06464408956721658,0.03944462187710608,0.10754048395454474,-0.0826077072237094,0.05812574440721743,0.1549504480199088,-0.1342177063789984,-0.018632274795917163,-0.14094799295383492,0.07110436715779665
2044,10.128301899996586,-0.0952380988124585,-0.09234468278683547,-0.06464408956721658,0.03972921016492586,0.10829796510817326,-0.08326443058553136,0.05803156454564701,0.15425049418872347,-0.13386373030138346,-0.01978069631809569,-0.14481866130542762,0.07342225031516908
2045,10.13194609999482,-0.0952380988124585,-0.09234468278683547,-0.06464408956721658,0.04001332289160945,0.10905197073041598,-0.08391939242825225,0.057931754450086886,0.15353159714763878,-0.13349841394136672,-0.02092825178679573,-0.14867874113939897,0.07573270707073823
2046,10.135314700004528,-0.0952380988124585,-0.09234468278683547,-0.06464408956721658,0.040296932441333415,0.10980240811340362,-0.08457253727041607,0.0578263187792467,0.15279381041732296,-0.13312179446546804,-0.022074802284855644,-0.15252754511865008,0.07803539734432169
2047,10.13944349999656,-0.09501656870232847,-0.09210501212984672,-0.06496294510450724,0.040580011222958796,0.11054918481961745,-0.08522380981620584,0.0577152628757743,0.15203719088650972,-0.13273391070395288,-0.023220209788897963,-0.15636438726277554,0.08032998259175944
2048,10.143142700006138,-0.094276619203049,-0.09130737266628934,-0.06593723360553068,0.040862531673417045,0.11129220869839748,-0.08587315496358641,0.05759859276175138,0.151261798804996,-0.13233480314314608,-0.024364337194883342,-0.16018858310497563,0.08261612589055212
2049,10.147482500004116,-0.09401291689116376,-0.09098012166256102,-0.06633555230482624,0.04114446626107342,0.11203138790241417,-0.08652051781240867,0.0574763151340595,0.15046769777586635,-0.13192451391732557,-0.025507048343133505,-0.163999449848788,0.08489349202525455
2050,10.151872800008276,-0.09370280976203146,-0.09058718917507934,-0.06670772605215806,0.04142578748906742,0.11276663090410001,-0.08716584367247339,0.057348437359618795,0.1496549547469452,-0.1315030868001975,-0.026648208042813277,-0.16779630652459493,0.0871617475725954
2051,10.156667799994466,-0.09342667379013936,-0.0901551279093492,-0.06713931448888637,0.041706467898629744,0.11349784651203702,-0.08780907807155236,0.05721496747050248,0.14882364000147744,-0.1310705671959545,-0.02778768209586206,-0.17157847414586191,0.08942056098629365
2052,10.16400980000617,-0.0927171244901335,-0.08929323940896647,-0.06788833041302586,0.04198648007237519,0.11422494388729651,-0.08845016676336459,0.0570759141589298,0.1479738271480396,-0.13062700212991893,-0.02892533732036543,-0.17534527586506285,0.0916696026815425
2053,10.16837349999696,-0.09235684078617411,-0.08882744388367635,-0.06827953715827528,0.04226579663757085,0.11494783255972685,-0.08908905573550552,0.05693128677214043,0.1471055931096843,-0.1301724402387732,-0.030061041573357882,-0.17909603712924646,0.09390854511913121
2054,10.171899900000426,-0.09235684078617411,-0.08882744388367635,-0.06827953715827528,0.042544390269378916,0.11566642244418594,-0.08972569121732776,0.05678109530715338,0.14621901811232046,-0.12970693176037834,-0.031194663773048047,-0.1828300858351994,0.09613706288917573
2055,10.176986799997394,-0.09162561487778353,-0.08777228686410961,-0.06917387424214347,0.04282223369407333,0.1163806238567144,-0.09036001968777131,0.056625350405413374,0.145314185672332,-0.1292305285231838,-0.03232607392045809,-0.18654675248416197,0.09835483279442855
2056,10.180770999999368,-0.09121159133463586,-0.08728485334228529,-0.06969065322712695,0.04309929969222971,0.11709034753064596,-0.09099198788314113,0.05646406334732785,0.14439118258343678,-0.12874328393523038,-0.033455143120469266,-0.19024537033605143,0.1005615339331386
2057,10.185876899995492,-0.09076240635342075,-0.08684033807846037,-0.07016479982308721,0.04337556110188815,0.11779550463265213,-0.09162154280483005,0.05629724604669775,0.14345009890278887,-0.12824525297274839,-0.03458174360226604,-0.19392527556314898,0.10275684778143172
2058,10.19103489999543,-0.08999634099877822,-0.0859427978582223,-0.07125148725668919,0.04365099082168845,0.11849600677871706,-0.09224863172698519,0.056124911045044905,0.1424910279363264,-0.12773649216835464,-0.03570574873917149,-0.1975858074032066,0.10494045827518236
2059,10.197894400000225,-0.08960232367188664,-0.08537737520044414,-0.07183939670035248,0.043925561813977415,0.11919176605003848,-0.09287320220411614,0.05594707150583912,0.14151406622336718,-0.12721705959885007,-0.036827033067867075,-0.20122630831192886,0.10711205189134713
2060,10.202645700002904,-0.08911503146747429,-0.08476731979538969,-0.0723888524345958,0.044199247107887696,0.11988269500885193,-0.09349520207864342,0.05576374120862823,0.14051931352045605,-0.12668701487262035,-0.03794547230699028,-0.20484612411478498,0.10927131772873144
2061,10.207160000005388,-0.08862808141744596,-0.08400717741475908,-0.07293334753380216,0.044472019802387436,0.12056870671417488,-0.09411457948838538,0.05557493454307421,0.1395068727844669,-0.12614641911664173,-0.03906094337510388,-0.20844460415810753,0.11141794758816034
2062,10.211079300002892,-0.08862808141744596,-0.08400717741475908,-0.07293334753380216,0.04474385306930018,0.12124971473746655,-0.09473128287398166,0.05538066650289864,0.13847685015496403,-0.12559533496309389,-0.040173324408030876,-0.2120211014594345,0.11355163605202473
2063,10.2148237000074,-0.08862808141744596,-0.08400717741475908,-0.07293334753380216,0.04501472015629429,0.12192563317819963,-0.09534526098625161,0.0551809526797409,0.1374293549358263,-0.12503382653558331,-0.0412824947755497,-0.21557497285705132,0.11567208056317428
2064,10.218687400003546,-0.08811834925230068,-0.08336878558494225,-0.07342572953021499,0.04528459438984134,0.12259637667934029,-0.0959564628934858,0.054975809256932386,0.13636449957613897,-0.12446195943498124,-0.04238833509744438,-0.21910557915869025,0.1177789815031282
2065,10.222808399994392,-0.08667866368902631,-0.08126580656598104,-0.07515590587455548,0.04555344917814295,0.12326186044273271,-0.09656483798866869,0.05476525300319012,0.13528239965035577,-0.12387980072487922,-0.04349072725890492,-0.22261228528934487,0.11987204226957554
2066,10.227170700003626,-0.08615328849918862,-0.0804692980280671,-0.07571126733577381,0.04582125801402576,0.12392200024438459,-0.09717033599662987,0.054549301266232815,0.1341831738377362,-0.12328741891666614,-0.04458955442527339,-0.22609446043815765,0.1219509693531375
2067,10.232965000002878,-0.08519710031737623,-0.07870913523476997,-0.07697774756803796,0.046087994477803915,0.12457671244965013,-0.09777290698112258,0.05432797196632274,0.13306694390106216,-0.12268488395423015,-0.045684701056131774,-0.22955147820433783,0.1240154724133633
2068,10.23739180000848,-0.08450718992684929,-0.07796840352193304,-0.0774700875038274,0.046353632240108765,0.1252259140283064,-0.09837250135182761,0.05410128358973674,0.13193383466463865,-0.12207226719828888,-0.046776052918727766,-0.23298271674206852,0.12606526435393242
2069,10.24139500000456,-0.08387525108645065,-0.07711845930125764,-0.07802152529165222,0.04661814506468537,0.12586952256951953,-0.09896906987128075,0.05386925518216988,0.1307839739915833,-0.1214496414103515,-0.04786349710073493,-0.23638755890436114,0.12810006139703597
2070,10.245797800002038,-0.08333376681548961,-0.0762454851902544,-0.07854938386613941,0.04688150681115514,0.12650745629669716,-0.09956256366172171,0.05363190634207498,0.1296174927604104,-0.12081708073631589,-0.04894692202234416,-0.23976539238581526,0.13011958315691077
2071,10.251890700004878,-0.0828164447236166,-0.07537307773623153,-0.0790931145721439,0.0471436914377444,0.12713963408222306,-0.1001529342118624,0.053389257213941166,0.12843452484091417,-0.12017466068970514,-0.05002621744768373,-0.24311560986424283,0.1321235527124982
2072,10.256017399995471,-0.0822266966054263,-0.07431852252743554,-0.07965084504366968,0.04740467300397843,0.12776597546207044,-0.10074013338357268,0.053141328481515156,0.12723520706935715,-0.11952245813454672,-0.05110127449556576,-0.2464376091411148,0.1341116966792015
2073,10.26074700000754,-0.08160513852174728,-0.07335457596213261,-0.08018060351459616,0.04766442567334082,0.12838640065029178,-0.10132411341848149,0.0528881413609686,0.12601967922296933,-0.11886055126789868,-0.05217198564955742,-0.24973079328079067,0.1360837452797154
2074,10.26694739999948,-0.08045647346677465,-0.07142036603550554,-0.08123863709064136,0.047922923715897583,0.129000830553382,-0.10190482694449171,0.05262971759401532,0.12478808399376408,-0.11818901960202735,-0.053238244767375535,-0.25299457074849174,0.13803943241390296
2075,10.271059200007585,-0.0799287955655651,-0.07046522022545251,-0.08182355966459712,0.04818014151088584,0.1296091867845114,-0.10248222698220731,0.05236607944098167,0.12354056696167724,-0.11750794394624044,-0.05429994708960341,-0.2562283555469788,0.1399784957276943
2076,10.274840800004313,-0.07936425816170903,-0.06936744714768575,-0.08233661946104046,0.04843605354926671,0.13021139167762494,-0.10305626695127115,0.05209724967383342,0.1222772765670372,-0.11681740638838077,-0.055356989247729346,-0.25943156735189427,0.1419006766809813
2077,10.279134700002032,-0.07876417450044775,-0.0684531098588956,-0.08284275874559047,0.04869063443624197,0.13080736830140532,-0.10362690067661136,0.05182325156916259,0.12099836408237234,-0.11611749027598624,-0.05640926927150687,-0.26260363164573114,0.14380572061448244
2078,10.2859063000069,-0.07822224960001162,-0.06730349213730324,-0.08345876277631585,0.04894385889373433,0.13139704047309678,-0.10419408239459427,0.051544108901138114,0.11970398358356282,-0.11540828019712095,-0.05745668659563701,-0.26574397985039067,0.1456933768155537
2079,10.291001000005052,-0.0776765940075926,-0.06606934551567166,-0.08404715291463062,0.04919570176283128,0.13198033277218568,-0.10475776675908248,0.051259845934423925,0.1183942919203433,-0.11468986196088295,-0.05849914206577309,-0.2688520494582903,0.14756339858292045
2080,10.2977777000051,-0.07659740782671279,-0.06384301792941231,-0.08516137058117453,0.04944613800619245,0.13255717055393434,-0.10531790884739631,0.05097048741706819,0.11706944868616434,-0.11396232257759373,-0.05953653794384897,-0.271927284161985,0.149415543290305
2081,10.301621399994474,-0.07603388178901348,-0.06283098455025668,-0.08569005041196058,0.04969514271042045,0.13312747996276528,-0.10587446416617731,0.0506760585733669,0.11572961618741993,-0.11322575023867525,-0.060568777912731825,-0.27496913398226436,0.151249572448926
2082,10.306389999997918,-0.07541620512289005,-0.06175254661524811,-0.08623809912648013,0.04994269108839507,0.1336911879454927,-0.10642738865715203,0.05037658509670541,0.11437495941204905,-0.11248023429622,-0.06159576708020173,-0.2779770553946879,0.15306525176884606
2083,10.310412899998482,-0.07484806284225881,-0.0606470623752991,-0.08692924345903995,0.050188758481570575,0.1342482222643983,-0.1069766387027945,0.05007209314238132,0.1130056459975197,-0.11172586524226052,-0.06261741198226016,-0.28095051145452204,0.15486235121914319
2084,10.314201200002572,-0.07430642210930252,-0.059629090346348536,-0.08750579234972658,0.050433320362236134,0.1347985115101477,-0.10752217113188606,0.04976260932041193,0.1116218461982034,-0.11096273468774422,-0.06363362058577025,-0.28388897192004287,0.1566406450868839
2085,10.3185639000003,-0.0737731533480963,-0.05855432037168148,-0.08811009995929021,0.050676352335739465,0.135341985114545,-0.10806394322497102,0.049448160688329676,0.11022373285214733,-0.11019093534121878,-0.06464430229043162,-0.2867919133741681,0.1583999120348751
2086,10.32518379999965,-0.0726320221139599,-0.05642107772213431,-0.08942698387035276,0.05091783014267347,0.1358785733631224,-0.10860191271970647,0.04912877474396891,0.10881148134725314,-0.10941056098723434,-0.06564936793009327,-0.28965881934438337,0.1601399351581722
2087,10.330295699997803,-0.0721050008839966,-0.05526813209271551,-0.09011238459408269,0.05115772966102553,0.13640820740756213,-0.10913603781610458,0.04880447941824769,0.1073852695868717,-0.10862170646446928,-0.06664872977340809,-0.29248918042092903,0.16186050203932106
2088,10.337774700004957,-0.07112643380289001,-0.05297864405722503,-0.09163962276990864,0.05139602690828918,0.13693081927794862,-0.10966627718166581,0.04847530306794796,0.10594527795482216,-0.10782446764358587,-0.0676423015238332,-0.29528249437321497,0.16356140480231224
2089,10.342265800005409,-0.07066855323447721,-0.05180636716334855,-0.09245905010010488,0.051632698043537956,0.1374463418948482,-0.110192589956402,0.04814127446849752,0.10449168927984405,-0.1070189414048223,-0.06862999831898073,-0.29803826626442975,0.16524244016522646
2090,10.346810800008823,-0.07014345602040425,-0.050571822376553874,-0.09329512378861143,0.05186771936946168,0.13795470908121357,-0.11071493575774798,0.04780242280675709,0.10302468879949087,-0.10620522561532748,-0.06961173672932415,-0.30075600856431034,0.16690340949155058
2091,10.35088050000195,-0.06958562429481102,-0.049568637843358895,-0.09410191449184646,0.052101067334365106,0.13845585557411047,-0.11123327468536048,0.04745877767381541,0.10154446412347427,-0.10538341910624525,-0.07058743475626555,-0.30343524126003846,0.1685441188401439
2092,10.35443999999552,-0.06902450006232357,-0.04836383675125315,-0.09494003701685472,0.05233271853412931,0.13894971703626383,-0.11174756732580365,0.04711036905779585,0.10005120519646836,-0.10455362164955441,-0.07155701182956975,-0.3060754919652333,0.17016437901383502
2093,10.359108000004198,-0.06848988566002373,-0.047312218422118135,-0.09580571248327727,0.052562649714136114,0.1394362300674208,-0.11225777475711962,0.0467572273366775,0.09854510426038297,-0.10371593393467209,-0.07252038880417146,-0.30867629602700963,0.17176400560662963
2094,10.363148300006287,-0.06795181851526609,-0.046215661281542225,-0.09659640218288305,0.05279083777115541,0.13991533221552827,-0.1127638585532827,0.04639938327113391,0.09702635581611571,-0.10287045754482765,-0.07347748795636157,-0.31123719663107136,0.17334281904951027
2095,10.36838080000598,-0.06748270517023548,-0.04492550104191162,-0.09753959866336326,0.05301725975519556,0.14038696198772188,-0.11326578078853623,0.0460368679973929,0.09549515658479242,-0.10201729493321407,-0.07442823297935966,-0.3137577449048126,0.1749006446548097
2096,10.374615900000208,-0.06628307531860143,-0.042853546146471695,-0.09928136466660761,0.053241892871316705,0.1408510588611242,-0.11376350404161037,0.04566971302012052,0.0939517054685059,-0.1011565493989237,-0.07537254897828026,-0.3162375000183974,0.17643731265913928
2097,10.382754599995678,-0.06514182184955233,-0.040634582593100335,-0.10095655885092204,0.05346471448140711,0.14130756329344804,-0.11425699139982008,0.04529795020533259,0.09239620351056335,-0.10028832506267558,-0.07631036246450014,-0.31867602928379124,0.1779526582648548
2098,10.387769299995853,-0.06467442208446944,-0.03931836514536017,-0.10193684654065861,0.05368570210592284,0.14175641673340275,-0.11474620646304223,0.04492161177333692,0.09082885385525319,-0.09941272684234125,-0.07724160134943413,-0.32107290825171814,0.1794465216800423
2099,10.39169160000165,-0.06425147647432593,-0.03821101728478321,-0.10285847363732592,0.053904833425591006,0.1421975616309007,-0.11523111334757093,0.04454073029170915,0.08924986170714151,-0.09852986042827681,-0.07816619493772788,-0.3234277208065168,0.18091874815700604
2100,10.395871500004432,-0.06363012872716863,-0.036880216727317526,-0.10364404878990326,0.054122086283076645,0.14263094144706157,-0.1157116766898503,0.044155338668305275,0.0876594342899091,-0.09763983225846905,-0.07908407391987554,-0.3257400592588701,0.1823691880292415
2101,10.400352500000736,-0.06317709877152801,-0.035672718081759126,-0.1044702194619097,0.0543374386846134,0.14305650066401301,-0.11618786165008409,0.04376547014431393,0.08605778080473972,-0.09674274949350267,-0.07999517036427116,-0.32800952443638,0.18379769674687774
2102,10.404354400001466,-0.06284132815080198,-0.03433956003061143,-0.10542128788800884,0.05455086880159795,0.14347418479448487,-0.11665963391572104,0.04337115828735135,0.08444511238827077,-0.0958387199913566,-0.08089941770870249,-0.3302357257719658,0.1852041349105733
2103,10.40940849999606,-0.06262427275924845,-0.03312237983902835,-0.10644163063343011,0.05476235497214818,0.1438839403911943,-0.11712695970481503,0.04297243698460203,0.08282164207011695,-0.09492785228203621,-0.08179675075129669,-0.3324182813900624,0.1865883683038521
2104,10.41304549999768,-0.062394858541720666,-0.03190071166186024,-0.10734846919361853,0.05497187570262572,0.14428571505602003,-0.11758980576925923,0.04256934043600785,0.08118758472997795,-0.09401025554204949,-0.08268710564092754,-0.3345568181905955,0.18795026792386477
2105,10.420484600006604,-0.0617802501566565,-0.02926921502032937,-0.10899153276339918,0.05517940966912314,0.14467945744896327,-0.11804813939789388,0.04216190314750854,0.07954315705434094,-0.09308603956873464,-0.08357041986709432,-0.3366509719307127,0.18928971001056358
2106,10.424717999994757,-0.061627770725460086,-0.028100636414801025,-0.10984389272606357,0.05538493571891627,0.14506511729689356,-0.1185019284194865,0.041750159924336,0.07788857749278956,-0.09215531475444737,-0.08444663224928348,-0.3387003873042465,0.19060657607427645
2107,10.428692400004364,-0.06143158039687711,-0.026898451438530778,-0.11071064230310261,0.05558843287188169,0.14544264540207835,-0.1189511412055838,0.04133414586436557,0.07622406621393027,-0.09121819206061604,-0.08531568292582391,-0.34070471801888946,0.19190075292166803
2108,10.43389329999627,-0.061358500731456725,-0.025929744047234637,-0.11163462245236014,0.055789880321879426,0.14581199365049355,-0.11939574667323477,0.04091389635152679,0.07454984506094768,-0.09027478299167237,-0.08617751334224683,-0.3426636268710614,0.19317213268007613
2109,10.438378799997736,-0.061208566069016916,-0.024686446005301604,-0.11268394859142572,0.05598925743810158,0.14617311501991348,-0.11983571428758413,0.040489447049276185,0.07286613750680009,-0.08932519956886606,-0.08703206623916118,-0.34457678581845014,0.19442061282021286
2110,10.44196060000104,-0.060938452779557575,-0.02331231460294021,-0.11349006058985112,0.05618654376638751,0.1465259635877794,-0.12027101406433593,0.04006083389413477,0.07117316860906629,-0.08836955430397189,-0.08787928563965608,-0.34644387605020727,0.1956460961772194
2111,10.446257400006289,-0.060773134345699156,-0.022352633305107946,-0.11431276432676869,0.05638171903050618,0.14687049453884465,-0.1207016165720874,0.03962809308929281,0.06947116496445514,-0.08740796017289706,-0.08871911683624176,-0.3482645880547817,0.19684849097006402
2112,10.450478300001125,-0.060626062992525785,-0.02125168580942051,-0.11520838261876337,0.05657476313340635,0.14720666417259495,-0.12112749293453255,0.039191261098284094,0.06776035466298905,-0.0864405305891969,-0.08955150637734116,-0.35003862168537414,0.1980277108192741
2113,10.454180000000632,-0.06045268084912414,-0.020123018013667844,-0.11607870937793101,0.05676565615843481,0.1475344299104412,-0.12154861483253566,0.038750374638731884,0.06604096724187303,-0.08546737937750695,-0.09037640205334432,-0.3517656862229956,0.19918367476299237
2114,10.458780200002366,-0.06028530299242628,-0.019019143763953375,-0.11705401602887128,0.05695437837052297,0.1478537503026837,-0.12196495450607502,0.03830547067616874,0.06431323363906119,-0.0844886207468999,-0.09119375288223809,-0.35344550043711565,0.20031630727134983
2115,10.46261489999597,-0.060000742865762804,-0.01790746750311331,-0.11788995385738077,0.0571409102173422,0.14816458503524638,-0.12237648475605663,0.0378565864179324,0.06257738614653267,-0.08350436926417575,-0.0920035090948238,-0.35507779264388556,0.20142553825914794
2116,10.466747800004669,-0.05970719895861426,-0.01661896682744793,-0.11892468455474248,0.057325232330428216,0.14846689493618015,-0.12278317894599781,0.037403759307139774,0.060833658363288974,-0.08251473982709409,-0.09280562211953547,-0.35666230076192385,0.20251130309684323
2117,10.471458100000746,-0.05942319928129969,-0.015474667952727984,-0.11986360784465751,0.05750732552627484,0.14876064198193442,-0.12318501100358005,0.0369470270167411,0.059082285148084564,-0.08151984763755676,-0.0936000445668711,-0.358198772365651,0.20357354261982802
2118,10.475060900003882,-0.05912081540130819,-0.014420966314763896,-0.12073662419107833,0.057687170807397596,0.14904578930339535,-0.12358195542207105,0.03648642744365628,0.057323502571903,-0.08051980817474953,-0.09438673021344988,-0.3596869647361616,0.20461220313600154
2119,10.479149100006907,-0.05912081540130819,-0.014420966314763896,-0.12073662419107833,0.057864749363367614,0.14932230119169018,-0.12397398726161542,0.036021998702995266,0.055557547870190675,-0.07951473716825118,-0.09516563398570865,-0.3611266449096229,0.20562723643162634
2120,10.483228099998088,-0.058512372222979676,-0.01226892593048437,-0.12259970661730098,0.05804004257181635,0.1495901431037562,-0.12436108215039315,0.03555377912236446,0.05378465939486041,-0.07850475057111822,-0.09593671194325126,-0.3625175897231907,0.2066185997754652
2121,10.487406400003238,-0.058104261999810725,-0.011184023702083039,-0.1233981218560218,0.058213031999411614,0.1498492816676728,-0.12474321628564614,0.03508180723626087,0.052005076566077446,-0.07748996453295348,-0.09669992126186501,-0.3638595858584324,0.20758625592119437
2122,10.491683900007049,-0.057745226347361844,-0.010002287572989182,-0.12444856513118865,0.05838369940280535,0.1500996846877557,-0.12512036643457336,0.03460612178055579,0.05021903982384004,-0.07647049537296742,-0.09745522021621769,-0.3651524298822482,0.2085301731080904
2123,10.49560389999533,-0.05743808445634451,-0.008935068890625314,-0.1253437099709413,0.05855202672955374,0.15034132114941215,-0.12549250993509461,0.03412676168706964,0.04842679057936714,-0.07544645955304076,-0.09820256816224897,-0.36639592828528567,0.20945032505998876
2124,10.499803800004884,-0.05714899756674591,-0.007815951775979825,-0.12618204473095698,0.058717996119010324,0.15057416122375686,-0.12585962469648276,0.03364376607823959,0.046628571166305796,-0.07441797365079666,-0.09894192551927056,-0.36758989751783994,0.21034669098251096
2125,10.503886599995894,-0.05686096434581544,-0.006684911068054666,-0.12701435361702257,0.058881589903192685,0.150798176271987,-0.12622168919986448,0.03315717426188129,0.04482462479177059,-0.07338515433269076,-0.09967325375179001,-0.3687341640232336,0.21121925555855944
2126,10.509017500007758,-0.056667646567222694,-0.005702457730387089,-0.12799267196206265,0.05904279060762335,0.15101333884951587,-0.12657868249858942,0.03266702572604619,0.04301519548722779,-0.07234811832712737,-0.10039651535107286,-0.3698285642686695,0.21206800894207822
2127,10.512689299997874,-0.05644988636448805,-0.00454915698143505,-0.12891789013189303,0.059201580952145304,0.1512196227098643,-0.1269305842184678,0.03217336013397551,0.041200528059236415,-0.07130698239761053,-0.1011116738164575,-0.37087294477355015,0.2128929467500787
2128,10.51635449999594,-0.05631291531897667,-0.0033789980583760586,-0.13003794699474347,0.05935794385171237,0.15141700280830897,-0.12727737455787633,0.0316762173191524,0.03938086804005854,-0.07026186331593824,-0.10181869363643786,-0.37186716213526083,0.21369407005293017
2129,10.521942599996692,-0.05609195643908756,-0.0023426824656211133,-0.13085604279369387,0.05951186241715517,0.15160545530528763,-0.127619034287733,0.031175637280453312,0.03755646163815152,-0.06921287783544805,-0.10251754026952874,-0.37281108305241384,0.21447138536291716
2130,10.527140499994855,-0.05591785596425149,-0.0013163181625781024,-0.13182866748052002,0.059663319955923236,0.15178495756956167,-0.12795554475134147,0.030671660177399772,0.035727555688554555,-0.0681601426643226,-0.10320818012492862,-0.3737045843455514,0.21522490462106558
2131,10.531076600003871,-0.05574949155645618,-0.0003046663098427299,-0.13270506462933274,0.05981229997280383,0.15195548818113538,-0.12828688786410528,0.030164326325511335,0.03389439760318207,-0.06710377443896358,-0.10389058054299533,-0.3745475529753042,0.21595464518224233
2132,10.535076700005447,-0.055635371768128626,0.0005057639635871625,-0.13372273467489415,0.05995878617061833,0.15211702693393245,-0.1286130461131129,0.029653676191760667,0.03205723532103623,-0.06604388969744228,-0.10456470977554931,-0.375339886058003,0.2166606297985305
2133,10.539428500007489,-0.05544892112167703,0.0015359973392261757,-0.13465338639310284,0.06010276245089692,0.15226955483822913,-0.12893400255659393,0.029139750390131496,0.030216317258351364,-0.06498060485303574,-0.10523053696602017,-0.3760814908787436,0.21734288660088483
2134,10.547196500003338,-0.05491999603030747,0.0034712035417340335,-0.13668761580361796,0.060244212914532115,0.15241305412284362,-0.1292497408232479,0.028622589677280232,0.028371892258682845,-0.06391403616785667,-0.10588803212945128,-0.37677228490190373,0.2180014490790724
2135,10.551538900006562,-0.05455417351753846,0.0043645755466637185,-0.13758615849498138,0.060383121862411786,0.1525475082370805,-0.12956024511144534,0.028102234948302076,0.02652420954295288,-0.0628442997265861,-0.10653716613237776,-0.37741219577911383,0.21863635605990417
2136,10.55617809999967,-0.05425353822175833,0.005155108881913808,-0.1384294586057233,0.0605194737960323,0.15267290185243002,-0.12986550018830184,0.027578727232602237,0.024673518659465987,-0.06177151141031686,-0.10717791067259304,-0.3780011613546831,0.21924765168376323
2137,10.560157100000652,-0.053936880509687285,0.005877987435274169,-0.13945403969296682,0.06065325341809245,0.15278922086402233,-0.13016549138862424,0.027052107689872783,0.022820069433906624,-0.06069578687051603,-0.10781023825881932,-0.37853912966848463,0.21983538537943728
2138,10.564453200000573,-0.053534067665884186,0.00672064715269784,-0.14034374061649998,0.060784445633068784,0.15289645239183702,-0.13046020461373034,0.026522417606175647,0.02096411191933142,-0.059617241503114794,-0.10843412219029755,-0.3790260589563019,0.2203996118372622
2139,10.568366399995284,-0.053094998271980706,0.007553440462601263,-0.1412943251014282,0.06091303554777274,0.15299458478166822,-0.13074962633014198,0.025989698390132022,0.019105896346168483,-0.05853599042273395,-0.10904953653631225,-0.37946191764763904,0.22094039098058468
2140,10.5724390999967,-0.052590421970669626,0.008352995222017032,-0.14215960803797903,0.06103900847188991,0.15308360760584558,-0.13103374356815276,0.02545399156921851,0.01724567307223622,-0.05745214843705357,-0.10965645611566618,-0.3798466843609984,0.22145778793555235
2141,10.576696000003722,-0.052094921125538214,0.009136478957637818,-0.1430079727607294,0.061162349918502064,0.1531635116637107,-0.13131254392027056,0.02491533878617029,0.015383692532793983,-0.056365830021335266,-0.1102548564761197,-0.3801803478966332,0.22195187299923974
2142,10.583225700000185,-0.05164752792718387,0.009907950503237036,-0.1438189243084053,0.06128304560459266,0.1532342889818493,-0.13158601553953492,0.02437378179549129,0.013520205190636885,-0.0552771492931054,-0.11084471387381012,-0.38046290722678194,0.22242272160611956
2143,10.587015700002668,-0.05128357504737434,0.010565967723990549,-0.144793914959138,0.06140108145153666,0.15329593281407927,-0.13185414713770985,0.023829362460071397,0.0116554614862471,-0.05418621998700735,-0.11142600525266728,-0.3806943714833941,0.2228704142928898
2144,10.592195400007768,-0.05084796162719275,0.011370103159736134,-0.1455841780384812,0.061516443585575356,0.15334843764119482,-0.13211692798335287,0.023282122747910597,0.009789711788013954,-0.05309315542983107,-0.11199870822384142,-0.380874759943355,0.22329503666166828
2145,10.596309700005804,-0.049905018000931826,0.012853683588512084,-0.14720808854763082,0.06162911833827648,0.15339179917046727,-0.1323743478997611,0.02273210472894995,0.00792320634253505,-0.05199806851572769,-0.11256280104515913,-0.38100410201122087,0.22369667934156587
2146,10.599861099995906,-0.04935653953530935,0.013600370935091696,-0.14797483965399333,0.061739092246980265,0.15342601433490347,-0.13262639726279524,0.02217935057200906,0.006056195225010586,-0.050901071681617,-0.11311826260062235,-0.3810824371994716,0.22407543794865034
2147,10.603895799999009,-0.048826311206626255,0.014237381745076693,-0.14875592226593903,0.061846352055232,0.15345108129226143,-0.13287306699858234,0.021623902541829727,0.004188928289742972,-0.04980227688279551,-0.11366507237996483,-0.3811098151062923,0.22443141304431244
2148,10.608322000000044,-0.04833168756995492,0.014856151306345489,-0.14946205789644773,0.06195088471320136,0.15346699942382336,-0.1331143485810991,0.021065802996225447,0.0023216551207537756,-0.04870179556875299,-0.11420321045828051,-0.38108629539089356,0.22476471009204851
2149,10.612323299996206,-0.04799872150652187,0.01535799087445524,-0.15019222174381977,0.06205267737808879,0.15347376933292714,-0.1333502340296358,0.02050509438333643,0.0004546249825300271,-0.04759973865920506,-0.11473265747573876,-0.38101194774638025,0.225075439412672
2150,10.617006200001924,-0.04760835905012235,0.015961777999721767,-0.1510806108213563,0.062151717414519775,0.1534713928432567,-0.13358071590614143,0.01994181923898951,-0.0014119132290881908,-0.04649621652034975,-0.11525339461740061,-0.38088685187018245,0.22536371613796896
2151,10.622970800002804,-0.0471685350600789,0.016528308848893475,-0.15178419091584403,0.06224799239492762,0.1534598729968919,-0.13380578731245152,0.019376020184162505,-0.003277711035867001,-0.04539133894135574,-0.11576540359315046,-0.3807110974320603,0.22562966016281386
2152,10.627438099996652,-0.04676055445609182,0.017019299832813792,-0.1523815304832239,0.062341490099925644,0.15343921405211897,-0.1340254418874003,0.01880773992255238,-0.00514252042597303,-0.04428521511108983,-0.116268666617757,-0.3804847840396997,0.22587339609576154
2153,10.637944900008732,-0.04552959235254117,0.018577036845540358,-0.1541420113217726,0.06243219851866898,0.15340942148100287,-0.13423967380381782,0.018237021238246436,-0.007006093902591016,-0.04317795359509087,-0.11676316639107792,-0.3802080212019153,0.22609505320813075
2154,10.643112300007488,-0.045203921128188315,0.019122713032390416,-0.15467360634746047,0.06252010584920654,0.15337050196672367,-0.1344484777654142,0.017663906993495737,-0.008868184532353097,-0.042069662312797504,-0.1172488860784219,-0.3798809282894768,0.22629476538159524
2155,10.651492200006032,-0.044524800803941035,0.0203028880700713,-0.15587456719282855,0.0626052004988232,0.15332246340067796,-0.1346518490035517,0.01708844012658984,-0.010728545993568204,-0.04096044851503704,-0.117725809291082,-0.37950363449357644,0.2264726710542995
2156,10.655943799996749,-0.044197479167884364,0.020915075508450114,-0.15648330642428585,0.0626874710843725,0.153265314879347,-0.13484978327390654,0.016510663649831947,-0.012586932624240101,-0.03985041876178294,-0.11819392006705341,-0.3790762787819548,0.2266289131655168
2157,10.662370300007751,-0.043593914754212766,0.021994279832093795,-0.15744359031777103,0.06276690643260054,0.15319906670093256,-0.13504227685302028,0.015930620647613455,-0.014443099469862636,-0.038739678900187854,-0.11865320285194876,-0.3785990098527004,0.22676363909886788
2158,10.670287400003872,-0.043057835318174885,0.023127331775333736,-0.15835800761992033,0.06284349558046119,0.15312373036176158,-0.1352293265347434,0.015348354274586763,-0.016296802330980943,-0.03762833404289944,-0.11910364248012444,-0.3780719860857423,0.22687700062411809
2159,10.675596200002474,-0.042810555480866284,0.023560841655779374,-0.15878336678885968,0.06291722777542309,0.15303931855246075,-0.1354109296265725,0.014763907753935152,-0.018147797810507387,-0.036516488546666004,-0.11954522415603111,-0.3774953754920555,0.22696915383757266
2160,10.680067199995392,-0.04247585543870519,0.024135769649885685,-0.1592402240746789,0.06298809247576867,0.15294584515390255,-0.13558708394588231,0.014177324375738338,-0.019995843360781175,-0.035404245991238724,-0.1199779334358011,-0.3768693556605986,0.22704025910108824
2161,10.683842600003118,-0.04208988837123236,0.024778202616099122,-0.1596822943795052,0.06305607935088597,0.15284332523292382,-0.13575778781605388,0.013588647495432364,-0.02184069733036055,-0.034291709158577224,-0.12040175620908432,-0.3761941137030036,0.2270904809797207
2162,10.687689800004591,-0.041841248458519026,0.025359070040008768,-0.16007256976911,0.0631211782815539,0.1527317750378184,-0.13592304006249992,0.012997920532362466,-0.023682119010536688,-0.033178980012365245,-0.12081667868114485,-0.3754698461960373,0.22711998817802878
2163,10.691791899997042,-0.04177459995112172,0.02584089385010857,-0.16030718112458994,0.06318337936022132,0.1526112119936044,-0.1360828400085894,0.012405186968427486,-0.02551986868155856,-0.03206615967784302,-0.12122268735523073,-0.374696759121856,0.2271289534750564
2164,10.696526100000485,-0.04161451342340774,0.026534712579253418,-0.16056622919834448,0.06324267289128084,0.1524816546970668,-0.13623718747147393,0.011810490346814355,-0.027353707658558025,-0.030953348421962745,-0.12161976901522857,-0.3738750678060757,0.22711755365801561
2165,10.704293700007838,-0.04127249075755719,0.028073939131744084,-0.16140025228897556,0.06329904939133771,0.15234312291157687,-0.13638608275781766,0.011213874270821012,-0.029183398337164372,-0.029840645633873408,-0.12200791070861407,-0.37300499685368077,0.22708596945469264
2166,10.710494099999778,-0.041100026019141735,0.02877925204529469,-0.16192676008054488,0.06335249958947464,0.15219563756168938,-0.13652952665943177,0.010615382402766112,-0.031008704238797664,-0.02872814980574137,-0.1223870997297104,-0.372086780082796,0.22703438546459945
2167,10.7163550999976,-0.04083139244516172,0.03017267428617012,-0.16293178104702163,0.06340301442751296,0.15203922072751863,-0.1366675204488147,0.010015058462983773,-0.03282939005563037,-0.027615958513912704,-0.1227573236032654,-0.37112066045634773,0.22696299008889376
2168,10.72036659999867,-0.040725957326729574,0.030907638579558208,-0.16344235048170816,0.06345058506027033,0.15187389563889522,-0.13680006587460014,0.009412946228901573,-0.03464522169520704,-0.02650416840042338,-0.12311857006835811,-0.37010689001163805,0.2268719754590912
2169,10.72569089999888,-0.040700221503845384,0.03164232511325943,-0.16401374036181743,0.06349520285581589,0.15169968666930506,-0.13692716515691392,0.00880908953419997,-0.03645596632471185,-0.02539287515486308,-0.12347082706264584,-0.3690457297878567,0.22676153736459356
2170,10.734312500004307,-0.04074575961772809,0.033121445234962535,-0.16515040623353452,0.06353685939572304,0.151516619329612,-0.13704882098264154,0.008203532268051341,-0.038261392414873814,-0.024282173496598364,-0.12381408270696219,-0.3679374497515552,0.22663187517905775
2171,10.738083500007631,-0.04076585831992892,0.03386800951021429,-0.16559721482461748,0.06357554647532038,0.15132472026156515,-0.13716503650060866,0.007596318374436746,-0.04006126978349993,-0.023172157157360866,-0.124148325290276,-0.36678232872010696,0.22648319178563095
2172,10.742896600000677,-0.04085336322337377,0.03464967132608498,-0.1660595422767634,0.06361125610394082,0.15112401723109326,-0.13727581531667676,0.0069874918515384285,-0.04185536963862627,-0.02206291886420601,-0.12447354325502137,-0.36558065428318115,0.2263156935010766
2173,10.746514500002377,-0.04102448155039025,0.03548153936913657,-0.166517545246286,0.06364398050516944,0.1509145391213881,-0.13738116148875687,0.006377096751206028,-0.04364346462127762,-0.02095455032284769,-0.12478972518280905,-0.36433272272225653,0.2261295899988169
2174,10.750827700001537,-0.04111147108418873,0.03629666993766943,-0.16697740970520897,0.06367371211709044,0.1506963159257784,-0.13748107952174288,0.0057651771784944334,-0.04542532884782579,-0.01984714220137419,-0.1250968597805284,-0.36303883892820393,0.2259250942309185
2175,10.756806999997934,-0.04112198235914545,0.03719051455887322,-0.16725921091773843,0.06370044359253349,0.1504693787403963,-0.13757557436236648,0.0051517772912711346,-0.04720073795193745,-0.018740784114350467,-0.12539493586684997,-0.361699316316965,0.22570242234904725
2176,10.761773899997934,-0.04132911454178945,0.03893590937829129,-0.16848657199309805,0.06372416779931976,0.1502337597566386,-0.13766465139397574,0.0045369412998908535,-0.048969469126102325,-0.017635564607311686,-0.1256839423591371,-0.36031447674335765,0.22546179362441773
2177,10.766474200005176,-0.04130163298467104,0.0394340981315663,-0.1693309597560962,0.06374487782050847,0.14998949225342437,-0.13774831643123914,0.00392071346693524,-0.05073130116273261,-0.016531571141653,-0.1259638682607747,-0.35888465041303846,0.22520343036676607
2178,10.775202400007402,-0.041353314843754194,0.040961123553118456,-0.17033581817135537,0.0637625669546443,0.14973661058925034,-0.137826575714777,0.003303138107015378,-0.05248601449482489,-0.015428890079920205,-0.12623470264892334,-0.3574101757926537,0.2249275578423724
2179,10.77910189999966,-0.04153659662136303,0.041828583763598326,-0.17082363054350783,0.06377722871600604,0.14947515019404645,-0.13789943590572207,0.0026842595866347846,-0.05423339123617564,-0.014327606671505943,-0.12649643466270666,-0.3558913995182091,0.22463440419116115
2180,10.783340599999065,-0.04168985600867091,0.042941911384009296,-0.17163835534479163,0.06378885683485687,0.14920514756083325,-0.13796690408021126,0.0020641223241105204,-0.05597321522114176,-0.013227805038755997,-0.12674905349183893,-0.3543286763016897,0.22432420034290768
2181,10.787839900003746,-0.04173294457770674,0.043803519277577516,-0.17222685860666034,0.06379744525769662,0.14892664023718327,-0.13802898772381048,0.0014427707895500596,-0.05770527204393745,-0.012129568163490076,-0.1269925483656999,-0.3527223688359623,0.22399717993258
2182,10.79742050000641,-0.04186003331117232,0.04566232438484179,-0.17340862264452883,0.0638029881475161,0.14863966681648877,-0.13808569472587506,0.0008202495048815075,-0.05942934909745918,-0.01103297787394132,-0.12722690854286337,-0.35107284769799174,0.22365357921484483
2183,10.8017952000082,-0.041870999307995926,0.046294793422347574,-0.1739982870621241,0.0638054798840539,0.14834426692903924,-0.1381370333738476,0.00019660304393471473,-0.0611452356116305,-0.009938114832118488,-0.12745212330108605,-0.3493804912504031,0.22329363697776708
2184,10.807473100008792,-0.0419464087588828,0.04806864963862114,-0.17523397391572298,0.0638049150640557,0.14804048123291114,-0.13818301234749567,-0.0004281239674291832,-0.06285272269125872,-0.008845058521594694,-0.12766818192776208,-0.34764568554142183,0.22291759445573317
2185,10.81203080000705,-0.04204308076053448,0.048722031624461426,-0.176018719217477,0.06380128850153581,0.14772835140467244,-0.13822364071309068,-0.0010538868511423027,-0.06455160335339555,-0.0077538872357264775,-0.12787507371084858,-0.3458688242032233,0.222525695241627
2186,10.816503499998362,-0.04219406805367197,0.049821751072459036,-0.17674852679018477,0.06379459522804082,0.1474079201299041,-0.13825892791753056,-0.0016806408767111552,-0.0662416725641943,-0.006664678066306838,-0.1280727879302675,-0.34405030834872463,0.22211818519828908
2187,10.820638100005452,-0.042442270694786066,0.050795811335152485,-0.17724290077723065,0.06378483049291553,0.14707923109354182,-0.13828888378240725,-0.0023083412609569546,-0.06792272727525607,-0.005577506892655685,-0.12826131384978848,-0.34219054646685226,0.22169531236929044
2188,10.829555899996194,-0.04241273577587161,0.05180108359964237,-0.17879962785463002,0.06377198976357178,0.14674232897003944,-0.13831351849802195,-0.002936943167717669,-0.06959456645945788,-0.004492448371151008,-0.12844064070939698,-0.34028995431631626,0.2212573268890507
2189,10.837024499996916,-0.04255902838663805,0.05347218734578437,-0.18035998648458895,0.06375606872576023,0.14639725941335766,-0.13833284261734996,-0.00356640170751442,-0.07125699114625544,-0.0034095759252038994,-0.12861075771815153,-0.33834895481792493,0.22080448089233
2190,10.841367300003183,-0.04267096654315261,0.05418121683923413,-0.18100939938465727,0.063737063283845,0.14604406904678086,-0.1383468670499567,-0.004196671937184859,-0.07290980445645324,-0.0023289617356804424,-0.12877165404753382,-0.33636797794547363,0.22033702842312516
2191,10.845712900001672,-0.04275072183904177,0.05488529403774948,-0.1817082097079341,0.06371496956108155,0.14568280545256468,-0.13835560305586778,-0.004827708859486166,-0.07455281163643543,-0.001250676731773316,-0.1289233188252953,-0.3343474606152403,0.21985522534300092
2192,10.849790599997505,-0.04288359923568797,0.05579463323984636,-0.1825667465034251,0.06368978389989836,0.14531351716141763,-0.1383590622393959,-0.0054594674226703145,-0.07618582009185038,-0.00017479058232585252,-0.12906574112980393,-0.3322878465741224,0.2193593292388862
2193,10.856800599998678,-0.042864599065735434,0.056585583518709445,-0.1833266875227674,0.06366150286218203,0.1449362536418195,-0.13835725654292683,-0.006091902520034282,-0.07780863942074298,0.0008986283123889253,-0.12919890998489308,-0.3301895862864483,0.21884959933036702
2194,10.861246400003438,-0.042934763999666115,0.057474994408519546,-0.18405810393053512,0.06363012322956592,0.1445510652891786,-0.1383501982406671,-0.006724968989447873,-0.07942108144612849,0.0019695128284319082,-0.12932281435521434,-0.3280531368194963,0.2183262963765073
2195,10.865602699996089,-0.04292685460581718,0.05802280104436531,-0.1848622457267586,0.06359564200372245,0.14415800341483062,-0.1383378999323558,-0.007358621612861817,-0.08102296024800167,0.003037797125501912,-0.1294374431420959,-0.32587896172775654,0.21778968258222922
2196,10.87065640000219,-0.042919910347049076,0.05917358209335029,-0.1863269189400735,0.06355805640665878,0.14375712023488213,-0.13832037453694285,-0.007992815115798822,-0.08261409219477579,0.004103416653778017,-0.12954278517990864,-0.3236675309359682,0.21724002150428479
2197,10.875294700002996,-0.042910616787809636,0.0598077650750035,-0.18701475392631725,0.06351736388101625,0.1433484688589011,-0.13829763528623684,-0.00862750416683028,-0.08419429597414621,0.005166308160298314,-0.12963882923294015,-0.3214193206209681,0.2166775779568497
2198,10.880012499997974,-0.04296775279829033,0.06058435303890434,-0.1878133349386398,0.0634735620903732,0.14293210327845826,-0.13826969571852338,-0.009262643377041295,-0.08576339262337272,0.006226409694873287,-0.12972556399277677,-0.3191348130923866,0.21610261791677138
2199,10.883855000007316,-0.04296775279829033,0.06058435303890434,-0.1878133349386398,0.0634266489195511,0.14250807835552276,-0.13823656967215636,-0.009898187299486706,-0.08732120555897512,0.007283660615532222,-0.12980297807619348,-0.3168144966722251,0.21551540842850414
2200,10.888770799996564,-0.043312432024528114,0.061982528041797234,-0.18852757496350453,0.06337662247492401,0.1420764498107149,-0.13819827127912349,-0.010534090428640754,-0.08886756060583716,0.008338001593501173,-0.1298710600235522,-0.3144588655733528,0.21491621750876416
2201,10.892878099999509,-0.04346468768457721,0.06311257414997204,-0.1898661942228216,0.06332348108473172,0.1416372742114191,-0.13815481495858892,-0.011170307199843089,-0.09040228602571357,0.009389374617711187,-0.12992979829770818,-0.3120684197769591,0.214305314050937
2202,10.897018999996362,-0.04347896735744027,0.06365138325371736,-0.19057394639753025,0.06326722329939699,0.14119060895976038,-0.13810621541041482,-0.011806791988743766,-0.09192521254513455,0.010437722998835665,-0.12997918128342345,-0.309643664908999,0.21368296772927
2203,10.900587600001018,-0.0434972256064387,0.06422585511862493,-0.1913594727912732,0.06320784789184654,0.14073651228044703,-0.13805248760866382,-0.012443499110749929,-0.09343617338270296,0.011482991372855843,-0.1300191972872871,-0.307185112115666,0.21304944890288277
2204,10.904211400003987,-0.043568148641123954,0.06474289025940534,-0.19215457278243506,0.063145353857836,0.140275043208483,-0.13799364679508533,-0.013080382820476804,-0.09493500427577942,0.012525125704153586,-0.1300498345381409,-0.3046932779379286,0.2124050285196274
2205,10.908575699999346,-0.04380099461447192,0.06543127203035955,-0.1929652309742605,0.06307974041627881,0.13980626157675194,-0.13792970847258773,-0.013717397311205708,-0.09642154350655101,0.013564073288130862,-0.13007108118800842,-0.3021686841851645,0.21174997801983145
2206,10.912653699997463,-0.043975565940652064,0.06611381855138951,-0.19365512610446214,0.0630110070095787,0.13933022800347614,-0.13786068839869914,-0.01435449671435163,-0.09789563192747892,0.014599782753355425,-0.1300829253135266,-0.2996118578079287,0.2110845692399567
2207,10.916353399996297,-0.043975565940652064,0.06611381855138951,-0.19365512610446214,0.0629391533039652,0.13884700387955398,-0.13778660257901879,-0.014991635098943043,-0.09935711298612092,0.015632204063232406,-0.1300853549178766,-0.29702333076989096,0.21040907431620584
2208,10.920469100004992,-0.04454623482604517,0.06798323048193762,-0.19491362125641037,0.06286417918983221,0.13835665135577918,-0.13770746726066127,-0.015628766471116478,-0.10080583274932456,0.016661288517201594,-0.13007835793321165,-0.29440363991898005,0.20972376558811093
2209,10.925198800003272,-0.04474507617310563,0.06853461571150936,-0.19549714586196218,0.06278608478207975,0.13785923332994543,-0.1376232989256969,-0.016265844773628402,-0.10224163992678754,0.017686988751460447,-0.1300619222235804,-0.2917533268577683,0.20902891550213556
2210,10.9288469000021,-0.04478195078971036,0.06875855952813963,-0.1961122640663783,0.06270487042045858,0.13735481343383976,-0.13753411428459056,-0.016902823885386872,-0.1036643858939811,0.01870925873921297,-0.13003603558834173,-0.28907293781313476,0.2083247965153242
2211,10.933023599995067,-0.0449342475532049,0.06919722187180134,-0.1968070888861655,0.06262053666991779,0.13684345602012746,-0.13743993026964027,-0.017539657621005563,-0.1050739247144334,0.019728053790444736,-0.13000068576606738,-0.28636302350524534,0.20761168099903035
2212,10.937693700005184,-0.045149858354556614,0.06991374327740374,-0.19744088386261144,0.06253308432095483,0.1363252261491318,-0.137340764028418,-0.018176299730382692,-0.10647011316136981,0.02074333055122438,-0.12995586043892787,-0.2836241390158858,0.20688984114275605
2213,10.941556599995238,-0.04530840932038589,0.07039391033553119,-0.19807888316148953,0.062442514389968014,0.1358001895755116,-0.1372366329172149,-0.018812703898307276,-0.10785281073870655,0.021755047002532352,-0.12990154723755695,-0.28085684365618496,0.20615954885813517
2214,10.947893899996416,-0.04546092293228705,0.07088577675674082,-0.19867079434729276,0.062348828119611746,0.13526841273483933,-0.1371275544944946,-0.019448823744095144,-0.10922187970139492,0.02276316245861774,-0.12983773374638963,-0.27806170083376414,0.20542107568309384
2215,10.953554399995484,-0.045812332329241826,0.07194971568768756,-0.19987439652769298,0.0622520269791549,0.1347299627300832,-0.1370135465143558,-0.020084612821257064,-0.1105771850751132,0.023767637564884207,-0.1297644075094684,-0.27523927791934766,0.204674692686221
2216,10.958554800003183,-0.04597809300034214,0.07269118118723077,-0.20053152026280702,0.062152112664841955,0.1341849073179965,-0.13689462692000665,-0.020720024617201318,-0.11191859467530355,0.024768434295306233,-0.12968155603671255,-0.2723901461128712,0.20392067037138256
2217,10.962198000008357,-0.04611579759177572,0.07335724853675023,-0.20112658456267538,0.062049087100256486,0.1336333148954177,-0.13677081383725356,-0.021355012552972962,-0.11324597912555158,0.02576551594937699,-0.12958916681064367,-0.269514880309124,0.2031592785826115
2218,10.966626900000849,-0.046388180987675165,0.07439091602242968,-0.20172001532898592,0.06194295243668675,0.13307525448548382,-0.13664212556800753,-0.021989529983032104,-0.11455921187530639,0.026758847148589327,-0.12948722729356155,-0.2666140589629614,0.20239078640930566
2219,10.97087449999526,-0.04643713615869946,0.07493228403485716,-0.20232077028598017,0.06183371105349295,0.13251079572376032,-0.13650858058380952,-0.022623530195073613,-0.11585816921693849,0.027748393832451645,-0.1293757249351635,-0.26368826395412326,0.20161546209176498
2220,10.9749518000026,-0.04637616930087489,0.07538894833879962,-0.20293226899273434,0.06172136555847547,0.13194000884429025,-0.13637019751937718,-0.02325696640989053,-0.11714273030213364,0.028734123254040442,-0.12925464718060056,-0.2607380804516935,0.20083357292710083
2221,10.979067299995222,-0.04623823057497739,0.07577305817750601,-0.20350105916383116,0.06160591878824407,0.13136296466556652,-0.13622699516617498,-0.023889791781283448,-0.11841277715762091,0.02971600397509156,-0.12912398147896392,-0.2577640967782366,0.20004538517554862
2222,10.983281199994964,-0.046116480714720506,0.0762311539954025,-0.20413685689039904,0.06148737380858793,0.13077973457642902,-0.13607899246600988,-0.024521959396017888,-0.11966819470023432,0.030694005860632315,-0.12898371529219427,-0.25476690427364546,0.199251163967216
2223,10.987375700002303,-0.046072340504926555,0.07659360309840053,-0.20469057072322963,0.061365733914846114,0.13019039052189066,-0.13592620850465512,-0.02515342227383182,-0.12090887075130727,0.031668100073156874,-0.12883383610440644,-0.2517470971587372,0.19845117320929795
2224,10.991505400001188,-0.04604909526123266,0.07707364508089501,-0.20529123660716755,0.0612410026322786,0.12959500498889578,-0.13576866250550373,-0.025784133367495403,-0.12213469605039928,0.03263825906634755,-0.1286743314316214,-0.24870527239863013,0.19764567549378884
2225,10.995681700005662,-0.04599468179532663,0.07754554421988696,-0.20582810455022585,0.061113183716437355,0.12899365099201457,-0.13560637382325397,-0.02641404556292506,-0.12334556426835412,0.03360445657834477,-0.12850518883189663,-0.2456420295659369,0.19683493200572183
2226,11.00006819999544,-0.045940057016996806,0.07819112922982024,-0.20646263504909265,0.060982281153537134,0.1283864020590756,-0.13543936193762893,-0.027043111679353887,-0.12454137201968793,0.03456666762456858,-0.12832639591584669,-0.24255797070380858,0.19601920243196647
2227,11.006078499995056,-0.046133780832193105,0.07935338034464635,-0.2070946165813829,0.060848299160825535,0.12777333221674037,-0.1352676464471335,-0.02767128446956022,-0.12572201887430715,0.0355248684900946,-0.12813794035754475,-0.23945370018886242,0.19519874487061523
2228,11.010305700008756,-0.04603536578925368,0.07981145365734466,-0.20762362834174639,0.0607112421869518,0.12715451597602323,-0.13509124706285044,-0.028298516620156384,-0.12688740736855517,0.036479036721587525,-0.1279398099057963,-0.23632982459402893,0.19437381574098922
2229,11.020831700006966,-0.04593259128210936,0.08025713477385991,-0.20816195837216972,0.0605711149123337,0.12653002831775914,-0.13491018360227688,-0.028924760751939227,-0.12803744301558687,0.03742915111879537,-0.1277319923957761,-0.23318695255135244,0.19354466969429343
2230,11.024500900006387,-0.04593259128210936,0.08025713477385991,-0.20816195837216972,0.060427922249522086,0.12589994467802318,-0.13472447598320345,-0.029549969420304315,-0.1291720343150715,0.038375191725607674,-0.1275144757610195,-0.23002569461477856,0.1927115595249504
2231,11.028088499995649,-0.04593259128210936,0.08025713477385991,-0.20816195837216972,0.060281669343562536,0.12526434093350405,-0.13453414421763873,-0.030174095115725413,-0.13029109276222467,0.03931713982068101,-0.12728724804575833,-0.22684666312296245,0.191874736082642
2232,11.032658099997208,-0.0458775117081623,0.08067178075302144,-0.2086420382889402,0.06013236157235377,0.12462329338683521,-0.1343392084057807,-0.030797090264300876,-0.131394532856169,0.04025497790763523,-0.127050297417592,-0.22365047206213104,0.1910344481850878
2233,11.038034800003516,-0.045192827600381964,0.0826835062473315,-0.21128803390007347,0.059980004547002766,0.123976878751886,-0.13413968873003754,-0.03141890722836852,-0.1324822721076244,0.04118868970482419,-0.12680361218048405,-0.22043773692903101,0.19019094253158814
2234,11.042383799998788,-0.04507908486848664,0.0830790951229908,-0.2117756094157028,0.059824604112176105,0.12332517413901595,-0.1339356054491003,-0.03203949830719061,-0.13355423104592798,0.04211826013468484,-0.1265471807880732,-0.21720907459399522,0.1893444636173597
2235,11.046385599998755,-0.04491438109509821,0.08351373006751954,-0.21230939162079354,0.05966616634644743,0.1226682570402954,-0.13372697889206903,-0.0326588157377104,-0.13461033322538468,0.043043675312668714,-0.12628099185728828,-0.21396510316415998,0.18849525364869135
2236,11.051613400006318,-0.04491438109509821,0.08351373006751954,-0.21230939162079354,0.059504697562640894,0.12200620531469605,-0.1335138294526344,-0.03327681169538185,-0.13565050523094893,0.04396492253576009,-0.12600503418225684,-0.21070644184686538,0.18764355245894757
2237,11.05786580000131,-0.04415302233664613,0.08469192156463229,-0.213706115446983,0.05934020430817017,0.12133909717325513,-0.1332961775833166,-0.033893438295073935,-0.13667467668323877,0.04488199027058478,-0.1257192967484971,-0.20743371081326983,0.1867895974254479
2238,11.062235100005635,-0.043794411727951205,0.08499488082088366,-0.21408621532025499,0.059172693365372606,0.12066701116421695,-0.13307404378976398,-0.03450864759205077,-0.1376827802428832,0.04579486814111418,-0.12542376874738284,-0.20414753106221217,0.18593362338724992
2239,11.067489499997464,-0.043505313129104974,0.08531925260800441,-0.21454352983149272,0.05900217175183816,0.11999002615815539,-0.1328474486251141,-0.03512239158302902,-0.13867475161420464,0.04670354691596924,-0.12511843959087077,-0.20084852428435399,0.18507586256386302
2240,11.07149830000708,-0.04338920316122799,0.08609528878720145,-0.21500311899222085,0.058828646720732736,0.11930822133308004,-0.132616412684419,-0.035734622207313806,-0.13965052954823723,0.04760801849532893,-0.12480329892647951,-0.1975373127266339,0.18421654447492047
2241,11.076161300006788,-0.04298245163746942,0.08638655084066849,-0.21531397823403003,0.05865212576111565,0.11862167615952883,-0.13238095659913635,-0.03634529134801469,-0.14061005584508193,0.04850827589744773,-0.12447833665250863,-0.19421451905706466,0.18335589586083606
2242,11.081209700001637,-0.04261413211525955,0.08666817274794646,-0.21566879690284338,0.05847261659825072,0.1179304703856495,-0.13214110103168847,-0.03695435083334242,-0.14155327535560153,0.04940431324478713,-0.12414354293348634,-0.19088076622990355,0.18249414060447008
2243,11.085409200008144,-0.04207478132189408,0.08686106179039615,-0.2160633055256754,0.05829012719391035,0.11723468402227301,-0.1318968666700914,-0.037561752437987685,-0.14248013598245785,0.05029612574976608,-0.12379890821583472,-0.18753667735122684,0.18163149965383082
2244,11.090385700008484,-0.0416528510632906,0.08719250833013141,-0.21639398806784207,0.058104665746672085,0.11653439732798215,-0.13164827422265546,-0.03816744788458292,-0.143390588680493,0.05118370970013562,-0.1234444232437401,-0.184182875544937,0.1807681909458368
2245,11.0956148999976,-0.04089106755058468,0.08789446240087792,-0.21716200071887887,0.05791624069220763,0.11582969079417846,-0.13139534441275963,-0.03877138884524846,-0.14428458745645734,0.05206706244398323,-0.12308007907521722,-0.1808199838192331,0.1799044293311655
2246,11.099801899996235,-0.0405653311733715,0.08832151637230663,-0.21757757680900877,0.05772486070356389,0.11512064513015097,-0.13113809797370193,-0.03937352694322371,-0.14516208936808608,0.05294618237437189,-0.12270586709835554,-0.17744862493357397,0.17904042650021257
2247,11.103962799999865,-0.04008767027269254,0.0885853821586585,-0.21791637749928647,0.057530534691435764,0.11440734124815069,-0.1308765556436281,-0.03997381375458436,-0.14602305452252712,0.05382106891361929,-0.1223217790477365,-0.17406942126616387,0.17817639091018464
2248,11.108237599997665,-0.0395793075419254,0.08882407902909228,-0.21826411389069297,0.05733327180443029,0.1136898602484741,-0.13061073816054,-0.04057220081004588,-0.14686744607412258,0.054691722497223254,-0.12192780702101012,-0.17068299468198872,0.17731252771334885
2249,11.112501700001305,-0.03908612781320872,0.08902777292380853,-0.2185749779088705,0.057133081429321775,0.11296828340455829,-0.13034066625738497,-0.041168639596854385,-0.14769523022154765,0.055558144557438814,-0.1215239434956188,-0.16728996640143232,0.17644903868646183
2250,11.11686730000656,-0.03891039586201026,0.08973911932393731,-0.21905584624557725,0.05692997319129725,0.11224269214809043,-0.13006636065722776,-0.04176308156076534,-0.14850637620430823,0.05642033750651275,-0.12111018134565558,-0.16389095686949937,0.1755861221613999
2251,11.12085069999739,-0.03850595043182664,0.08999362659235971,-0.21934513102570796,0.05672395695419185,0.1115131680541349,-0.12978784206850585,-0.0423554781081108,-0.1493008562986009,0.05727830471958147,-0.1206865138588456,-0.16048658562567172,0.1747239729570127
2252,11.12476790000801,-0.038045096885359495,0.0901638854753966,-0.21966341270046985,0.05651504282071358,0.11077979282628157,-0.12950513118036944,-0.042945780607955675,-0.1500786458125384,0.0581320505172384,-0.12025293475363871,-0.15707747117442475,0.1738627823122221
2253,11.128884100005962,-0.03760153099125153,0.09026291231921002,-0.21994307176862019,0.0563032411326571,0.11004264828181909,-0.12921824865810788,-0.04353394039434328,-0.15083972308074353,0.05898158014777702,-0.11980943819640165,-0.15366423085643163,0.1730027378203878
2254,11.13314750000427,-0.03712394086557973,0.0904056258489184,-0.2202475361640938,0.05608856247110595,0.10930181633693624,-0.12892721513866426,-0.044119908768630596,-0.15158406945831562,0.059826899769116045,-0.11935601881869773,-0.15024748072048288,0.17214402336496074
2255,11.13757269999769,-0.036589198123435585,0.09049863128662344,-0.22062415132023577,0.05587101765662269,0.10855737899195371,-0.12863205122623908,-0.04470363700191356,-0.15231166931417303,0.06066801643041335,-0.11889267173464235,-0.14682783539614652,0.17128681905644516
2256,11.14456390000123,-0.036136446289669215,0.09068310804983395,-0.22097132577373488,0.0556506177494263,0.10780941831658938,-0.1283327774879849,-0.045285076337542716,-0.153022510023775,0.06150493805337511,-0.11841939255832235,-0.14340590796719407,0.17043130117069025
2257,11.15048549999483,-0.03512742003501452,0.09071527029392981,-0.22155758552460825,0.05542737404955623,0.10705801643525976,-0.1280294144497935,-0.04586417799372952,-0.15371658196122684,0.06233767341326713,-0.11793617742126672,-0.1399823098458169,0.1695776420885309
2258,11.154143799998565,-0.034720027886654174,0.09087820921291563,-0.2219017629122797,0.05520129809702253,0.10630325551242054,-0.1277219825921776,-0.04644089316624337,-0.15439387849077163,0.06316623211963485,-0.11744302298995624,-0.1365576506476572,0.16872601023679643
2259,11.15823139999702,-0.03435621186075983,0.0913000381983906,-0.22229673181433593,0.05497240167194143,0.10554521773794925,-0.12741050234624868,-0.0470151730311995,-0.155054395957674,0.0639906245967387,-0.11693992648336025,-0.13313253806767777,0.16787657003070613
2260,11.162337200003094,-0.034271905312344385,0.09240802755014516,-0.22270931054727955,0.054740696794655645,0.10478398531257305,-0.12709499408979197,-0.047586968747937615,-0.1556981336784997,0.06481086206371181,-0.1164268856904884,-0.12970757775689412,0.1670294818176699
2261,11.166758899998968,-0.033842240362334804,0.09250126685605134,-0.22308574128934688,0.05450619572583921,0.10401964043334408,-0.1267754781434395,-0.048156231461991404,-0.1563250939307959,0.06562695651444697,-0.11590389898794547,-0.12628337319999292,0.16618490182251142
2262,11.17529790000117,-0.03278948877286055,0.09291703895514207,-0.2235802574946465,0.054268910966586335,0.10325226527916581,-0.12645197476694234,-0.04872291230814894,-0.15693528194217654,0.06643892069721964,-0.11537096535747754,-0.12286052559385945,0.16534298209413031
2263,11.17954070000269,-0.03225506844141815,0.09303913406904407,-0.22387022651988356,0.05402885525848369,0.10248194199637307,-0.12612450415554333,-0.049286962413603586,-0.1575287058788157,0.06724676809405424,-0.11482808440349715,-0.11943963372703723,0.16450387045361956
2264,11.183755200007,-0.03152023798235738,0.09288643524266688,-0.22430210605090745,0.0537860415836655,0.10170875268436938,-0.12579308643645162,-0.0498483329011953,-0.1581053768333544,0.0680505128998405,-0.114275256370576,-0.11602129386014225,0.16366771044385417
2265,11.19116820000636,-0.03033833344201694,0.09302792142200637,-0.22483376024775087,0.05354048316485132,0.10093277938132408,-0.12545774166541918,-0.05040697489274175,-0.1586653088122242,0.06885017000120709,-0.1137124821608931,-0.11260609960725386,0.16283464128056674
2266,11.195690100008504,-0.029505717724108184,0.09260926107298051,-0.22511214029866825,0.053292193465365956,0.10015410404993218,-0.12511848982341964,-0.0509628395124589,-0.1592085187223938,0.06964575495516002,-0.11313976335162594,-0.10919464181830392,0.1620047978049244
2267,11.199895099998685,-0.02893978770752566,0.09272080638876579,-0.22544487677851766,0.053041186189141006,0.09937280856323964,-0.1247753508134314,-0.05151587789047049,-0.1597350263575426,0.07043728396749362,-0.11255710221227322,-0.10578750846248476,0.16117831043762176
2268,11.2039647000056,-0.02821964432013461,0.09286896835052226,-0.22571979730795555,0.05278747528069789,0.09858897469053748,-0.12442834445732646,-0.05206604116640562,-0.16024485438366667,0.07122477387098143,-0.11196450172189748,-0.10238528451269695,0.1603553051345042
2269,11.208664200006751,-0.027459676313880854,0.09299597544787783,-0.22599021318517074,0.052531074925111845,0.09780268408332685,-0.12407749049286637,-0.052613280493083975,-0.16073802832412187,0.07200824210335457,-0.11136196558627666,-0.09898855183105787,0.15953590334373544
2270,11.212462499999674,-0.026935095498453757,0.09349054325109063,-0.22643908475962637,0.052271999547956374,0.09701401826135876,-0.12372280857080573,-0.053157547040288244,-0.16121457654410884,0.07278770668507453,-0.11074949825495269,-0.09559788905549174,0.1587202219645221
2271,11.216858200001298,-0.026249690396843658,0.09360939717760436,-0.22666750044613698,0.05201026381522779,0.09622305859875112,-0.12336431825210413,-0.05369879199862301,-0.16167453023460496,0.07356318619690837,-0.1101271049381657,-0.09221387148742122,0.1579083733074075
2272,11.221073599997908,-0.025456506351350855,0.09377432103965384,-0.2270323723796588,0.05174588263324954,0.09542988631018515,-0.12300203900524687,-0.05423696658345901,-0.16211792339574932,0.07433469975731426,-0.1094947916236631,-0.0888370709805799,0.1571004650561471
2273,11.225008499997784,-0.02486846600908816,0.09392024863859702,-0.2273217642695701,0.05147887114855594,0.09463458243718409,-0.12263599020367545,-0.05477202203896168,-0.16254479281968617,0.07510226699964523,-0.10885256509337327,-0.0854680558309643,0.15629660023117714
2274,11.22912780000479,-0.024292322697861544,0.09475658287264353,-0.22776689731397498,0.05120924474775458,0.09383722783447687,-0.12226619112332918,-0.05530390964220323,-0.1629551780728723,0.07586590804917849,-0.10820043293993291,-0.08210739066794377,0.1554968771546879
2275,11.233109199994942,-0.02358110500954278,0.09482702925775009,-0.22802191194885296,0.05093701905736709,0.0930379031564492,-0.1218926609402983,-0.055832580707357186,-0.1633491214778536,0.07662564349997827,-0.10753840358305818,-0.07875563634654707,0.15470138941731285
2276,11.237386799999513,-0.022967232470230803,0.09502257174736152,-0.2282418744226968,0.05066220994364773,0.09223668884368443,-0.12151541872859022,-0.056357986589974124,-0.16372666809451658,0.07738149439160001,-0.10686648628574935,-0.07541334984094333,0.15391022584644365
2277,11.241438400000334,-0.022356778464873772,0.0951329401507111,-0.22849906870896283,0.05038483351237948,0.09143366510959706,-0.12113448345801008,-0.05688007869133772,-0.16408786570081962,0.07813348218564375,-0.10618469117031962,-0.07208108413913443,0.15312347047618208
2278,11.246020100006715,-0.02160422997787726,0.09480436996670885,-0.2287697017091461,0.05010490610864736,0.09062891192716119,-0.1207498739921558,-0.05739880846289996,-0.16443276477301086,0.0788816287421651,-0.10549302923423826,-0.06875938813887461,0.15234120251893693
2279,11.249755700002424,-0.021222836806270066,0.09485164072319704,-0.2289986063667277,0.049822444316588645,0.0898225090157361,-0.12036160908652775,-0.057914127410794686,-0.16476141846533887,0.07962595629595151,-0.10479151236577829,-0.06544880654483382,0.15156349633867444
2280,11.254256300002451,-0.020724267413192905,0.0950528707462622,-0.22922355290298121,0.04953746495911973,0.08901453582799215,-0.11996970738675397,-0.05842598710042819,-0.16507388258926167,0.08036648743267176,-0.10408015335945917,-0.0621498797670206,0.15079042142582977
2281,11.258187300001737,-0.020219013583318686,0.09524825543877039,-0.22948311927544754,0.04924998509763896,0.08820507153693871,-0.11957418742693152,-0.05893433916114571,-0.16537021559216056,0.0811032450649064,-0.10335896593127512,-0.05886314382048011,0.15002204237388708
2282,11.262518700008512,-0.01971387640023317,0.09579779145204054,-0.2299074502725525,0.0489600220317053,0.08739419502305691,-0.11917506762808462,-0.05943913529097232,-0.1656504785355653,0.08183625240806705,-0.10262796473369994,-0.05558913022628226,0.14925841885763627
2283,11.271256699998048,-0.018824051631005596,0.09611025486061982,-0.23043587725047238,0.048667593298692455,0.08658198486153958,-0.11877236629673982,-0.05994032726142715,-0.16591473507289758,0.08256553295621276,-0.10188716537045939,-0.05232836591381458,0.14849960561311243
2284,11.275110200003835,-0.018430165124327796,0.09634019655669286,-0.2306386240062388,0.048372716673418054,0.08576851930964056,-0.11836610162361837,-0.06043786692240923,-0.1661630514267386,0.08329111045777238,-0.10113658441106255,-0.04908137312439459,0.1477456524192237
2285,11.279733799994574,-0.017942548017934296,0.09643723634451735,-0.2308980020887408,0.048075410167747364,0.08495387629413578,-0.11795629168244645,-0.060931706207153505,-0.16639549636562787,0.08401300889118127,-0.10037623940508332,-0.0458486693162155,0.14699660408107276
2286,11.28419049999502,-0.017405511754770554,0.09664477008084026,-0.2311891826167037,0.04777569203017123,0.08413813339889875,-0.11754295442888381,-0.06142179713725566,-0.16661214118040063,0.0847312524404412,-0.09960614889618379,-0.042630767070638634,0.1462525004149775
2287,11.28840279999713,-0.016943468964399792,0.09691418798039406,-0.2314054450296607,0.04747358074535754,0.083321367852593,-0.11712610769957092,-0.06190809182776419,-0.1668130596600707,0.08544586547061189,-0.09882633243587133,-0.03942817399984554,0.14551337623519475
2288,11.29207029999816,-0.016821685209836207,0.09797472411755895,-0.23159117832253673,0.047169095033675786,0.08250365651648382,-0.11670576921129518,-0.06239054249233816,-0.1669983280672657,0.08615687250324214,-0.09803681059698183,-0.03624139265586253,0.14477926134235278
2289,11.29575800000748,-0.016379318114013327,0.09800015969107792,-0.23181852888835194,0.046862253850694244,0.08168507587237119,-0.11628195656027628,-0.06286910144846906,-0.16716802511322126,0.08686429819174922,-0.09723760498688176,-0.03307092044096985,0.14405018051359572
2290,11.299931600005948,-0.015946991777352905,0.09819052616433228,-0.2319692717335303,0.046553076386649586,0.0808657020106461,-0.11585468722157118,-0.06334372112276497,-0.16732223193234105,0.0875681672967555,-0.09642873826038158,-0.029917249519507232,0.1433261534944428
2291,11.30426279999665,-0.015412989548959885,0.09835793846098569,-0.23218691917854864,0.04624158206588846,0.08004561061847246,-0.11542397854859936,-0.0638143540562954,-0.16746103205632917,0.08826850466139083,-0.09561023413235345,-0.026780866731087316,0.1426071949923649
2292,11.308566599996992,-0.014862459060127363,0.09859812338967733,-0.23237563138994113,0.04592779054628062,0.07922487696809648,-0.11498984777278898,-0.06428095290999572,-0.16758451138790187,0.08896533518656935,-0.09478211739004644,-0.023662253505228156,0.14189331467207975
2293,11.317801500001224,-0.014059584877367184,0.09873454479831806,-0.2327192380196807,0.045611721718603664,0.07840357590528589,-0.11455231200334366,-0.06474347047012921,-0.1676927581740861,0.08965868380624906,-0.09394441390509246,-0.02056188577741559,0.14118451715256675
2294,11.324896599995554,-0.013275729962965818,0.09924491595073076,-0.23318583729803613,0.045293395705898985,0.07758178183790046,-0.11411138822712977,-0.06520185965380484,-0.1677858629791122,0.09034857546268242,-0.09309715064519672,-0.017480233906605816,0.14048080200580204
2295,11.329205999994883,-0.012890212617798318,0.09965000303722593,-0.23349388438182483,0.04497283286279884,0.07675956872459608,-0.1136670933086844,-0.06565607351454925,-0.1678639186569061,0.091035035081667,-0.0922403556855064,-0.014417762594178164,0.13978216375721442
2296,11.333469699995476,-0.012515296287567037,0.09996544624969576,-0.233743209168322,0.04465005377482424,0.07593701006366445,-0.11321944399034417,-0.06610606524793097,-0.16792702032318815,0.09171808754780472,-0.09137405821965215,-0.011374930804347675,0.1390885918878629
2297,11.337732600004529,-0.012262240138204619,0.10028094191554227,-0.23392629186731373,0.04432507925765348,0.07511417888201055,-0.11276845689249539,-0.06655178819723548,-0.1679752653271845,0.09239775767977793,-0.09049828857045687,-0.008352191686046772,0.13840007083833544
2298,11.341916599994876,-0.011910158672342658,0.10060092740589698,-0.23411688085079288,0.043997930356361015,0.07429114772427017,-0.11231414851394546,-0.06699319585918864,-0.16800875322295838,0.09307407020565074,-0.08961307820030692,-0.005349992496284964,0.13771658001436718
2299,11.345639100007247,-0.011452669871279266,0.10083874424506288,-0.2344374045934521,0.04366862834462661,0.07346798864206928,-0.11185653523241525,-0.067430241889727,-0.16802758574036822,0.09374704973820401,-0.08871845972118077,-0.0023687745249951955,0.13703809379417708
2300,11.349948500006576,-0.011118334494839687,0.10154393823270634,-0.23471522093798589,0.04333719472391449,0.07264477318342713,-0.11139563330515308,-0.06786288010981288,-0.16803186675565976,0.09441672075031232,-0.08781446690432998,0.0005910269786249683,0.13636458153752057
2301,11.358122599995111,-0.010375327930498328,0.10214810178666638,-0.23519100258976386,0.04300365122262262,0.07182157238230474,-0.1109314588696705,-0.06829106451129284,-0.16802170226170085,0.09508310755037144,-0.0869011346896079,0.003528982878269391,0.13569600759645606
2302,11.36229910000111,-0.010105937020488238,0.1023714850356317,-0.2354554656623449,0.04266801979520153,0.07099845674830053,-0.11046402794459949,-0.06871474926279775,-0.1679972003378664,0.09574623425778438,-0.08597849919444168,0.006444670221169121,0.13503233132782191
2303,11.366307100004631,-0.009978276605260019,0.10258663556761605,-0.2357094387526189,0.04233032262124259,0.07017549625649465,-0.10999335643067143,-0.06913388871568249,-0.16795847111958126,0.09640612477851458,-0.0850465977224435,0.009337672307220648,0.13437350710742088
2304,11.371223399997689,-0.009653938046893407,0.10276204975372384,-0.23601619438758498,0.04199058210453553,0.06935276033744385,-0.10951946011181783,-0.06954843741000362,-0.16790562676752854,0.09706280278071502,-0.08410546877165744,0.012207578756589843,0.13371948434590797
2305,11.375375999996322,-0.009395005203357672,0.10293240442618849,-0.23639070900250095,0.04164882087209526,0.0685303178673285,-0.10904235465639187,-0.06995835008053271,-0.16783878143653005,0.09771629167044103,-0.08315515204243883,0.01505398557578508,0.13307020750637744
2306,11.37902039999608,-0.009114924628816351,0.10318762803305823,-0.2367180857123203,0.041305061773157715,0.06770823715825253,-0.1085620556185103,-0.07036358166280379,-0.16775805124410673,0.09836661456745495,-0.08219568844496233,0.017876495222193433,0.1324256161236439
2307,11.383370800002012,-0.008869908188310302,0.10348230202993282,-0.23700700950402037,0.040959327878144845,0.06688658594869828,-0.10807857843951513,-0.07076408729919306,-0.16766355423872642,0.09901379428113047,-0.0812271201063557,0.020674716667074086,0.13178564482521193
2308,11.388309800007846,-0.008664004012001276,0.10392221003614462,-0.23730880469677035,0.04061164247759866,0.06606543139413783,-0.10759193844955425,-0.07115982234502881,-0.1675554103677469,0.09965785328646458,-0.08024949037745634,0.02344826545700344,0.13115022335392845
2309,11.39317470000242,-0.008442273495660653,0.10430245892183775,-0.23761683993930324,0.040262029081084345,0.06524484005780228,-0.107102150869281,-0.07155074237472958,-0.16743374144506076,0.10029881370020573,-0.07926284383918826,0.026196763773766733,0.13051927659231174
2310,11.396922300002188,-0.008317505572631336,0.10461172051001351,-0.23781840057584805,0.039910511416062645,0.06442487790161064,-0.10660923081167177,-0.07193680318796809,-0.16729867111844893,0.10093669725710655,-0.07826722630855705,0.028919840492691265,0.12989272458855067
2311,11.400532700004987,-0.008078980308661964,0.10492666260519738,-0.23808667281202647,0.0395571134267315,0.06360561027725943,-0.10611319328396136,-0.0723179608158588,-0.1671503248366497,0.10157152528630896,-0.07726268484426092,0.03161713123941658,0.12927048258416687
2312,11.404964100001962,-0.007769873172681355,0.10522929634491715,-0.23847856659122396,0.03920185927283708,0.06278710191747448,-0.10561405318969484,-0.07269417152716703,-0.16698882981615115,0.1022033186878693,-0.07624926775191698,0.034288278445097145,0.12865246104333372
2313,11.408499299999676,-0.0074188746751847785,0.10590611762421198,-0.23878613023312742,0.038844773328453916,0.06196941692742637,-0.10511182533089458,-0.07306539183453813,-0.16681431500771451,0.10283209790943172,-0.0752270245889015,0.036932931400033564,0.12803856568384425
2314,11.412285200000042,-0.007033061293710752,0.10614803538356686,-0.23915635150457074,0.03848588018073419,0.06115261877631005,-0.10460652441034171,-0.07343157850074478,-0.16662691106263622,0.1034578829230581,-0.0741960061688032,0.039550746305728225,0.1274286975097202
2315,11.416453400001046,-0.0068049137391415545,0.10630554261522472,-0.2394983844377698,0.0381252046286261,0.06033677028909002,-0.10409816503397167,-0.0737926885449507,-0.1664267502987565,0.10408069320222262,-0.0731562645654888,0.042141386325362136,0.126822752845453
2316,11.42041269999754,-0.006743058106497491,0.10653553240749891,-0.2398126863058128,0.037762771681561565,0.05952193363841238,-0.10358676171338271,-0.07414867924898852,-0.16621396666622387,0.10470054769897852,-0.07210785311678056,0.044704521632689675,0.12622062337186754
2317,11.42486280000594,-0.006688153429383626,0.10681383087155896,-0.24010487084182883,0.03739860655811311,0.05870817033668456,-0.10307232886845659,-0.07449950816364952,-0.16598869571302408,0.10531746482130583,-0.07105082642774596,0.04723982945934836,0.1256221961635986
2318,11.429445500005386,-0.006407670802425956,0.10696098341644468,-0.2404820330469559,0.037032734684619865,0.05789554122832441,-0.10255488083009032,-0.07484513311498331,-0.16575107455028235,0.10593146241064767,-0.06998524037359934,0.049746994140581084,0.12502735372816953
2319,11.433005600003526,-0.006407670802425956,0.10696098341644468,-0.2404820330469559,0.03666518169378287,0.057084106482179826,-0.10203443184303781,-0.07518551221060567,-0.16550124181734668,0.10654255771964313,-0.06891115210221574,0.05222570715936879,0.12443597404666354
2320,11.43755190000229,-0.0061582307117921155,0.10711333325509503,-0.24089687361788809,0.03629597342322963,0.05627392558411993,-0.10151099606886015,-0.0755206038460127,-0.16523933764665952,0.10715076739006371,-0.06782862003625721,0.054675667188971766,0.12384793061597646
2321,11.441468699995312,-0.005755617394733192,0.10760837778261917,-0.24153317035537109,0.03592513591404802,0.055465057329798846,-0.1009845875889832,-0.07585036671089955,-0.16496550362842496,0.10775610743096097,-0.06673770387491222,0.05709658013387773,0.12326309249264014
2322,11.445956299998215,-0.005617271924731689,0.1079150246789426,-0.24178574140385456,0.03555269540928963,0.05465755981759357,-0.10045522040786113,-0.07617475979548133,-0.1646798827750789,0.10835859319703316,-0.06563846459524923,0.05948815916915565,0.1226813243382048
2323,11.450737699997262,-0.005471094108790734,0.1082092632053609,-0.2420700327912038,0.03517867835244242,0.05385149044171705,-0.09992290845624473,-0.07649374239681424,-0.16438261948556881,0.10895823936721848,-0.06453096445318517,0.061850124778213875,0.12210248646616763
2324,11.454510600000503,-0.005471094108790734,0.1082092632053609,-0.2420700327912038,0.03480311138587292,0.05304690588550718,-0.09938766559455334,-0.0768072741251152,-0.164073859509451,0.10955505992352205,-0.06341526698407073,0.06418220478896171,0.12152643489043445
2325,11.458842200008805,-0.005190424612171521,0.1087435256972153,-0.24267670772172706,0.03442602134923774,0.052243862114892424,-0.0988495056163495,-0.07711531491007784,-0.16375374991081204,0.1101490681300843,-0.062291437002894495,0.06648413440837343,0.12095302137530126
2326,11.462638199998764,-0.005035457456147549,0.1090877356803588,-0.24301651789553574,0.03404743527786394,0.05144241437203484,-0.09830844225191522,-0.07741782500718287,-0.1634224390320229,0.11074027651249768,-0.061159540604107894,0.06875565625545435,0.12038209348694277
2327,11.46721489999618,-0.005035457456147549,0.1090877356803588,-0.24301651789553574,0.03366738040109866,0.050642617169151284,-0.09776448917192909,-0.07771476500400146,-0.16308007645733338,0.11132869683737934,-0.06001964516107327,0.07099652039260884,0.11981349464639468
2328,11.471065000005185,-0.00485780686404861,0.10959798178629493,-0.24375750738899657,0.033285884140627844,0.0498445242825133,-0.09721765999124359,-0.07800609582648925,-0.16272681297631553,0.11191434009220684,-0.058871819325137374,0.07320648435541037,0.11924706418401528
2329,11.475310000008903,-0.00481557966883594,0.10980500892207619,-0.24410143417164712,0.0329029741087644,0.049048188746626344,-0.09666796827276083,-0.07829177874526927,-0.16236280054716307,0.11249721646542475,-0.05771613302433292,0.07538531318077413,0.11868263739541231
2330,11.479200700006912,-0.004773571094944872,0.11001130704268873,-0.24440689738770321,0.03251867810670583,0.048253662848589396,-0.09611542753140578,-0.07857177538190176,-0.16198819225985528,0.11307733532682866,-0.05655265746171102,0.07753277943353279,0.1181200455988199
2331,11.487395600008313,-0.004721416179010944,0.11043864292793473,-0.2448530802593453,0.032133024122761776,0.04746099812263584,-0.09556005123819543,-0.07884604771513952,-0.16160314229919198,0.11365470520823426,-0.05538146511330747,0.07964866323141619,0.11755911619391124
2332,11.4920584000065,-0.004693662308373359,0.11064897725710726,-0.24502707420192701,0.031746040330551444,0.04667024534485618,-0.09500185282440317,-0.079114558087167,-0.16120780590770845,0.11422933378443892,-0.05420262972574618,0.08173275226843547,0.11699967272203209
2333,11.495893200000864,-0.004646514940342362,0.11085761554712226,-0.2451040481261069,0.03135775508717089,0.04588145452810321,-0.09444084568581694,-0.07937726920982142,-0.16080233934847857,0.11480122785448295,-0.05301622631348335,0.08378484183667276,0.11644153492783957
2334,11.50056190000032,-0.0046107922888092776,0.11097006774045914,-0.2453266161373693,0.030968196931330454,0.045094674917080246,-0.09387704318708946,-0.07963414417079404,-0.16038689986781424,0.11537039332321754,-0.051822331155696295,0.08580473484647679,0.1158845188223303
