,time,x,y,z,vx,vy,vz,ax,ay,az,jx,jy,jz
1745,7.550029000005452,-0.024677592950400187,-0.02531841142069195,0.0032542292053104375,-0.002683423998835841,-0.013964358812902975,0.0025305227512778966,0.03880115458992399,0.011904910038535183,0.0031685566208110487,0.10401256580136467,0.17347099685518969,-0.03059263545011533
1746,7.554188900001463,-0.0246478667656731,-0.025321119868304515,0.0032069858134060065,-0.002515101930420506,-0.01391142862349065,0.0025439193400575094,0.039250330547254145,0.012657115338312984,0.003035262600249683,0.10425499420095187,0.17531600402060254,-0.03122490379900818
1747,7.558224199994584,-0.024628282490999968,-0.025326480609581915,0.003159710870703509,-0.0023448401720773666,-0.013855237279994225,0.0025567352965173667,0.039700521183070055,0.01341725791904818,0.002899237231422631,0.10448328851449606,0.17715132530476058,-0.03185835092716629
1748,7.5624059999972815,-0.024590450732372864,-0.02533652293212819,0.0031135577038349585,-0.002172634484294516,-0.013795750629680244,0.002568958822659286,0.040151665155781925,0.014185295145123098,0.0027604756157981357,0.10469727411604689,0.17897656011914365,-0.03249288550323389
1749,7.56648110000242,-0.024574322124467897,-0.025354001132531927,0.0030686125765582556,-0.0019984808938097284,-0.01373293470695155,0.0025805781000344434,0.04060370037574027,0.01496118265303198,0.002618973251178399,0.10489677839582955,0.18079130731322898,-0.03312841567871092
1750,7.570936599993729,-0.02455292823882905,-0.025371539993140874,0.003030048941851753,-0.0018223756968119883,-0.013666755740813533,0.0025915812914612587,0.04105656401403602,0.015744874349091373,0.002474726033913375,0.10508163081116415,0.18259516524859515,-0.033764849101161495
1751,7.575194000004558,-0.024501858721631457,-0.025397683022890125,0.0029704063843322675,-0.0016443154621044527,-0.013597180162350198,0.00260195654275294,0.04151019251151889,0.01653632240746869,0.0023277302610563116,0.10525166293714303,0.18438773187350158,-0.034402092927568045
1752,7.5788636000070255,-0.024501858721631457,-0.025397683022890125,0.0029704063843322675,-0.001464297034227905,-0.013524174612208542,0.0026116919844544465,0.041964521588033134,0.01733547726853099,0.002177982632460396,0.10540670851705344,0.18616860479793207,-0.03504005383782845
1753,7.583387599996058,-0.024486932265398515,-0.025420200446940915,0.0029411294557378205,-0.0012823175365437643,-0.013447705948089911,0.002620775733588593,0.04241948625186949,0.01814228763751616,0.0020254802528158955,0.10554660351253296,0.1879373813690891,-0.03567863804839345
1754,7.587305900000501,-0.024465236429459202,-0.025463598625406116,0.00286854619996188,-0.001098374374275732,-0.013367741252246943,0.002629195895411043,0.04287502080943219,0.018956700483528596,0.0018702206336271728,0.10567118615344505,0.18969365874732547,-0.036317751326041675
1755,7.5913791000057245,-0.02446043204780751,-0.025488968576944018,0.002835778245719606,-0.0009124652375091486,-0.013284247838984764,0.002636940565173934,0.04333105887512003,0.019778661038861348,0.0017122016951289772,0.10578029698746272,0.1914370339825008,-0.03695729900178932
1756,7.594652700005099,-0.02446043204780751,-0.025488968576944018,0.002835778245719606,-0.0007245881041471505,-0.013197193262164949,0.0026439978298978726,0.0437875333814203,0.020608112798646546,0.001551421768141419,0.10587377892934792,0.19316710409075083,-0.03759718598493175
1757,7.598073400004068,-0.02446043204780751,-0.025488968576944018,0.002835778245719606,-0.0005347412428227149,-0.013106545322710769,0.002650355770152022,0.04424437658921435,0.021444997520835857,0.001387879595863054,0.10595147730991454,0.19488346613165738,-0.038237316777214175
1758,7.602037000004202,-0.024453551154528477,-0.02549949617298369,0.0028154775897375377,-0.0003429232157656992,-0.013012272076112245,0.002656002461842017,0.044701520098293354,0.022289255226512858,0.0012215743356015151,0.10601323992466255,0.19658571728580665,-0.03887759548712808
1759,7.606244900001911,-0.024424973669970318,-0.025513377511848352,0.00278848578922452,-0.00014913288162397918,-0.01291434183992962,0.0026609259780054286,0.04515889485808266,0.02314082420053913,0.0010525055604411412,0.10605891708207035,0.19827345493272192,-0.039517925844330684
1760,7.610957199998666,-0.024408443627414456,-0.025525949078971332,0.002783897149351712,4.6630601762205094e-05,-0.0128127232012938,0.002665114390614502,0.045616431178573336,0.023999640992535806,0.0008806732608470716,0.10608836165153335,0.199946276729158,-0.04015821121418428
1761,7.616784400001052,-0.024373910462285046,-0.02551664605785925,0.002816008137669276,0.00024436777463357506,-0.012707385024402275,0.002668555772385877,0.04607405874145916,0.02486564041820212,0.0007060778462052846,0.10610142911093615,0.20160378068774304,-0.040798354612412505
1762,7.620724099993822,-0.024348771900944928,-0.025512572566702814,0.0028425840373107916,0.0004440788726336879,-0.012598296458009058,0.002671238198597002,0.04653170661147729,0.025738755560972704,0.0005287201462980749,0.10609797759384582,0.20324556525595408,-0.04143825871987039
1763,7.624918000001344,-0.02434994967158178,-0.025515681344720886,0.0028668578233896186,0.0006457638241802253,-0.012485426942907153,0.002673149748908959,0.04698930324795096,0.026618917774015174,0.00034860141271447716,0.10607786793631345,0.20487122939541189,-0.04207782589742517
1764,7.628187499998603,-0.02434994967158178,-0.025515681344720886,0.0028668578233896186,0.0008494222478865559,-0.012368746219402071,0.0026742785091954323,0.04744677651653245,0.027506056682569478,0.0001657233201951587,0.10604096372327224,0.20648037266148242,-0.04271695820094458
1765,7.632777999999234,-0.02431673441927588,-0.025495576537896407,0.002937819144495092,0.0010550534500344203,-0.012248224334774897,0.00267461257337753,0.047904053701144936,0.02840010018663051,-1.9912032088680825e-05,0.1059871313345196,0.2080725952831704,-0.043355557396389424
1766,7.6374644000025,-0.024307500714952322,-0.025496769303884524,0.002974161398157675,0.001262656422098586,-0.01212383165073345,0.0026741400452641507,0.04836106151612149,0.029300974463975442,-0.00020830211932285054,0.10591623999027155,0.2096474982432906,-0.043993524975006984
1767,7.64177170000039,-0.024279804781244096,-0.025486281969042394,0.003030286670266097,0.0014722298383243017,-0.01199553885084997,0.002672849040397605,0.04881772611853951,0.03020860397353701,-0.0003994439899045827,0.10582816179627645,0.2112046833589028,-0.04463076216862184
1768,7.645833600006881,-0.02426021514473161,-0.025486827107948338,0.0030642566393410857,0.001683772053358381,-0.011863316947983855,0.0026707276879042122,0.04927397312074862,0.031122911459124068,-0.0005933342643642388,0.10572277178847587,0.21274375336199677,-0.04526716996502086
1769,7.649994999999762,-0.02424612230379737,-0.025486434223575785,0.0030991246478378085,0.001897281099934727,-0.011727137291687922,0.0026677641323495788,0.04972972760309028,0.03204381795349066,-0.0007899691343547088,0.10559994797720011,0.21426431198041315,-0.045902649123429035
1770,7.654309100005776,-0.024227964445534947,-0.02549240413922001,0.003141006219887524,0.0021127546866151112,-0.011586971575596685,0.002663946535598259,0.050184914126807034,0.03297124278275468,-0.0009893443617088936,0.10545957139088623,0.21576596401898562,-0.046537100190073274
1771,7.658389599993825,-0.024216935800823913,-0.025493939223359623,0.0031833275383311346,0.0023301901955859986,-0.01144279184479501,0.0026592630786774836,0.050639456747139176,0.033905103571167154,-0.0011914552775656427,0.10530152611930647,0.21724831544088924,-0.04717042351383066
1772,7.6617034999944735,-0.024216935800823913,-0.025493939223359623,0.0031833275383311346,0.0025495846805122058,-0.011294570503165603,0.0026537019636446576,0.05109327902660675,0.03484531624623298,-0.001396296781564509,0.10512569935629477,0.21871097344918008,-0.04780251926195785
1773,7.665308900002856,-0.024216935800823913,-0.025493939223359623,0.0031833275383311346,0.0027709348644481594,-0.011142280320713788,0.002647251415458327,0.051546304048474614,0.03579179504418405,-0.0016038633411096556,0.10493198144195898,0.22015354656850986,-0.04843328743589813
1774,7.668976000000839,-0.024220968526657997,-0.025499385953426747,0.0032193447671692616,0.0029942371378075257,-0.01098589444086807,0.0026398996838523287,0.05199845443039834,0.03674445251580556,-0.001814148990703238,0.10472026590436645,0.22157564472699928,-0.04906262788716249
1775,7.673032299993792,-0.024187933701667406,-0.025522471736482904,0.003303542841458125,0.0032194875563919725,-0.010825386387754965,0.002631635045212805,0.05244965233824868,0.0377031995326161,-0.002027147331348568,0.10449044950069082,0.22297687933825378,-0.04969044033328122
1776,7.676598499994725,-0.024158530836217853,-0.02552865106727714,0.003343411115630475,0.003446681839479795,-0.01066073007344654,0.0026224458044577658,0.05289981950011223,0.03866794529340214,-0.0022428515300233504,0.10424243225780797,0.22435686338350538,-0.05031662437382251
1777,7.680191399995238,-0.024158530836217853,-0.02552865106727714,0.003343411115630475,0.0036758153679751493,-0.010491899805179112,0.0026123202969188723,0.0533488772204659,0.03963859733110799,-0.002461254319223278,0.10397611751232892,0.22571521149386464,-0.050941079506474675
1778,7.683597600000212,-0.024158530836217853,-0.02552865106727714,0.003343411115630475,0.003906883182618632,-0.010318870292541476,0.002601246890225144,0.05379674639452275,0.04061506152008166,-0.0026823479965762493,0.10369141195005767,0.22705154003266623,-0.05156370514318866
1779,7.687961300005554,-0.024133874654531384,-0.02553955693090154,0.00338817818917796,0.004139879982259922,-0.010141616654631196,0.0025892139861882855,0.05424334752274675,0.041597242083676975,-0.0029061244245274617,0.10338822564486175,0.22836546717789083,-0.05218440062637769
1780,7.691861200000858,-0.02405026992690787,-0.02555006973983986,0.003513061317577648,0.004374800122193175,-0.009960114427177308,0.002576210022689325,0.05468860072553361,0.04258504160221241,-0.0031325750300956003,0.10306647209694386,0.22965661300464665,-0.05280306524517074
1781,7.695870700001251,-0.024043148008430628,-0.025548047486685703,0.0035323641671285337,0.004611637612555895,-0.009774339569627945,0.0025622234755662394,0.055132425758054694,0.043578361021286746,-0.003361690804700346,0.10272606827050243,0.23092459956769348,-0.0534195982517163
1782,7.700160799999139,-0.024019823830201733,-0.025540446102719477,0.0035667064533068233,0.0048503861167919415,-0.009584268472201242,0.0025472428605022453,0.05557474202526127,0.04457709966045204,-0.0035934623040614028,0.10236693463076946,0.2321690509839933,-0.054033898877533196
1783,7.704429799996433,-0.023990401183019237,-0.02553440135721783,0.003590374715620152,0.005091038950179373,-0.009389877962897995,0.0025312567349144366,0.056015468597046314,0.0455811552222439,-0.003827879648169218,0.10198899518041407,0.23338959351527022,-0.05464586634990482
1784,7.7084152000024915,-0.02396153192228943,-0.02552362797973011,0.0036187377784519647,0.005333589078423812,-0.009191145314474515,0.002514253699842445,0.05645452422356127,0.04659042380156896,-0.004064932521327564,0.10159217749530003,0.23458585565056314,-0.05525539990831336
1785,7.713395700004185,-0.023935014327743687,-0.025512074438115217,0.003624309150077179,0.0055780291163179865,-0.008988048251374179,0.002496222401836797,0.056891827350684904,0.04760479989544971,-0.00430461017226813,0.10117641275958586,0.2357574681887524,-0.055862398820910715
1786,7.716846900002565,-0.023906806525108917,-0.025496887235331264,0.0036430552754490057,0.005824351326468075,-0.008780564956616142,0.002477151534846624,0.05732729613564154,0.04862417641312649,-0.004546901414337258,0.10074163580015634,0.23690406432104416,-0.05646676240102278
1787,7.720903599998564,-0.023906806525108917,-0.025496887235331264,0.0036430552754490057,0.0060725476180875145,-0.00856867407863962,0.00245702984210641,0.057760848462765635,0.049648444686516434,-0.004791794625754945,0.10028778512037433,0.23802527971339532,-0.05706839002368376
1788,7.725015200005146,-0.023880052671314864,-0.025485822168295213,0.003649220271608207,0.006322609545858894,-0.008352354738102183,0.002435846118021448,0.05819240195940999,0.050677494481029206,-0.005039277749946204,0.09981480293314207,0.2391207525888619,-0.05766718114219729
1789,7.729157900001155,-0.02380314363686526,-0.02543979071429779,0.003666980690023966,0.006574528308864547,-0.008131586534630503,0.002413589210051669,0.05862187401199446,0.05171121400673926,-0.0052893382959448695,0.09932263519326102,0.2401901238098529,-0.05826303530472063
1790,7.735549200006062,-0.02380314363686526,-0.02543979071429779,0.003666980690023966,0.006828294749586444,-0.007906349553521931,0.002390248020593535,0.05904918178219201,0.05274948992991443,-0.005541963338869886,0.0988112316290789,0.2412330369602726,-0.05885585217086918
1791,7.74143880000338,-0.023712533386866394,-0.02536532578736531,0.003686647045614118,0.007083899352975967,-0.007676624372395352,0.0023658115088596643,0.05947424222324912,0.05379220738490037,-0.0057971395204741896,0.09828054577341326,0.2422491384275335,-0.05944553152833798
1792,7.747624800002086,-0.023678250915316484,-0.0253392024827067,0.003697239872886819,0.007341332245594135,-0.007442392067789802,0.00234026869275588,0.05989697209643775,0.054839249986360465,-0.006054853049766251,0.09773053499374104,0.24323807748442283,-0.060031973309537044
1793,7.752039400002104,-0.023658563943388666,-0.025319861286084013,0.00369077258871735,0.007600583194822812,-0.007203634221709314,0.0023136086507553654,0.06031728798763609,0.05589049984187054,-0.006315089703704278,0.09716116052164321,0.24419950637080298,-0.06061507760823713
1794,7.756355699995765,-0.023642799126329366,-0.025293005283417158,0.003701985620205075,0.007861641608147465,-0.006960332928112471,0.002285820523769605,0.060735106324034456,0.056945837564867686,-0.006577834827963093,0.09657238748149416,0.24513308037512846,-0.06119474469622261
1795,7.760352600002079,-0.023643134300808808,-0.02525970920477993,0.003710810405471207,0.008124496532511988,-0.006712470799345139,0.0022568935170157816,0.0611503433909631,0.058005142287952255,-0.006843073337773644,0.09596418491838447,0.24603845791575982,-0.06177087503994803
1796,7.76438190000772,-0.023639869106264564,-0.025235063577189073,0.003729479576616651,0.008389136653746125,-0.006460030972514812,0.0022268169018803035,0.06156291534883835,0.05906829167654229,-0.007110789718835136,0.09533652582526668,0.24691530062205755,-0.062343369317195314
1797,7.7685358000017,-0.02365737210430645,-0.025217170521690296,0.0037398374817486954,0.008655550296066038,-0.006202997115805042,0.0021955800177781413,0.06197273825022404,0.060135161942879635,-0.007380968028299742,0.09468938716931355,0.24776327341523807,-0.06291212843372844
1798,7.77278290000686,-0.0236727091831821,-0.025203145694330666,0.0037508944780833228,0.00892372542164844,-0.005941353434728368,0.0021631722740076374,0.06237972805700482,0.0612056278603864,-0.007653591895829821,0.09402274991747875,0.24858204458897362,-0.06347705353994224
1799,7.776796899997862,-0.023665367901707503,-0.02518033711164796,0.0037663734497386183,0.00919364963027879,-0.0056750846783162326,0.00212958315160046,0.06278380065766766,0.062279562778370594,-0.007928644524727612,0.09333659906124993,0.24937128588971874,-0.06403804604750224
1800,7.780898800003342,-0.023683090269336793,-0.025165363575530588,0.0037823003931690335,0.009465310159073995,-0.005404176145244349,0.0020948022051663915,0.06318487188468787,0.06335683863707947,-0.008206108693137332,0.09263092364058435,0.2501306725967447,-0.06459500764597241
1801,7.784390000000712,-0.02370781214965869,-0.02515322611446979,0.0037875012642640104,0.009738693882280113,-0.005128613689892018,0.0020588190647326332,0.06358285753201567,0.06443732598309916,-0.008485966755319584,0.09190571676701699,0.25085988360186406,-0.06514784031942769
1802,7.787853999994695,-0.02372638192759477,-0.025136516514476025,0.0037990256765894023,0.010013787311145453,-0.004848383728333898,0.0020216234375773014,0.06397767337266005,0.06552089398509935,-0.00876820064299798,0.0911609756459314,0.25155860148882697,-0.06569644636304792
1803,7.79258629999822,-0.023738276993231253,-0.02512694723780893,0.0038183018459087927,0.010290576593869474,-0.0045634732442627205,0.00198320511005678,0.06436923517636599,0.06660741044992147,-0.009052791866777954,0.0903967015979843,0.2522265126123696,-0.0662407283996896
1804,7.796874799998477,-0.02375643153670062,-0.025117072200330725,0.0038431097618082753,0.010569047515627872,-0.004273869794841468,0.0019435539494265974,0.06475745872738176,0.0676967418390089,-0.009339721517637688,0.08961290007967415,0.25286330717689637,-0.06678058939643229
1805,7.800755999996909,-0.02379259278861911,-0.025116682010627184,0.003864259492901389,0.010849185498674222,-0.00397956151648349,0.0019026599056555086,0.06514225984231266,0.06878875328517775,-0.009628970268490985,0.08880958070304468,0.25346867931478,-0.06731593268109666
1806,7.80468450000626,-0.023802030123070198,-0.025102250773190442,0.003892083280002282,0.011130975602518548,-0.0036805371305590703,0.001860513013232467,0.06552355438805726,0.06988330860972627,-0.00992051837582196,0.08798675725451388,0.2540423271642621,-0.06784666195873125
1807,7.808338200004073,-0.02381789423428484,-0.02509090129224295,0.00391943853821079,0.011414402524183142,-0.003376785949026998,0.0018171033929661729,0.06590125829982234,0.07098027033988102,-0.010214345681391377,0.08714444771281969,0.2545839529469342,-0.06837268132806486
1808,7.812663599994266,-0.023823592417664706,-0.02506906430395001,0.003949891878180067,0.011699450598535912,-0.0030682978799896946,0.001772421253776882,0.06627528759921286,0.07207949972657789,-0.010510431614014425,0.08628267426607371,0.2550932630447809,-0.06889389529792174
1809,7.816674999994575,-0.023816624835915394,-0.025040241966170797,0.003993449951373997,0.011986103798701585,-0.0027550634331704373,0.0017264568944801537,0.06664555841239331,0.07318085676257527,-0.010808755191409771,0.0854014633279143,0.255569968076767,-0.06941020880359614
1810,7.820787999997265,-0.023829105148648316,-0.02501057237116162,0.004018423084180689,0.012274345736551019,-0.0024370737253112413,0.0016792007055622215,0.06701198698831666,0.07428420020089706,-0.011109295022119697,0.08450084555275005,0.2560137829749509,-0.06992152722318294
1811,7.8244636000017636,-0.023829105148648316,-0.02501057237116162,0.004018423084180689,0.012564159663268903,-0.0021143204854899666,0.0016306431709466674,0.06737448971701772,0.07538938757360325,-0.01141202930750106,0.08358085585008505,0.2564244270601054,-0.07042775639386167
1812,7.828824099997291,-0.02382157934840014,-0.024970650809755815,0.004038741044908665,0.012855528470000129,-0.0017867960603552234,0.001580774869752076,0.06773298314796652,0.07649627521088609,-0.01171693584378684,0.08264153339791805,0.2568016241168254,-0.07092880262813052
1813,7.83320609999646,-0.023815697582168095,-0.024900168219392817,0.004069626561297798,0.013148434688575034,-0.001454493419277662,0.001529586478040359,0.06808738400847786,0.07760471826048954,-0.012023992024218005,0.08168292165520671,0.25714510246810807,-0.07142457272998784
1814,7.837224899994908,-0.023808945349689945,-0.02486437359010449,0.0040765369360391285,0.013442860492313795,-0.0011174061594162407,0.0014770687705554326,0.06843760922217276,0.07871457070744964,-0.012333174841245381,0.08070506837338934,0.2574545950493863,-0.07191497401105829
1815,7.841803799994523,-0.023793474998623897,-0.02482758295162,0.004074263339588429,0.013738787696910181,-0.0007755285106980751,0.0014232126224519314,0.06878357592748818,0.07982568539415347,-0.012644460888801274,0.07970802560695613,0.2577298394819975,-0.07239991430666111
1816,7.847690199996578,-0.02376583972984356,-0.024767094722469497,0.0040737062557548755,0.014036197761394894,-0.0004288553407104799,0.0013680090110136428,0.06912520149623061,0.08093791404071433,-0.012957826364640579,0.07869184972306249,0.25797057814607044,-0.07287930199181851
1817,7.852261000007275,-0.02374196514081259,-0.024723740495997234,0.00406612095722713,0.014335071789178665,-7.738215950382303e-05,0.0013114490173613505,0.06946240355216954,0.08205110726566053,-0.0132732470727511,0.07765660141017695,0.25817655825281166,-0.07335304599720112
1818,7.856113400004688,-0.023737312037952298,-0.024681444023251058,0.0040286062455242005,0.014635390529175325,0.0002788948756961676,0.0012535238281497771,0.06979509998966707,0.0831651146069352,-0.013590698425832728,0.07660234568575636,0.25834753191617377,-0.07382105582500785
1819,7.860236599997734,-0.023701757110426495,-0.024648764971706164,0.004047750965151345,0.014937134377004977,0.000639978955867991,0.0011942247372533192,0.07012320899233922,0.08427978454320467,-0.013910155447845088,0.07552915190294117,0.25848325622388546,-0.07428324156477725
1820,7.864190599997528,-0.023694275499436736,-0.02461800568751942,0.004023735800990475,0.01524028337627736,0.0010058726156671894,0.0011335431474402732,0.07044664905174479,0.08539496451547232,-0.014231592776623267,0.07443709375626366,0.25858349330782765,-0.07473951390912803
1821,7.86779089999618,-0.02369776177141906,-0.024600492138592677,0.004010174434713333,0.01554481721995552,0.0013765777289937173,0.001071470572035256,0.07076533898609802,0.08651050094899482,-0.014554984666561271,0.07332624928636236,0.25864801041373886,-0.07518978416942627
1822,7.872616199994809,-0.02369320679776676,-0.02457909441724383,0.003996990528582375,0.01585071525179986,0.0017520955046551722,0.0010079986365695273,0.0710791979590003,0.08762623927549798,-0.014880304991362824,0.07219670088369624,0.2586765799702307,-0.07563396429137695
1823,7.876943299997947,-0.02372253656057785,-0.024575143296997375,0.0039749825342559626,0.016157956467892635,0.002132426482127183,0.0009431190804189227,0.07138814549818671,0.08874202395568903,-0.015207527246859077,0.07104853529125243,0.25866897965709534,-0.07607196687053681
1824,7.880826399996295,-0.023734951842976595,-0.024577945560504324,0.00394988479362285,0.016466519518242895,0.0025175705274122495,0.0008768237584290976,0.07169210151428287,0.08985769850206214,-0.015536624553892785,0.06988184360624176,0.2586249924728858,-0.07650370516774624
1825,7.884825700006331,-0.023687638149671494,-0.024576976635866034,0.0039359181178944685,0.016776382708471912,0.002907526828998307,0.0008091046425278034,0.07199098631956836,0.09097310550199392,-0.015867569661268534,0.06869672128077661,0.2585444068017505,-0.07692909312447743
1826,7.888574099997641,-0.02369564883996142,-0.024596211152842027,0.003932631112288162,0.017087524001579184,0.0033022938939182766,0.0007399538233239076,0.07228472064674246,0.09208808664112551,-0.01620033494876859,0.06749326812152519,0.2584270164795049,-0.07734804537809657
1827,7.891977999999653,-0.02369564883996142,-0.024596211152842027,0.003932631112288162,0.017399921019788954,0.0037018695439118357,0.0006693635116928735,0.07257322566768769,0.09320248272702769,-0.01653489243023405,0.06627158828833644,0.2582726208589212,-0.07776047727703726
1828,7.895418200001586,-0.02369564883996142,-0.024596211152842027,0.003932631112288162,0.017713551046477226,0.004106250911690646,0.0005973260403484112,0.07285642301222664,0.09431613371314557,-0.01687121375671086,0.0650317902918304,0.2580810248742211,-0.07816630489588271
1829,7.898890800002846,-0.02369564883996142,-0.024596211152842027,0.003932631112288162,0.01802839102817926,0.0045154344373082266,0.00052383386540002,0.07313423478686795,0.09542887872301997,-0.017209270219660188,0.06377398698994896,0.25785203910475246,-0.07856544505035411
1830,7.903674100001808,-0.023675020191189836,-0.024673174058052832,0.0039738858213048305,0.01834441757667753,0.0049294158646356395,0.00044887956789614033,0.0734065835935367,0.09654055607478157,-0.01754903275423248,0.06249829558346246,0.25758547983783486,-0.07895781531220274
1831,7.908455299999332,-0.023650981444066212,-0.02467902491429498,0.004015600867518396,0.01866160697117013,0.005348190237944142,0.00037245585535263876,0.07367339254828448,0.09765100330591436,-0.017890471942604777,0.06120483761042734,0.25728116913075294,-0.0793433340240036
1832,7.913140899996506,-0.02364762510402205,-0.024716167681227454,0.004057321730032184,0.018979935160519466,0.005771751898595953,0.00029455556326634747,0.07393458529997449,0.09876005719828469,-0.018233558017380844,0.0598937389395908,0.25693893487188074,-0.07972192031384856
1833,7.917003399998066,-0.02364702198778692,-0.02472792910808014,0.004073653502725176,0.019299377765581154,0.00620009448184428,0.00021517165661338563,0.07419008604893673,0.0998675538034324,-0.018578260865053636,0.0585651297627382,0.25655861084091797,-0.08009349410993673
1834,7.920959900002344,-0.023649584072924258,-0.02473887084198977,0.004086498696705414,0.01961991008161295,0.006633210913743703,0.0001342972313319945,0.07443981956558887,0.10097332846812045,-0.018924550029529513,0.0572191445859794,0.2561400367682227,-0.08045797615506024
1835,7.924998799993773,-0.023669534445222244,-0.024738440117587728,0.0041167854211330525,0.019941507080763445,0.007071093408172027,5.1925515789618544e-05,0.07468371120901851,0.1020772158601388,-0.019272394715713747,0.05585592221997114,0.2556830583932235,-0.08081528802098273
1836,7.929160200001206,-0.02367834466989936,-0.02474411872482895,0.004129016968253884,0.02026414341464039,0.007513733463964691,-3.195012776603125e-05,0.07492168694552193,0.10317904999435905,-0.019621763793156815,0.05447560576907191,0.255187527521894,-0.08116535212270863
1837,7.935647100006463,-0.023698262475044595,-0.024724037450046542,0.004161426410675306,0.02058779341695851,0.007961121862162778,-0.00011733620177219261,0.07515367336709428,0.10427866425903533,-0.01997262579976089,0.05307834261942642,0.2546533020832735,-0.08150809173264136
1838,7.939770600001793,-0.023698277810338807,-0.024712458743767134,0.004181701775415152,0.020912431106266612,0.008413248663375679,-0.00020423907193280438,0.07537959770986696,0.10537589144234714,-0.020324948945545988,0.05166428442597673,0.25408024618501684,-0.08184343099462801
1839,7.945246400005999,-0.0236916295941111,-0.024668487214494987,0.0042146913025483766,0.02123803018875373,0.008870103205259428,-0.00029266496581705084,0.07559938787248754,0.10647056375917904,-0.020678701116475344,0.050233587098397744,0.25346823016795866,-0.08217129493788854
1840,7.94995409999683,-0.02370242110135579,-0.024634695690756776,0.004219819182283006,0.021564564061134075,0.009331674100111736,-0.00038261997147495035,0.07581297243443791,0.10756251287813297,-0.02103384987833953,0.048786410785954845,0.2528171306596751,-0.08249160949082708
1841,7.955829099999391,-0.02370242110135579,-0.024634695690756776,0.004219819182283006,0.021892005813610605,0.009797949232584756,-0.000474110036070237,0.07602028067428558,0.10865156994876907,-0.0213903624806988,0.0473229198612815,0.2521268306270256,-0.08280430149472355
1842,7.959506700004567,-0.023707496359728623,-0.02460100415946373,0.004223345465375325,0.022220328232916985,0.010268915757516529,-0.0005671409645307821,0.0762212425878633,0.1097375656290706,-0.021748205860883007,0.04584328290307498,0.2513972194276603,-0.08310929871730317
1843,7.963106900002458,-0.02371568638170685,-0.024532363606615544,0.004231627565951794,0.02254950380543761,0.010744560097882123,-0.0006617184182168014,0.07641578890637171,0.11082033011312824,-0.022107346648048455,0.04434767267770863,0.25062819286047294,-0.08340652986618229
1844,7.967497300007379,-0.0237168150836764,-0.024498629431331832,0.00423472480893321,0.0228795047204054,0.011224867942865414,-0.000757847913607085,0.07660385111440048,0.11189969315903929,-0.022467751167291137,0.04283626611975975,0.2498196532149834,-0.08369592460218785
1845,7.971696099994006,-0.023714536370970107,-0.02446541491270261,0.004235353567854011,0.023210302873177102,0.011709824246052455,-0.0008555348210034848,0.07678536146786297,0.11297548411701801,-0.022829385443815853,0.04130924431145222,0.24897150931963158,-0.08397741355254855
1846,7.975063999998383,-0.0237178419749147,-0.024430661084591222,0.004225917185443854,0.02354186986858575,0.012199413223747298,-0.0009547843632538919,0.07696025301184001,0.11404753195771239,-0.02319221520716058,0.03976679246101312,0.2480836765889704,-0.08425092832395584
1847,7.979182199997012,-0.023724134288466,-0.024421639708117986,0.004219859725445122,0.023874177024369912,0.012693618353411108,-0.0010556016144939342,0.07712845959832777,0.11511566530072287,-0.023556205895475437,0.03820909987994294,0.24715607706974135,-0.08451640151549261
1848,7.983202699993853,-0.02373436550620288,-0.024405524136933452,0.0042264703337669095,0.02420719537467938,0.01319242237222547,-0.0011579914989076178,0.07728991590388531,0.11617971244331823,-0.023921322659855773,0.036636359959199505,0.24618863948581743,-0.08477376673142821
1849,7.987324700006866,-0.02374701788701828,-0.024399423380142997,0.004226742731855573,0.024540895673656853,0.013695807275780743,-0.0012619587895071366,0.07744455744717715,0.11723950138934379,-0.024287530368728685,0.03504877014429597,0.24518129928199656,-0.08502295859387789
1850,7.99163899999985,-0.023759389468035512,-0.024406454803891295,0.004238559053307404,0.024875248399095294,0.014203754316890263,-0.0013675081069320716,0.07759232060640665,0.11829485987831691,-0.02465479361229239,0.03344653190931354,0.2441339986666295,-0.08526391275532486
1851,7.997406399997999,-0.023759389468035512,-0.024406454803891295,0.004238559053307404,0.025210223756170373,0.014716244004531165,-0.001474643918268196,0.07773314263663553,0.11934561541470483,-0.02502307670700785,0.031829850729829655,0.2430466866530687,-0.0854965659110029
1852,8.001742799999192,-0.02375996979742392,-0.02442756868039784,0.0042616894674271195,0.025545791681247595,0.015233256102912544,-0.0015833705358860972,0.07786696168698502,0.12039159529738015,-0.025392343700142074,0.030198936054762825,0.24191931909992379,-0.08572085581113806
1853,8.005890700005693,-0.02377877355806164,-0.024492135428114667,0.004312144091747265,0.025881921845763628,0.015754769630671725,-0.001693692116299823,0.07799371681771423,0.1214326266492488,-0.02576255837436249,0.02855400127713578,0.2407518587501096,-0.08593672127304766
1854,8.010152400005609,-0.023800216421357955,-0.024535251051737324,0.004336571925179675,0.02621858366018132,0.016280762860199357,-0.0018056126590457492,0.07811334801717076,0.12246853644704461,-0.02613368425238171,0.02689526370375856,0.23954427526867292,-0.0861441021930945
1855,8.014314800006105,-0.02380219682492927,-0.024565347870556444,0.004355176041816879,0.026555746278017774,0.01681121331709403,-0.0019191360055818732,0.07822579621860876,0.12349915155128506,-0.026505684601652174,0.025222944523833654,0.23829654527938257,-0.08634293955849393
1856,8.018386399999144,-0.02380895144489856,-0.02460991533544664,0.004375710750598146,0.026893378599944878,0.017346097779747154,-0.002034265838207731,0.07833100331686939,0.1245242987363826,-0.02687852243911008,0.02353726877648553,0.23700865240007027,-0.08653317545897227
1857,8.021962700004224,-0.0238113114219829,-0.02465095922191272,0.004403609462513927,0.027231449277961523,0.01788539227905877,-0.00215100567900513,0.0784289121849192,0.1255438047209066,-0.027252160535967816,0.021838465317217292,0.23568058727670801,-0.08671475309827502
1858,8.025171700006467,-0.0238113114219829,-0.02465095922191272,0.004403609462513927,0.027569926719636925,0.01842907209828498,-0.002269358888799887,0.07851946669024147,0.1265574961979905,-0.027626561422554183,0.02012676678329739,0.23431234761620853,-0.08688761680552275
1859,8.029214099995443,-0.02379784884552534,-0.024705119495900155,0.004434297035062905,0.027908779092424316,0.018977111773017613,-0.0023893286661447596,0.07860261171107584,0.12756519986587828,-0.028001687393201708,0.018402409558079674,0.23290393821793628,-0.08705171204641292
1860,8.032644899998559,-0.02379784884552534,-0.024705119495900155,0.004434297035062905,0.028247974328044476,0.019529485091296695,-0.002510918046323762,0.07867829315250137,0.12856674245860467,-0.028377500511180518,0.01666563373426044,0.2314553710039153,-0.08720698543426612
1861,8.036133600005996,-0.02379784884552534,-0.024705119495900155,0.004434297035062905,0.028587480126938646,0.020086165093856117,-0.0026341299003780454,0.078746457962359,0.12956195077680363,-0.02875396261367812,0.014916683076076314,0.22996666504771987,-0.0873533847409149
1862,8.041416000007303,-0.023827460493202526,-0.024844877659673678,0.004489523031392411,0.028927263962790165,0.020647124074502966,-0.002758966934153532,0.0788070541470084,0.1305506517186398,-0.02913103531682435,0.0131558049804473,0.2284378466020349,-0.08749085890743317
1863,8.04479430000356,-0.023827460493202526,-0.024844877659673678,0.004489523031392411,0.029267293087114333,0.021212333580630984,-0.002885431687370491,0.07886003078691427,0.13153267231085763,-0.02950868002076065,0.011383250437069498,0.22686894912487385,-0.08761935805470432
1864,8.048303200004739,-0.023827460493202526,-0.024844877659673678,0.004489523031392411,0.02960753453391557,0.021781764413868563,-0.003013526532715234,0.07890533805205781,0.1325078397399429,-0.029886857914753026,0.009599273987462324,0.22526001330444154,-0.08773883349382643
1865,8.053946600004565,-0.0239098969781509,-0.024891541068747573,0.004527844304367172,0.029947955124411188,0.022355386630861663,-0.003143253674954113,0.0789429272171696,0.13347598138339092,-0.030265529982348084,0.0078041336829754405,0.22361108708263105,-0.08784923773635299
1866,8.058055899993633,-0.023925943656356807,-0.02489827907747163,0.004562868573351886,0.0302885214718209,0.022933169544192056,-0.0032746151500699715,0.0789727506767793,0.1344369248410746,-0.030644657006571263,0.00599809104176093,0.22192222567714265,-0.08795052450436774
1867,8.06235999999626,-0.02393992804957411,-0.024900565876872113,0.004590574297644973,0.030629199986221226,0.02351508172343124,-0.003407612824421215,0.07899476196007792,0.13539049796670644,-0.031024199575166632,0.00418141100471654,0.22019349160221183,-0.08804264874039236
1868,8.06556640000781,-0.02393992804957411,-0.024900565876872113,0.004590574297644973,0.030969956879463828,0.0241010909963304,-0.0035422483939236468,0.07900891574558813,0.1363365288993876,-0.03140411808587764,0.0023543618904062163,0.2184249546879359,-0.0881255666171255
1869,8.070260399996187,-0.023965035308596363,-0.02490218220781925,0.004621492074671897,0.03131075817015684,0.024691164450146727,-0.003678523383255227,0.07901516787563789,0.13727484609523916,-0.03178437275176792,0.00051721534896441,0.21661669209818923,-0.08819923554701171
1870,8.074968400003854,-0.023990091504578995,-0.02490988420198116,0.00467404291549167,0.031651569688708255,0.02528526843310633,-0.0038164391450839163,0.07901347537063323,0.1382052783591084,-0.032164923606581367,-0.001329753685009061,0.21476878834711685,-0.08826361419163839
1871,8.079244199994719,-0.023988393910189885,-0.024917665896277686,0.004684350844232279,0.031992357082430554,0.02588336855600398,-0.003955996859318749,0.0790037964431259,0.13912765487634376,-0.03254573051014063,-0.0031862670405564844,0.21288133531419567,-0.08831866247095946
1872,8.083455400003004,-0.023984723118104952,-0.024928818922590766,0.004693930279497747,0.03233308582070564,0.026485429693939872,-0.004097197532384288,0.07898609051167133,0.14004180524463164,-0.032926753153783225,-0.0050520433594646134,0.21095443225785296,-0.08836434157234406
1873,8.087699199997587,-0.02397594698388592,-0.02494587609908899,0.004699572083157815,0.03267372120020918,0.027091415988193656,-0.0042400419965185985,0.07896031821447294,0.14094755950588936,-0.03330795106583469,-0.006926798146354138,0.20898818582763368,-0.08840061395944837
1874,8.09189250000054,-0.02397121125498423,-0.024968443116105705,0.004693540333221676,0.033014228350193575,0.027701290848235752,-0.0043845309090948725,0.07892644142280865,0.1418447481782085,-0.03368928361711817,-0.00881024381974817,0.2069827100749073,-0.08842744338090826
1875,8.095560999994632,-0.02397121125498423,-0.024968443116105705,0.004693540333221676,0.03335457223782875,0.02831501695387606,-0.004530664751966836,0.07888442325423578,0.14273320228784142,-0.03407071002649955,-0.010702089764111335,0.20493812646210433,-0.08844479487885111
1876,8.099824899996747,-0.02393214835401554,-0.024989119583089244,0.004689729849405851,0.03369471767359973,0.02893255625755009,-0.004678443830838071,0.07883422808557042,0.14361275340122442,-0.03445218936646738,-0.012602042382850748,0.2028545638704736,-0.08845263479722501
1877,8.104304799999227,-0.02389058191591969,-0.025046553428167268,0.004630704271909838,0.03403462931676003,0.029553869986742587,-0.004827868274655398,0.07877582156563674,0.14448323365703106,-0.034833680568746785,-0.014509805152269746,0.20073215860635224,-0.08845093078994314
1878,8.108764300006442,-0.023851527960721146,-0.02507729743704591,0.004599481144578123,0.034374271680839764,0.03017891864654862,-0.004978938035026468,0.07870917062778188,0.14534447579824902,-0.03521514242994671,-0.016425078676465036,0.19857105440594158,-0.08843965182884156
1879,8.112491499996395,-0.023824184952726146,-0.025108662945791924,0.0045601225149260955,0.034713609139207575,0.030807662022372343,-0.005131652885661694,0.07863424350215201,0.14619631320427318,-0.035596533617239634,-0.018347560743157514,0.1963714024385816,-0.08841876821144846
1880,8.115890100001707,-0.023824184952726146,-0.025108662945791924,0.0045601225149260955,0.035052605930685155,0.03144005918276336,-0.00528601242184062,0.07855100972772634,0.1470385799230081,-0.03597781267407297,-0.020276946380446748,0.1941333613085144,-0.08838825156856298
1881,8.120777000003727,-0.023820320185693657,-0.02515132336504804,0.004518450914199629,0.03539122616521337,0.03207606848239085,-0.005442016059902887,0.078459440164105,0.14787111070297426,-0.03635893802591083,-0.022212927914478906,0.1918570970551299,-0.08834807487164224
1882,8.125011500000255,-0.02385113332782028,-0.025254423750430098,0.0044540034748404836,0.03572943382956903,0.032715647565155485,-0.00559966303676389,0.07835950700304715,0.14869374102541097,-0.03673986798600546,-0.02415519502801737,0.1895427831516862,-0.08829821243999503
1883,8.129121499994653,-0.023859928750954027,-0.025302870037659696,0.004430596490283045,0.036067192793131225,0.03335875336743899,-0.0057589524094552565,0.07825118377975568,0.1495063071363687,-0.0371205607611974,-0.02610343481990504,0.18719060050249778,-0.08823863994777967
1884,8.133416700002272,-0.023867675950673673,-0.02533961648658526,0.004425332916281648,0.036404466813696246,0.03400534212149105,-0.005919883054690261,0.07813444538390436,0.1503086460787843,-0.03750097445774362,-0.028057331865407008,0.18480073743858383,-0.08816933443080525
1885,8.137488399996073,-0.023873838015649632,-0.02538181102873318,0.004413829145186574,0.036741219543339844,0.03465536935895349,-0.006082453668454285,0.07800926807040409,0.15110059572453124,-0.03788106708717304,-0.030016568277421964,0.18237338971177156,-0.08809027429313421
1886,8.141539100004593,-0.02387798036859013,-0.025415720214608306,0.004404109315015851,0.03707741453432562,0.035308789914521334,-0.006246662765620417,0.07787562946990433,0.15188199480643852,-0.038260796572168784,-0.031980823768550444,0.17990876048724783,-0.08800143931348421
1887,8.145636700006435,-0.023876361512792474,-0.025449448577179623,0.0043995873217558485,0.037413015245058204,0.0359655579297406,-0.006412508679590312,0.07773350859902603,0.15265268295027165,-0.03864012075247642,-0.03394977571400764,0.17740706033455406,-0.08790281065142772
1888,8.149789300005068,-0.023880198488021948,-0.02547810610081308,0.00438885552016335,0.03774798504608006,0.03662562685694269,-0.006579989561960422,0.07758288587032254,0.15341250070666856,-0.03901899739083703,-0.03592309921536803,0.17486850721701958,-0.08779437085338736
1889,8.155529600000591,-0.023880202856244363,-0.025503644675500037,0.004369381175562841,0.038082287226111115,0.03728894946331516,-0.006749103382213694,0.07742374310196493,0.1541612895830242,-0.039397384178944256,-0.03790046716512887,0.17229332647962928,-0.08767610385842546
1890,8.160362900001928,-0.023882221742333776,-0.02552353241923646,0.004370808762175325,0.03841588499812998,0.037955477835108664,-0.006919847927436789,0.07725606352714852,0.15489889207531718,-0.03977523874342414,-0.03988155031207924,0.1696817508353217,-0.08754799500382551
1891,8.164435400001821,-0.023861761721659297,-0.02553365180107671,0.0043529409126547075,0.03874874150549541,0.038625163381979875,-0.007092220802062976,0.07707983180321706,0.15562515169987243,-0.040152518651836486,-0.04186601732746117,0.16703402034971382,-0.08741003103046406
1892,8.168815800003358,-0.023839214553557007,-0.025540245002067054,0.004325121758945335,0.039080819828106704,0.03929795684146985,-0.007266219427640767,0.07689503402050109,0.15633991302505226,-0.040529181418696866,-0.04385353487190914,0.16435038242424868,-0.08726220008797109
1893,8.175446399996872,-0.02379538558479842,-0.025543376042949647,0.004278996908584144,0.03941208298860188,0.03997380828361734,-0.0074418410426283915,0.07670165771086707,0.15704302170286855,-0.04090518451151852,-0.0458437676631537,0.1616310917777633,-0.08710449173967728
1894,8.179519800003618,-0.023740380385259163,-0.02554697549913632,0.004179469128617032,0.039742493958592515,0.040652667115706795,-0.007619082702214182,0.07649969185597369,0.15773432450050856,-0.04128048535687355,-0.047836378544474624,0.15887641042647385,-0.08693689696734618
1895,8.183520299993688,-0.023741017889528388,-0.025549105688704846,0.004115175919925957,0.04007201566493398,0.04133448208715047,-0.007797941278162954,0.07628912689523211,0.15841366933176795,-0.041655041346472375,-0.04983102855388904,0.15608660766237412,-0.08675940817568978
1896,8.18760900000052,-0.023724118758075174,-0.02554785584624032,0.004046838141905989,0.040400610996029936,0.04201920129450436,-0.007978413458688438,0.07606995473346684,0.15908090528838414,-0.04202880984326073,-0.05182737699405928,0.1532619600300448,-0.08657201919666603
1897,8.191636600007769,-0.02372778293666871,-0.02555413547669293,0.0039753097439502,0.04072824280816947,0.042706772186617274,-0.008160495748351851,0.07584216874827425,0.1597358826712638,-0.04240174818753331,-0.05382508150290499,0.15040275130187195,-0.08637472529355636
1898,8.19509900000412,-0.02372778293666871,-0.02555413547669293,0.0039753097439502,0.041054873931895476,0.04339714156991248,-0.008344184467986664,0.07560576379707565,0.16037845302159753,-0.04277381370306305,-0.055823798124903505,0.14750927245167267,-0.0861675231648215
1899,8.19975980000163,-0.023729903078887542,-0.02554831791906072,0.0039067934774945565,0.04138046717840293,0.044090255613801095,-0.008529475754649614,0.07536073622386165,0.16100846915185632,-0.04314496370324537,-0.05782318138306268,0.1445818216267272,-0.08595041094773315
1900,8.203366700006882,-0.023729903078887542,-0.02554831791906072,0.0039067934774945565,0.04170498534596563,0.04478605985622693,-0.008716365561597932,0.0751070838656247,0.16162578517666326,-0.04351515549725634,-0.059822884351549796,0.1416207041182162,-0.08572338822177934
1901,8.2086782999977,-0.02371378214902799,-0.02554817224639591,0.003725289762153231,0.042028391226390155,0.045484499209342305,-0.008904849658292888,0.07484480605847675,0.1622302565435343,-0.043884346396223795,-0.06182255872895992,0.13862623233006274,-0.08548645601184238
1902,8.214162999996915,-0.023667745232303285,-0.025522113040380153,0.0035491974699921242,0.04235064761149573,0.046185517965314324,-0.009094923630429706,0.07457390364344949,0.16282174006348124,-0.044252493719410466,-0.06382185491220706,0.13559872574617746,-0.08523961679114749
1903,8.222298599997885,-0.02357647997553146,-0.025505967268851217,0.003387131645112511,0.04267171729961875,0.046889059802261164,-0.009286582879993868,0.07429437897197473,0.16340009394147023,-0.04461955480040799,-0.06582042207102133,0.13253851089610766,-0.08498287448398112
1904,8.229552899996634,-0.023501788506796645,-0.025475948844591385,0.0032413522022271928,0.04299156310214072,0.0475950677903176,-0.009479822625343845,0.07400623591104288,0.16396517780672776,-0.044985486993340824,-0.06781790822303477,0.12944592131909,-0.08471623446817723
1905,8.235803600007785,-0.023463573890064544,-0.025463195346001,0.0031606390287432498,0.04331014785003808,0.04830348439782943,-0.009674637901320334,0.07370947984803669,0.16451685274288813,-0.04535024767907913,-0.06981396030943766,0.12632129752650859,-0.0844397035773696
1906,8.239673100004438,-0.023395636054661016,-0.025429444616812073,0.003109483917029379,0.04362743440045232,0.04901425149767603,-0.009871023559381959,0.0734041176952376,0.16505498131797552,-0.045713794271459704,-0.07180822427118728,0.12316498696276079,-0.08415329010300845
1907,8.2447669999965,-0.023330030323566,-0.02541559710955621,0.003051049036271076,0.04394338564327883,0.049727310373720274,-0.010068974267767497,0.07309015789400214,0.16557942761421368,-0.04607608422351431,-0.07380034512575086,0.11997734396453226,-0.08385700379613963
1908,8.25010370000382,-0.023186759874730373,-0.025388140397439883,0.0029545897365154204,0.04425796450777326,0.05044260172738518,-0.010268484511684639,0.07276761041860562,0.16609005725765652,-0.046437075033704554,-0.07578996704436444,0.1167587297184829,-0.0835508558689445
1909,8.254505300006713,-0.023117295247103656,-0.025361719550684326,0.002926979414624411,0.04457113396917395,0.051160065684356465,-0.010469548593525327,0.0724364867797508,0.16658673744763225,-0.04679672425216248,-0.07777673342978858,0.11350951221734658,-0.08323485899603922
1910,8.25870930000383,-0.023041313623883664,-0.02533293618498744,0.00291068032088664,0.04488285705533912,0.05187964180141036,-0.010672160633107745,0.0720968000277391,0.1670693369859943,-0.04715498948693587,-0.07976028699454177,0.11023006621444774,-0.08290902731553158
1911,8.263272099997266,-0.022986286521298947,-0.025304426604902838,0.0028935304690772667,0.045193096853397334,0.05260126907336574,-0.010876314567944972,0.07174856475530253,0.16753772630617156,-0.047511828410237045,-0.08174026983959255,0.10692077317663919,-0.08257337642983444
1912,8.266585100005614,-0.02292891083214672,-0.02527031145463851,0.0028719395247996174,0.04550181651640949,0.05332488594015967,-0.01108200415354031,0.07139179710009459,0.16799177750201075,-0.047867198764694134,-0.08371632353349046,0.10358202123566476,-0.08222792340623344
1913,8.270862399993348,-0.022849064505345934,-0.025233666019815887,0.0028705566531459508,0.04580897927004101,0.054050430294045534,-0.011289222963709286,0.07102651474683856,0.1684313643564045,-0.048221058369603546,-0.085688089191916,0.10021420513795125,-0.08187268677720769
1914,8.274218999998993,-0.022849064505345934,-0.025233666019815887,0.0028705566531459508,0.046114548419242944,0.05477783948691303,-0.011497964390928275,0.07065273692913113,0.1688563623696986,-0.04857336512718301,-0.08765520755762936,0.09681772619283417,-0.08150768654050197
1915,8.278894799994305,-0.0227660898068904,-0.025183940515953764,0.002877342354430282,0.04641848735494058,0.055507050337729076,-0.011708221646709741,0.07027048443090012,0.16926664878787104,-0.048924077028824106,-0.08961731908079737,0.09339299221922216,-0.08113294415894953
1916,8.283860499999719,-0.022553404332795665,-0.02504632093335736,0.0028890306854938994,0.046720759560727965,0.05623799914009863,-0.011919987762004028,0.06987977958751489,0.16966210263047626,-0.04927315216134347,-0.09157406399967866,0.08994041749070524,-0.08074848256004405
1917,8.28745259999414,-0.022553404332795665,-0.02504632093335736,0.0028890306854938994,0.04702132861956715,0.056970621669944745,-0.01213325558762772,0.06948064628654745,0.1700426047183475,-0.049620548713231453,-0.09352508242164628,0.08646042267911298,-0.08035432613525925
1918,8.292623999994248,-0.022450345711014882,-0.024983668785832976,0.0028864223759808806,0.047320158220490634,0.05770485319330679,-0.01234801779471854,0.06907310996818293,0.17040803770105117,-0.04996622498089725,-0.09547001440452708,0.08295343479652907,-0.07995050073911422
1919,8.296084500005236,-0.022450345711014882,-0.024983668785832976,0.0028864223759808806,0.047617212165305574,0.05844062847425587,-0.012564266875216785,0.06865719762527851,0.17075828608408564,-0.05031013937490958,-0.09740850003823699,0.07941988713576847,-0.07953703368798329
1920,8.300115499994718,-0.02217788866079802,-0.024834690967328796,0.002913140389302609,0.04791245437529819,0.059177881782926225,-0.01278199514237322,0.06823293780306931,0.17109323625581802,-0.05065225042623217,-0.09934017952669096,0.07586021920932466,-0.07911395375864957
1921,8.304533999995328,-0.02188761745157398,-0.024668393246826018,0.0028936446152578194,0.04820584889793702,0.05991654690366161,-0.013001194731283364,0.0678003605985203,0.17141277651415274,-0.05099251679245299,-0.1012646932699656,0.07227487668679401,-0.07868129118660096
1922,8.310310800006846,-0.021714195699386436,-0.02458003361944053,0.0028722516288647868,0.048497359913573596,0.06065655714327579,-0.01322185759944819,0.0673594976593229,0.17171679709292575,-0.05133089726400637,-0.10318168194669325,0.06866431133078502,-0.0782390776640672
1923,8.31435159999819,-0.021565042281105007,-0.024498136777113537,0.0028444161101172163,0.048786951742139185,0.06139784533942561,-0.01344397552736118,0.06691038218253527,0.17200519018801855,-0.05166735077038683,-0.10509078659666546,0.06502898093132034,-0.07778734633779671
1924,8.319150199997239,-0.021393818612016544,-0.024413171139909595,0.002810679464902921,0.04907458884983605,0.062140343869095845,-0.01366754011912169,0.06645304891286562,0.17227784998318582,-0.05200183638635334,-0.10699164870362367,0.06136934923874022,-0.07732613180657143
1925,8.32295570000133,-0.021393818612016544,-0.024413171139909595,0.002810679464902921,0.049360235855821555,0.06288398465719443,-0.013892542803074573,0.06598753414059777,0.17253467267559142,-0.052334313338123425,-0.10888391027821516,0.05768588589511618,-0.07685547011845888
1926,8.327334200002952,-0.02118928196492437,-0.02430814068283711,0.0027979496018120456,0.04964385753888368,0.06362869918525717,-0.01411897483247597,0.06551387569915787,0.1727755565010461,-0.05266474100955598,-0.11076721394109214,0.053979066364185035,-0.07637539876780067
1927,8.331128100006026,-0.020820105728304575,-0.024108576969886414,0.002750435548709055,0.04992541884410625,0.0643744185002608,-0.01434682728618522,0.06503211296232196,0.1730004017589409,-0.05299307894832202,-0.11264120300613176,0.05024937185981243,-0.07588595669193576
1928,8.335412800006452,-0.020609417582624162,-0.02399945126815257,0.00272268273318193,0.05020488488952211,0.06512107322354291,-0.014576091069382848,0.06454228684106429,0.17320911083687066,-0.05331928687206225,-0.11450552156375486,0.04649728927299595,-0.07538718426765727
1929,8.339974600006826,-0.020411176872514213,-0.023882436650729328,0.002673525366344604,0.050482220972752505,0.06586859355982737,-0.014806756914314522,0.06404443978004584,0.1734015882349413,-0.05364332467453052,-0.11635981456432067,0.04272331109741806,-0.07487912330740168
1930,8.346334999994724,-0.02000099435942342,-0.023594179498523552,0.002573702456189943,0.05075739257763107,0.06661690930635339,-0.015038815381060965,0.0635386157537428,0.17357774058975517,-0.05396515243172224,-0.11820372790157485,0.03892793535356,-0.07436181705516948
1931,8.349827099998947,-0.02000099435942342,-0.023594179498523552,0.002573702456189943,0.051030365380810926,0.06736594986210734,-0.015272256858333649,0.06302486026221499,0.1737374766980671,-0.05428473040798656,-0.12003690849612801,0.03511166551138791,-0.07383531018217625
1932,8.353332700004103,-0.02000099435942342,-0.023594179498523552,0.002573702456189943,0.05130110525835322,0.06811564423715565,-0.015507071564296204,0.06250322032651419,0.17388070754010643,-0.054602019062121074,-0.12185900437894147,0.03127501041162285,-0.0732996487822329
1933,8.357938999994076,-0.019770798744647485,-0.023421550062278855,0.002525298101661185,0.051569578292295463,0.06886592106207767,-0.0157432495474114,0.061973744483732524,0.17400734630255815,-0.0549169790534479,-0.12366966477479702,0.02741848418560665,-0.07275488036685383
1934,8.362271300007706,-0.019070148494805303,-0.0228369493341231,0.0022924699223348865,0.051835750777197945,0.06961670859749716,-0.015980780687313633,0.06143648278169138,0.17411730840119732,-0.055229571247869785,-0.12546854018572687,0.023542606173776178,-0.07220105386009186
1935,8.367563599997084,-0.019070148494805303,-0.0228369493341231,0.0022924699223348865,0.05209958922666694,0.070367934743711,-0.016219654695706895,0.060891486773270546,0.17421051150317007,-0.05553975672390487,-0.12725528247438017,0.019647900842758928,-0.07163821959309934
1936,8.371064599996316,-0.018839317261443795,-0.022633191386111962,0.0021889737248812604,0.05236106037985321,0.07111952705041383,-0.016459861117287956,0.060338809510377955,0.17428687554891498,-0.05584749677869878,-0.12902954494730343,0.01573489770110312,-0.07106642929841445
1937,8.375046200002544,-0.0184306555714565,-0.022178541620404175,0.001938104316439533,0.05262013120792426,0.07187141272651704,-0.01670138933069465,0.059778505537559985,0.17434632277371914,-0.05615275293401299,-0.13079098243811096,0.011804131213656074,-0.07048573610397171
1938,8.37934430000314,-0.0184306555714565,-0.022178541620404175,0.001938104316439533,0.052876768920508604,0.07262351865006081,-0.016944228549479058,0.05921063088525326,0.17438877772890238,-0.056455486942188285,-0.1325392513905211,0.007856140714604823,-0.0698961945268357
1939,8.383388100002776,-0.018139517933881084,-0.021912979977587854,0.0018160971046968775,0.05313094097211062,0.07337577137821762,-0.017188367823105483,0.058635243062678546,0.17441416730262366,-0.05675566079208253,-0.13427400994123476,0.003891470319193376,-0.0692978604666572
1940,8.388454800006002,-0.018139517933881084,-0.021912979977587854,0.0018160971046968775,0.05338261506849409,0.07412809715738626,-0.017433796037973178,0.05805240105037775,0.17442242074030456,-0.05705323671498131,-0.13599491800263272,-8.933116586845978e-05,-0.06869079119885159
1941,8.39200969999365,-0.01760875527231889,-0.021411951873567953,0.0015859191119306569,0.05363175917303263,0.07488042193337466,-0.017680501918463865,0.057462165292394854,0.1744134696646624,-0.05734817719048039,-0.13770163734526802,-0.004085710333289512,-0.06807504536749806
1942,8.396081300001242,-0.017099106879172828,-0.020930866780570604,0.0013546735117515056,0.05387834151302568,0.07563267136167003,-0.017928474028013855,0.05686459768810172,0.17438724809534814,-0.05764044495233895,-0.13939383168013,-0.008097109267359327,-0.0674506829779593
1943,8.400023399997735,-0.01680456151157109,-0.020686996012885525,0.0012360469511845345,0.0541223305859784,0.07638477081779455,-0.018177700770210744,0.056259761583669306,0.17434369246818346,-0.057930002994302496,-0.14107116674065603,-0.012122965637371943,-0.06681776538922111
1944,8.407460200003698,-0.0165386747944376,-0.0204655433360528,0.0011276807375371319,0.05436369516584383,0.07713664540774488,-0.0184281703899146,0.05564772176318561,0.17428274165399174,-0.058216814575894074,-0.14273331036446682,-0.016162712792294965,-0.06617635530595217
1945,8.412229599998682,-0.01625605979847718,-0.020220681611776276,0.0010277592846751485,0.054602404309225604,0.07788821997851367,-0.018679870974403368,0.05502854443942128,0.1742043369770181,-0.05850084322817239,-0.144379932574801,-0.020215779856667237,-0.06552651677028343
1946,8.415833899998688,-0.01625605979847718,-0.020220681611776276,0.0010277592846751485,0.05483842736153965,0.07863941912869124,-0.01893279045454237,0.05440229724424443,0.17410842223293238,-0.05878205275945539,-0.14601070566162513,-0.024281591827708008,-0.06486831515330727
1947,8.419316500003333,-0.01625605979847718,-0.020220681611776276,0.0010277592846751485,0.05507173396313294,0.07939016721914596,-0.019186916605977877,0.053769049218686055,0.17399494370640955,-0.0590604072610082,-0.14762530426239612,-0.02835956967362009,-0.0642018171462963
1948,8.423654400001396,-0.015606247527264928,-0.019636096774029933,0.0008048122222004177,0.055302294055358185,0.08014038838378137,-0.019442237050354527,0.05312887080265789,0.17386385018828296,-0.05933587111269438,-0.14922340544245158,-0.032449130433069254,-0.06352709075164185
1949,8.428041599996504,-0.014984283921781142,-0.019039856424997118,0.0005826118900292717,0.0555300778866026,0.08089000654036829,-0.01969873925655645,0.052481833824324524,0.1737150929922653,-0.059608408988589455,-0.15080468877500433,-0.03654968731582167,-0.06284420527351185
1950,8.432968099994469,-0.014336278009913508,-0.018455469889593974,0.000380743793470976,0.05575505601826946,0.0816389454014502,-0.019956410541971906,0.051828011489131555,0.1735486259712321,-0.05987798586255555,-0.15236883642071747,-0.04066064980452081,-0.062153231308227835
1951,8.437348399995244,-0.01406748024922032,-0.01818688418431002,0.00028544619882879747,0.05597719933071107,0.08238712848532012,-0.020215238073781342,0.05116747836849152,0.17336440553306137,-0.06014456701377589,-0.15391553320683685,-0.04478142375758459,-0.061454240734361246
1952,8.442035600004601,-0.013785115291717892,-0.017920960625032845,0.0001899247666868143,0.05619647902911167,0.08313447912706727,-0.02047520887026869,0.05050031038812907,0.17316239065602468,-0.0604081180322479,-0.1554444667058573,-0.04891141151320353,-0.06074730670254929
1953,8.445964200000162,-0.013480851172862773,-0.017651405886273792,0.00011318587410966645,0.05641286664931896,0.08388092048969124,-0.020736309802155704,0.04982658481608728,0.17294254290372466,-0.06066860482423359,-0.15695532731369904,-0.053050011994420304,-0.06003250362503074
1954,8.450212600000668,-0.013160798282645476,-0.01738514155785776,6.700300792663151e-05,0.05662633406362244,0.08462637557528124,-0.020998527593959117,0.04914638025039724,0.17270482643957422,-0.060925993617666034,-0.15844780832737115,-0.05719662081527087,-0.05930990716490187
1955,8.454054100002395,-0.012846219714059927,-0.01710708996488649,4.957283817360984e-07,0.05683685348647741,0.08537076723625799,-0.021261848825370383,0.04845977660641317,0.1724492080408135,-0.061180250967510376,-0.15992160602209826,-0.06135063038796675,-0.05857959422509311
1956,8.457549700004165,-0.012846219714059927,-0.01710708996488649,4.957283817360984e-07,0.057044397480173044,0.086114018186676,-0.02152625993265789,0.04776685510381555,0.1721756571120599,-0.06143134376107847,-0.16137641972788705,-0.06551143003109795,-0.057841642937066576
1957,8.461170900001889,-0.012846219714059927,-0.01710708996488649,4.957283817360984e-07,0.057248938960442905,0.0868560510135845,-0.021791747210091538,0.047067698253284725,0.17188414569838695,-0.061679239223296,-0.16281195190550843,-0.0696784060788352,-0.057096132649235
1958,8.465823200007435,-0.01252388882696334,-0.016805222549483318,-8.807251247493555e-05,0.05745045120201654,0.08759678818844492,-0.02205829681138959,0.0463623898428476,0.17157464849792856,-0.06192390492192073,-0.1642279082218728,-0.07385094199111046,-0.05634314391510248
1959,8.470718900003703,-0.011867089727396382,-0.01622668550620049,-0.00018820000500206722,0.0576489078441108,0.08833615207860315,-0.02232589475118773,0.04565101492390005,0.1712471428740037,-0.06216530877271091,-0.16562399762477642,-0.07802841846475408,-0.055582758481127835
1960,8.474852300001658,-0.011161586894256817,-0.015657986162933835,-0.0002661511668255358,0.057844282895859495,0.08907406495881487,-0.022594526906530108,0.04493365979690795,0.1709016088667575,-0.0624034190445428,-0.16699993241699576,-0.08221021354556687,-0.054815059274311385
1961,8.479168799996842,-0.01085140196970783,-0.015399569209381072,-0.00030681548701546213,0.0580365507416798,0.08981044902282195,-0.022864179018382152,0.04421041199679,0.17053802920431477,-0.06263820436447616,-0.16835542832970712,-0.0863957027413047,-0.05404013038950572
1962,8.484491099996376,-0.01047559337018731,-0.015098538664960444,-0.00031248541156210025,0.05822568614657424,0.0905452263949778,-0.02313483669316498,0.043481360277985354,0.17015638931344124,-0.06286963372276651,-0.16969020459520842,-0.09058425913555306,-0.053258057076451704
1963,8.489179099997273,-0.010073280727471651,-0.014771216707653108,-0.000329591482730233,0.05841166426136692,0.09127831914191967,-0.023406485404311256,0.042746594599208994,0.1697566773297095,-0.06309767647782277,-0.1710039840189205,-0.09477525350246839,-0.052468925726541056
1964,8.49265309999464,-0.009691990790071589,-0.014425558966675531,-0.0003587913791440541,0.05859446062787294,0.09200964928428547,-0.023679110493842286,0.04200620610789802,0.16933888410716647,-0.06332230236110942,-0.1722964930506453,-0.09896805442236284,-0.051672823859306556
1965,8.495875900000101,-0.009295865137423698,-0.014077736672735076,-0.00039565831195929207,0.05877405118399974,0.09273913880847294,-0.02395269717396608,0.04126028712435193,0.1689030032274995,-0.06354348148199239,-0.17356746185505825,-0.10316202839810833,-0.05086984010864099
1966,8.500210199999856,-0.008865230813778794,-0.013688647212920372,-0.00042236034503259585,0.058950412268778916,0.09346670967843815,-0.024227230528696218,0.04050893112557028,0.16844903100869893,-0.06376118433252746,-0.17481662438141307,-0.10735653997233632,-0.05006006420874615
1967,8.503771999996388,-0.008865230813778794,-0.013688647212920372,-0.00042236034503259585,0.05912352062732685,0.09419228384753127,-0.024502695515491297,0.03975223272879123,0.16797696651321423,-0.06397538179218912,-0.17604371843243655,-0.11155095184540914,-0.049243586979813174
1968,8.50808010000037,-0.008472609454875511,-0.013328104072629158,-0.0004920364569396402,0.05929335341573293,0.09491578327036759,-0.02477907696691478,0.03899028767473442,0.16748681155560077,-0.06418604513253909,-0.17724848573239163,-0.11574462499413848,-0.048420500313436296
1969,8.512573600004544,-0.007591316159004924,-0.012567213803158998,-0.0005078330908074209,0.059459888205874195,0.09563712991473199,-0.025056359592315072,0.038223192810551795,0.1669785707096547,-0.06439314602183302,-0.17843067199428664,-0.11993691879122662,-0.04759089715776141
1970,8.51668939999945,-0.007193682960387364,-0.01218151910442533,-0.000543314277598547,0.05962310299015517,0.09635624577351412,-0.0253345279795254,0.03745104607248992,0.16645225131503175,-0.06459665652956456,-0.17959002698620996,-0.12412719112540459,-0.04675487150237118
1971,8.520505599997705,-0.007193682960387364,-0.01218151910442533,-0.000543314277598547,0.05978297618617134,0.09707305287667203,-0.025613566596583332,0.03667394646826745,0.1659078634833477,-0.06479654913094582,-0.1807263045967692,-0.12831479852224198,-0.04591251836290876
1972,8.524701400005142,-0.00676786381730546,-0.011761958657896868,-0.0005668797710890348,0.05993948664129543,0.09778747330322159,-0.02589345979346955,0.035891994059171595,0.16534542010375777,-0.06499279671132248,-0.18183926289961405,-0.1324990962656027,-0.04506393376544206
1973,8.533220299999812,-0.005889558664417165,-0.010847093595092762,-0.0008042189679253939,0.060092613637185446,0.09849942919324951,-0.026174191803865675,0.03510528994187768,0.16476493684801227,-0.06518537257052238,-0.18292866421702125,-0.13667943851972084,-0.04420921473057081
1974,8.53744290000759,-0.005091889327840248,-0.010024544829771857,-0.001018736479319016,0.06024233689421321,0.09920884275994758,-0.026455746746930808,0.034313936229995935,0.1641664321749863,-0.06537425042713686,-0.18399427518252,-0.14085517845187112,-0.04334845925727866
1975,8.541704100003699,-0.004698606531581554,-0.009643492294853286,-0.0011109525116555158,0.06038863657581216,0.09991563630166557,-0.02673810862909659,0.03351803603534976,0.1635499273346814,-0.06555940442273374,-0.18503586680253753,-0.1450256683556083,-0.04248176630653258
1976,8.545021099998849,-0.004698606531581554,-0.009643492294853286,-0.0011109525116555158,0.06053149329274318,0.10061973221398092,-0.02702126134588047,0.03271769344898976,0.1629154463716963,-0.06574080912600118,-0.18605321451704368,-0.14919025977454914,-0.041609235784632013
1977,8.548506299994187,-0.004698606531581554,-0.009643492294853286,-0.0011109525116555158,0.060670888107277346,0.10132105300178298,-0.027305188683717018,0.031913013521947864,0.16226301612816468,-0.0659184395368211,-0.18704609825917598,-0.15334830362666949,-0.04073096852631045
1978,8.554050899998401,-0.0034177309652452365,-0.008349846294026755,-0.0013930887032702016,0.060806802537294424,0.10201952129136962,-0.027589874321806956,0.03110410224573578,0.16159266624615862,-0.06609227109027119,-0.18801430251382528,-0.15749915032908873,-0.03984706627759206
1979,8.558094099993468,-0.0029816242752481233,-0.007974999220156282,-0.0013504916986341329,0.06093921856029637,0.10271505984255384,-0.027875301833983644,0.03029106653259232,0.16090442916955586,-0.06626227966055445,-0.18895761637516217,-0.16164214992331413,-0.03895763167840614
1980,8.562296599993715,-0.0026167616696657725,-0.007568603460757289,-0.0013639643687699053,0.06106811861733455,0.10340759156077811,-0.028161454690596707,0.02947401419548395,0.16019834014536877,-0.06642844156485508,-0.1898758336030863,-0.1657766522009172,-0.03806276824496232
1981,8.56559460000426,-0.0026167616696657725,-0.007568603460757289,-0.0013639643687699053,0.061193485616849855,0.10409703950923406,-0.028448316260412537,0.028653053927863416,0.15947443722453358,-0.06659073356712011,-0.1907687526785802,-0.1699020068296149,-0.037162580351889504
1982,8.569286700003431,-0.0026167616696657725,-0.007568603460757289,-0.0013639643687699053,0.06131530293842458,0.10478332692098521,-0.028735869812531543,0.027828295283191043,0.15873276126215788,-0.06674913288176568,-0.1916361768579501,-0.17401756347972885,-0.03625717321414202
1983,8.572708000006969,-0.002110796385559855,-0.007094255233394676,-0.0014443889628346545,0.061433554436444986,0.10546637721109052,-0.029024098518321745,0.02699984865422349,0.1579733559172241,-0.06690361717730679,-0.19247791422593494,-0.17812267195099493,-0.03534665286867594
1984,8.576104899999336,-0.002110796385559855,-0.007094255233394676,-0.0014443889628346545,0.061548224443673284,0.10614611398872599,-0.02931298545336841,0.0261678252520748,0.1571962676517474,-0.06705416457990908,-0.19329377774766626,-0.18221668229969473,-0.034431126155898925
1985,8.579417400003877,-0.002110796385559855,-0.007094255233394676,-0.0014443889628346545,0.06165929777472842,0.10682246106930196,-0.029602513599439516,0.02533233708505482,0.15640154572938636,-0.06720075367686139,-0.1940835853194606,-0.18629894496608054,-0.03351070070089695
1986,8.583558500002255,-0.001415738811035367,-0.006297563202822596,-0.0017699890513951108,0.06176675972947461,0.1074953424865735,-0.029892665846466708,0.024493496937290117,0.15558924221350592,-0.06734336351996861,-0.1948471598184274,-0.1903688109020646,-0.032585484894441574
1987,8.587409300002037,-0.0002862995551558511,-0.004980260966249742,-0.0020008686570698246,0.061870596096316344,0.10816468250474162,-0.030183424994541425,0.02365141834713244,0.15475941196469062,-0.06748197362886332,-0.19558432915087642,-0.1944256316991442,-0.03165558787378117
1988,8.591674700001022,2.254973195595293e-05,-0.004536511408270874,-0.0020631303876761063,0.06197079315539888,0.10883040563054303,-0.03047477375592599,0.022806215585359876,0.1539121126377064,-0.06761656399423571,-0.1962949262995093,-0.1984687597165333,-0.030721119503219985
1989,8.596081399999093,0.0004100097200155139,-0.004064637189243989,-0.002098268936923806,0.06206733768171311,0.10949243662532585,-0.030766694757079372,0.021958003633176137,0.1530474046779109,-0.06774711508098065,-0.1969787893693781,-0.20249754820947058,-0.029782190354488834
1990,8.599996300006751,0.000937908514761897,-0.003554727492181422,-0.002210947643648546,0.062160216948104,0.11015070051710925,-0.03105917054069725,0.02110689816001337,0.15216535131711095,-0.06787360783126113,-0.1976357616325957,-0.20651135145767524,-0.028838911686911477
1991,8.60424950000015,0.0012473156483469498,-0.0031281456084959946,-0.0023492173718661228,0.06224941872818192,0.11080512261262397,-0.031352183567765805,0.020253015501143844,0.15126601856886704,-0.06799602366748678,-0.19826569157178192,-0.2105095248939201,-0.0278913954273707
1992,8.608162799995625,0.001816392382813724,-0.0026666796868721576,-0.0023750159078209853,0.062334931299135976,0.11145562850933158,-0.03164571621962905,0.019396472635106132,0.15034947522324485,-0.06811434449520673,-0.19886843292223108,-0.21449142523269257,-0.026939754150078436
1993,8.61240070000349,0.0023214848318150985,-0.0022536808839090576,-0.002437879940213452,0.06241674344444891,0.11210214410741998,-0.031939750800069416,0.01853738716095128,0.1494157928410136,-0.06822855270591614,-0.19944384471278576,-0.2184564105989142,-0.025984101056154264
1994,8.616778800002066,0.002728747459784009,-0.0018184388567482192,-0.0025180095713895696,0.062494844456512585,0.11274459562177284,-0.03223426953740144,0.017675877275314614,0.14846504574729005,-0.06833863117977534,-0.1999917913054036,-0.22240384065668803,-0.025024549953016794
1995,8.62069340000744,0.003157371803984868,-0.0013445615449993928,-0.00261629804328467,0.06256922413914304,0.11338290959391087,-0.032529254586577884,0.016812061749318857,0.14749731102462785,-0.06844456328824061,-0.20051214243340337,-0.22633307673804287,-0.02406121523359237
1996,8.624906099998043,0.0034958520120185205,-0.000871462898049007,-0.002777316884085213,0.06263987280999468,0.11401701290390216,-0.03282468803130807,0.015946059905314263,0.14651266850555314,-0.06854633289660557,-0.2010047732383773,-0.23024348197164551,-0.023094211855345655
1997,8.629215499997372,0.00396536988140465,-0.0003979028172038857,-0.002880005960097659,0.06270678130287256,0.11464683278223999,-0.03312055188618814,0.015077991593461551,0.14551120076454685,-0.0686439243664524,-0.20146956430575685,-0.23413442141145063,-0.022123655319136903
1998,8.633334199999808,0.00425598928841684,7.180975179014288e-05,-0.0030444979584486457,0.06276994096994215,0.115272296821685,-0.033416828098843054,0.014207977168163497,0.14449299310947453,-0.06873732255801215,-0.20190640169901963,-0.2380052621652576,-0.02114966164791082
1999,8.637586299999384,0.004992613715481464,0.0006036692623379267,-0.0030310323659639257,0.0628293436838359,0.11589333298906956,-0.03371349855207965,0.01333613746435102,0.14345813357246373,-0.06882651283243323,-0.20231517699252538,-0.24185537352314324,-0.020172347365221947
2000,8.641599099995801,0.0054484681136555465,0.0011057778523547474,-0.0031556301936196177,0.06288498183965621,0.1165098696370616,-0.03401054506605029,0.01246259377362969,0.14240671290022922,-0.06891148105395743,-0.20269578730297,-0.2456841270857401,-0.01919182947360159
2001,8.645695600003819,0.005929929644347917,0.0016453911974456425,-0.003258407857204697,0.06293684835687416,0.11712183551588505,-0.034307949400426745,0.0115874678202926,0.1413388245438457,-0.06899221359200286,-0.20304813531944507,-0.24949089689232987,-0.0182082254327715
2002,8.64977610000642,0.006239040665273519,0.002247452834141126,-0.003413481951969354,0.06298493668112355,0.1177291597849948,-0.0346056932565837,0.010710881737205682,0.1402545646479702,-0.06906869732315313,-0.20337212933209173,-0.25327505954872,-0.017221653137709694
2003,8.653989800004638,0.006456184236312325,0.002840006089815712,-0.0035829983530549525,0.06302924078589,0.11833177202470345,-0.034903758279791655,0.009832958041571669,0.13915403203951507,-0.06914091963305237,-0.20366768325933837,-0.25703599435487356,-0.016232230896573694
2004,8.657547299997532,0.006456184236312325,0.002840006089815712,-0.0035829983530549525,0.06306975517409485,0.11892960224775767,-0.03520212606141884,0.008953819610578836,0.13803732821577241,-0.06920886841820509,-0.20393471667371318,-0.26077308343226163,-0.015240077408486727
2005,8.662290599997505,0.006745286984030855,0.0034121912252974606,-0.003759265119593246,0.06310647487957403,0.11952258091086154,-0.035500778141141956,0.00807358965694071,0.13690455733199253,-0.06927253208767994,-0.20417315482622184,-0.2644857118509054,-0.014245311741192451
2006,8.666750599993975,0.007661412360691381,0.004580854713673749,-0.004006968462265359,0.06313939546845157,0.12011063892614388,-0.035799696009165355,0.007192391704332952,0.13575582618841744,-0.06933189956471712,-0.20438292866928157,-0.268173267756078,-0.013248053308583882
2007,8.670834499993362,0.008169556666837625,0.005150220688692719,-0.004132468679574583,0.06316851304040712,0.12069370767256739,-0.03609886110844816,0.006310349562733733,0.13459124421677035,-0.06938696028823838,-0.20456397487820357,-0.27183514249463314,-0.012248421848112234
2008,8.674981599993771,0.008512937132558606,0.005672222145140565,-0.004335755687345517,0.06319382422983728,0.12127171900727704,-0.03639825483693884,0.005427587303673859,0.1334109234662036,-0.0694377042142591,-0.204716235871216,-0.2754707307409292,-0.01124653739808157
2009,8.678283000001102,0.008512937132558606,0.005672222145140565,-0.004335755687345517,0.06321532620691012,0.1218446052768855,-0.036697858549816983,0.004544229235402992,0.1322149785887068,-0.06948412181720216,-0.20483965982801866,-0.27907943062231844,-0.010242520274835146
2010,8.682028099996387,0.008512937132558606,0.005672222145140565,-0.004335755687345517,0.06323301667851237,0.12241229932869346,-0.03699765356174203,0.0036603998779783267,0.1310035268239766,-0.06952620409111318,-0.20493420070686172,-0.2826606438441701,-0.009236491049839472
2011,8.687552200004575,0.00973613786688672,0.007456241766869469,-0.004782704386404382,0.06324689388908936,0.12297473452184245,-0.037297621149108555,0.0027762239382821035,0.12977668798374953,-0.069563942550777,-0.2049998182601422,-0.2862137758143983,-0.008228570526672242
2012,8.691711899999063,0.01022901376729315,0.00802628097060365,-0.004758872452510624,0.06325695662137695,0.12353184473839665,-0.037597742552307446,0.001891826284974404,0.12853458443559987,-0.06959732923273508,-0.20503647804851186,-0.28973823576746305,-0.0072188797179203
2013,8.69523399999889,0.01022901376729315,0.00802628097060365,-0.004758872452510624,0.0632632041970257,0.12408356439435152,-0.03789799897799262,0.0010073319233877304,0.12727734108620456,-0.06962635669620315,-0.20504415145348973,-0.2932334368878143,-0.006207539821993986
2014,8.69986950000748,0.010665443875274908,0.008565141796169679,-0.004903272131210682,0.06326563647711658,0.12462982845056676,-0.038198371601352525,0.00012286597036985277,0.12600508536407717,-0.06965101802388879,-0.2050228156885738,-0.29669879643274616,-0.005194672199864204
2015,8.704007499996806,0.011569319202424554,0.009665666230409592,-0.005113059419728054,0.06326425386256833,0.1251705724236223,-0.038498841568386295,-0.0007614463709185552,0.12471794720177345,-0.06967130682270807,-0.2049724538088471,-0.3001337358546312,-0.00418039835172867
2016,8.708688800004893,0.011803314731799174,0.01017260138621788,-0.005249449118550763,0.06325905729443618,0.125705732396595,-0.03879938999818383,-0.0016454798362449418,0.1234160590175713,-0.0696872172244011,-0.2048930547190746,-0.3035376809225013,-0.003164839893613846
2017,8.712509899996803,0.012317520046293853,0.010734707231265352,-0.005398025920831436,0.06325004825410148,0.12623524502975333,-0.0390999979852091,-0.002529109125577997,0.1220995556966282,-0.069698743886046,-0.20478461318028707,-0.30691006184294395,-0.002148118533919158
2018,8.715992099998402,0.012317520046293853,0.010734707231265352,-0.005398025920831436,0.06323722876335208,0.12675904757116901,-0.03940064660158595,-0.0034122089283862814,0.12076857457161959,-0.06970588199047077,-0.2046471298148478,-0.31025031338028486,-0.001130356049910094
2019,8.719771500007482,0.012317520046293853,0.010734707231265352,-0.005398025920831436,0.06322060138435354,0.1272770778672421,-0.03970131689938604,-0.004294653948955762,0.11942325540286114,-0.06970862724656267,-0.20448061110999974,-0.3135578749760252,-0.00011167426416694971
2020,8.72392669999681,0.012705117047370448,0.01126045081553945,-0.005558952681144522,0.06320016921951103,0.1277892743731378,-0.04000198991291832,-0.0051763189317196425,0.11806374035791856,-0.06970697588947483,-0.20428506941989016,-0.31683219086750314,0.0009078049790039738
2021,8.729142399999546,0.013475197359634863,0.01229338732261496,-0.005737225355525826,0.06317593591122253,0.12829557616313222,-0.04030264666101958,-0.006057078686593852,0.11669017399070791,-0.06970092468073069,-0.20406052296607133,-0.32007271020574735,0.001927959837189856
2022,8.733472099993378,0.014253142887453144,0.013451410759934333,-0.005908850430846425,0.06314790564152296,0.12879592294086445,-0.04060326814934548,-0.006936808114311541,0.11530270322009006,-0.06969047090822612,-0.20380699583647488,-0.3232788871724923,0.0029486684935146074
2023,8.737575399994967,0.014534191465379766,0.013994630241945973,-0.0060284812716523304,0.06311608313161982,0.12929025504949268,-0.04090383537266154,-0.007815382231749964,0.11390147730796306,-0.06967561238612931,-0.2035245179828601,-0.32645018109632556,0.0039698091802989124
2024,8.741714000003412,0.014534191465379766,0.013994630241945973,-0.0060284812716523304,0.06308047364132034,0.12977851348175198,-0.04120432931713339,-0.008692676197243083,0.11248664783685611,-0.06965634745467772,-0.20321312521673543,-0.32958605656793744,0.0049912602027300315
2025,8.745733200004906,0.015006133986652213,0.014604826694057327,-0.006144968580332436,0.06304108296835033,0.1302606398899111,-0.04150473096261573,-0.009568565335873247,0.11105836868702941,-0.06963267497987233,-0.2028728592037527,-0.33268598355444134,0.006012899962534281
2026,8.749254599999404,0.015006133986652213,0.014604826694057327,-0.006144968580332436,0.06299791744756467,0.1307365765956263,-0.04180502128493943,-0.010442925164735275,0.10961679601308365,-0.06960459435306908,-0.20250376745657414,-0.33574943751273384,0.007034606981645062
2027,8.756077199999709,0.015788437621614478,0.015733955915573267,-0.006374621567571526,0.06295098395004971,0.1312062665996899,-0.042105181258196345,-0.011315631418166334,0.10816208822008345,-0.06957210549046754,-0.20210590332621403,-0.338775899501863,0.00805625992585928
2028,8.76018219999969,0.016348792584529804,0.016871178003617537,-0.006620085462717635,0.06290028988211763,0.13166965359167232,-0.04240519185702152,-0.012186560072935075,0.10669440593919874,-0.06953520883249681,-0.20167932599185637,-0.3417648562943744,0.009077737628474938
2029,8.76439240000036,0.01666486590565154,0.01744393435049543,-0.006790537749725729,0.06284584318419308,0.13212668195945534,-0.04270503405887228,-0.013055587373383389,0.10521391200286827,-0.06949390534309896,-0.20122410044915112,-0.3447158004866066,0.010098919113902633
2030,8.771218199995928,0.016984608901106008,0.018040141652670198,-0.006964206850495768,0.06278765232959282,0.13257729679865562,-0.04300468884630363,-0.013922589856514225,0.10372077141949021,-0.06944819650890988,-0.2007402974969917,-0.34762823060790765,0.01111968362124369
2031,8.775089999995544,0.017373890389192733,0.01864542963576947,-0.0070330966651628996,0.0627257263231982,0.13302144392193663,-0.04330413720923944,-0.014787444377018883,0.1022151513476442,-0.0693980843383376,-0.20022799372277655,-0.3505016512287442,0.012139910627827601
2032,8.779224800004158,0.018073997675731396,0.01974281323385272,-0.007311356348542329,0.06266007470002034,0.13345906986820788,-0.043603360147238916,-0.015650028132237228,0.10069722106984923,-0.06934357136053844,-0.19968727148615786,-0.3533355730676728,0.013159479872701472
2033,8.783631300000707,0.0184627451741965,0.02036898645138094,-0.0074448827580507115,0.06259070752365842,0.13389012191170857,-0.04390233867175838,-0.016510218687044217,0.09916715196586194,-0.06928466062429096,-0.19911821890128295,-0.3561295130971428,0.014178271380064148
2034,8.787442400003783,0.0184627451741965,0.02036898645138094,-0.0074448827580507115,0.0625176353846513,0.1343145480709741,-0.044201053808407664,-0.017367893998656153,0.09762511748552068,-0.06922135569676797,-0.19852092981753341,-0.35888299464810086,0.015196165482637655
2035,8.791706799995154,0.01872253559225422,0.02092921112878575,-0.007617161291855873,0.06244086939872347,0.1347322971176836,-0.04449948659920098,-0.01822293244135009,0.09607129312114038,-0.06915366066220609,-0.19789550379876708,-0.3615955475133695,0.016213042844968627
2036,8.795967800004291,0.019417863691618235,0.0220857102214102,-0.007958736997955018,0.06236042120492518,0.1351433185853865,-0.04479761810480144,-0.019075212831089868,0.09450585637946388,-0.06908158012047329,-0.19724204610106735,-0.3642667080497732,0.017228784486652313
2037,8.800020299997414,0.01979255439170142,0.022729896799709756,-0.008099031202769924,0.062276302963667624,0.13554756277810584,-0.045095429406759036,-0.01992461445005221,0.09292898675317511,-0.06900511918553483,-0.19656066764900554,-0.3668960192789857,0.018243271805471705
2038,8.808862100006081,0.020350665278470174,0.023928098079359868,-0.008504571012739343,0.062188527354653585,0.13594498077881687,-0.04539290160974139,-0.02077101707104643,0.09134086569198036,-0.06892428348381809,-0.19585148501042257,-0.3694830309870693,0.019256386600444413
2039,8.812569700006861,0.020696040765338593,0.024602923796914006,-0.008707594810465503,0.06209710757470403,0.13633552445779848,-0.04569001584375716,-0.02161430098182134,0.089741676573263,-0.06883907915247657,-0.19511462036973748,-0.3720272998226787,0.020268011094769934
2040,8.816654399997788,0.020940648018687356,0.02524821506095975,-0.008898738644969035,0.0620020573354811,0.136719146480857,-0.04598675326637147,-0.022454347009253087,0.08813160467231713,-0.06874951283755289,-0.19435020149979013,-0.37452838939390093,0.0212780279586699
2041,8.820914700001595,0.021329618925893586,0.025887473365900745,-0.009083207300421064,0.06190339086110796,0.13709580031742083,-0.04628309506491272,-0.02329103654340758,0.08651083713216584,-0.06865559169204118,-0.1935583617322258,-0.3769858703637061,0.022286320332113876
2042,8.82531270000618,0.021654814376871414,0.02652496476317738,-0.009269295713240068,0.061801122885685976,0.13746544024850368,-0.04657902245867026,-0.02412425156147129,0.08487956293297033,-0.06855732337384952,-0.19273923992642933,-0.37939932054398096,0.023292771847423267
2043,8.82906709999952,0.021926197994641728,0.027276176453671034,-0.009512850271845922,0.061695268650709845,0.13782802137453473,-0.04687451670108251,-0.024953874651544212,0.08323797286103637,-0.06845471604366295,-0.19189298043701794,-0.38176832498812024,0.02429726665174567
2044,8.832598599998164,0.021926197994641728,0.027276176453671034,-0.009512850271845922,0.06158584390238117,0.13818349962305385,-0.04716955908191516,-0.025779789036288768,0.08158625947742443,-0.06834777836270772,-0.19101973307990283,-0.38409247608215086,0.025299689429392345
2045,8.839118599993526,0.022297013577509767,0.02803142896720804,-0.009671947552925286,0.061472864888821366,0.13853183175627,-0.04746413092942923,-0.02660187859642854,0.07992461708617002,-0.06823651949041792,-0.19011965309692935,-0.386371373634365,0.026299925424031402
2046,8.842701899993699,0.02292770787001965,0.029485096358088474,-0.010055821191530985,0.06135634835718448,0.13887297537848073,-0.04775821361253848,-0.027420027894090798,0.07825324170212049,-0.06812094908200478,-0.18919290111910625,-0.3886046249634365,0.027297860460729257
2047,8.846408800003701,0.023270377172091444,0.03020364349352686,-0.010271574094550704,0.06123631155067044,0.13920688894335184,-0.04805178854295573,-0.028234122195986807,0.07657233101839478,-0.06800107728592962,-0.18823964312843525,-0.39079184498499436,0.028293380967832852
2048,8.850078200004646,0.02356367861898566,0.030917064079606267,-0.01055635141013409,0.06111277220543923,0.1395335317610555,-0.04834483717732746,-0.02904404749642396,0.07488208437347316,-0.06787691474128098,-0.1872600504183526,-0.3929326562966292,0.02928637399868541
2049,8.855361599999014,0.024005492458781884,0.031729523592678124,-0.01074783086231292,0.06098574854742683,0.13985286400526506,-0.04863734101935634,-0.02984969054014387,0.0731827027179236,-0.06774847257505615,-0.18625429955279407,-0.3950266892613072,0.03027672725316848
2050,8.859127500007162,0.02447184129366804,0.032368781811068705,-0.011011072206207869,0.06085525928906351,0.14016484672000462,-0.048929281621911215,-0.03065093884498061,0.07147438858077158,-0.06761576239934765,-0.18522257232389497,-0.3970735820891693,0.03126432909906303
2051,8.862558099994203,0.024692935318588072,0.033054988555639216,-0.011202885889883843,0.06072132362589543,0.1404694418263518,-0.04922064058912436,-0.0314476807243333,0.06975734603551983,-0.06747879630843519,-0.184165055708339,-0.39907298091769283,0.032249068593222345
2052,8.867600800003856,0.02488560991088512,0.033824706247358435,-0.011495350340048255,0.06058396123311051,0.14076661212899255,-0.04951139957847524,-0.03223980530944724,0.0680317806658251,-0.06733758687578356,-0.1830819418223675,-0.4010245398901921,0.033230835502549544
2053,8.871190599995316,0.02524510973026223,0.03453760942254362,-0.01169594044948648,0.06044319226196919,0.1410563213226275,-0.04980154030286061,-0.03302720257149783,0.066297899530839,-0.06719214715094739,-0.1819734278754628,-0.40292792123263804,0.03420952032477258
2054,8.876373299994157,0.025699414949112147,0.03525904156834634,-0.011938398687346497,0.060299037336140955,0.14133853399822774,-0.050091044532650564,-0.0338097633434714,0.06455591113021973,-0.06704249065638365,-0.1808397161227202,-0.4047827953287741,0.03518501430900956
2055,8.88054959999863,0.025901513737576813,0.03591352778740394,-0.012479102943995745,0.06015151754794748,0.14161321564913956,-0.05037989409772974,-0.03458737934183753,0.06280602536882207,-0.06688863138417318,-0.17968101381592394,-0.4065888407935089,0.03615720947611764
2056,8.883977100005723,0.025901513737576813,0.03591352778740394,-0.012479102943995745,0.06000065445451357,0.1418803326770373,-0.05066807088952334,-0.03535994318800719,0.0610484535210733,-0.06673058379265223,-0.1784975331533418,-0.40834574454456396,0.037125998638818485
2057,8.887848200000008,0.02596054691090159,0.03674082327240536,-0.012694212290305144,0.0598464700738271,0.14213985239772248,-0.050955556863007435,-0.03612734842957121,0.059283408195042624,-0.06656836280295518,-0.17728949122825471,-0.4100532018723579,0.03809127542159349
2058,8.891700199994375,0.026669805397232595,0.038199173110331025,-0.013151249241690949,0.05968898688070903,0.14239174304676822,-0.0512423340387034,-0.03688948956131385,0.05751110329621154,-0.06640198379546972,-0.1760571099762364,-0.4117109165081082,0.03905293428034174
2059,8.895757499994943,0.02697218272912575,0.03882034103781229,-0.01349910147361654,0.05952822780269461,0.14263597378500778,-0.051528384504656216,-0.03764626204599611,0.05573175399095261,-0.06623146260620545,-0.1748006161211989,-0.4133186006901329,0.04001087052179393
2060,8.900014600003487,0.027153472963540964,0.03946793359558042,-0.013704631793469027,0.059364216215826555,0.14287251470386472,-0.05181369041839647,-0.03839756233490344,0.053945576669724646,-0.06605681552307702,-0.17352024112022066,-0.4148759752283316,0.04096498032267543
2061,8.904236000002129,0.027388907813593606,0.04012577160946649,-0.01393455641495768,0.05919697594036124,0.14310133683052406,-0.052098234008885545,-0.03914328788815248,0.05215278890999243,-0.06587805928210286,-0.1722162211071734,-0.41638276956682607,0.04191516074861195
2062,8.908335300002364,0.027631203327715445,0.0407973342483634,-0.014124844811552684,0.059026531236388714,0.14332241213294328,-0.0523819975784436,-0.039883337194751574,0.050353609438878864,-0.06569521106352068,-0.17088879683516578,-0.41783872184474125,0.042861309772771215
2063,8.91243320000649,0.027852268035499752,0.04149823191254424,-0.0144147993293577,0.058852906799367825,0.14353571352470207,-0.05266496350466045,-0.040617609792410046,0.048548258095557704,-0.0655082884878208,-0.16953821361782145,-0.41924357895511094,0.043803326294234494
2064,8.918567300002906,0.02814988476394073,0.04216617120328152,-0.01460702630829408,0.05867612775557729,0.14374121486969008,-0.05294711424228911,-0.04134600628709128,0.04673695579339484,-0.06531730961169843,-0.16816472126941062,-0.42059709660188965,0.04474111015609158
2065,8.922807399998419,0.028396126856289634,0.042732241485451954,-0.014839910354712618,0.058496219657483875,0.14393889098663173,-0.05322843232512188,-0.04206842837230453,0.044919924481846576,-0.0651222929239259,-0.16676857404385376,-0.4218990393550526,0.04567456216325284
2066,8.926700099997106,0.028670998367784167,0.04336431445452635,-0.015099151113632872,0.058313208479028954,0.14412871765344765,-0.05350890036784857,-0.04278477884813058,0.043097387108123435,-0.06492325734114637,-0.16535003057261696,-0.4231491807037677,0.0466035840999725
2067,8.93129300000146,0.029095990777087497,0.04402760447025604,-0.015334489401586677,0.058127120610834505,0.144310671611451,-0.05378850106789669,-0.043494961639976265,0.04126956757862759,-0.06472022220359036,-0.16390935380151753,-0.4243473031076259,0.047528078747077075
2068,8.934997599993949,0.02937877464493875,0.04458470095058185,-0.015642740555533805,0.057937982855329626,0.1444847305693778,-0.05406721720725334,-0.04419888181705318,0.039436690720172154,-0.0645132072707165,-0.16244681092645902,-0.4254931980459123,0.04844794989889281
2069,8.939333100002841,0.029743972205818234,0.04518350635321314,-0.015834017218266067,0.05774582242179865,0.1446508732072503,-0.054345031654268475,-0.044896445610576145,0.03759898224099084,-0.06430223271677815,-0.1609626733281164,-0.4265866660649035,0.049363102379866325
2070,8.94685340000433,0.030055133571681502,0.04587019963119044,-0.016054192548585342,0.05755066692135196,0.1448090791800728,-0.05462192736543927,-0.04558756043167692,0.03575666869154665,-0.06408731912631752,-0.15945721650559108,-0.4276275168231755,0.050273442060872836
2071,8.951516400004039,0.030749908927335562,0.04713925033384488,-0.016489626949358013,0.0573525443618208,0.14495932912135867,-0.05489788738717529,-0.04627213488902868,0.033909977425148015,-0.06386848748958873,-0.15793072000905695,-0.42861556913491006,0.05117887587520651
2072,8.956561900005909,0.03111987159462971,0.0477285305354825,-0.016690965372837412,0.05715148314257701,0.14510160464648883,-0.055172894857543814,-0.04695007880617721,0.032059136558381135,-0.06364575919791146,-0.15638346737141795,-0.4295506510111831,0.05207931183424756
2073,8.96028440000373,0.03148674017811392,0.04836519162983731,-0.01689033289661116,0.0569475120492789,0.14523588835590032,-0.055446933007995,-0.04762130323857491,0.03020437493136708,-0.06341915603895593,-0.1548157460389995,-0.430432599699223,0.052974659042801076
2074,8.964318500002264,0.03182879490166304,0.049002331804170574,-0.017268174937905948,0.05674066024854436,0.14536216383810435,-0.05571998516506652,-0.048285720490313565,0.028345922067852258,-0.06318870019196089,-0.15322784730129502,-0.43126126171962537,0.053864827714102184
2075,8.967741500004195,0.03182879490166304,0.049002331804170574,-0.017268174937905948,0.056530957282552315,0.14548041567253372,-0.05599203475206714,-0.04894324413055215,0.02648400813514096,-0.06295441422288577,-0.15162006621978985,-0.4320364929015133,0.05474972918448271
2076,8.971296699994127,0.03214985711880906,0.0496497069728084,-0.017541477684867388,0.0563184330635737,0.1455906294322182,-0.05626306529073887,-0.049593789009635715,0.02461886390387884,-0.0627163210794986,-0.14999270155588504,-0.43275815841562876,0.05562927592769424
2077,8.974922499997774,0.03275343340534311,0.050955095317564196,-0.018029890380629285,0.056103117868433305,0.1456927916862871,-0.056533060402897684,-0.05023727127490168,0.022750720707696303,-0.06247444408640136,-0.14834605569794385,-0.4334261328053457,0.05650338156888316
2078,8.979905600004713,0.03275343340534311,0.050955095317564196,-0.018029890380629285,0.055885042332903805,0.14578689000229905,-0.056802003812052256,-0.05087360838617006,0.02087981040272085,-0.06222880693999403,-0.14668043458748362,-0.43404030001559424,0.05737196089821302
2079,8.983507500000997,0.03307950017911819,0.051657177304348545,-0.01829949499450731,0.05566423744603332,0.14587291294839844,-0.05706987934500048,-0.05150271913091417,0.019006365326967336,-0.06197943370337899,-0.14499614764453525,-0.4346005534196833,0.058234929884129476
2080,8.987482299999101,0.03362923482429724,0.05304716906518829,-0.018822026199212746,0.05544073454440794,0.14595085009529718,-0.05733667093340324,-0.05212452363910818,0.017130618259615156,-0.061726348801207594,-0.14329350769219412,-0.435106795844013,0.05909220568626381
2081,8.993433800002094,0.03386115488818536,0.05368987353250345,-0.019099729173454733,0.055214565306350855,0.14602069201808146,-0.05760236261533527,-0.05273894339774805,0.015252802380181544,-0.061469577014470554,-0.14157283088038564,-0.43555893959067005,0.05994370666797052
2082,8.99738200000138,0.03386115488818536,0.05368987353250345,-0.019099729173454733,0.05498576174605937,0.14608243029784265,-0.057866938536812726,-0.053345901265042225,0.013373151227600093,-0.061209143475233624,-0.1398344366088681,-0.4359569064578951,0.06078935240849488
2083,9.001065400007064,0.03386115488818536,0.05368987353250345,-0.019099729173454733,0.05475435620768144,0.14613605752313324,-0.058130382953296915,-0.05394532148426908,0.011491898659213629,-0.06094507366132044,-0.1380786474494978,-0.4363006277584158,0.06162906371476657
2084,9.004352699994342,0.034151353382658664,0.05436984959320403,-0.019384372697030677,0.054520381359333236,0.14618156729124693,-0.05839268023117428,-0.05453712969729824,0.009609278809690714,-0.06067739339094385,-0.13630578906778024,-0.4365900443356358,0.0624627626328152
2085,9.009522699998342,0.03495536168440623,0.05641179190452229,-0.020124922960607975,0.05428387018705898,0.14621895420932313,-0.058653814849212185,-0.055121252957773016,0.007725526049874983,-0.06040612881728752,-0.13451619014373142,-0.43682510657767143,0.0632903724588041
2086,9.013349300003028,0.03524086639811728,0.057070154647440786,-0.020366163062986276,0.054044855988734125,0.14624821389527573,-0.058913771399990406,-0.055697619743951286,0.005840874945576525,-0.06013130642303954,-0.13271018229207412,-0.4370057744292326,0.06411181774967874
2087,9.016770500005803,0.03565518450992741,0.05779750222302939,-0.020583999613338747,0.053803372367913445,0.14626934297854619,-0.059172534591308425,-0.05626615997120205,0.003955560216314676,-0.05985295301487948,-0.13088809998179443,-0.4371320174013408,0.06492702433342626
2088,9.02151109999977,0.03591670658339237,0.058516092400350654,-0.020877924725726332,0.053559453227625224,0.14628233910068064,-0.059430089247568645,-0.056826805004154816,0.0020698166940215567,-0.059571095717920804,-0.1290502804550834,-0.4372038145788815,0.06573591931894295
2089,9.025071700001718,0.03617639887982153,0.05922394545731838,-0.021210677652166998,0.05331313276411301,0.1462872009157311,-0.05968642031113525,-0.05737948766849897,0.0001838792817157055,-0.05928576197011055,-0.12719706364568986,-0.43722115462598826,0.06653843110550633
2090,9.029393699995126,0.03656158975568918,0.059916973910021286,-0.02145147446650983,0.05306444546052614,0.14628392809048074,-0.0599415128436688,-0.05792414226243068,-0.001702017087844819,-0.058996979516587784,-0.12532879209670988,-0.43718403578925435,0.06733448939184919
2091,9.0336427000002,0.03688683948309779,0.060619650350339435,-0.021772766434620738,0.05281342608056093,0.1462725213044923,-0.060195352027436456,-0.05846070456774458,-0.0035876374935204397,-0.05870477640400291,-0.12344581087783842,-0.43709246589877054,0.06812402518483206
2092,9.037531499998297,0.03720899386789734,0.06134331845562077,-0.022046116579796025,0.0525601096620539,0.14625298224998073,-0.060447923166597854,-0.05898911186056797,-0.005472747067149774,-0.05840918097479958,-0.12154846750210838,-0.4369464623669865,0.06890697080771187
2093,9.041919099996448,0.03763858328036426,0.0620319671560927,-0.022414416113108734,0.052304531510528766,0.14622531363150948,-0.06069921168846632,-0.05950930292173544,-0.0073571110349016314,-0.05811022186146108,-0.11963711184214297,-0.43674605218539575,0.06968325990800428
2094,9.045876999996835,0.03820363720801231,0.06284605707280397,-0.022691133956618478,0.052046727192698615,0.1461895191655103,-0.06094920314474558,-0.06002121804680221,-0.009240494758609875,-0.05780792798072275,-0.11771209604594682,-0.43649127191904263,0.0704528274649375
2095,9.05001340000308,0.038574169463577,0.06350048698014721,-0.023046805745922792,0.0517867325299251,0.14614560357962628,-0.061197883212741985,-0.0605247990556943,-0.011122663777081689,-0.05750232852775231,-0.11577377445226218,-0.43618216769885104,0.07121560979649562
2096,9.054216999997152,0.038574169463577,0.06350048698014721,-0.023046805745922792,0.05152458359163622,0.1460935726118783,-0.06144523769655241,-0.061019989301993496,-0.013003383847369812,-0.05719345297029995,-0.11382250350551604,-0.43581879521177436,0.07197154456604969
2097,9.058527300003334,0.038896955238050125,0.06423295550851654,-0.02342592394548673,0.05126031668870417,0.14603343300965468,-0.061691252528227616,-0.06150673368185519,-0.014882420985999218,-0.05688133104281963,-0.1118586416703843,-0.4354012196887674,0.07272057078857457
2098,9.062636000002383,0.03970045332856099,0.06586058741922793,-0.024010471153379256,0.05099396836678467,0.14596519252852427,-0.0619359137689107,-0.061984978642557295,-0.01675954151013881,-0.056565992740563675,-0.10988254934599909,-0.4349295158905815,0.07346262883644991
2099,9.066724000003887,0.03999096481010616,0.06669378302049739,-0.02443382408622157,0.05072557539961934,0.14588885993087367,-0.062179207609950264,-0.06245467219067869,-0.018634512078708663,-0.056247468313652446,-0.10789458877982486,-0.43440376809138387,0.07419766044484417
2100,9.07079139999405,0.04044986591593061,0.06757160358315706,-0.024775680647659813,0.05045517478230288,0.14580444498436898,-0.06242112037398791,-0.06291576389990558,-0.02050709973341344,-0.055925788261120955,-0.10589512398122926,-0.433824070060203,0.07492560871668048
2101,9.075016000002506,0.0408333689634083,0.06841515486267163,-0.025123586128748904,0.05018280372451691,0.1457119584602419,-0.06266163851602,-0.06336820491846462,-0.022377071939692485,-0.05560098332494412,-0.1038845206347756,-0.43319052504020417,0.07564641812718371
2102,9.078670600007172,0.0408333689634083,0.06841515486267163,-0.025123586128748904,0.049908499643731764,0.14561141213139953,-0.0629007486244335,-0.06381194797618202,-0.024244196627577375,-0.05527308448404232,-0.10186314601326349,-0.4325032457258002,0.07636003452800834
2103,9.08333219999622,0.04114684215186509,0.06927064167446786,-0.025513990533619683,0.04963230015837782,0.14550281877035898,-0.06313843742201576,-0.06424694739116742,-0.026108242232447443,-0.0549421229482694,-0.09983136889054404,-0.4317623542376024,0.0770664051509464
2104,9.088231899993843,0.04193069443308769,0.07106113586653524,-0.02631636802917055,0.049354243080987806,0.14538619214700765,-0.06337469176693819,-0.06467315907612134,-0.027968977735673983,-0.05460813015238502,-0.09778955945413702,-0.4309679820952155,0.07776547861121544
2105,9.092582900004343,0.042149998124011545,0.07197297159517706,-0.026720342706602857,0.049074366411311486,0.14526154702618987,-0.0636094986537139,-0.065090540544265,-0.02982617270514358,-0.05427113775001293,-0.0957380892176765,-0.4301202701878832,0.07845720491032564
2106,9.09631769999396,0.04234684225611564,0.07280939551574864,-0.027313071296780476,0.04879270832940439,0.14512889916512073,-0.06384284521412954,-0.06549905091489225,-0.031679597335651205,-0.053931177607587415,-0.0936773309332117,-0.4292193687429933,0.07914153543852614
2107,9.100038100004896,0.04259775034102876,0.07371982928527859,-0.027756622134389872,0.04850930718869233,0.1449882653106279,-0.06407471871815117,-0.06589865091854365,-0.033529022489153536,-0.05358828179828975,-0.09160765850338935,-0.4282654372924497,0.07981842297683119
2108,9.10422639999888,0.042830340197135705,0.07456178103742789,-0.02820573143836056,0.0482242015090134,0.14483966319622196,-0.06430510657480432,-0.06628930290180146,-0.03537421973487328,-0.053242482595976685,-0.08952944689354426,-0.4272586446369194,0.08048782169862671
2109,9.10832980000123,0.0429838850018083,0.07518678672536487,-0.02867568669216633,0.04793742996963901,0.14468311153899588,-0.06453399633302806,-0.06667097083170558,-0.037214961389245266,-0.05289381246910281,-0.08744307204372455,-0.4261991688079659,0.08114968717085846
2110,9.11243249999825,0.04332415241224927,0.07620828091364826,-0.02898949930626961,0.047649031402275395,0.14451863003635362,-0.0647613756825026,-0.06704362029978975,-0.03905102055569505,-0.05254230407463848,-0.08534891078067797,-0.4250871970280767,0.08180397635480288
2111,9.116053100005956,0.04332415241224927,0.07620828091364826,-0.02898949930626961,0.04735904478404746,0.14434623936256866,-0.0649872324544505,-0.06740721852573812,-0.04088217116424085,-0.05218799025198523,-0.08324734072982597,-0.42392292566859685,0.08245064760642185
2112,9.120355199993355,0.04358633801675624,0.07708929251009912,-0.029381909853859033,0.04706750923046678,0.14416596116517214,-0.0652115546224116,-0.06776173436066224,-0.04270818801090997,-0.051830904016890576,-0.08113874022725222,-0.42270656020557773,0.08308966067630211
2113,9.125119799995446,0.04419829552246382,0.07878950771582045,-0.03011133218588305,0.04677446398838509,0.14397781806117105,-0.06543433030299156,-0.06810713828999887,-0.04452884679696057,-0.05147107855536424,-0.0790234882317318,-0.4214383151735529,0.08372097670918072
2114,9.129794000007678,0.04450418917866533,0.07965557525543365,-0.030474230631502928,0.04647994842893511,0.1437818336330959,-0.06565554775658385,-0.06844340243602913,-0.04634392416789998,-0.05110854721759755,-0.07690196423682746,-0.42011841411725226,0.08434455824305769
2115,9.133383499996851,0.04450418917866533,0.07965557525543365,-0.030474230631502928,0.04618400204045998,0.14357803242487918,-0.06587519538806529,-0.06877050056001914,-0.048153197752290655,-0.05074334351188798,-0.07477454818307884,-0.4187470895412665,0.08496036920789708
2116,9.137545699995826,0.04479222694745525,0.08051511486290033,-0.030881587702716373,0.045886664421432966,0.1433664399375651,-0.06609326174746506,-0.06908840806398285,-0.04995644620033522,-0.050375501098570544,-0.0726416203703108,-0.417324582857677,0.085568374923918
2117,9.14564230000542,0.04571819176872955,0.08299304015421004,-0.03207432942600791,0.04558797527336927,0.1431470826248519,-0.06630973553060703,-0.06939710199206721,-0.051753449222231664,-0.05000505378395784,-0.07050356137008636,-0.41585114433166354,0.08616854209947743
2118,9.150585900002625,0.04603515553824112,0.08392806252854287,-0.032428591818223905,0.04528797439373165,0.14291998788846794,-0.06652460557972517,-0.06969656103156006,-0.05354398762628984,-0.0496320355142905,-0.06836075193832966,-0.4143270330251038,0.08676083882854654
2119,9.155430600003456,0.04637179664840969,0.08489560127109683,-0.03277320149141385,0.0449867016688317,0.14268518407338246,-0.06673786088405245,-0.06998676551352144,-0.055327843356800445,-0.049256480369699686,-0.06621357292814475,-0.4127525167381789,0.08734523458778261
2120,9.160428100003628,0.04674055191802358,0.08589225970436215,-0.03311525932171462,0.044684197066728285,0.14244270046285196,-0.06694949058038291,-0.07026769741303922,-0.057104799531647814,-0.048878422558183574,-0.06406240520285485,-0.4111278719490009,0.08792170023319908
2121,9.164649300000749,0.04699186434985315,0.08683852526361242,-0.03349015744656198,0.044380500630125,0.1421925672733029,-0.06715948395360723,-0.07053934034910986,-0.05887464047965781,-0.04849789640959955,-0.06190762954928717,-0.40945338375127877,0.08849020799643642
2122,9.16823110000405,0.04699186434985315,0.08683852526361242,-0.03349015744656198,0.04407565246926802,0.1419348156490522,-0.06736783043722232,-0.0708016795841454,-0.0606371517776722,-0.048114936369674,-0.05974962659132854,-0.4077293457900395,0.08905073148063652
2123,9.17202250000264,0.04699186434985315,0.08683852526361242,-0.03349015744656198,0.04376969275484607,0.14166947765686572,-0.06757451961381446,-0.07105470202310765,-0.062392120287341236,-0.04772957699403123,-0.057588776703776934,-0.40595606019542,0.08960324565592352
2124,9.175293099993723,0.04730213431231124,0.08785790249278735,-0.03381526251808523,0.043462661710893975,0.14139658628035648,-0.06777954121551631,-0.07129839621227076,-0.06413933419162568,-0.047341852942243336,-0.05542545992651381,-0.40413383751454524,0.0901477268544945
2125,9.179579599993303,0.04804067823367638,0.09078538556229719,-0.03485553631185648,0.043154599607701224,0.1411161754142236,-0.06798288512443836,-0.07153275233761361,-0.06587858303099972,-0.04695179897190285,-0.053260055879021634,-0.40226299664150983,0.0906841527653232
2126,9.18532370000321,0.04823637667739238,0.09175658230266182,-0.03519267787087591,0.042845546754727286,0.14082827985833307,-0.06818454137307482,-0.0717577622228434,-0.0676096577393466,-0.04655944993271995,-0.0510929436752705,-0.4003438647454837,0.09121250242847984
2127,9.189843100000871,0.04837323202806234,0.09273049169343102,-0.03551457989281919,0.04253554349352525,0.14053293531164082,-0.06838450014468406,-0.0719734193270523,-0.06933235067953901,-0.04616484076064587,-0.0489245018389981,-0.3983767771969615,0.09173275622907079
2128,9.194180599995889,0.048254653659024246,0.0938478914040213,-0.035881021668013054,0.04222463019067532,0.14023017836596016,-0.06858275177364356,-0.07217971874200907,-0.07104645567869601,-0.045768006472024114,-0.046755108219406476,-0.39636207749217545,0.09224489589080181
2129,9.197992500005055,0.048284735652635274,0.09478068337629811,-0.03623183852502001,0.041912847230729966,0.13992004649957462,-0.0687792867457801,-0.07237665718908716,-0.07275176806310872,-0.04536898215777117,-0.04458513990729943,-0.3943001171756928,0.09274890446916868
2130,9.201828200006275,0.04860574356183919,0.09590288896004448,-0.036644513638187666,0.04160023500917254,0.13960257807069787,-0.06897409569867471,-0.07256423301583095,-0.07444808469282668,-0.04496780297758853,-0.04241497315168427,-0.39219125576121905,0.09324476634427922
2131,9.205493700006627,0.04860574356183919,0.09590288896004448,-0.036644513638187666,0.041286833925390835,0.13927781231078168,-0.06916716942194306,-0.07274244619216212,-0.0761352039958977,-0.04456450415420788,-0.04024498327686114,-0.39003586065062845,0.09373246721331105
2132,9.210710300001663,0.04866503529107922,0.09669721904024312,-0.03714331831739155,0.04097268437566716,0.13894578931767387,-0.06935849885749121,-0.07291129830622811,-0.07781292600225383,-0.04415912096767126,-0.038075544600023145,-0.3878343070512444,0.09421199408260948
2133,9.214369900000747,0.04866503529107922,0.09669721904024312,-0.03714331831739155,0.04065782674618647,0.13860655004862804,-0.06954807509974675,-0.07307079255989515,-0.07948105237723553,-0.04375168874964793,-0.0359070303493898,-0.38558697789139246,0.09468333525942996
2134,9.220121699996524,0.0490595887893856,0.10068863792664752,-0.03853562014524089,0.040342301406064235,0.13826013631316703,-0.06973588939586553,-0.07322093376388776,-0.08113938645474647,-0.04334224287778959,-0.033739812582896406,-0.38329426373425035,0.09514648034332952
2135,9.223815899997136,0.0490595887893856,0.10068863792664752,-0.03853562014524089,0.04002614870039561,0.13790659076580253,-0.06992193314591405,-0.07336172833257726,-0.08278773327003223,-0.04293081877012544,-0.03157426210746149,-0.3809565626900176,0.09560142021721221
2136,9.22722359999898,0.0490595887893856,0.10068863792664752,-0.03853562014524089,0.03970940894332759,0.13754595689861315,-0.0701061979030281,-0.07349318427842168,-0.08442589959207615,-0.04251745187949881,-0.029410748398854398,-0.3785742803264269,0.09604814703803305
2137,9.231197999994038,0.04900786547173973,0.10171565768289582,-0.03890856559417876,0.039392122411155854,0.13717827903368277,-0.0702886753735475,-0.07361531120605962,-0.08605369395560503,-0.0421021776880468,-0.027249639522184545,-0.3761478295776216,0.0964866542271657
2138,9.235062699997798,0.04900786547173973,0.10171565768289582,-0.03890856559417876,0.039074329335447695,0.13680360231540187,-0.07046935741712698,-0.07372812030606057,-0.08767092669269759,-0.041685031701724454,-0.025091302053033875,-0.37367763065142184,0.09691693646043895
2139,9.23873120000644,0.04917646437859175,0.10373239220394095,-0.039539227594490314,0.03875606989619283,0.13642197270263492,-0.07064823604682396,-0.0738316243483347,-0.08927740996398845,-0.04126604944487512,-0.022936100999253584,-0.3711641109350052,0.09733898965784749
2140,9.242159800007355,0.04950131575728669,0.10575908459894812,-0.04016492373265861,0.03843738421498358,0.13603343696075493,-0.07082530342916307,-0.0739258376752051,-0.0908729577894609,-0.0408452664548484,-0.020784399723445705,-0.36860770489902667,0.09775281097294265
2141,9.245748700006516,0.04951860211862933,0.10675504433565332,-0.04058542752612894,0.038118312348226026,0.13563804265354693,-0.07100055188417759,-0.07401077619414598,-0.09245738607882202,-0.04042271827666726,-0.01863655986614995,-0.36600885400020544,0.0981583987819084
2142,9.24925730000541,0.04951860211862933,0.10675504433565332,-0.04058542752612894,0.03779889428038381,0.13523583813498255,-0.07117397388542754,-0.0740864573701899,-0.09403051266145368,-0.03999844045774576,-0.01649294126975587,-0.363368006582405,0.09855575267232804
2143,9.252663799998118,0.04951860211862933,0.10675504433565332,-0.04058542752612894,0.037479169917255764,0.13482687254086828,-0.07134556205999476,-0.07415290021800668,-0.09559215731593299,-0.0395724685426588,-0.014353901903160127,-0.36068561777623437,0.0989448734316479
2144,9.25609500000428,0.04951860211862933,0.10675504433565332,-0.04058542752612894,0.0371591790792888,0.13441119578036884,-0.07151530918845547,-0.0742101252936574,-0.09714214179911623,-0.03914483806796521,-0.012219797787188453,-0.3579621493971986,0.09932576303534335
2145,9.259392399995704,0.04951860211862933,0.10675504433565332,-0.04058542752612894,0.03683896149492734,0.1339888585274076,-0.07168320820483065,-0.07425815468602662,-0.09868028987478059,-0.038715584557085306,-0.010090982920801276,-0.355198069842425,0.09969842463479298
2146,9.262849499995356,0.04951860211862933,0.10675504433565332,-0.04058542752612894,0.03651855679400058,0.1335599122119462,-0.07184925219651447,-0.07429701200793587,-0.10020642734181709,-0.038284743515234025,-0.007967809208101754,-0.35239385398599316,0.10006286254486724
2147,9.266631399994369,0.04977764768299578,0.10781360957378933,-0.0408868745295182,0.036198004501148864,0.13312440901114503,-0.07201343440418084,-0.0743267223869425,-0.10172038206196894,-0.037852350424410736,-0.005850626386164564,-0.349549983072895,0.10041908223123816
2148,9.271273999998812,0.050287900228536325,0.11226630233622827,-0.04283823065348092,0.0358773440292905,0.13268240184040675,-0.07217574822166808,-0.07434731245582742,-0.10322198398710893,-0.037418440738446836,-0.0037397819537033595,-0.346666944611655,0.1007670902974166
2149,9.276827299996512,0.050287900228536325,0.11226630233622827,-0.04283823065348092,0.035556614673130565,0.13223394434430455,-0.0723361871958419,-0.0743588103427758,-0.1047110651860502,-0.03698304987811244,-0.0016356211005944736,-0.3437452322656404,0.10110689447152324
2150,9.280873800002157,0.050355088271820905,0.1130536139364689,-0.04329975938628399,0.03523585560271305,0.13177909088739614,-0.07249474502643691,-0.07436124566125447,-0.10618745987088522,-0.036546213226283215,0.00046151336172586756,-0.3407853457430902,0.10143850359279988
2151,9.28782990000036,0.0505704734596593,0.11531342356392972,-0.04452362645597329,0.0349151058570178,0.13131789654492543,-0.07265141556587656,-0.07435464949958985,-0.1076510044228477,-0.0361079661231683,0.002551281068974023,-0.33778779068589515,0.10176192759786704
2152,9.291829299996609,0.05058483874094904,0.1161159343326636,-0.04495665177275863,0.034594404337603656,0.13085041709341472,-0.07280619281907189,-0.07433905441025068,-0.1091015374176921,-0.035668343861600255,0.004633344171824673,-0.33475307855716047,0.10207717750673495
2153,9.297412600004463,0.050620657062400334,0.11676621720460358,-0.04537987574674852,0.0342737898022989,0.13037670900114953,-0.07295907094319959,-0.07431449439883898,-0.11053889965058568,-0.03522738168238806,0.0067073674027937815,-0.3316817265275815,0.10238426540857506
2154,9.300991600000998,0.05070562852749896,0.1175571534669694,-0.04567572662251563,0.03395330085894021,0.1298968294185572,-0.07311004424746001,-0.07428100491279348,-0.11196293416050788,-0.034785114769733956,0.008773018142183162,-0.32857425736066326,0.10268320444725881
2155,9.305120200006058,0.05062718542294496,0.11817940485989444,-0.04611129969895211,0.03363297595916118,0.12941083616848117,-0.07325910719281464,-0.07423862282980936,-0.11337348625415215,-0.03434157824671505,0.010829966483071414,-0.3254311992968164,0.10297400880667093
2156,9.309471700005815,0.05057034562005443,0.11884749278206273,-0.04648429431148632,0.03331285339223143,0.1289187877363527,-0.07340625439170331,-0.07418738644597862,-0.11477040352932581,-0.03389680717083078,0.012877885295336417,-0.32225308593636043,0.10325669369580426
2157,9.312949600003776,0.050586077077642906,0.11954374944879773,-0.04679095315017316,0.032992971278947424,0.12842074326026343,-0.07355148060774153,-0.07412733546365499,-0.11615353589784332,-0.033450836529617195,0.014916450288694904,-0.3190404561214652,0.10353127533364352
2158,9.316570299997691,0.050586077077642906,0.11954374944879773,-0.04679095315017316,0.032673367565576254,0.12791676252094053,-0.07369478075539834,-0.0740585109790478,-0.11752273560790809,-0.03300370123632868,0.016945340074745133,-0.31579385381706326,0.10379777093384486
2159,9.320311699993908,0.050586077077642906,0.11954374944879773,-0.04679095315017316,0.032354080017853976,0.1274069059316265,-0.07383614989965454,-0.07398095546954869,-0.11887785726597838,-0.03255543612568803,0.01896423622799898,-0.3125138279907658,0.10405619868921866
2160,9.324909300004949,0.050501018816379674,0.12016248136947996,-0.047112784249374484,0.03203514621503939,0.12689123452786608,-0.07397558325564155,-0.07389471278079592,-0.12021875785811395,-0.03210607594970588,0.020972823345890197,-0.3092009324918142,0.10430657775602327
2161,9.328485000005458,0.050501018816379674,0.12016248136947996,-0.047112784249374484,0.031716603544024446,0.12636980995720323,-0.07411307618826174,-0.07379982811348032,-0.12154529677079962,-0.0316556553735704,0.022970789107746067,-0.305855725929102,0.10454892823807697
2162,9.333493099999032,0.05052939582638479,0.122451831554231,-0.04773261321924777,0.031398489193502466,0.12584269446879098,-0.07424862421179054,-0.07369634800989726,-0.1228573358112415,-0.031204208971607948,0.024957824332710182,-0.3024787715483022,0.1047832711706956
2163,9.338102299996535,0.050447239162940596,0.12382703320192119,-0.04818766340099282,0.031080840148195336,0.12530995090291555,-0.0743822229894609,-0.07358432034024842,-0.1241547392271319,-0.030751771223315384,0.026933623036604456,-0.2990706371081331,0.10500962850446381
2164,9.341700999997556,0.050447239162940596,0.12382703320192119,-0.04818766340099282,0.030763693183140862,0.12477164268043707,-0.07451386833303072,-0.07346379428869816,-0.1254373737258795,-0.030298376509464767,0.028897882487719025,-0.2956318947557972,0.10522802308884772
2165,9.345806500001345,0.050344514085173195,0.12449632857706726,-0.04843463851327924,0.03044708485804119,0.12422783379214873,-0.07464355620233348,-0.07333482033918905,-0.1267051084933019,-0.029844059108281,0.030850303261519108,-0.2921631209016292,0.10543847865565652
2166,9.351802999997744,0.05027262711423809,0.12588512280779007,-0.04880184607361811,0.030131051511673418,0.12367858878805654,-0.07477128270481218,-0.07319745026102151,-0.12795781521177707,-0.029388853191693067,0.032790589294258245,-0.28866489609298546,0.1056410198023608
2167,9.35595860000467,0.050136371825670614,0.12645220278262265,-0.049070072520843534,0.02981562925636332,0.12312397276658218,-0.07489704409503656,-0.07305173709420273,-0.1291953680778492,-0.028932792821659545,0.034718447935487645,-0.28513780488740953,0.1058356719752752
2168,9.360234499996295,0.05001151019770204,0.12707771021822914,-0.04935922264003115,0.029500853972523226,0.12256405136369129,-0.07502083677420404,-0.07289773513456946,-0.13041764381928556,-0.02847591194656888,0.036633589999451883,-0.28158243572511005,0.10602246145261308
2169,9.364316599996528,0.049895491011428164,0.12766557004556264,-0.04967830536942398,0.029186761303254972,0.12199889074194908,-0.07514265728962521,-0.07273549991868937,-0.1316245217115801,-0.028018244397714685,0.03853572981536191,-0.27799938080078423,0.10620141532742171
2170,9.36868919999688,0.04980501427498367,0.12814337092859623,-0.04995929742971306,0.028873386649018788,0.121428557579506,-0.07526250233419408,-0.07256508820854628,-0.13281588359390167,-0.02755982388584683,0.040424585276536536,-0.2743892359348236,0.10637256149040526
2171,9.372811099994578,0.04992557445573698,0.12878215489433562,-0.05015015405609864,0.02856076516236901,0.12085311905901581,-0.07538036874584318,-0.07238655797601377,-0.13399161388448366,-0.02710068399779863,0.04229987788840422,-0.2707526004439358,0.10653592861264392
2172,9.376973200007342,0.049877614614099265,0.12940346850960366,-0.05043002113165452,0.028248931742757603,0.12027264285648823,-0.07549625350698404,-0.07219996838712216,-0.13515159959545295,-0.026640858193190623,0.04416133281535714,-0.26709007701121884,0.10669154612821674
2173,9.380949600003078,0.049877614614099265,0.12940346850960366,-0.05043002113165452,0.027937921031406358,0.11968719713007855,-0.0756101537439333,-0.07200537978612384,-0.1362957303470965,-0.02618037980121136,0.04600867892645051,-0.26340227155572477,0.10683944421673588
2174,9.38453880000452,0.04969846570716542,0.1299064937380227,-0.0507665266921147,0.027627767406248623,0.11909685050881672,-0.07572206672632505,-0.07180285367936243,-0.1374238983815636,-0.025719282017475437,0.0478416488399402,-0.2596897931015465,0.10697965378579993
2175,9.387992300005862,0.04921210852227241,0.13065598550904473,-0.05152781355595603,0.02731850497694142,0.11850167208127867,-0.07583198986650945,-0.07159245271895062,-0.13853599857600257,-0.025257597900959126,0.049659978966652446,-0.2559532536464652,0.10711220645337445
2176,9.391618099994956,0.049057240828761985,0.13105874863914066,-0.05186828257864549,0.0270101675799488,0.11790173138420258,-0.07593992071893796,-0.07137424068626276,-0.13963192845512976,-0.024795360371013733,0.05146340955217959,-0.25219326803019226,0.10723713453010751
2177,9.395550200002615,0.049057240828761985,0.13105874863914066,-0.05186828257864549,0.026702788773697236,0.1172970983910519,-0.07604585697953478,-0.07114828247524718,-0.14071158820322952,-0.024332602204456846,0.05325168471789624,-0.24841045380224408,0.10735447100158879
2178,9.399871200002964,0.04881765358109156,0.13142760181713017,-0.05226176396122949,0.026396401833803887,0.11668784350052729,-0.07614979648505499,-0.07091464407556351,-0.14177488067558244,-0.0238693560327417,0.05502455250079105,-0.24460543108948513,0.10746424951056056
2179,9.404077600003802,0.04830894322044022,0.1320909570651778,-0.05306324707529732,0.02609103974837838,0.11607403752502933,-0.07625173721242975,-0.07067339255554997,-0.1428217114093207,-0.02340565433920479,0.05678176489210932,-0.2407788224633743,0.10756650433908846
2180,9.408235199996852,0.04811480305214072,0.13239513685431809,-0.05338726198990341,0.025786735213398977,0.1154557516790749,-0.07635167727809955,-0.070424596045026,-0.14385198863370824,-0.022941529456391867,0.05852307787480276,-0.2369312528069506,0.10766127039069943
2181,9.412335999993957,0.04783515421097604,0.13264582845739084,-0.053750146064850325,0.025483520628163725,0.11483305756766923,-0.07644961493733556,-0.07016832371793513,-0.14486562327984495,-0.022477013563462326,0.06024825145978249,-0.2330633491815936,0.10774858317249454
2182,9.416710399993462,0.0475522619431307,0.13287909690352645,-0.05412714919009026,0.025181428090817352,0.11420602717463602,-0.07654554858354971,-0.069904645774833,-0.145862528989794,-0.022012138683672126,0.061957049720972227,-0.229175740693595,0.10782847877724429
2183,9.420855699994718,0.0475522619431307,0.13287909690352645,-0.05412714919009026,0.024880489393954635,0.11357473285090827,-0.07663947674759398,-0.06963363342522606,-0.14684262212513122,-0.02154693668193537,0.06364924082915853,-0.22526905836057787,0.107900993865474
2184,9.424882499995874,0.04730637025218667,0.13310774546901194,-0.054468467860306125,0.02458073602030081,0.1129392473027822,-0.07673139809704962,-0.06935535886976556,-0.14780582177491688,-0.021081439262464526,0.06532459708463587,-0.22134393497779944,0.10796616564754645
