,time,x,y,z,vx,vy,vz,ax,ay,az,jx,jy,jz
4387,18.95151710000937,0.0037217951071365496,-0.03184445778885039,0.025256663468446863,-0.00944197606210245,-0.01628487637722504,0.0042422874421079535,0.008414617360475132,-0.01233007836172059,0.013954562868382066,0.10280946228305417,0.12308826479474329,-0.03802664322996646
4388,18.95629060000647,0.0037021483894511755,-0.03187303913115627,0.025223347240579095,-0.009404759734450222,-0.016336906159297126,0.004302096834731219,0.008858925754779872,-0.011795742831817573,0.013787695907497398,0.10332983094378245,0.12484755691732309,-0.0393957905881855
4389,18.95990450000681,0.003670122211560202,-0.031903770287846314,0.025200999526598617,-0.009365623357794806,-0.016386616520849523,0.004361174246849765,0.00930545649785377,-0.011253832878099381,0.013614911118040453,0.10384034106021739,0.1266024167577405,-0.04077234275275192
4390,18.963563500001328,0.003670122211560202,-0.031903770287846314,0.025200999526598617,-0.00932455744073332,-0.016433974847087814,0.004419494100120992,0.009754166751737221,-0.010704368194147528,0.013436176937355594,0.10434084200005944,0.12835256437917114,-0.04215614962753795
4391,18.966877200000454,0.003670122211560202,-0.031903770287846314,0.025200999526598617,-0.009281552677953192,-0.016478948610629218,0.004477030681596074,0.01020501303061069,-0.010147369681829483,0.013251462454763467,0.10483118392721297,0.13009771902013903,-0.043547058944681846
4392,18.9702002999984,0.003670122211560202,-0.031903770287846314,0.025200999526598617,-0.009236599953020794,-0.016521505376724824,0.004533758146551525,0.01065795120432048,-0.009582859454769435,0.013060737420870642,0.10531121783641097,0.13183759913509085,-0.04494491627106336
4393,18.973952100001043,0.003509769814322932,-0.03204120083512405,0.02521771020485855,-0.009189690341154506,-0.01656161280849639,0.004589650521360792,0.011112936502053956,-0.009010860841643606,0.012863972256849604,0.10578079558784943,0.13357192243535662,-0.04634956501520405
4394,18.97768160000851,0.003527494723983552,-0.0320106903980884,0.025139313843518196,-0.009140815111981587,-0.01659923867218681,0.004644681706405748,0.01156992351616428,-0.008431398389298446,0.012661138063687351,0.10623976994182396,0.13530040593049206,-0.047760846434596375
4395,18.98380060000636,0.003517700960199657,-0.032034153877688445,0.025099611780859787,-0.009089965732278162,-0.01663435084242345,0.0046988254790279625,0.012028866206144576,-0.007844497865690074,0.012452206631400784,0.10668799459336141,0.13702276596999693,-0.04917859964346581
4396,18.98858730000211,0.003452445957521005,-0.032065478887221575,0.025040692242939255,-0.009037133868691701,-0.0166669173074936,0.004752055496519619,0.012489717902751468,-0.007250186262643364,0.01223715044821707,0.10712532420683957,0.13873871828540393,-0.05060266162096981
4397,18.99294560000999,0.0034133278997470185,-0.03208221208373678,0.025017123977926606,-0.00898231139044539,-0.016696906174631272,0.004804345299153922,0.012952431312277898,-0.006648491798429051,0.012015942709717165,0.10755161445058793,0.1404479780327318,-0.052032867219837735
4398,18.997713800010388,0.0034133278997470185,-0.03208221208373678,0.025017123977926606,-0.00892549037202369,-0.016724285675314615,0.004855668313254864,0.013416958520975075,-0.006039443920157316,0.011788557327940624,0.1079667220314625,0.14215025983529705,-0.05346904917545564
4399,19.00201660000312,0.003371420098738056,-0.03210110897475443,0.02498941393260293,-0.008866663095838468,-0.016749024170573105,0.004905997854306155,0.013883250999623455,-0.0054230733059863635,0.011554968940449797,0.10837050472938664,0.14384527782687942,-0.054911038115400004
4400,19.00577709999925,0.0033004510839146446,-0.03214240692964394,0.024946603505331878,-0.008805822054875009,-0.016771090156303712,0.004955307130099143,0.014351259608252568,-0.004799411867144463,0.0113151529193515,0.10876282143185093,0.14553274569523472,-0.056358662569424324
4401,19.00970530000632,0.0032625785799991446,-0.032149523016262484,0.024924659163232547,-0.008742959955317332,-0.01679045226859532,0.00500356924391954,0.014820934601009453,-0.004168492749763996,0.01106908538027425,0.10914353216836459,0.14721237672594967,-0.057811748979902544
4402,19.014319200010505,0.0032317073215596933,-0.0321787642100297,0.02490260909207171,-0.00867806971915215,-0.016807079289060688,0.005050757197772745,0.01529222563117548,-0.0035303503365260447,0.010816743191299145,0.1095124981448515,0.1488838838466326,-0.05927012171273291
4403,19.01844310000888,0.00318451240347756,-0.03220267054639036,0.024884163164374716,-0.008611144486750835,-0.0168209401501752,0.005096843895647572,0.015765081756331283,-0.002885020248114071,0.010558103981842468,0.1098695817779835,0.1505469796714345,-0.06073360306870646
4404,19.022185000008903,0.0031431250959821026,-0.03223814707733474,0.024871794373707505,-0.008542177619428763,-0.01683200394062158,0.005141802146818161,0.016239451443669506,-0.0022325393444752656,0.01029314615148803,0.11021464672944352,0.15220137654589355,-0.06220201329534357
4405,19.026423500006786,0.0031076959818940766,-0.03226859790147829,0.024862048704061047,-0.008471162701981396,-0.01684023991063958,0.005185604669183843,0.016715282575455025,-0.0015729457258881975,0.010021848878767238,0.1105475579401112,0.1538467865920965,-0.06367517059920211
4406,19.032294500007996,0.003063291241600836,-0.03230893639137107,0.024861455877693204,-0.008398093545196455,-0.016845617477379997,0.005228224092646747,0.017192522454632243,-0.0009062787338354108,0.009744192129884853,0.11086818166416323,0.15548292175415032,-0.06515289115866055
4407,19.03632369999832,0.0030205288163470327,-0.032348563882637724,0.024871234007859608,-0.008322964188341555,-0.016848106230262106,0.005269632962526906,0.017671117810579055,-0.00023257895167965527,0.00946015666738852,0.11117638550308094,0.15710949384395662,-0.06663498913717938
4408,19.040842700007488,0.0029781136368819605,-0.03238173902911367,0.024870409370672107,-0.008245768901626623,-0.016847675936333784,0.005309803743014608,0.01815101480500706,0.0004481117948575261,0.009169724058780067,0.11147203843955852,0.15872621458728134,-0.0681212766970439
4409,19.045165800009272,0.0029293585038541693,-0.03241395139190937,0.024882770092213173,-0.008166502188640451,-0.016844296545633353,0.0053487088206597535,0.018632159038007516,0.001135750437416106,0.008872876685066554,0.11175501087130399,0.16033279567011363,-0.06961156401359139
4410,19.04915869999968,0.002874924656187865,-0.03245934805497637,0.024881043837418567,-0.008085158788760755,-0.01683793819655227,0.005386320507897942,0.019114495554242602,0.0018302926649180035,0.008569597749249092,0.11202517464472568,0.16192894878530695,-0.071105659289926
4411,19.05339260000619,0.002822337053208784,-0.03251775042774808,0.024890387632499365,-0.008001733679537078,-0.01682857122119781,0.005422611046613056,0.019597968849281514,0.0025316929236888297,0.008259871284747334,0.11228240308849763,0.16351438567949617,-0.07260336877212466
4412,19.057325200003103,0.0027639319159116675,-0.03256538674179283,0.024886648900241948,-0.00791622207904596,-0.01681616615075487,0.005457552611736057,0.020082522876080786,0.003239904417782113,0.007943682163757614,0.11252657104699665,0.16508881820028323,-0.07410449676493733
4413,19.0609381999966,0.0027225850623625782,-0.03260340183776165,0.0248935725749918,-0.007828619448217736,-0.016800693720845996,0.00549111731487969,0.020568101051608275,0.003954879109507143,0.007621016105542612,0.11275755491360367,0.1666519583436842,-0.07560884564798444
4414,19.066342600010103,0.002676878562176987,-0.03264004063493811,0.02491069090711117,-0.0077389214931343825,-0.016782124876888748,0.0055232772080088,0.021054646263610203,0.004676567720161515,0.007291859684650482,0.11297523266386195,0.16820351830183017,-0.0771162158924543
4415,19.069850200001383,0.0026257154283911605,-0.032685588604485595,0.024936618767990408,-0.007647124167297728,-0.016760430779449425,0.005554004287145929,0.021542100877520592,0.0054049197309694735,0.006956200339061345,0.11317948388848437,0.16974321051091443,-0.07862640607830332
4416,19.074244400006137,0.0025875575925908374,-0.03272147762866862,0.02495363866182151,-0.00755322367386738,-0.016735582809592225,0.005583270496111879,0.022030406743512334,0.006139883384227093,0.0066140263782591,0.11337018982620267,0.17127074769937845,-0.08013921291196109
4417,19.078045300004305,0.002540320768956427,-0.03277297680326719,0.024970345729995524,-0.007457216467867763,-0.016707552574222934,0.00561104773030091,0.02251950520368914,0.006881405684655342,0.00626532699122642,0.11354723339645074,0.17278584293632873,-0.08165443124454265
4418,19.08239820000017,0.00249259500998097,-0.032843270010637395,0.024970044322506796,-0.007359099258363623,-0.01667631191142624,0.005637307840490235,0.02300933709941771,0.007629432400961977,0.00591009225436084,0.11371049923187478,0.17428820968017664,-0.08317185409056983
4419,19.08885260000534,0.002407895073505492,-0.03291937303473528,0.02496565448715401,-0.007258869010603406,-0.01664183289579588,0.005662022636683504,0.023499842778799376,0.008383908067613209,0.005548313139309793,0.11385987371066328,0.17577756182749296,-0.08469127264720357
4420,19.093240200003493,0.0023701204137869117,-0.03295950428666596,0.024970086330155798,-0.007156522948129902,-0.0166040878437566,0.005685163891987906,0.023990962104280367,0.009144775986816006,0.00517998152072246,0.11399524498869006,0.17725361376206925,-0.08621247631398857
4421,19.097247600002447,0.0023307402115605594,-0.032994251104232195,0.024967378323181987,-0.007052058554857563,-0.016563049318876984,0.00570670334652452,0.024482634460399867,0.009911978230711901,0.00480509018391625,0.11411650303146269,0.17871608040417766,-0.08773525271311249
4422,19.10176190000493,0.002292058416250095,-0.03303332252688714,0.024968080575037445,-0.0069454735771159225,-0.01651869013717231,0.0057266127113715145,0.024974798761675115,0.010685455643783167,0.004423632832455758,0.11422353964587006,0.18016467726002128,-0.08925938771018078
4423,19.10563340000226,0.002258044983945593,-0.03307080464870922,0.024973599775683794,-0.006836766025658554,-0.01647098337239637,0.005744863672539814,0.0254673934606227,0.011465147845472125,0.004035604095642055,0.11431624851172165,0.18159912047136603,-0.09078466543550932
4424,19.109226900007343,0.002258044983945593,-0.03307080464870922,0.024973599775683794,-0.006725934177636996,-0.016419902361321348,0.0057614278949807895,0.025960356555915137,0.012250993233014287,0.0036409995359101225,0.11439452521307207,0.183019126865345,-0.09231086830593595
4425,19.11465810000664,0.002104500689918834,-0.03320125559613965,0.024987816214717455,-0.006612976578539057,-0.016365420709004975,0.005776277026625598,0.02645362560067167,0.013042928984486075,0.0032398156561322484,0.11445826726932401,0.18442441400442613,-0.0938377770471523
4426,19.11825710000994,0.002154489229885114,-0.03316089041824894,0.024974416819972506,-0.006497892044090906,-0.0163075122940439,0.005789382702455765,0.02694713771088233,0.013840891062067746,0.0028320499068252027,0.11450737416610265,0.18581470023653515,-0.09536517071655702
4427,19.12248050000926,0.0021397130523925093,-0.03320088557013232,0.024955934849394026,-0.006380679662122391,-0.01624615127381241,0.005800716548604576,0.02744082957396419,0.014644814215522156,0.002417700693258986,0.11454174738589439,0.1871897047453247,-0.09689282672663162
4428,19.126349500002107,0.002115748457380298,-0.03323357859806651,0.02495295495916136,-0.006261338794395036,-0.016181312089685537,0.005810250186488868,0.02793463745744881,0.01545463198588997,0.0019967673824649312,0.11456129043844211,0.1885491476005816,-0.09842052086883911
4429,19.13078089999908,0.002086551207015094,-0.03327288331410248,0.024946924863584553,-0.00613986907839217,-0.016112969472245567,0.005817955236970767,0.028428497217799956,0.01627027670940188,0.0015692503101409514,0.11456590889088962,0.18989274980876358,-0.09994802733804668
4430,19.13497250000364,0.0020501890522058057,-0.03330451199816932,0.024929583086961974,-0.0060162704290706425,-0.016041098446471037,0.005823803324548936,0.02892234430936017,0.017091679521608352,0.0011351507874517136,0.11455551039766748,0.19122023336365726,-0.10147511875747306
4431,19.138963600009447,0.0020253626819582904,-0.033342522145587306,0.024930943681083183,-0.005890543040573563,-0.015965674336907276,0.005827766081578857,0.029416113793425257,0.01791877036172739,0.0006944711077215341,0.1145300047301133,0.19253132129714906,-0.10300156620416064
4432,19.14359819999663,0.001984712408289603,-0.03337630048513308,0.024933938429040427,-0.005762687387903553,-0.015886672772817523,0.005829815152521682,0.029909740347445358,0.018751477977210954,0.00024721455301777285,0.11448930380581901,0.19382573773010053,-0.10452713923497285
4433,19.14695100000245,0.001984712408289603,-0.03337630048513308,0.024933938429040427,-0.005632704228555921,-0.01580406969331365,0.00582992219822114,0.030403158274351454,0.019589729928530447,-0.0002066145993774875,0.11443332171769786,0.19510320792331856,-0.1060516059131167
4434,19.151036800001748,0.001837944313277068,-0.033489170156912745,0.02494887117037838,-0.005500594604111267,-0.015717841352465504,0.005828058900208001,0.030896301512006043,0.020433452594181695,-0.0006670110706097019,0.1143619747627634,0.19636345832861127,-0.10757473283519046
4435,19.15517009999894,0.0018783365759638179,-0.03347152530839108,0.02493908689747621,-0.005366359841786945,-0.01562796432438794,0.005824196965031593,0.031389103642776646,0.021282571175909763,-0.0011339685740102906,0.11427518147061376,0.19760621663992023,-0.10909628515875655
4436,19.159386400002404,0.0018573426158995042,-0.03351167150528983,0.02492345547841802,-0.0052300015559468855,-0.015534415508304606,0.005818308128617875,0.031881497903230784,0.02213700970415395,-0.0016074798089734611,0.11417286263161387,0.19883121184451968,-0.1106160266304392
4437,19.164999800006623,0.0018221085483857212,-0.033547652535362224,0.024919712411585887,-0.005091521649569255,-0.015437172133587524,0.00581036416065354,0.03237341719395099,0.022996691043713227,-0.002087536454953648,0.11405494132476851,0.20003817427427378,-0.11213371961454673
4438,19.17172450000362,0.001759397587793398,-0.03362629393576845,0.024915782758316414,-0.0049509223156714265,-0.015336211764771636,0.005800336868995641,0.03286479408946869,0.02386153689963241,-0.0025741291655858034,0.11392134294527886,0.20122683565694188,-0.11364912512221766
4439,19.176268600000185,0.001734377272471528,-0.03367657959496126,0.024907543588553505,-0.004808206038691762,-0.015231512306543255,0.005788198104106197,0.03335556084831563,0.024731467823309383,-0.0030672475629307666,0.1137719952317753,0.2023969291675239,-0.11516200284108853
4440,19.18181690000347,0.001734377272471528,-0.03367657959496126,0.024907543588553505,-0.004663375595827725,-0.01512305200870138,0.0057739197635112115,0.03384564942319126,0.025606403218823598,-0.003566880231847953,0.11360682829321961,0.20354818947963607,-0.11667211116548268
4441,19.18526749999728,0.0015795558056216998,-0.033810319915982594,0.02491352653245394,-0.004516434058329797,-0.015010809471090875,0.0057574737962835165,0.034334991471244775,0.026486261349485913,-0.004073014714497578,0.11342577463546996,0.20468035281690744,-0.11817920722711917
4442,19.189459400004125,0.0016365312194723137,-0.033849872767588954,0.02488728896321321,-0.00436738479275072,-0.014894763648506565,0.005738832207548876,0.03482351836447043,0.02737095934460988,-0.0045856375049746585,0.11322876918750159,0.2057931570043869,-0.11968304692634003
4443,19.193337300006533,0.0016362654237240888,-0.03390719356445572,0.02485365829026756,-0.004216231462149572,-0.014774893855567277,0.0057179670630147636,0.035311161200214373,0.02826041320650447,-0.005104734044077009,0.1130157493272766,0.2068863415199515,-0.12118338496385399
4444,19.196317900001304,0.0016362654237240888,-0.03390719356445572,0.02485365829026756,-0.004062978027250231,-0.014651179771558942,0.005694850493521229,0.035797850811791494,0.02915453781768821,-0.005630288714209465,0.11278665490725635,0.20795964754570542,-0.12267997487299506
4445,19.20210180000868,0.001505736497410301,-0.034052883166934604,0.024866368278321904,-0.0039076287475537505,-0.014523601445245829,0.0056694546996132675,0.03628351777921043,0.0300532469483246,-0.006162284834426519,0.11254142827954917,0.20901281801936014,-0.12417256905249476
4446,19.20690820000891,0.001557158177691423,-0.03405819692733082,0.02481956288982586,-0.003750188182404206,-0.014392139299649078,0.00564175195613408,0.03676809244000521,0.03095645326387879,-0.006700704655615596,0.11228001432068618,0.21004559768558584,-0.12566091879976532
4447,19.210823600005824,0.001557158177691423,-0.03405819692733082,0.02481956288982586,-0.003590661192007565,-0.01425677413679151,0.0056117146168386004,0.03725150490017207,0.03186406833299523,-0.007245529355823138,0.11200236045601862,0.2110577331473248,-0.12714477434469118
4448,19.21431999999913,0.001391601844989993,-0.034245891971289036,0.02477654712706233,-0.003429052938403096,-0.014117487142407813,0.005579315119026673,0.03773368504520959,0.03277600263559636,-0.007796739035725679,0.11170841668372969,0.2120489729170566,-0.12862388488392634
4449,19.21884390000196,0.001488437702957594,-0.03425325422039025,0.024732293268977308,-0.0032653688863868787,-0.013974259890619149,0.005544525988195228,0.038214562551260635,0.033692165571201936,-0.008354312714248104,0.1113981355984542,0.2130190674680056,-0.1300979986156945
4450,19.2224647999974,0.0014849009979425133,-0.03429271548793866,0.024704623227844707,-0.0030996148043869755,-0.013827074348571224,0.0055073198427088065,0.03869406689635441,0.03461246546746869,-0.008918228324331241,0.11107147241449888,0.21396776928528097,-0.13156686277508775
4451,19.227396700007372,0.0014675355989744751,-0.034371768935891084,0.024663413415645444,-0.002931796765289851,-0.013675912881034848,0.005467669398487796,0.03917212737174683,0.03553680958895006,-0.009488462708850844,0.11072838498865671,0.21489483291693884,-0.1330302236698609
4452,19.230953799997224,0.00144121834234953,-0.03441891675587075,0.02464333973005354,-0.002761921147217617,-0.013520758254968067,0.005425547473713706,0.03964867309335765,0.03646510414607559,-0.01006499161669013,0.1103688338426084,0.215800015024957,-0.13448782671671788
4453,19.2348323000042,0.00144121834234953,-0.03441891675587075,0.02464333973005354,-0.0025899946342556944,-0.01336159364403887,0.005380926993550817,0.04012363301330226,0.03739725430434961,-0.010647789698967989,0.10999278218490396,0.21668307443611187,-0.13593941647808816
4454,19.239282900001854,0.0012866200289979358,-0.03457086162997025,0.02465548057151304,-0.0024160242171304817,-0.013198402633107571,0.005333780994883545,0.04059693593151664,0.03833316419376897,-0.011236830505424986,0.10960019593251787,0.21754377219274804,-0.13738473669938886
4455,19.243131399998678,0.0013626857311842089,-0.034595555954956884,0.024572127074379894,-0.0022400171938366507,-0.013031169222667808,0.005284082631068823,0.04106851050747365,0.03927273691845936,-0.011832086480969261,0.10919104373197253,0.21838187160342876,-0.13882353034676892
4456,19.24766210000962,0.001361579379948508,-0.03466002981278218,0.024529591590915514,-0.002061981170213678,-0.012859877833245258,0.005231805176702841,0.04153828527198867,0.04021587456652981,-0.012433528962384319,0.10876529698002395,0.2191971382934573,-0.14025553964533105
4457,19.25155120001,0.0013347178080842241,-0.03473427150062677,0.024498592823703175,-0.0018819240604712425,-0.012684513309753112,0.0051769220324014275,0.042006188639112825,0.041162478220144495,-0.01304112817520081,0.10832292984390321,0.2199893402552581,-0.1416805061178275
4458,19.25562429999991,0.0013140344554882768,-0.034788005506220375,0.024473361971713358,-0.0016998540876631417,-0.012505060925803413,0.005119406729593385,0.042472148918111755,0.04211244796581145,-0.013654853230734362,0.10786391928110785,0.2207582478986085,-0.14309817062382474
4459,19.26032000000123,0.001298223444469978,-0.03484871799669135,0.024446991603621307,-0.0015157797841093587,-0.012321506387973385,0.005059232935326043,0.04293609432552806,0.043065682904887395,-0.014274672123291516,0.10738824505873729,0.22150363410071086,-0.14450827339933212
4460,19.26408850000007,0.001270671182695409,-0.03489762283833515,0.02442520849994166,-0.0013297099917659427,-0.012133835840025867,0.004996374457082294,0.0433979529973255,0.0440220811642979,-0.014900551727545792,0.10689588977236596,0.22222527425609603,-0.14591055409689
4461,19.26799390000815,0.001270671182695409,-0.03489762283833515,0.02442520849994166,-0.0011416538625423553,-0.011942035867082928,0.004930805247608373,0.04385765300111288,0.044981539907472216,-0.015532457796085909,0.10638683886444791,0.22292294632634727,-0.1473047518261118
4462,19.272321700002067,0.0011125126571342198,-0.03503815625832281,0.02444859217464445,-0.0009516208585659554,-0.01174609349975165,0.004862499409751624,0.04431512234844532,0.04594395534549211,-0.01617035495713806,0.10586108064224771,0.22359643088963432,-0.1486906051946756
4463,19.27662699999928,0.0011730054601351769,-0.03507804249457853,0.024380491565766133,-0.0007596207523933077,-0.011545996218201139,0.004791431201307506,0.04477028900720056,0.04690922274845404,-0.016814206712464197,0.10531860629529144,0.22424551119004815,-0.15006785234976022
4464,19.280731699996977,0.0011555382821055104,-0.03515267227219728,0.024340240888452318,-0.0005656636271679973,-0.011341731956189899,0.004717575039875073,0.045223080914028255,0.04787723645704395,-0.01746397543543826,0.1047594099123315,0.22486997318672555,-0.15143623101992096
4465,19.284707500002696,0.0011284789400099414,-0.03521079321314123,0.024310566500187734,-0.0003697598767246406,-0.011133289105042717,0.004640905507720157,0.04567342598687041,0.048847889894323766,-0.018119622369302247,0.1041834884978194,0.22546960560275386,-0.1527954785573993
4466,19.28958789999888,0.001108209116866537,-0.03527015986079517,0.024285559634982235,-0.00017192020563879193,-0.010920656517576127,0.0045613973566454614,0.04612125213755066,0.04982107557772898,-0.018781107625603928,0.10359084198788071,0.22604419997384592,-0.15414533198085942
4467,19.29317190000438,0.0010880072452383173,-0.03532525881046132,0.02425900589670301,2.7844370777541062e-05,-0.010703823511971543,0.004479025512866791,0.04656648728443051,0.05079668513127625,-0.019448390182818062,0.10298147326578681,0.22659355069677484,-0.15548552801854523
4468,19.29749120000633,0.0010681368895927596,-0.03538376540019292,0.024231337337034534,0.0002295225265350534,-0.010482779875595122,0.004393765081894618,0.047009059365130515,0.051774609297980216,-0.02012142788515279,0.10235538817691811,0.227117455077559,-0.15681580315185215
4469,19.301026100001764,0.0010681368895927596,-0.03538376540019292,0.024231337337034534,0.0004331026250812367,-0.010257515868763426,0.004305591353420214,0.0474488963493143,0.05275473795247849,-0.020800177441543045,0.10171259554321288,0.22761571337938694,-0.15813589365930716
4470,19.305342999999997,0.0009048997213673383,-0.03557287174406739,0.02424940224178221,0.0006385727194696722,-0.010028022228453972,0.004214479806205532,0.047885926251532936,0.0537369601138634,-0.02148459442483293,0.1010531071770963,0.22808812887027163,-0.1594455356609511
4471,19.309856200008653,0.000961789045216251,-0.03557724523128958,0.024125057854352348,0.0008459205525847724,-0.009794290171959801,0.004120406112976023,0.04832007714412754,0.05472116395871952,-0.02217463327114881,0.10037693789488429,0.22853450787042517,-0.16074446516311577
4472,19.314042099998915,0.0009459482555624652,-0.03566616223300789,0.02404321169895597,0.0010551335574222112,-0.00955631140048718,0.004023346145315571,0.048751277170187915,0.05570723683436577,-0.022870247279465003,0.09968410552965688,0.22895465979934346,-0.1620324181035894
4473,19.317583099997137,0.0009459482555624652,-0.03566616223300789,0.02404321169895597,0.0012661988574252708,-0.009314078102695581,0.003923275978562729,0.049179454556565236,0.05669506527230074,-0.02357138861136367,0.09897463094359585,0.22934839722259145,-0.16330913039716236
4474,19.322088900007657,0.0007932615989206675,-0.03582182322047746,0.024042393417209595,0.001479103266877326,-0.009067582958179063,0.0038201718967074074,0.04960453762693647,0.057684535001849495,-0.024278008290990687,0.09824853803978145,0.2297155358982794,-0.16457433798154664
4475,19.32657650001056,0.0008968498105524301,-0.035797762750667664,0.02393608597643701,0.0016938332913506732,-0.008816819140888202,0.003714010397287197,0.050026454814918186,0.05867553096401055,-0.024990056205209055,0.09750585377344287,0.2300558948232206,-0.16582777686366143
4476,19.331217900005868,0.0009001795671346864,-0.03583993558462093,0.023869536603836894,0.0019103751282118977,-0.00856178032249176,0.003604768196282436,0.050445134677227034,0.05966793732550143,-0.025707481103951497,0.09674660816265757,0.23036929627876068,-0.16706918316627759
4477,19.33506280000438,0.0008917564767880995,-0.035881921562557144,0.02381094132804915,0.002128714667183971,-0.008302460675677232,0.0034924222330091764,0.05086050590688475,0.060661637493001255,-0.026430230600773725,0.09597083429849487,0.23065556587626757,-0.1682982931750124
4478,19.339449799997965,0.0008855691480475431,-0.035925954137502644,0.023751951571551837,0.0023488374909652627,-0.008038854877389362,0.0033769496750091707,0.05127249734646533,0.061656514127588886,-0.027158251173609926,0.09517856835459887,0.23091453260227257,-0.16951484338566666
4479,19.343246400007047,0.0008855691480475431,-0.035925954137502644,0.023751951571551837,0.0025707288759056353,-0.007770958112005815,0.0032583279229360107,0.05168103800138228,0.0626524491593749,-0.027891488165731934,0.09436984959620583,0.23114602886325222,-0.17071857055189532
4480,19.34760870000173,0.0007412077206301824,-0.03605713066463579,0.023722241422459236,0.0027943737927397963,-0.0074987660744491825,0.0031365346154365176,0.052086057053213425,0.06364932380232602,-0.02862988578691356,0.09354472038859128,0.23134989053004154,-0.1719092117332025
4481,19.352112000007764,0.0008502003446808972,-0.03603724077428918,0.023587865691821055,0.0030197569073780587,-0.007222274973234514,0.0030115476340265156,0.052487483873060806,0.06464701856928042,-0.029373387114801412,0.09270322620494231,0.23152595698187078,-0.17308650434325204
4482,19.35552650000318,0.0008619210472772935,-0.03607999322028351,0.023507689342266443,0.0032468625817546532,-0.006941481533451576,0.0028833451079600917,0.05288524803494305,0.06564541328715214,-0.03012193409649365,0.09184541563365015,0.23167407115001634,-0.17425018619848393
4483,19.35920040000929,0.0008619210472772935,-0.03607999322028351,0.023507689342266443,0.00347567487473372,-0.006656382999681038,0.00275190541909145,0.05327927932921778,0.06664438711232293,-0.030875467550328113,0.09097134038501813,0.23179407956105622,-0.1753999955670271
4484,19.36359249999805,0.0007322678199090152,-0.036238813474970086,0.02345679933324938,0.0037061775430731058,-0.0063669771388438195,0.002617207206728458,0.053669507776031626,0.06764381854621991,-0.031633927167881076,0.0900810552973807,0.2318858323797207,-0.17653567121789915
4485,19.36799840000458,0.0008462951223384398,-0.036175466189976226,0.02329809807042176,0.003938354042446075,-0.006073262242982782,0.002479229372476968,0.05405586363879554,0.0686435854510782,-0.032397251516178005,0.08917461834262881,0.23194918345132834,-0.17765695247048366
4486,19.372343600000026,0.0008633100107830868,-0.03620736939746946,0.023195718855922115,0.004172187528521034,-0.005775237131976029,0.0023379510850750017,0.05443827743768257,0.06964356506588662,-0.03316537804011763,0.08825209063113755,0.23198399034379918,-0.17876357924427597
4487,19.38075799999933,0.0008562245455801233,-0.03623391196596664,0.02302020534637031,0.0044076608580993605,-0.005472901156181038,0.0021933517852158763,0.054816679963145855,0.07064363402251472,-0.03393824306511043,0.08731353641609182,0.2319901143892372,-0.17985529210888798
4488,19.38493460000609,0.0008287703843477848,-0.036252520294813004,0.02292230024624657,0.004644756590311419,-0.005166254199008824,0.002045411190359371,0.05519100228945432,0.07164366836201949,-0.03471578179993285,0.08635902309720653,0.2319674207250724,-0.1809318323343014
4489,19.389208900000085,0.000807638793272758,-0.03627523462872557,0.022836284721837994,0.00488345698787081,-0.004855296679427403,0.0018941092995300188,0.05556117578824347,0.07264354355113017,-0.035497928339798354,0.08538862122383716,0.2319157783347538,-0.18199294194135976
4490,19.39308029999665,0.000807638793272758,-0.03627523462872557,0.022836284721837994,0.0051237440183869,-0.004540029554393811,0.0017394263981015874,0.05592713214207876,0.07364313449890907,-0.03628461566964646,0.08440240449747648,0.23183506008798335,-0.18303836375248936
4491,19.397253400005862,0.00067896112966225,-0.03639598549546485,0.022789814624494593,0.005365599355735724,-0.004220454321213921,0.001581343062566821,0.05628880335802897,0.07464231557358667,-0.037075775667650614,0.08340044977363319,0.23172514278048273,-0.18406784144263905
4492,19.401467300005606,0.0007357349779500455,-0.036388829518215024,0.02255105810909925,0.005609004381489261,-0.003896573019829305,0.0014198401652915046,0.05664612178124638,0.07564096061956922,-0.037871339108945905,0.08238283706308921,0.23158590717328237,-0.18508111959042695
4493,19.40588540000317,0.0007476018506352968,-0.036409646610384525,0.022444288128579862,0.005853940186403125,-0.003568388235030448,0.001254898879251902,0.056999020108551283,0.07663894297461665,-0.038671235669577676,0.08134964953253235,0.2314172380315239,-0.1860779437294838
4494,19.41014350000478,0.0007360062471518331,-0.03642675815914592,0.02235082274262829,0.00610038757196269,-0.0032359030985955827,0.0010865006827546126,0.05734743140201792,0.07763613548718862,-0.03947539393067198,0.08030097350456096,0.23121902416276677,-0.1870580603999818
4495,19.415993100003107,0.0007316130139100504,-0.03643689132848227,0.022267706796221608,0.006348327051987635,-0.00289912129135445,0.0009146273641379011,0.05769128910255939,0.07863241053395637,-0.040283741382828774,0.07923689845705745,0.23099115845479073,-0.18802121720033774
4496,19.42023990000598,0.0007269315610346992,-0.036450267838853884,0.02218414292347981,0.006597738854294867,-0.0025580470451762928,0.000739261026453551,0.05803052704350883,0.07962764003747819,-0.04109620443073879,0.07815751702192757,0.2307335379128842,-0.1889671628390787
4497,19.424107800005004,0.0007125708851210905,-0.03647767362977368,0.022094530937440935,0.006848602922419814,-0.002212685144881403,0.0005603840921282871,0.05836507946419414,0.08062169548403664,-0.041912708398024974,0.07706292498320275,0.23044606369660994,-0.18989564718685892
4498,19.4277393000084,0.0007073957421741558,-0.03648058403052683,0.022012240635443554,0.007100898917396041,-0.0018630409300755353,0.00037797930760381153,0.058694881023503384,0.08161444794163532,-0.04273317753230919,0.07595322127450234,0.2301286411560399,-0.19080642132861614
4499,19.43114850000711,0.0006958499406430033,-0.03648081146290508,0.021939221322951976,0.007354606219593177,-0.0015091202969065552,0.0001920297479544899,0.05901986681343785,0.08260576807815292,-0.04355753501050465,0.07482850797585276,0.2297811798674506,-0.19169923761585506
4500,19.43514129999676,0.0006956048770680656,-0.03647629315935398,0.021849185299401077,0.007609703930613085,-0.0011509296997426778,2.5188214817261773e-06,0.059339972372650054,0.08359552617965198,-0.044385702944334735,0.07368889030986066,0.22940359366847046,-0.19257384971904645
4501,19.439043799997307,0.0006873984916297317,-0.03646523371630219,0.021771936526956765,0.007866170875244173,-0.0007884761527716613,-0.00019056972571594087,0.05965513369996359,0.08458359216884048,-0.04521760238607871,0.07253447663723743,0.2289958006926702,-0.1934300126801305
4502,19.44360140000936,0.0006753432452479564,-0.03645388569806243,0.021694200359322024,0.008123985603473775,-0.00042176723152033267,-0.00038725180519798616,0.05996528726787214,0.085569835623684,-0.04605315333454485,0.07136537845167223,0.2285577234035884,-0.1942674829651122
4503,19.447679400007477,0.0006605316586540408,-0.0364465226920933,0.021601252857926155,0.008383126392558499,-5.081107429383002e-05,-0.0005875429816632616,0.060270370036015,0.08655412579616556,-0.04689227474127143,0.07018171037405066,0.22808928862818362,-0.19508601851673715
4504,19.451854300001287,0.0006487747712204712,-0.03643535672008812,0.021518239199541694,0.00864357124915243,0.00032438361646604886,-0.000791458468458544,0.060570319464626245,0.08753633163119126,-0.04773488451695615,0.06898359014601683,0.2275904275897036,-0.1958853788072358
4505,19.455750699999044,0.0006404475175904512,-0.03643022418313904,0.02144268713459161,0.008905297911493089,0.0007038075729039833,-0.0009990131231152402,0.060865073527955005,0.0885163217856395,-0.048580899538114355,0.0677711386228767,0.22706107593996464,-0.1966653248911237
4506,19.466307499998948,0.0006282067617387579,-0.03643008816204918,0.02136207180969633,0.009168283851645018,0.0010874509605563352,-0.001210221442915222,0.06115457072765382,0.08949396464755109,-0.04943023565396632,0.06654447976584055,0.22650117379103193,-0.19742561945804435
4507,19.470401900005527,0.00047915731985819854,-0.03650556265792709,0.021293904212800988,0.00943250627780086,0.0014753033772389945,-0.0014250975604867624,0.06143875010613236,0.09046912835545726,-0.05028280769355381,0.06530374063360307,0.2259106657462935,-0.19816602688564255
4508,19.47839170000225,0.000580103137147356,-0.03643235671403863,0.02105560299809274,0.00969794213663978,0.0018673538520184254,-0.0016436552394315427,0.06171755125987357,0.09144168081784283,-0.05113852947308594,0.06404905137325957,0.22528950093092032,-0.19888631329245524
4509,19.48209410000709,0.000580103137147356,-0.03643235671403863,0.02105560299809274,0.009964568115743045,0.002263590844266467,-0.0018659078699836912,0.06199091435270914,0.09241148973274221,-0.05199731380351435,0.06278054521055677,0.22463763302170492,-0.19958624659080645
4510,19.485636299999896,0.00045093055217565144,-0.03651529340117909,0.021005897944768807,0.01023236064606663,0.0026640022427994233,-0.0020918684647018306,0.06225878012905114,0.09337842260746526,-0.05285907249833748,0.06149835843947704,0.22395502027627104,-0.20026559653969278
4511,19.48926250000659,0.0005472498444960849,-0.03640274223810399,0.020874587861293592,0.010501295904470659,0.0030685753651019765,-0.002321549654195102,0.06252108992707676,0.09434234677845027,-0.0537237163816342,0.06020263041115425,0.22324162556164534,-0.20092413479764565
4512,19.493264600008843,0.0005555662360469934,-0.036391715845637836,0.020788395128045707,0.010771349816305535,0.0034772969566364297,-0.0025549636828841333,0.06277778569186368,0.0953031294312407,-0.05459115529632653,0.05889350352212017,0.22249741638218368,-0.2015616349755578
4513,19.497313300002133,0.0005555662360469934,-0.036391715845637836,0.020788395128045707,0.011042498058054502,0.0038901531902377825,-0.0027921224047979167,0.06302880998847316,0.09626063762058286,-0.055461298112671434,0.057571123201880306,0.22172236490684408,-0.2021778726894609
4514,19.50184759999684,0.0004248176415979002,-0.03647527730196459,0.020756132253167282,0.011314716060032452,0.00430712966559512,-0.0030330372794075675,0.0632741060149781,0.09721473829064138,-0.05633405273698158,0.05623563789981844,0.22091644799579874,-0.2027726256132415
4515,19.505931000006967,0.0005224074832114321,-0.03635203977504707,0.020633529525411212,0.011587979009140728,0.004728211408819812,-0.0032777193674979254,0.06351361761543318,0.09816529829532991,-0.05720932612057493,0.054887199071428826,0.2200796472263763,-0.20334567353128136
4516,19.51026080000156,0.0005327252544779626,-0.036338970579123685,0.02055847444338145,0.011862261851677646,0.005153382872100973,-0.0035261793270779593,0.06374728929278427,0.09911218441875434,-0.0580870242689529,0.053525961163875306,0.21921194891832754,-0.20389679839100983
4517,19.51403289999871,0.0005302870551238411,-0.03633860544180049,0.020502157120194004,0.012137539296204498,0.005582627933448635,-0.003778427409330939,0.06397506622171437,0.10005526339576566,-0.058967052251206596,0.05215208160087677,0.21831334415840703,-0.20442578435535294
4518,19.51813480000419,0.0005302870551238411,-0.03633860544180049,0.020502157120194004,0.012413785816466787,0.006015929896525081,-0.0040344734546053215,0.06419689426142372,0.10099440193261881,-0.05984931420965066,0.05076572076691868,0.21738382882426274,-0.20493241785506613
4519,19.52148650000163,0.0005302870551238411,-0.03633860544180049,0.020502157120194004,0.012690975654370369,0.0064532714905647945,-0.0042943268884473315,0.06441271996834123,0.10192946672773445,-0.060733713369684264,0.0493670419907906,0.2164234036076269,-0.20541648764093712
4520,19.52527949999785,0.0005302870551238411,-0.03633860544180049,0.020502157120194004,0.012969082823012224,0.006894634870383471,-0.004557996717676225,0.06462249060876449,0.10286032449256098,-0.06162015204987835,0.047956211528449415,0.21543207403680023,-0.20587778483584515
4521,19.530391899999813,0.0005608689174303054,-0.036271244127023,0.020291929230066615,0.01324808110976555,0.007340001616476516,-0.004825491526503177,0.06482615417142547,0.10378684197253331,-0.06250853167228872,0.04653339854520821,0.21440985049842268,-0.20631610298666253
4522,19.534906200002297,0.000587299883169212,-0.03626458461783723,0.02022396108347175,0.013527944079418836,0.007789352735207454,-0.005096819472694735,0.06502365937997873,0.10470888596812461,-0.0633987527729945,0.0450987750972509,0.2133567482585214,-0.2067312381159843
4523,19.53927459999977,0.0006084738901892682,-0.03625914056787741,0.020163181463867176,0.01380864507736859,0.008242668659086657,-0.0053719882837817675,0.06521495570540901,0.10562632335598797,-0.0642907150128613,0.043652516112472714,0.2122727874828295,-0.20712298877367186
4524,19.543259500002023,0.000607029551290644,-0.03626071424513043,0.02008582252183168,0.014090157232865351,0.00869992924714078,-0.005651005253314871,0.06539999337835536,0.10653902111018512,-0.0651843171885282,0.042194799370646824,0.2111579932563685,-0.2074911560881962
4525,19.547591299997293,0.0006278963088008439,-0.036242151630810245,0.020059035570397933,0.014372453462312711,0.009161113785373255,-0.005933877237167142,0.0655787234013488,0.1074468463234995,-0.06607945724361769,0.04072580548291739,0.21001239560228868,-0.20783554381776675
4526,19.55116909999924,0.0006278963088008439,-0.036242151630810245,0.020059035570397933,0.014655506472618873,0.009626200987316185,-0.0062206106498852816,0.06575109756096065,0.10834966622883081,-0.06697603228016712,0.039245717870619416,0.20883602949996027,-0.20815595840123263
4527,19.555616600002395,0.0005175754636497032,-0.03629779565389616,0.02003846326733756,0.014939288764600388,0.010095168994674017,-0.006511211461089962,0.06591706843985877,0.10924734822066791,-0.06787393857028065,0.037754722743426415,0.2076289349023085,-0.20845220900874165
4528,19.56013070000336,0.0006452015715343677,-0.036174107179674286,0.01996342136529326,0.015223772636437673,0.01056799537805931,-0.0068056851919263825,0.06607658942876947,0.11013975987663673,-0.06877307156800064,0.03625300907682668,0.20639115675238506,-0.2087241075921428
4529,19.564099299997903,0.0006714066602993597,-0.03616007185243323,0.0199048713482608,0.015508930187181922,0.011044657137820959,-0.007104036911565933,0.06622961473834196,0.11102676897911985,-0.06967332592139705,0.03474076858892925,0.20512274499916827,-0.20897146893511756
4530,19.567741699996983,0.0006714066602993597,-0.03616007185243323,0.0199048713482608,0.015794733320313042,0.011525130704965221,-0.007406271233759883,0.0663760994109124,0.11190824353694465,-0.0705745954848738,0.033218195716600805,0.20382375461258495,-0.20919411070302543
4531,19.57238959999813,0.0005759851312886553,-0.03622102682321602,0.019885456679135,0.01608115374734814,0.012009391942169845,-0.007712392313446029,0.06651599933216475,0.11278405180713634,-0.07147677333169086,0.0316854875909349,0.2024942455977473,-0.2093918534924507
4532,19.575874400004977,0.0005759851312886553,-0.03622102682321602,0.019885456679135,0.01636816299150004,0.012497416144891556,-0.008022403843409234,0.06664927124268566,0.1136540623167333,-0.07237975176670083,0.030142844012055282,0.2011342830083975,-0.2095645208804363
4533,19.58051539999724,0.0006258491575106005,-0.036224096313101015,0.019891308666777963,0.016655732391385392,0.012989178042567173,-0.008336309050996726,0.06677587274941044,0.11451814388466121,-0.07328342233929828,0.028590467423254943,0.1997439369595527,-0.20971193947339054
4534,19.58483760000672,0.0007836922721372078,-0.03603696841106235,0.019845710608552815,0.016943833104781945,0.013484651799908659,-0.008654110694889063,0.06689576233695727,0.11537616564366214,-0.0741876758565807,0.02702856288447283,0.19832328263934368,-0.20983393895565308
4535,19.58928470000683,0.0008031929559815864,-0.035994734321609254,0.01983466977314552,0.017232436112434482,0.01398381101829237,-0.00897581106192766,0.06700889937884712,0.11622799706227478,-0.07509240239671956,0.025457338045110033,0.19687240032003908,-0.20993035213770664
4536,19.59371349999856,0.0008379547422566407,-0.035966002391552114,0.01982603455931741,0.017521512221908862,0.014486628737242673,-0.009301411963999721,0.0671152441486063,0.11707350796686204,-0.07599749132253988,0.02387700311618756,0.1953913753682489,-0.2100010150040207
4537,19.597486099999514,0.0008854801556971851,-0.0359373746958236,0.019830412036517888,0.017811032071493788,0.01499307743601014,-0.009630914734981462,0.06721475783074864,0.11791256856368239,-0.07690283129530684,0.022287770841848003,0.19388029825430061,-0.21004576676051395
4538,19.60139340000751,0.0008854801556971851,-0.0359373746958236,0.019830412036517888,0.01810096613414975,0.015503129035244523,-0.00996432022774047,0.06730740253163446,0.11874504946100073,-0.07780831028871772,0.020689856470203445,0.1923392645607816,-0.21006444988162126
4539,19.60528560000239,0.0008244512373314657,-0.03598861028174732,0.019861972183622283,0.01839128472150467,0.01601675489876269,-0.010301628811198055,0.0673931412902036,0.11957082169123477,-0.07871381560309763,0.019083477723532347,0.19076837499024168,-0.21005691015695246
4540,19.61071059999813,0.0009768811397868522,-0.03590356494152706,0.01984901413268242,0.018681957987895566,0.016533925835411727,-0.010642840367452479,0.06747193808857924,0.12038975673313308,-0.07961923387979643,0.017468854767828362,0.18916773537204865,-0.21002299673752864
4541,19.614226000005143,0.001019636486099075,-0.035894981740610864,0.01983334483912135,0.018972955934455565,0.017054612101027447,-0.010987954288963936,0.06754375786254027,0.12120172653398127,-0.08052445111578488,0.015846210181703964,0.18753745666839053,-0.20996256218158305
4542,19.61834080000699,0.0010545698660136106,-0.03589694239081248,0.01983534305777466,0.019264248413245623,0.0175787834004884,-0.011336969475802112,0.06760856651185917,0.12200660353183207,-0.08142935267844795,0.01421576892465198,0.18587765497941908,-0.20987546249991287
4543,19.622452099996732,0.0010545698660136106,-0.03589694239081248,0.01983534305777466,0.01955580513143044,0.01810640888986545,-0.011689884332957135,0.06766633091050192,0.1228042606777549,-0.08233382332057344,0.012577758304668374,0.18418845154752886,-0.20976155720076786
4544,19.626937900000485,0.000996313981074447,-0.035972749263629804,0.019859724943266273,0.019847595655497992,0.01863745717866699,-0.012046696767714752,0.06771701891668733,0.12359457145810043,-0.08323774719553428,0.010932407945239657,0.1824699727607661,-0.20962070933426197
4545,19.63045769999735,0.000996313981074447,-0.035972749263629804,0.019859724943266273,0.020139589415522206,0.019171896332179923,-0.012407404187096521,0.06776059938280313,0.12437740991677587,-0.08414100787266253,0.009279949751698532,0.18072235015536098,-0.20945278553629473
4546,19.635060200002044,0.00107306157443195,-0.03594915670037859,0.01988300822742114,0.02043175570946803,0.019709693873906482,-0.012772003495365829,0.06779704216517556,0.12515265067752762,-0.08504348835281286,0.007620617876951493,0.17894572041737813,-0.20925765607197067
4547,19.639858800001093,0.0012940689263044782,-0.03583940625511099,0.01983696115856766,0.020724063707538414,0.02025081678809692,-0.01314049109160056,0.06782631813368993,0.12592016896622676,-0.08594507108411306,0.005954648686582265,0.1771402253834798,-0.20903519487850333
4548,19.64440900000045,0.0012940689263044782,-0.03583940625511099,0.01983696115856766,0.02101648245656257,0.02079523152237802,-0.013512862867333218,0.06784839918125994,0.1266798406331535,-0.08684563797789926,0.0042822807233351134,0.17530601204079618,-0.20878527960759147
4549,19.649075399996946,0.0012381524990922317,-0.03591292957648333,0.019865683862931874,0.02130898088442485,0.02134290399047754,-0.013889114204259244,0.06786325823314308,0.1274315421752766,-0.08774507042483357,0.0026037546709822383,0.1734432325258973,-0.20850779166725505
4550,19.65309310000157,0.0014457013266978573,-0.03579772433178623,0.019858571799411605,0.02160152780453364,0.021893799575044507,-0.014269239972014312,0.0678708692560993,0.12817515075852426,-0.0886432493112013,0.000919313317579629,0.17155204412286085,-0.20820261626311898
4551,19.656753600007505,0.0015078380935144523,-0.035788626187918615,0.019848532011155315,0.021894091920329557,0.022447883130565442,-0.01465323452602142,0.06787120726739036,0.12891054424004156,-0.08954005503538529,-0.0007707984818841174,0.1696326092604319,-0.20786964243913156
4552,19.66005669999868,0.0015585844324710028,-0.03577222272271573,0.019857872698719397,0.022186641829832387,0.023005118986376458,-0.015041091705408547,0.06786424834361776,0.12963760119043036,-0.09043536752451424,-0.0024663338434413452,0.1676850955082697,-0.20750876311770466
4553,19.664118300002883,0.0015989597882482558,-0.03574201153300465,0.019871904296588867,0.022479146030226,0.023565470949771194,-0.015432804830997637,0.06784996962939605,0.13035620091596695,-0.0913290662512829,-0.004167043892696406,0.16570967557227645,-0.20711987513926364
4554,19.668053500005044,0.001651775181542788,-0.035720427384293076,0.019875295428473383,0.022771572922480585,0.02412890230920451,-0.015828366703365643,0.0678283493458593,0.13106622348079341,-0.09222103025094082,-0.0058726778039692356,0.16370652728900312,-0.2067028793011939
4555,19.672472799997195,0.001700635047791776,-0.03569143122460365,0.0198842777675263,0.023063890816011456,0.024695375837591883,-0.016227769600978284,0.06779936679899834,0.13176754972907878,-0.09311113813844721,-0.007582982840026267,0.16167583361912757,-0.20625768039617234
4556,19.67708120000316,0.001700635047791776,-0.03569143122460365,0.0198842777675263,0.02335606793337369,0.02526485379570432,-0.016631005278397205,0.06776300238782641,0.1324600613071454,-0.09399926812578907,-0.009297704392393363,0.1596177826400003,-0.2057841872498713
4557,19.68052069999976,0.0016132087148470866,-0.03573474103370535,0.019937126971186006,0.023648072414991835,0.02583729793565879,-0.017038064964561384,0.06771923761237049,0.1331436406855568,-0.09488529803946019,-0.011016586022245298,0.15753256753725287,-0.20528231275802364
4558,19.68492120000883,0.0018412209583289496,-0.03552525088251392,0.019963308223942385,0.02393987232392388,0.02641266950450406,-0.01744893936114357,0.06766805508148611,0.13381817118116135,-0.09576910533809796,-0.012739369501866136,0.15542038659546462,-0.20475197392283764
4559,19.68898750000517,0.0019076589751573765,-0.03548366144067636,0.019975594239145026,0.02423143565065863,0.026990929247901904,-0.01786361864098239,0.06760943852049353,0.13448353697908727,-0.09665056713027534,-0.014465794856674749,0.15328144318788264,-0.2041930918887503
4560,19.694190000009257,0.0019076589751573765,-0.03548366144067636,0.019975594239145026,0.02452273031794577,0.027572037413903648,-0.01828209244659072,0.06754337277863273,0.13513962315468572,-0.09752956019244485,-0.01619560040780953,0.15111594576519136,-0.20360559197750736
4561,19.69792829999642,0.0018781707794303494,-0.035501787650947296,0.020028843133984217,0.024813724185657887,0.028155953756821867,-0.0187043498887411,0.06746984383633461,0.13578631569541846,-0.0984059609870319,-0.017928522815266173,0.14892410784332744,-0.20298940372256002
4562,19.7015098999982,0.0020883006988079563,-0.035304719889253794,0.020077323315769238,0.025104385055683607,0.028742637541196974,-0.019130379545128928,0.06738883881230587,0.13642350152268676,-0.09927964568067446,-0.019664297121582353,0.14670614799033516,-0.20234446090276728
4563,19.70591360000253,0.0021590083035648057,-0.035250681206078445,0.020079187387689018,0.025394680676851057,0.02933204754585849,-0.01956016945911407,0.06730034597042521,0.13705106851359797,-0.1001504901626062,-0.02140265679606287,0.1444622898122588,-0.20167070157539352
4564,19.709721300008823,0.0022286568091271085,-0.035197182408095065,0.02009620772001415,0.025684578749880796,0.02992414206808073,-0.019993707138541622,0.06720435472644902,0.13766890552266592,-0.10101837006317999,-0.023143333779538783,0.1421927619380695,-0.20096806810838938
4565,19.714180000009947,0.0023157210341324427,-0.035116937492241325,0.020157256835790623,0.02597404693236734,0.03051887892783247,-0.02043097955464235,0.06710085565452394,0.13827690240343993,-0.10188316077252885,-0.02488605852965379,0.13989779800362334,-0.2002365072119452
4566,19.720314999998664,0.002370712101445454,-0.035048563951206695,0.0201736118830724,0.026263052843788437,0.031116215472120245,-0.020871973141013377,0.06698984049350437,0.13887495003005842,-0.10274473745936157,-0.02663056006667105,0.13757763663464687,-0.19947596996930653
4567,19.72527439999976,0.0024371113522023316,-0.034975978178440836,0.02018489911252643,0.026551564070541163,0.03171610857942497,-0.021316673792679805,0.06687130215307252,0.1394629403187231,-0.10360297508988951,-0.028376566019793402,0.13523252142874598,-0.19868641186684172
4568,19.730425200003083,0.0025612640705532878,-0.034849010338361186,0.020192609843981954,0.02683954817100397,0.03231851466423157,-0.0217650668652379,0.06674523471965843,0.14004076624908943,-0.10445774844688165,-0.03012380267398981,0.13286270093643526,-0.1978677928233513
4569,19.73499949999677,0.0026258884929743795,-0.03477703929111382,0.020187212802885806,0.027126972680623807,0.03292338968165125,-0.022217137174080383,0.06661163346215782,0.14060832188556877,-0.10530893214884446,-0.03187199501732089,0.13046842864118466,-0.19702007721860892
4570,19.73965830000816,0.0026986104533373357,-0.034664196226541884,0.02018601882236542,0.027413805117027467,0.03353068913213592,-0.022672868993704416,0.06647049483744516,0.1411655023985383,-0.10615640066932391,-0.033620866788755976,0.12804996293848023,-0.19614323392112346
4571,19.74314770000637,0.0026986104533373357,-0.034664196226541884,0.02018601882236542,0.02770001298515628,0.03414036806628457,-0.02313224605710286,0.06632181649568004,0.1417122040854539,-0.10700002835632623,-0.03537014052647427,0.12560756711389534,-0.1952372363151124
4572,19.74791590000677,0.002674756391634399,-0.03464840946227087,0.020212433343851307,0.027985563782423263,0.034752381089741165,-0.023595251555239585,0.06616559728540446,0.14224832439186155,-0.10783968945185404,-0.03711953761664205,0.12314150932016953,-0.1943020623266773
4573,19.75335410000116,0.0029160883712559776,-0.034356854164384325,0.02020084996573216,0.028270425003891785,0.03536668236818386,-0.02406186813660916,0.06600183725842936,0.14277376193230362,-0.1086752581115543,-0.03886877834265829,0.12065206255329158,-0.19333769444917223
4574,19.757365400000708,0.0030261308516773442,-0.03423838726620698,0.02018467904116264,0.02855456414747491,0.03598322563240484,-0.02453207790688141,0.06583053767450815,0.1432884165111161,-0.10950660842447435,-0.04061758193486037,0.11813950462758448,-0.19234411976775598
4575,19.76189350000641,0.0031097146260628586,-0.034123735331895944,0.02018059996415454,0.02883794871915454,0.03660196418348034,-0.0250058624286314,0.06565170100579477,0.1437921891431126,-0.11033361443292258,-0.04236566662068203,0.11560411814979057,-0.19132132998311913
4576,19.76649019999604,0.0032001413112311655,-0.034009191229219506,0.02016648673183354,0.029120546238219344,0.03722285089803047,-0.025483202721155417,0.06546533094108432,0.14428498207415033,-0.11115615015243069,-0.04411274967525542,0.11304619049215531,-0.1902693214343778
4577,19.770699800006696,0.003284869871876621,-0.03389533379635417,0.02016066190866532,0.029402324242520487,0.03784583823356841,-0.02596407926037337,0.06527143238983481,0.14476669880157456,-0.11197408959181362,-0.045858547472448684,0.1104660137645069,-0.18918809512112514
4578,19.776738500004285,0.0034468900091545037,-0.03366298013736847,0.02013383224531104,0.029683250293744076,0.03847087823393864,-0.026448471978818246,0.06507001148596815,0.1452372440945375,-0.11278730677332383,-0.0476027755363304,0.1078638847853307,-0.18807765672463364
4579,19.78117660000862,0.003541448491542971,-0.033548362085864224,0.020115927112382966,0.029963291982699303,0.03909792253484358,-0.026936360265712986,0.0648610755914485,0.14569652401418837,-0.11359567575289657,-0.04934514859305213,0.10524010505183644,-0.18693801662820045
4580,19.78489819999959,0.0036248184985292944,-0.033434396747610465,0.02007590008379233,0.030242416934621246,0.039726922369458295,-0.027427722967135252,0.06464463329963605,0.14614444593372958,-0.11439907064048245,-0.05108538062314027,0.10259498070901671,-0.1857691899366272
4581,19.789502200001152,0.0037195699726241677,-0.033275798141165304,0.020051238357331528,0.030520592814487105,0.040357828574132774,-0.027922538386270394,0.06442069443841464,0.14658091855833588,-0.11519736562046257,-0.052823184914188116,0.09992882251769493,-0.1845711964948276
4582,19.7931835000054,0.0037954169351278864,-0.0331535636688947,0.020009340378506817,0.030797787332344808,0.04099059159418101,-0.028420784283752984,0.06418927007309161,0.14700585194493265,-0.1159904349721425,-0.05455827411393902,0.0972419458215618,-0.1833440609055557
4583,19.79789860000892,0.0038909560251302704,-0.03302014064084652,0.01997519943849643,0.031073968248653015,0.04162516148975637,-0.02892243787809746,0.06395037250906765,0.14741915752182919,-0.1167781530903209,-0.056290360283751374,0.09453467051319897,-0.1820878125462482
4584,19.802005500008818,0.003986164089252114,-0.03288056755583332,0.019925389800292834,0.031349103379631364,0.042261487941812274,-0.029427475846218246,0.06370401529427465,0.14782074810820198,-0.11756039450592873,-0.05801915495243586,0.0918073209990888,-0.18080248558497372
4585,19.805533599996124,0.004112335225043627,-0.03274513827755893,0.019867451405223863,0.031623160602620035,0.04289952025814732,-0.029935874324039796,0.06345021322137988,0.1482105379334237,-0.1183370339067353,-0.05974436917045562,0.08906022616360942,-0.1794881189954818
4586,19.809928400005447,0.004214208014402642,-0.032602934669866794,0.019793839917384044,0.03189610786144771,0.043539207379534074,-0.030447608907196833,0.06318898232975487,0.148588442656233,-0.11910794615811807,-0.06146571356447981,0.0862937193320143,-0.17814475657134632
4587,19.81409130000975,0.004317744423153607,-0.032481429566096016,0.01973606552136363,0.03216791317180713,0.04418049788593082,-0.030962654651824958,0.06292033990720727,0.14895437938374137,-0.11987300632389261,-0.06318289839228082,0.08350813823239592,-0.1767724469391967
4588,19.8183044000034,0.004405997092625878,-0.032363697179470345,0.019678490240753268,0.032438544626637075,0.04482334000277558,-0.03148098607544192,0.06264430449147453,0.149308266690272,-0.12063208968719888,-0.06489563359796485,0.08070382495663385,-0.17537124357103193
4589,19.822837400002754,0.004484028064895163,-0.03221309662412447,0.01961714849677309,0.03270797040150987,0.04546768160736187,-0.03200257715791979,0.06236089587147831,0.14965002463602675,-0.12138507177143874,-0.06660362886752579,0.07788112592032626,-0.17394120479561165
4590,19.826843700007885,0.004566623010628765,-0.03209294785146361,0.019556585492787593,0.03297615876002321,0.04611347023529554,-0.032527401342548196,0.06207013508833853,0.14997957478557647,-0.12213182836126128,-0.06830659368471169,0.07504039182170508,-0.1724823938089202
4591,19.83175840000331,0.004566623010628765,-0.03209294785146361,0.019556585492787593,0.03324307805919526,0.04676065308703183,-0.0330554315371888,0.0617720444361453,0.15029684022617007,-0.12287223552359217,-0.07000423738719364,0.07218197759953475,-0.17099487868369856
4592,19.836263999997755,0.0045235727519791465,-0.03203486256018577,0.019548546762570028,0.03350869675486193,0.0474091770344921,-0.03358664011552124,0.06146664746248784,0.15060174558585737,-0.12360616962870281,-0.07169626922302604,0.06930624238999475,-0.16947873237804031
4593,19.841068499998077,0.0047906395538445164,-0.03167325720040898,0.01943213694725038,0.033772983407075303,0.04805898862775935,-0.034120998918380566,0.06115396896873922,0.15089421705142214,-0.12433350737131514,-0.07338239840738785,0.06641354948254634,-0.16793403274304744
4594,19.848922400007723,0.004971818716972754,-0.03140401259953732,0.019372144732361207,0.03403590668550228,0.048710034101852005,-0.03465847925518644,0.06083403501009549,0.1511741823861209,-0.12505412579173736,-0.07506233417959397,0.06350426627478434,-0.16636086252954152
4595,19.85584760000347,0.005106655757007023,-0.031132195745783447,0.019282126888276387,0.03429743537482226,0.04936225938357481,-0.0351990519054643,0.06050687289536809,0.1514415709472231,-0.12576790229702703,-0.07673578586036583,0.06057876422627462,-0.16475930939382727
4596,19.861093400002574,0.005106655757007023,-0.031132195745783447,0.019282126888276387,0.03455753838012296,0.0500156100984459,-0.035742687120458375,0.060172511186528416,0.1516963137033477,-0.12647471468217691,-0.07840246290935009,0.05763741881137828,-0.16312946590250632
4597,19.86649820000457,0.00506029871268736,-0.031109067626230807,0.019296254404376052,0.034816184732293094,0.050670031577699094,-0.036289354624836734,0.05983097969800339,0.15193834325159264,-0.12717444115132007,-0.08006207498287475,0.05468060947106381,-0.16147142953633803
4598,19.87386659999902,0.005387895904535678,-0.030636206990513035,0.019137396482532577,0.03507334359341101,0.05132546886536024,-0.03683902361848866,0.05948230949572074,0.1521675938344527,-0.12786696033895006,-0.08171433199193127,0.05170871956370847,-0.1597853026931444
4599,19.881134600000223,0.005448863858904209,-0.03051310570114537,0.019107776784702612,0.03532898426212838,0.051981866725396585,-0.03739166277841449,0.05912653289590328,0.1523840013565221,-0.12855215133115225,-0.08335894416037082,0.0487221363148903,-0.1580711926897555
4600,19.88513700000476,0.005389975715048384,-0.030439181478539808,0.01911869281000265,0.035583076179047775,0.0526391696489383,-0.03794724026070802,0.058763683463611216,0.15258750340097663,-0.1292298936868412,-0.0849956220833036,0.0457212507661728,-0.1563292117629924
4601,19.891059500005213,0.0056399133716052785,-0.030052819050793426,0.019029862953645296,0.03583558893209298,0.05329732186157134,-0.03850572370263172,0.05839379601103165,0.1527780392458306,-0.12990006745900012,-0.08662407678568995,0.04270645772288453,-0.15455947706968368
4602,19.895424900008948,0.005696609544949318,-0.02995019710288436,0.018971825633077963,0.03608649226187111,0.05395626733070043,-0.03906708022478477,0.05801690659551435,0.1529555498799658,-0.13056255321591773,-0.08824401978111093,0.03967815570089586,-0.15276211068571383
4603,19.899256899996544,0.0057653291608942255,-0.029832463042360553,0.01892860951201901,0.0363357560670254,0.05461594977298091,-0.039631276433363824,0.057633052517353,0.15311997801892735,-0.13121723206241911,-0.08985516313070693,0.036636746872395064,-0.1509372396041023
4604,19.9027691000083,0.0057653291608942255,-0.029832463042360553,0.01892860951201901,0.03658335040957753,0.05527631266181839,-0.040198278422516616,0.057242272317311396,0.15327126812048372,-0.13186398566108562,-0.09145721950227166,0.033582637010666626,-0.14908499573211298
4605,19.90820150000218,0.0057653291608942255,-0.029832463042360553,0.01892860951201901,0.036829245520258395,0.055937299234935206,-0.04076805177678808,0.056844605773894316,0.15340936639994704,-0.13250269625345923,-0.09304990222948936,0.03051623543387437,-0.1472055158873926
4606,19.91283500001009,0.005732795350659833,-0.029747638419235285,0.018930131411941296,0.03707341180382641,0.05659885250200262,-0.04134056157365889,0.05644009390036238,0.15353422084525012,-0.13313324668122728,-0.09463292537130316,0.027437954947852554,-0.14529894179313743
4607,19.916221100007533,0.006027566368205384,-0.029300769852246163,0.01879262169175299,0.03731581984437227,0.05726091525233799,-0.041915772386176435,0.056028778941490366,0.15364578123177497,-0.1337555204073837,-0.09620600377140243,0.02434821178790825,-0.14336542007228673
4608,19.92066380000324,0.006120497404786476,-0.02918691976819879,0.01871270000611741,0.037556440410609064,0.057923430062665864,-0.042493648285677914,0.05561070437006833,0.15374399913692816,-0.1343694015373621,-0.09776885311781705,0.021247425559638697,-0.14140510224074357
4609,19.92637260000629,0.006279421129675417,-0.028947707586283542,0.018598326272567054,0.037795244461146724,0.058586339304941566,-0.0430741528446053,0.05518591488314542,0.1538288279544582,-0.1349747748401371,-0.09932119000260636,0.01813601917876732,-0.1394181446996227
4610,19.930585699999934,0.006279421129675417,-0.028947707586283542,0.018598326272567054,0.03803220314974956,0.05924958515423603,-0.043657249139412095,0.05475445639801617,0.15390022290851038,-0.13557152576929024,-0.10086273198162997,0.01501441881000245,-0.13740470872652566
4611,19.936759100004565,0.006279421129675417,-0.028947707586283542,0.018598326272567054,0.03826728783057578,0.05991310959668032,-0.04424289975356143,0.054316376047948596,0.1539581410674143,-0.13615954048403614,-0.10239319763438819,0.011883053804922968,-0.13536496046584323
4612,19.940922599998885,0.006264317595430961,-0.028917910126958005,0.018588645392654906,0.038500470063398004,0.060576854437468915,-0.044831066780615325,0.053871722177654034,0.1540025413572001,-0.1367387058702049,-0.10391230662391902,0.008742356638895395,-0.13329907091808543
4613,19.94425690000935,0.006264317595430961,-0.028917910126958005,0.018588645392654906,0.03873172161880388,0.06124076130892006,-0.0454217118274149,0.053420544338497834,0.1540333845748388,-0.13730890956117764,-0.1054197797567387,0.005592762847027224,-0.1312072159282402
4614,19.94801200000802,0.006264317595430961,-0.028917910126958005,0.018588645392654906,0.03896101448337581,0.06190477167859187,-0.046014796017351325,0.05296289328345088,0.1540506334012028,-0.13787003995877029,-0.10691533904281271,0.0024347109591615146,-0.1290895761731622
4615,19.952038999996148,0.0064232446191335125,-0.028575270519658576,0.018393952087093286,0.0391883208648488,0.06256882685745264,-0.046610279993727376,0.05249882096178172,0.15405425241374215,-0.13842198625406096,-0.1083987077555447,-0.000731357566082022,-0.1269463371479936
4616,19.9610335000034,0.0064232446191335125,-0.028575270519658576,0.018393952087093286,0.039413613197245484,0.0632328680081045,-0.04720812392320926,0.05202838051348942,0.15404420809887223,-0.13896463844815743,-0.10986961049177052,-0.0039049984082140015,-0.12477768915161838
4617,19.96474540000781,0.0064232446191335125,-0.028575270519658576,0.018393952087093286,0.039636864145987376,0.06389683615305876,-0.04780828749936838,0.051551626263477444,0.1540204688640702,-0.13949788737290125,-0.11132777323174407,-0.007085764452724657,-0.12258382727115133
4618,19.968894600009666,0.0064232446191335125,-0.028575270519658576,0.018393952087093286,0.03985804661298147,0.0645606721830622,-0.048410729946312576,0.0510686137154687,0.1539830050496767,-0.14002162471150495,-0.1127729233991013,-0.010273205859869426,-0.12036495136546423
4619,19.97241159999976,0.0064232446191335125,-0.028575270519658576,0.018393952087093286,0.04007713374168125,0.06522431686547317,-0.04901541002240647,0.050579399545661465,0.15393178894039922,-0.14053574301911825,-0.11420478992078967,-0.013466870134384551,-0.11812126604775047
4620,19.977264200002537,0.006622363372965931,-0.028231810718507715,0.01812352478773898,0.04029409892212115,0.06588771085268647,-0.04962228602408079,0.05008404159612654,0.15386679477651274,-0.1410401357433195,-0.11562310328694929,-0.01666630219612613,-0.11585298066713055
4621,19.98176580001018,0.007176236149744384,-0.02747702619747106,0.01745875202040891,0.04050891579592308,0.06655079469060536,-0.050231315789730224,0.04958259886794567,0.1537879987647541,-0.14153469724452727,-0.11702759561073221,-0.019871044451625835,-0.1135603092893015
4622,19.98622390000673,0.007261586712553876,-0.02735544249925382,0.017343776958991107,0.04072155826127385,0.06721350882715924,-0.05084245670369921,0.04907513151409141,0.1536953790889054,-0.14201932281632815,-0.11841800068804616,-0.02308063686655611,-0.111243470676233
4623,19.992770500000915,0.0074210400876154785,-0.02717052846242381,0.01709768940594736,0.04093200047787234,0.067875793620866,-0.051455665700355355,0.048561700832049054,0.15358891592006285,-0.14249390870571593,-0.11979405405720843,-0.026294617039097534,-0.10890268826491249
4624,19.99650439999823,0.0074210400876154785,-0.02717052846242381,0.01709768940594736,0.04114021687184527,0.06853758934943838,-0.05207089926825021,0.04804236925618096,0.15346859142658767,-0.14295835213323804,-0.12115549305849617,-0.02951252027420069,-0.10653819014514247
4625,20.00141399999848,0.007591361917020495,-0.026949808706600197,0.01684323352417734,0.04134618214063043,0.06919883621843247,-0.05268811345436695,0.047517200349833436,0.15333438978373418,-0.14341255131304523,-0.12250205689357935,-0.032733879658734595,-0.10415020903639374
4626,20.012742100007017,0.007790918286113959,-0.026685701359185948,0.01654586808325176,0.04154987125782617,0.06985947436993747,-0.0533072638684547,0.046986258797186875,0.15318629718295101,-0.14385640547284037,-0.12383348668482262,-0.03595822613751352,-0.10173898226371839
4627,20.02019470000232,0.007762981444775787,-0.02672961992887872,0.01642985153205006,0.041751259478005766,0.0705194438913049,-0.05392830568744942,0.04644961039484951,0.1530243018408512,-0.1442898148737224,-0.12514952553444186,-0.0391850885901934,-0.09930475173272735
4628,20.02571880001051,0.008123597364489372,-0.026277727788124237,0.016069645869038574,0.04195032234149558,0.07117868482391618,-0.05455119365998113,0.04590732204319551,0.1528483940078473,-0.14471268082992123,-0.12644991858350096,-0.04241399390902906,-0.09684776390363678
4629,20.02908649999881,0.008123597364489372,-0.026277727788124237,0.016069645869038574,0.042147035679115895,0.07183713717198682,-0.055175882110967,0.045359461737447995,0.15265856597644775,-0.1451249057284205,-0.12773441307073502,-0.04564446707748298,-0.09436826976438777
4630,20.038904200002435,0.00870007823981798,-0.025671317201467647,0.015322829027244408,0.042341375616883475,0.07249474091140524,-0.05580232494628974,0.044806098558507916,0.15245481208921105,-0.14552639304846363,-0.12900275839118583,-0.04887603124967615,-0.0918665248028443
4631,20.043304699996952,0.008893318603898852,-0.025536560476284775,0.01509654605138717,0.04253331858067492,0.07315143599860431,-0.056430475657560646,0.044247302663529636,0.15223712874635598,-0.14591704738093944,-0.1302547061546363,-0.05210820783067112,-0.08934278897807474
4632,20.04729750000115,0.008893318603898852,-0.025536560476284775,0.01509654605138717,0.04272284130084951,0.07380716237946418,-0.0570602873269668,0.04368314527624396,0.15200551441302423,-0.146296774447643,-0.1314900102438302,-0.05534051655757748,-0.08679732669072232
4633,20.05195449999883,0.008946378768835835,-0.025485145364629723,0.014935951625768051,0.04290992081683025,0.07446185999824537,-0.05769171263220181,0.04311369867702939,0.15175996962619298,-0.14666548112040784,-0.13270842687246226,-0.058572475581469476,-0.08423040675247061
4634,20.0569497999968,0.009417821356840389,-0.025007160616442446,0.014452055445566603,0.04309453448164208,0.07511546880655065,-0.05832470385147947,0.042539036192732645,0.15150049700123416,-0.14702307544010462,-0.13390971464292373,-0.061803601550105426,-0.08164230235461008
4635,20.061864500006777,0.009621574781801853,-0.02480840434500907,0.014191083694212198,0.04327665996640624,0.07576792877231407,-0.058959212868630186,0.041959232186239405,0.15122710123811814,-0.14736946663550193,-0.13509363460378848,-0.06503340969143767,-0.07903329103571176
4636,20.066637099997024,0.009802077069123031,-0.024620027932502037,0.013916715772185189,0.04345627526479009,0.07641917988881552,-0.05959519117827996,0.041374362045796614,0.15093978912725817,-0.14770456514198493,-0.1362599503070257,-0.06826141389790205,-0.07640365464841409
4637,20.069982100001653,0.009802077069123031,-0.024620027932502037,0.013916715772185189,0.0436333586974109,0.07706916218371908,-0.06023258989111098,0.04078450217408768,0.15063856955499214,-0.14802828262012796,-0.13740842786492533,-0.07148712681147543,-0.07375367932532861
4638,20.07435799999803,0.009843779792845321,-0.024492150180570667,0.013667444641969888,0.04380788891619279,0.07771781572813355,-0.06087135973920299,0.040189729977061835,0.15032345350869872,-0.14834053197411723,-0.13853883600672198,-0.0747100599094894,-0.07108365544407108
4639,20.079234100005124,0.010362501245335262,-0.024024426171788293,0.013102384232256854,0.04397984490867568,0.07836508064569374,-0.06151145108145483,0.03959012385251903,0.1499944540815449,-0.14864122737001992,-0.1396509461349037,-0.07792972359118798,-0.06839387759142444
4640,20.08362109999871,0.010585480182993068,-0.023812825721829852,0.01281838723096815,0.04414920600227519,0.07901089712166076,-0.062152813909085496,0.03898576317845163,0.14965158647686164,-0.1489302842538958,-0.1407445323811918,-0.08114562726501691,-0.06568464452664016
4641,20.087370000008377,0.010793464739183837,-0.023602991739787443,0.012540322164249534,0.04431595186849265,0.07965520541203994,-0.06279539785121423,0.03837672830114424,0.14929486801214356,-0.14920761936974766,-0.14181937166217778,-0.08435727943663136,-0.06295625914388435
4642,20.09082820000185,0.011010924952152185,-0.02337626754183633,0.012241208901120126,0.04448006252707402,0.08029794585271414,-0.06343915218051897,0.037763100523033416,0.1489243181226703,-0.14947315077730752,-0.14287524373460203,-0.08756418779760895,-0.06020902843383553
4643,20.094805900007486,0.011257957928611515,-0.023177345135317665,0.011924972330574483,0.04464151835011664,0.080939058868591,-0.06408402581897242,0.037144962090328505,0.14853995836474623,-0.14972679786965493,-0.14391193125026064,-0.09076585931485413,-0.0574432634444414
4644,20.098593600007007,0.011470134267423777,-0.02290409591081947,0.011654209635587285,0.04480030006612274,0.08157848498276164,-0.0647299673436547,0.03652239618039555,0.14814181241855665,-0.14996848139066427,-0.14492921981052528,-0.09396180032068037,-0.054659279240842025
4645,20.10252840000612,0.011643819818156742,-0.022679926651529424,0.011387260653594456,0.04495638876399824,0.08221616482566908,-0.06537692499264218,0.03589548688890593,0.147729906090638,-0.1501981234522776,-0.1459268980204616,-0.09715151660355598,-0.05185739486446704
4646,20.1059557999979,0.011860428667643648,-0.022418348819836467,0.011117077268387968,0.04510976589699593,0.08285203914428445,-0.06602484667097168,0.03526431921675158,0.14730426731596036,-0.15041564755159983,-0.14690475754253218,-0.10033451349949897,-0.049037933291314416
4647,20.10993690000032,0.012066155898609276,-0.02215297029331826,0.010858410116300423,0.045260413286601964,0.0834860488112898,-0.06667367995667917,0.034628979056728626,0.1468649261596192,-0.1506209785878137,-0.14786259314987035,-0.10351029598410585,-0.04620122138941833
4648,20.113490700008697,0.012066155898609276,-0.02215297029331826,0.010858410116300423,0.04540831312636463,0.08411813483426583,-0.0673233721069117,0.03398955317999129,0.1464119148181331,-0.15081404287891087,-0.1488002027791099,-0.10667836876519894,-0.04334758987551434
4649,20.117774300000747,0.01215825875155434,-0.021980329138503094,0.010637013542238252,0.04555344798566444,0.08474823836488235,-0.06797387006411178,0.033346129222278066,0.14594526762034385,-0.15099476817823473,-0.14971738758275566,-0.1098382363760762,-0.04047737327090999
4650,20.12149099999806,0.01215825875155434,-0.021980329138503094,0.010637013542238252,0.04569580081342461,0.0853763007080904,-0.06862512046227345,0.03269879566991243,0.145465021027917,-0.1511630836908309,-0.15061395198107985,-0.11298940326934744,-0.03759090985656931
4651,20.12493980000727,0.01215825875155434,-0.021980329138503094,0.010637013542238252,0.04583535494176101,0.08600226333131417,-0.06927706963326889,0.032047641845580205,0.14497121363544013,-0.15131892008960168,-0.15148970371353085,-0.11613137391134062,-0.03468854162741943
4652,20.12919449999754,0.012512034052259126,-0.021386661376004187,0.010157635571321925,0.045972094089570786,0.08662606787364129,-0.06992966361324465,0.03139275789388572,0.14446388617011766,-0.1514622095312612,-0.15234445388964,-0.11926365287706132,-0.03177061424588799
4653,20.1342355000088,0.013193851087504207,-0.020314081484005868,0.009364788368259134,0.046106002366058545,0.08724765615500954,-0.07058284814908668,0.030734234766688923,0.14394308149105872,-0.15159288567208767,-0.15317801703941264,-0.1223857449456875,-0.02883747699467981
4654,20.139905400006683,0.013375251882240206,-0.019990127760749443,0.009097028759635667,0.04623706427419923,0.0878669701853886,-0.07123656870495318,0.030072164208225775,0.14340884458815584,-0.15171088368346908,-0.15399021116318973,-0.12549715519658214,-0.025889482728801653
4655,20.14493019999645,0.013592190025332051,-0.019672414620794852,0.008820995385477034,0.046365264714136684,0.08848395217395522,-0.07189077046887482,0.029406638740014333,0.14286122258055275,-0.1518161402672382,-0.15478085778096656,-0.12859738910580618,-0.022926987826844096
4656,20.15023610000208,0.013776010948061924,-0.019373333569339235,0.008557097659633476,0.046490588986516916,0.08909854453826016,-0.07254539835942127,0.02873775164554872,0.14230026471470086,-0.15190859367079462,-0.15554978198115452,-0.13168595264311375,-0.0199503521415296
4657,20.155721800008905,0.014177419338863814,-0.018693707899871598,0.008079788981157606,0.046613022795754924,0.08971068991338492,-0.07320039703243324,0.028065596954783677,0.1417260223620015,-0.15198818370201064,-0.156296812468772,-0.13476235236941123,-0.016959938949535847
4658,20.16099340000073,0.014390716914764578,-0.018341321738473353,0.007838378598844413,0.04673255225323401,0.09032033116108605,-0.0738557108878188,0.02739026942841219,0.14113854901603237,-0.15205485174391764,-0.15702178161305125,-0.13782609553466194,-0.013956114900603557
4659,20.16457180000725,0.014610703449979483,-0.01800919524593608,0.0075428266013871335,0.046849163880436806,0.09092741137892522,-0.07451128407641232,0.026711864541938874,0.1405379002893556,-0.15210854076916963,-0.15772452549444696,-0.14087669017621784,-0.01093924996593827
4660,20.168600700009847,0.014842707909136409,-0.017636916380735595,0.007262080614468238,0.04696284461200719,0.0915318739093831,-0.07516706050689488,0.026030478469551616,0.13992413390990435,-0.15214919535428065,-0.15840488395103286,-0.14391364521755937,-0.00790971738591549
4661,20.172559700004054,0.01506753394432463,-0.01729830003512601,0.007018935947536274,0.04707358179874192,0.09213366234895547,-0.07582298385277529,0.025346208067794234,0.1392973097169474,-0.15217676169363292,-0.15906270062427316,-0.14693647056742373,-0.004867893617098695
4662,20.177211200003512,0.015257501926172642,-0.016936557251352187,0.0067527664701727795,0.0471813632105112,0.09273272055722968,-0.07647899755943062,0.02465915085904301,0.13865748965662875,-0.15219118761325243,-0.15969782300415505,-0.14994467721930274,-0.0018141582785798048
4663,20.18094020000717,0.015257501926172642,-0.016936557251352187,0.0067527664701727795,0.047286177039107063,0.09332899266593953,-0.07713504485120515,0.02396940501478991,0.13800473777708167,-0.152192422584349,-0.16031010247366811,-0.15293777735128955,0.0012511059023481421
4664,20.185520600003656,0.015382540012398263,-0.016746364173146573,0.006549888324083219,0.04738801190101876,0.09392242308799692,-0.07779106873856664,0.023277069338735405,0.13733912022311562,-0.15218041773661797,-0.16089939435261702,-0.1559152844262542,0.004327513145176346
4665,20.18962240000837,0.015952249976708136,-0.015847689254539027,0.005968302627759584,0.04748685684013422,0.09451295652649862,-0.07844701202531874,0.02258224324969387,0.13666070523047424,-0.1521551258713003,-0.1614655579407544,-0.15887671329232753,0.0074146746718137336
4666,20.193849600007525,0.01620341724951508,-0.015509264422937024,0.005676097753770292,0.04758270133036711,0.095100537983706,-0.07910281731586871,0.02188502676431453,0.13596956311966307,-0.15211650147399977,-0.16200845656022078,-0.16182158028367255,0.01051219876285864
4667,20.19776740000816,0.01620341724951508,-0.015509264422937024,0.005676097753770292,0.047675535278208614,0.09568511276999672,-0.07975842702254952,0.021185520479620877,0.13526576628934572,-0.15206450072725336,-0.16252795759727928,-0.16474940332152235,0.01361969081449866
4668,20.201532699997188,0.01634524151522151,-0.015199849998898535,0.0054487426211786575,0.04776534902520327,0.09626662651278632,-0.0804137833729954,0.02048382555537174,0.13454938920930776,-0.15199908152285171,-0.1630239325433317,-0.1676597020154626,0.016736753396028616
4669,20.20584770001005,0.016947771529379294,-0.014451404331166625,0.004811832080756893,0.047852133350348096,0.09684502516541821,-0.08106882841756947,0.01978004369624712,0.13382050841298643,-0.15192020347390778,-0.16349625703520207,-0.1705519977649369,0.019862986307976505
4670,20.21015189999889,0.017232134712542084,-0.014069811523779082,0.004448286754378869,0.04793587947241447,0.0974202550160201,-0.08172350403684243,0.019074277133862148,0.13307920248956587,-0.15182782792667202,-0.16394481089467386,-0.17342581386095207,0.022997986640827237
4671,20.214450600004056,0.01749582890075622,-0.013696732785893817,0.004125366623076254,0.048016579052191796,0.09799226269632465,-0.08237775194912084,0.018366628608612316,0.13232555207563665,-0.15172191797209095,-0.16436947816726744,-0.17628067558796004,0.0261413488343339
4672,20.21864690000075,0.017757262829419453,-0.013478086349960837,0.0038446045496455606,0.04809422419465215,0.09856099519045236,-0.08303151371802386,0.0176572013513534,0.13155963984641905,-0.15160243845710633,-0.16477014716024482,-0.17911611032589436,0.02929266473740621
4673,20.222559400004684,0.018034042613239463,-0.012978863363251573,0.0035204335583049304,0.048168807451035106,0.09912639984365504,-0.0836847307601074,0.016946099064919378,0.13078155050654874,-0.15146935599569264,-0.1651467104798296,-0.18193164765233827,0.03245152366856584
4674,20.226322700007582,0.018034042613239463,-0.012978863363251573,0.0035204335583049304,0.04824032182085197,0.0996884243710177,-0.08433734435253437,0.016233425905481942,0.12999137078042472,-0.15132263897963033,-0.1654990650676306,-0.18472681944480074,0.03561751247695832
4675,20.230618300003695,0.018217463117364448,-0.012706980803016299,0.0032167226920233657,0.048308760753808876,0.10024701686611666,-0.08498929564079005,0.015519286463755002,0.12918918940211885,-0.15116225758901172,-0.1658271122362569,-0.18750115998307673,0.03879021560391112
4676,20.235159600008046,0.01886546031950001,-0.011935328748828708,0.002516022556839079,0.04837411815164809,0.1008021258096322,-0.08564052564644115,0.014803785746047743,0.12837509710484674,-0.1509881838024767,-0.16613075770411123,-0.19025420605166715,0.04196921514502771
4677,20.239529600003152,0.019192237113461116,-0.011512892017261743,0.002181313176772196,0.04843638836990673,0.10135370007791401,-0.08629097527493701,0.014087029155169885,0.12754918660999928,-0.1508003914071767,-0.16640991162934946,-0.19298549704223322,0.045154090912806956
4678,20.243086200003745,0.019480911565831073,-0.011086878365343411,0.0018455069178854372,0.0484955662195922,0.10190168895149725,-0.08694058532345178,0.013369122471192822,0.1267115526157347,-0.1505988560084654,-0.16666448864299419,-0.19569457505605975,0.04834442049977725
4679,20.247638200002257,0.019727438853907053,-0.010590605385259414,0.0015294609283503862,0.04855164696877374,0.10244604212356719,-0.08758929648876614,0.012650171832070343,0.1258622917851307,-0.15038355503931414,-0.16689440788119086,-0.1983809850065026,0.05153977934213504
4680,20.25132009999652,0.020009134363535054,-0.010159116130488371,0.0011654160672979984,0.04860462634408938,0.1029867097083702,-0.08823704937518748,0.011930283714122667,0.12500150273389748,-0.15015446776944985,-0.16709959301659377,-0.2010442747213952,0.0547397407838773
4681,20.255573100002948,0.020312565107400773,-0.009729128697537316,0.0008256002464560438,0.0486545005321679,0.10352364224956981,-0.08888378450250736,0.01120956491238753,0.12412928601765223,-0.14991157531421356,-0.16727997228887032,-0.2036839950453886,0.0579438761414175
4682,20.259728100005304,0.020588714832236097,-0.009327417409985975,0.0004579531046634889,0.04870126618096506,0.10405679072854553,-0.0895294423139955,0.010488122520842195,0.12324574411875551,-0.14965486064313652,-0.16743547853431245,-0.2062996999422,0.06115175476867468
4683,20.263940700009694,0.020894264413537034,-0.00887261298123924,0.00012504264178859244,0.04874492040101357,0.10458610657263288,-0.09017396318442877,0.009766063912500253,0.12235098143270991,-0.14938430858823204,-0.1675660492145447,-0.2088909465967439,0.06436294412262479
4684,20.268456799996784,0.02119502869698832,-0.008442145229978387,-0.0001924883475099299,0.0487854607665862,0.10511154166330208,-0.09081728742815388,0.009043496719387156,0.12144510425412099,-0.1490999058520008,-0.1676716264443176,-0.2114572955171208,0.06757700982930373
4685,20.271786400000565,0.02119502869698832,-0.008442145229978387,-0.0001924883475099299,0.04882288531677168,0.10563304834427407,-0.09145935530718195,0.00832052881239855,0.12052822076222075,-0.14880164101514828,-0.16775215701837604,-0.21399831063643812,0.07079351575025146
4686,20.27646320000349,0.021398364596859,-0.008048085454968202,-0.0004885816722931652,0.0488571925564626,0.1061505794295724,-0.09210010703931398,0.007597268281045452,0.11960044100595472,-0.14848950454401288,-0.1678075924373915,-0.21651355941443642,0.07401202404938617
4687,20.2811478000076,0.02201125472084442,-0.0070451351543500875,-0.0011722387638163309,0.048888381457254854,0.1066640882115089,-0.09273948280629576,0.006873823413090422,0.11866187688863386,-0.14816348879770333,-0.16783788893294702,-0.21900261293889398,0.0772320952602983
4688,20.284712300010145,0.02231492490690112,-0.006599854931054976,-0.0015296850734201773,0.04891645145825806,0.1071735284686017,-0.09337742276200099,0.006150302674078807,0.1177126421521526,-0.1478235880349437,-0.16784300749156542,-0.22146504602678313,0.08045328835395385
4689,20.28934640000807,0.022618503434683666,-0.006130298653486341,-0.001905775934551066,0.04894140246681652,0.10767885447342375,-0.09401386704064092,0.005426814686769233,0.11675285236077412,-0.1474697984206247,-0.16782291387777004,-0.22390043732515266,0.08367516080679666
4690,20.293481400003657,0.022898920380513593,-0.00567173584992712,-0.0022862051539932946,0.048963234859140434,0.10818002100038021,-0.09464875576499913,0.004703468210467623,0.11578262488448393,-0.14710211803205958,-0.16777757865616738,-0.22630836941170876,0.08689726866923875
4691,20.297650699998485,0.023204524772323522,-0.005255206122510635,-0.002641473783899086,0.04898194948084723,0.10867698333341369,-0.09528202905469009,0.0039803721202690025,0.11480207888191332,-0.14672054686494254,-0.1677069772125417,-0.22868842889506738,0.09011916663452807
4692,20.301605300002848,0.023517128472103674,-0.004787994114378188,-0.0029942130846482323,0.04899754764741241,0.10916969727363583,-0.09591362703444005,0.0032576353862113798,0.11381133528283348,-0.14632508683900777,-0.16761108977395217,-0.23104020651465065,0.09334040810798296
4693,20.30551010000636,0.023813147287851708,-0.004318478100185361,-0.0033612500172109207,0.049010031144529675,0.10965811914688416,-0.09654348984238889,0.002535367052346074,0.11281051677022219,-0.145915741803388,-0.1674899014278221,-0.2333632972401986,0.09656054527658252
4694,20.31058679999842,0.024114358556797954,-0.0038874358783888593,-0.0037432107170619006,0.04901940222837999,0.11014220581120264,-0.09717155763841195,0.0018136762157288703,0.1117997477619056,-0.14549251754167059,-0.1673434021400114,-0.2356573003708683,0.09977912917890183
4695,20.31479109999782,0.024435643780355204,-0.0034609069042557056,-0.004174930136909145,0.04902566362580939,0.11062191466424351,-0.09779777061246046,0.0010926720053364275,0.11077915439177694,-0.14505542177664982,-0.1671715867718615,-0.23792181963389109,0.10299570977538061
4696,20.31864559999667,0.024783240074097004,-0.0029548044037747585,-0.004614301852730266,0.04902881853441517,0.11109720365058876,-0.09842206899291973,0.00037246356091238616,0.10974886449059384,-0.1446044641747746,-0.1669744550962056,-0.2401564632827582,0.10620983601891486
4697,20.32253900000069,0.02512843051728451,-0.0025601460495258896,-0.005027682828330016,0.04902887062254022,0.11156803126898926,-0.09904439305498358,-0.00034683998825231564,0.10870900756635632,-0.14413965635028989,-0.16675201181233484,-0.24236084419490675,0.10942105592576103
4698,20.32667000000947,0.025445710891396103,-0.0021327418223555427,-0.005463744563070975,0.04902582402917549,0.11203435657951957,-0.09966468312904374,-0.0010651295446003801,0.10765971478426704,-0.14366101186907124,-0.16650426655991277,-0.24453457996887756,0.11262891664674228
4699,20.33104689999891,0.025792101968903927,-0.001706957536136207,-0.005876509313073857,0.04901968336377024,0.11249613921064613,-0.10028287960909307,-0.0017822960636457727,0.10660111894627636,-0.143168546252152,-0.1662312339318288,-0.24667729302091504,0.11583296453874602
4700,20.334660799999256,0.02614063882919734,-0.0012622399538076566,-0.006404306600184672,0.049010453705949794,0.11295333936620702,-0.10089892296114152,-0.0024982305753634294,0.10553335447021422,-0.1426622769789412,-0.16593293348598348,-0.24878861068098104,0.11903274523650237
4701,20.338182899999083,0.02614063882919734,-0.0012622399538076566,-0.006404306600184672,0.04899814060514036,0.11340591783230201,-0.10151275373164331,-0.003212824205626414,0.10445655736851177,-0.14214222349013048,-0.16560938975599795,-0.25086816528815387,0.12222780372463296
4702,20.34186680000857,0.02614063882919734,-0.0012622399538076566,-0.006404306600184672,0.04898275008010064,0.11385383598409164,-0.1021243125559343,-0.003925968197685866,0.10337086522651474,-0.14160840719028847,-0.16526063226083992,-0.25291559428538374,0.12541768440995937
4703,20.34686839999631,0.0272154241472409,8.008101878048918e-05,-0.00790056506268003,0.04896428861836027,0.1142970557925027,-0.10273354016667795,-0.00463755393368905,0.10227641718039185,-0.14106085145014166,-0.1648866955133584,-0.25493054031357465,0.12860193119406094
4704,20.35140939999837,0.02762508742682518,0.00047708818568669353,-0.008442879908848525,0.04894276317556502,0.1147355398308389,-0.10334037740231865,-0.005347472956230765,0.10117335389464037,-0.1404995816085407,-0.1644876190277199,-0.256912651304964,0.1317800875460714
4705,20.35557260000496,0.027907618852983155,0.0008907321774062999,-0.008889468291871566,0.04891818117472883,0.11516925128129464,-0.10394476521554068,-0.006055616989933395,0.10006181753919169,-0.13992462497411157,-0.16406344732573921,-0.25886158057577263,0.13495169657570408
4706,20.359850399996503,0.028336555349738925,0.0013397149064638617,-0.00947129774953799,0.04889055050539243,0.11559815394137025,-0.10454664468173173,-0.006761877963050795,0.09894195176611903,-0.13933601082659086,-0.163614229942098,-0.26077698691809725,0.13811630110649503
4707,20.36425009999948,0.028646693592420096,0.0016564777589111825,-0.009916464023114482,0.04885987952268879,0.11602221223018774,-0.10514595700744993,-0.007466148029091257,0.09781390168595122,-0.13873377041784432,-0.1631400214284446,-0.2626585346910175,0.14127344374925332
4708,20.368205000006128,0.029030329408297417,0.002167783415308477,-0.010457305355818472,0.04882617704631529,0.11644139119470508,-0.10574264353889322,-0.008168319588454697,0.09667781384359625,-0.13811793697256755,-0.162640881356368,-0.2645058939108878,0.14442266697570866
4709,20.372472700008075,0.02937628252234737,0.00269570774194099,-0.010998589595392466,0.048789452359412455,0.11685565651582779,-0.10633664577037054,-0.008868285310079202,0.09553383619387783,-0.13748854568866764,-0.16211687431924082,-0.2663187403407831,0.1475635131923462
4710,20.37636390000989,0.0297134630744989,0.003138658247510416,-0.01146570868956653,0.04874971520734929,0.11726497451441598,-0.10692790535277256,-0.009565938153092056,0.09438211807668831,-0.13684563373732486,-0.16156806993292586,-0.26809675557906837,0.15069552481441828
4711,20.380558200005908,0.030013720514490774,0.003592454193164863,-0.011936392998234638,0.04870697579641512,0.1176693121571852,-0.1075163641020414,-0.010261171388460303,0.09322281019176216,-0.13618924026273277,-0.16099454283534104,-0.26983962714706017,0.1538182443401227
4712,20.38479360000929,0.030419341625359114,0.0040886761542527125,-0.012488497177825492,0.048661244792417784,0.11806863706249973,-0.10810196400763811,-0.010953878620635895,0.09205606457307434,-0.13551940638151616,-0.16039637268487691,-0.2715470485757501,0.15693121442493885
4713,20.38911580000422,0.030736514550253946,0.004526510728423361,-0.012971770026133927,0.04861253331918809,0.11846291750605675,-0.1086846472410062,-0.011643953809190423,0.09088203456286721,-0.13483617518182703,-0.15977364415766146,-0.27321871949156135,0.160033977956112
4714,20.393453700002283,0.031038587781695024,0.0049441899981861395,-0.013452012573510279,0.04856085295699061,0.11885212242645933,-0.10926435616403027,-0.01233129129043448,0.08970087478531011,-0.13413959172211815,-0.15912644694366795,-0.27485434570110845,0.1631260781272758
4715,20.397397799999453,0.031311165421838726,0.0055376417072601925,-0.013912423433223707,0.04850621574084078,0.11923622143067683,-0.10984103333748806,-0.013015785799016667,0.08851274111979544,-0.1334297030295934,-0.1584548757416612,-0.2764536392749306,0.16620705851320303
4716,20.40149540000129,0.031542551996323796,0.006084713855881588,-0.014380492208885098,0.04844863415872841,0.11961518479939136,-0.11041462152949466,-0.013697332489497284,0.08731779067387574,-0.1327065580983343,-0.1577590302529788,-0.27801631863017,0.16927646314467495
4717,20.40569020000112,0.031882458786582496,0.006531895232482175,-0.014881920274264469,0.04838812114974768,0.11998898349222781,-0.11098506372393736,-0.01437582695789162,0.0861161817558464,-0.13197020788710256,-0.15703901517414437,-0.279542108612166,0.17233383658346002
4718,20.40926310000941,0.031882458786582496,0.006531895232482175,-0.014881920274264469,0.04832469010213372,0.12035758915286601,-0.11155230312890022,-0.015051165263177789,0.08490807384697918,-0.13122070531681918,-0.15629494018830908,-0.2810307405749349,0.1753787239973915
4719,20.41432180000993,0.03218265716982741,0.006995760372872959,-0.015331645501083044,0.04825835485120615,0.12072097411403292,-0.11211628318507687,-0.015723243948764096,0.08369362757341102,-0.13045810526771942,-0.15552691995551865,-0.2824819524605069,0.17841067123553472
4720,20.417796200010343,0.03218265716982741,0.006995760372872959,-0.015331645501083044,0.048189129677220055,0.12107911140237433,-0.11267694757417042,-0.01639196006391094,0.08247300467769311,-0.12968246457618518,-0.1547350741018026,-0.2838954888770917,0.18142922490343444
4721,20.42239230000996,0.0327179100917404,0.008178592393062923,-0.01621794860440451,0.04811702930312496,0.12143197474320447,-0.11323424022727899,-0.017057211185102165,0.08124636799000552,-0.12889384203125367,-0.15391952720708332,-0.28527110117604404,0.18443393243843306
4722,20.42664590000641,0.03325676011332627,0.009226603148578694,-0.01711897974293418,0.04804206889223203,0.1217795385651319,-0.11378810533326633,-0.01771889543736082,0.08001388139904174,-0.12809229837080133,-0.15308040879190296,-0.28660854752760073,0.18742434218505
4723,20.43057019999833,0.033564127408122486,0.009676328712763294,-0.0176298795201509,0.04796426404578972,0.12212177800456088,-0.11433848734711563,-0.018376911515504257,0.07877570982256867,-0.12727789627740277,-0.1522178533029652,-0.28790759299536023,0.19040000347041156
4724,20.435479000007035,0.03384545285327421,0.010220574634582608,-0.01803950902195361,0.04788363080046781,0.12245866891006633,-0.11488533099826487,-0.01903115870533337,0.07753201917766776,-0.12645070037386502,-0.1513320000974902,-0.28916800960947436,0.19336046667972193
4725,20.438979700003983,0.034126433121710785,0.01084338409394126,-0.018497069241414036,0.047800185625750335,0.12279018784664143,-0.11542858129892315,-0.019681536904750746,0.07628297635066271,-0.12561077721843697,-0.15042299342638016,-0.2903895764385231,0.19630528333176425
4726,20.443234500009567,0.0343450704014054,0.011413460382145524,-0.018966077583643357,0.04771394542123759,0.12311631209981619,-0.11596818355236693,-0.020327946644802586,0.07502874916673896,-0.12475819529969415,-0.14949098241619324,-0.2915720796600425,0.19923400615442188
4727,20.448039700000663,0.03462137952988552,0.01201648968615375,-0.01948412826751321,0.04762492751385735,0.12343701967964488,-0.11650408336121457,-0.020970289110639334,0.07376950635926088,-0.12389302503109857,-0.1485361210499249,-0.2927153126296764,0.20214618916021052
4728,20.45158670000092,0.03497547885037126,0.01242031522009579,-0.020013971351192518,0.04753314965498592,0.12375228932456064,-0.1170362266356782,-0.021608466162389782,0.07250541753879236,-0.12301533874523363,-0.1475585681465951,-0.29381907594892326,0.2050413877218112
4729,20.4558926000027,0.03523123042776759,0.013068839496977023,-0.02049848016107658,0.0474386300174792,0.1240621005050957,-0.11756455960179132,-0.022242380355943493,0.07123665316182702,-0.12212521068771397,-0.14655848733964183,-0.2948831775314514,0.2079191586475939
4730,20.459696100006116,0.03548189796563487,0.013717739925423732,-0.021008111958339532,0.04734138719261426,0.1243664334274662,-0.1180890288096106,-0.022871934963636445,0.06996338449923453,-0.12122271701077021,-0.14553604705412024,-0.2959074326679553,0.2107790602571219
4731,20.463943499999004,0.03578238331680562,0.014280993902095897,-0.02149815995312815,0.04724144018694175,0.12466526903702052,-0.1186095811413908,-0.02349703399483465,0.06868578360442947,-0.12030793576650906,-0.14449142048270774,-0.2968916640895269,0.21362065245662823
4732,20.468028300005244,0.03614789176809704,0.014770852733151311,-0.022061923064360896,0.04713880841904982,0.12495858902154991,-0.11912616381973148,-0.024117582216410662,0.06740402328126908,-0.11938094689984914,-0.14342478556051544,-0.2978357020295159,0.21644349681445327
4733,20.47221740000532,0.036457854619335935,0.01542529433706988,-0.022577404165522428,0.04703351171623987,0.1252463758144604,-0.11963872441569358,-0.024733485173107892,0.06611827705168638,-0.1184418322411329,-0.14233632493870585,-0.2987393842838509,0.2192471566364346
4734,20.47674779999943,0.03679707016513127,0.016014279425692047,-0.023091478150228453,0.04692557031111494,0.12552861259780465,-0.12014721085688435,-0.02534464920778752,0.06482871912306466,-0.11749067549841448,-0.14122622595691856,-0.29960255626979426,0.22203119704123883
4735,20.480510399997,0.037112954477414736,0.016537098369872858,-0.02357418952513316,0.04681500483808105,0.125805283305172,-0.12065157143550961,-0.025950981481552924,0.06353552435536039,-0.11652756224942365,-0.14009468061450517,-0.30042507108310534,0.2247951850356243
4736,20.48477710000589,0.037409728464933484,0.01719495349205685,-0.024115711017790715,0.04670183632976233,0.12607637262443552,-0.12115175481639187,-0.026552389993746532,0.06223886822798083,-0.11555257993320577,-0.13894188554057504,-0.3012067895535851,0.22753868958962392
4737,20.488862700003665,0.0377054113536658,0.017778124363779464,-0.024674736060373306,0.04658608621333061,0.1263418660003548,-0.12164771004495285,-0.027148783601814067,0.06093892680642335,-0.11456581784143886,-0.1377680419628547,-0.301947580298979,0.23026128171163876
4738,20.49309709999943,0.038021686511939205,0.018396280277552936,-0.02518959652582332,0.04646777630675026,0.12660174963703294,-0.12213938655515921,-0.027740072041031,0.059635876708683554,-0.11356736710942872,-0.13657335567536377,-0.30264731977721215,0.23296253452343146
4739,20.49762730000657,0.03832363189750957,0.019001664792569165,-0.025684095411023834,0.04634692881493908,0.12685601050022738,-0.1226267341774299,-0.028326165944086167,0.058329895071439215,-0.1125573207067821,-0.13535803700491036,-0.30330589233693084,0.2356420233350099
4740,20.501625600008992,0.03861393509082963,0.01956131205224957,-0.02616439440583856,0.046223566325845906,0.12710463631951366,-0.12310970314650369,-0.028906976860517478,0.05702115951601709,-0.11153577342775887,-0.1341223007764086,-0.3039231902663275,0.23829932571939072
4741,20.50583629999892,0.038888185316076254,0.020064066817581747,-0.026690214922917246,0.046097711806445785,0.1273476155903024,-0.1235882441092653,-0.029482417275994616,0.05570984811415004,-0.11050282188130316,-0.1328663662770231,-0.30449911384022454,0.240934021587233
4742,20.509810600007768,0.0392212132370251,0.02084015909494031,-0.02722686342897106,0.04596938859865318,0.12758493757570874,-0.1240623081325299,-0.030052400631443793,0.05439613935353164,-0.10945856448075317,-0.13159045721914414,-0.30503357136539155,0.2435456932613311
4743,20.514059399996768,0.03945703555014587,0.02144662346734836,-0.027691067180850945,0.04583862041515418,0.1278165923082742,-0.12453184671078445,-0.030616841342009687,0.053080212103175865,-0.10840310143323063,-0.13029480170219773,-0.3055264792240727,0.24613392555095698
4744,20.519996900009573,0.03976341479284516,0.022018200714355486,-0.028160771957531992,0.04570543133515836,0.12804257059153992,-0.12499681177388507,-0.03117565481584952,0.05176224557858967,-0.10733653472871002,-0.12897963217329578,-0.30597776191570025,0.24869830582604094
4745,20.52515410000342,0.04003481833186854,0.022548901252873357,-0.028639811045545645,0.04556984580007083,0.12826286400147147,-0.1254571556947086,-0.03172875747275443,0.050442419306766136,-0.10625896812876909,-0.12764518538673056,-0.3063873520967727,0.25123842409118113
4746,20.531048500008183,0.04058972854617346,0.02383884033017195,-0.029621514517687787,0.04543188860908529,0.12847746488773445,-0.12591283129675707,-0.03227606676259318,0.04912091309100642,-0.10517050715502185,-0.12629170236231949,-0.30675519061887546,0.2537538730594714
4747,20.539501000006567,0.04121226913165305,0.024949508502117954,-0.030631037088949868,0.04529158491469906,0.12868636637482084,-0.12636379186171354,-0.03281750118357322,0.047797906975578563,-0.10407125907723548,-0.12491942834260543,-0.30708122656482034,0.25624424822613623
4748,20.54394650000904,0.04121226913165305,0.024949508502117954,-0.030631037088949868,0.045148960218150756,0.12888956236302365,-0.1268099911369473,-0.033352980300314056,0.04647358121022125,-0.10296133290113212,-0.12352861274891873,-0.30736541728288064,0.2587091479419644
4749,20.547364700003527,0.04121226913165305,0.024949508502117954,-0.030631037088949868,0.0450040403647814,0.12908704752925992,-0.12725138334296604,-0.03388242476172829,0.045148116214500614,-0.1018408393558759,-0.1221195091363068,-0.3076077284190985,0.26114817348653113
4750,20.553392700006956,0.041464991239127426,0.02550418768629834,-0.031090552931402643,0.044856851539319786,0.12927881732774146,-0.1276879231808143,-0.03440575631870541,0.0438216925420281,-0.10070989088124611,-0.12069237514733791,-0.30780813394764295,0.2635609291411973
4751,20.55669460000354,0.041464991239127426,0.02550418768629834,-0.031090552931402643,0.04470742026109302,0.12946486799049278,-0.12811956583941653,-0.034922897841593734,0.04249449084454782,-0.09956860161449695,-0.11924747246478552,-0.30796661619919763,0.26594702226187417
4752,20.560060200004955,0.04241017063540583,0.027381930345159542,-0.032549154359584234,0.04455577337916314,0.12964519652771503,-0.12854626700286373,-0.03543377333747558,0.04116669183590191,-0.09841708737690509,-0.1177850667632002,-0.30808316588736123,0.2683060633515451
4753,20.56342279999808,0.04241017063540583,0.027381930345159542,-0.032549154359584234,0.04440193806739058,0.12981980072799626,-0.12896798285764258,-0.035938307967230784,0.03983847625588239,-0.09725546566000605,-0.11630542765937686,-0.30815778213304357,0.27063766613253276
4754,20.56849940000393,0.04301482136451702,0.028563252468224117,-0.03352261291063429,0.04424594181942537,0.12998867915836773,-0.12938467009980667,-0.036436428062383786,0.03851002483397851,-0.0960838556115205,-0.11480882866172519,-0.3081904724868416,0.27294144761850303
4755,20.57295349999913,0.0435932675830764,0.029839195026270946,-0.034498742419830336,0.044087812443626626,0.13015183116420553,-0.12979628594208784,-0.03692806114172944,0.03718151825302815,-0.0949023780209715,-0.11329554711855228,-0.30818125294937654,0.2752170281861954
4756,20.576264700008323,0.0435932675830764,0.029839195026270946,-0.034498742419830336,0.043927578057911504,0.1303092568689779,-0.13020278812094552,-0.03741313592773303,0.03585313711278209,-0.09371115530499388,-0.11176586416526518,-0.3081301479895754,0.27746403164686906
4757,20.580048600008013,0.0435932675830764,0.029839195026270946,-0.034498742419830336,0.04376526708453455,0.13046095717383754,-0.13060413490355288,-0.03789158236270008,0.03452506189338972,-0.09251031149233724,-0.11022006467050283,-0.3080371905608812,0.27968208531745553
4758,20.584482000005664,0.04394914042581251,0.030361107244280216,-0.03504844538794911,0.04360090824479844,0.13060693375705765,-0.1310002850947184,-0.038363331624711595,0.0331974729188154,-0.09129997220856388,-0.10865843718120577,-0.3079024221153765,0.2818708200914075
4759,20.589188300000387,0.04495155130148861,0.0323528043319182,-0.03656021079291539,0.04343453055369708,0.13074718907331068,-0.13139119804374175,-0.03882831614332014,0.03187055032019443,-0.09008026466044311,-0.107081273866633,-0.30772589261580496,0.2840298705092326
4760,20.595706400010386,0.04523440212281489,0.033014479406852267,-0.03709817839803138,0.04326616331449196,0.13088172635279008,-0.1317768336512032,-0.03928646961500224,0.03054447399913784,-0.0888513176200432,-0.10548887046133616,-0.30750766054547674,0.286158874828701
4761,20.6009836000012,0.04580381332027244,0.03438714342498906,-0.03798680104336007,0.04309583611322269,0.13101054960017489,-0.13215715237568568,-0.039737727018362576,0.029219423590994786,-0.08761326140852231,-0.1038815262071016,-0.3072477929160437,0.28825747509471766
4762,20.60438879999856,0.04580381332027244,0.03438714342498906,-0.03798680104336007,0.04292357881315299,0.131133663593437,-0.13253211524042802,-0.04018202462908568,0.027895578428081786,-0.08636622787961977,-0.1022595437938712,-0.30694636527312913,0.29032531720884774
4763,20.60808299999917,0.04580381332027244,0.03438714342498906,-0.03798680104336007,0.042749421549153024,0.13125107388249108,-0.13290168383990753,-0.04061930003463066,0.026573117502887978,-0.08511035040284941,-0.1006232292996528,-0.3066034616997984,0.29236205099848434
4764,20.611773399999947,0.046121945732962265,0.03503127156862928,-0.03847838665393508,0.04257339472201906,0.13136278678768712,-0.13326582034635046,-0.04104949214866451,0.025252219431265804,-0.08384576384639657,-0.09897289212943113,-0.30621917481785754,0.2943673302856483
4765,20.616146300002583,0.04676363238304851,0.03632932267740171,-0.03953874434045018,0.04239552899273182,0.13146880939814554,-0.13362448751616987,-0.04147254122522976,0.023933062415616598,-0.08257260455972008,-0.09730884495309051,-0.3057936057869689,0.2963408129554101
4766,20.62040990000241,0.04703339545839655,0.0370157239426203,-0.03998171825544626,0.042215855276654245,0.13156914956993454,-0.13397764869632922,-0.041888388872642235,0.02261582420808054,-0.08129101035586142,-0.09563140364236117,-0.30532686430157324,0.2982821610239231
4767,20.624832600005902,0.04725506472931126,0.03777256228996852,-0.0403770195797629,0.04203440473766989,0.1316638159240904,-0.13432526783063078,-0.04229697806711493,0.021300682073740564,-0.08000112049346271,-0.09394088720680065,-0.3048190685856067,0.3001910407060568
4768,20.62891529999615,0.0475080427663769,0.03844961466493295,-0.040884278079194196,0.041851208782262936,0.13175281784448112,-0.134667309465927,-0.04269825316610397,0.019987812753849827,-0.07870307565849576,-0.09223761772882312,-0.30427034538500214,0.30206712248261886
4769,20.634925100006512,0.048013549306956206,0.039840231822548026,-0.04174817655072135,0.04166629905354095,0.13183616547551255,-0.13500373875825344,-0.043092159921372705,0.0186773924290922,-0.07739701794570371,-0.0905219202977888,-0.30368082995796436,0.3039100811671562
4770,20.63888490000681,0.04819521554586656,0.04065707523410799,-0.04226926282357051,0.041479707425201746,0.13191386971967684,-0.1353345214788812,-0.04347864549176987,0.01736959668288546,-0.07608309083975705,-0.08879412294316695,-0.30305066606300946,0.3057195959723239
4771,20.644193000000087,0.04843254339288064,0.04141008844383574,-0.04273220448691899,0.04129146599544565,0.13198594223494364,-0.13565962402028756,-0.04385765845571808,0.01606460046473687,-0.0747614391961256,-0.08705455656678583,-0.3023800059447622,0.30749535057581134
4772,20.64822460000869,0.0486639373686597,0.041968490634704474,-0.04318490194873852,0.04110160708083454,0.13205239543199496,-0.13597901340204355,-0.04422914882340883,0.014762578053660873,-0.07343220922166845,-0.0853035548741837,-0.3016690103175051,0.30923703318581314
4773,20.65191840000625,0.0486639373686597,0.041968490634704474,-0.04318490194873852,0.04091016321009876,0.13211324247130324,-0.1362926572766175,-0.044593068048699995,0.013463703021668688,-0.07209554845494366,-0.083541454305075,-0.3009178483464727,0.3109443366060337
4774,20.65642100000696,0.048894687268050255,0.04275940531996596,-0.04372259869342134,0.040717167117893145,0.13216849726005342,-0.13660052393509306,-0.04494936904071179,0.012168148197339404,-0.07075160574624013,-0.08176859396294588,-0.3001266976268885,0.3126169583002137
4775,20.65990640000382,0.04933888932858514,0.04429765304558369,-0.04458761427166654,0.04052265173850363,0.13221817444890924,-0.13690258231280028,-0.04529800617511766,0.010876085629482451,-0.06940053123733393,-0.07998531554379375,-0.2992957441607376,0.3142546004561675
4776,20.664283500009333,0.04951431364075235,0.04509984215128038,-0.045107210484034425,0.040326650199505806,0.13226228942862356,-0.1371988019948581,-0.04563893530512639,0.00958768655090121,-0.06804247634097121,-0.07819196326402592,-0.29842518233127263,0.3158569700493212
4777,20.66822370000591,0.04975946339008619,0.04594478449948365,-0.045641278707527794,0.04012919581537652,0.13230085832649296,-0.13748915322162805,-0.04597211377215209,0.008303121342267558,-0.06667759372007963,-0.07638888378753342,-0.29751521487524585,0.317423778905739
4778,20.67226639999717,0.04975946339008619,0.04594478449948365,-0.045641278707527794,0.039930322081060246,0.13233389800265713,-0.13777360689407836,-0.046297500416168536,0.007022559496117251,-0.06530603726671087,-0.07457642615195545,-0.2965660528528662,0.3189547437646273
4779,20.67731270000513,0.04991055977434846,0.04671337067200428,-0.04606488800813964,0.03973006266549161,0.13236142604624293,-0.13805213457905682,-0.046615055585744435,0.0057461695809761,-0.06392796208071638,-0.07275494169415055,-0.29557791561547775,0.32044958634030374
4780,20.680887299997263,0.050354751749295164,0.04832919614900306,-0.047146896713244596,0.039528451405075556,0.1323834607713542,-0.13832470851447093,-0.046924741147756285,0.004474119205626837,-0.06254352444815871,-0.07092478397489103,-0.29455103077095934,0.32190803338361984
4781,20.68509780000022,0.05055934861567996,0.0492023136666556,-0.04763543400637405,0.039325522297126506,0.13240002121290778,-0.1385913016143743,-0.04722652049677562,0.00320657498352657,-0.06115288181946125,-0.06908630870279765,-0.29348563414684425,0.32332981674282635
4782,20.68890150000516,0.05074902517166048,0.05006000718777928,-0.04820433676436796,0.039121309493268,0.13241112712231606,-0.1388518874739586,-0.047520358564127424,0.0019437024973847643,-0.05975619278729853,-0.06723987365753134,-0.29238196975116093,0.32471467342387206
4783,20.693329900008397,0.05074902517166048,0.05006000718777928,-0.04820433676436796,0.03891584729279402,0.13241679896301736,-0.1391064403744488,-0.047806221826616424,0.000685666263911627,-0.05835361706422986,-0.06538583861225947,-0.29124028973099547,0.32606234565012315
4784,20.69756850000704,0.05095466978332166,0.050930837638365214,-0.048739501910545456,0.03870917013599343,0.1324170579058538,-0.13935493528790002,-0.04808407831491831,-0.0005673703012532189,-0.05694531546007869,-0.06352456525541386,-0.29006085432877704,0.3273725809214922
4785,20.70141560000775,0.05142057579529452,0.05256636969997464,-0.049878383576973925,0.03850131259743918,0.13241192582429703,-0.13959734788189448,-0.048353897621632995,-0.0018152449184218786,-0.05553144985906071,-0.061656417111758684,-0.2888439318362893,0.3286451320729646
4786,20.70690689999901,0.05164244634967072,0.05341923537697863,-0.050440480255062016,0.03829230937924376,0.1324014252895231,-0.1398336545241374,-0.04861565090899686,-0.0030577964785392657,-0.054112183196663305,-0.05978175946278628,-0.28758979854641303,0.32987975733250896
4787,20.710525900009088,0.05164244634967072,0.05341923537697863,-0.050440480255062016,0.038082195304282744,0.13238557956533836,-0.14006383228695124,-0.04886931091625124,-0.004294865077654238,-0.05268767943627918,-0.057900959266459606,-0.28629873870260175,0.33107622037835727
4788,20.71409370000765,0.05180879188035814,0.05434941423274926,-0.0510853173823618,0.03787100530938777,0.13236441260295767,-0.14028785895166732,-0.049114851966664576,-0.005526292051170942,-0.05125810354559705,-0.05601438507631985,-0.28497104444609456,0.33223429039564417
4789,20.71850390000327,0.052167982904821185,0.05599282383642655,-0.05223225427693847,0.03765877443851031,0.1323379490356349,-0.14050571301291392,-0.04935224997420552,-0.006751920007870526,-0.04982362147275206,-0.05412240695997828,-0.2836070157608723,0.3333537421323932
4790,20.722161300000156,0.052167982904821185,0.05599282383642655,-0.05223225427693847,0.03744553783585784,0.13230621417314697,-0.1407173736827992,-0.04958148244986437,-0.007971592863693405,-0.048384400122238526,-0.05222539641701168,-0.2822069604163627,0.3344343559548381
4791,20.72692719999759,0.05233486225194989,0.05685111863196292,-0.05283757103929874,0.03723133073900399,0.132269233996132,-0.14092282089498767,-0.0498025285076201,-0.009185155875272284,-0.04694060733058785,-0.05032372629628099,-0.2807711939079013,0.3354759179020659
4792,20.730569200008176,0.05273107906267432,0.05856105351313719,-0.05401195940535758,0.03701618847197408,0.13222703515028172,-0.1411220353086693,-0.05001536887005083,-0.010392455673206222,-0.04549241184181446,-0.04841777071269293,-0.27930003939495823,0.3364782197399697
4793,20.73675340000773,0.052888856428890706,0.05939734363661163,-0.05463940002870324,0.03680014643830776,0.1321796449403897,-0.14131499831242075,-0.05021998587358556,-0.011593340295065972,-0.04403998328263317,-0.04650790496342462,-0.2777938276371388,0.3374410590144989
4794,20.741207400002168,0.05308960846925131,0.06025330236728834,-0.05526738984106435,0.036583240114100184,0.13212709132425543,-0.14150169202795732,-0.05041636347339505,-0.012787659218120952,-0.04258349213745099,-0.04459450544363163,-0.2762528969279701,0.3383642391041915
4795,20.745082399997045,0.053213855026747144,0.06113206349101273,-0.055873493924422236,0.03636550504102357,0.1320694029064461,-0.1416820993137742,-0.05060448724791963,-0.01397526339177826,-0.041123109723136306,-0.04267794956165981,-0.27467759302648337,0.3392475692719773
4796,20.74907289999828,0.053421868167595025,0.06208290861204697,-0.05648415052005497,0.03614697681933046,0.1320066089319159,-0.14185620376867702,-0.05078434440303177,-0.015156005269724238,-0.03965900816356895,-0.040758615653781714,-0.2730682690866034,0.3400908647162375
4797,20.753235800002585,0.05356201710821247,0.06288245381488004,-0.05702508507747596,0.03592769110084028,0.1319387392794847,-0.14202398973520033,-0.05095592377583136,-0.01632973884175903,-0.03819136036397408,-0.03883688289847866,-0.2714252855843585,0.3408939466211095
4798,20.757279299999936,0.05368189896551543,0.06384191447285525,-0.05765802437195427,0.03570768358191076,0.13186582445517728,-0.14218544230291402,-0.05111921583807188,-0.017496319665314695,-0.03672033998504312,-0.03691313123028973,-0.26974901024292375,0.3416566422060238
4799,20.762639000007766,0.05378927199806484,0.06470233211034408,-0.05828616666277221,0.03548698999639584,0.13178789558542467,-0.14234054731161652,-0.051274212699215595,-0.01865560489664731,-0.03524612141684518,-0.03498774125324912,-0.26803981795551224,0.34237878477446065
4800,20.76845860001049,0.053924791585918945,0.06557764557492998,-0.05894199224521215,0.03526564610859148,0.1317049844101288,-0.14248929135441477,-0.05142090810911601,-0.019807453321693758,-0.03376887975253213,-0.03306109415393355,-0.26629809070612953,0.34306021376191137
4801,20.772180200001458,0.05424997053626219,0.06733405484035261,-0.060164409793548576,0.03504368770617106,0.13161712327559244,-0.1426316617806897,-0.05155929746032608,-0.02095172538658382,-0.032288790761840894,-0.0311335716141417,-0.2645242174882071,0.34370077478303146
4802,20.776643400007742,0.054395824473786374,0.06822025158953306,-0.06082688156455387,0.034821150593111715,0.131524345127316,-0.14276764669894706,-0.051689377790030924,-0.022088283227798364,-0.030806030864396525,-0.029205555723227992,-0.26271859422113264,0.34430031967797076
4803,20.78367010000511,0.05454354678910093,0.06915649891035383,-0.06142202079905969,0.03459807058261341,0.1314266835026621,-0.1428972349795523,-0.05181114778160363,-0.023216990701964296,-0.02932077710281942,-0.027277428890113264,-0.260881623664695,0.3448587065578673
4804,20.78933759999927,0.05465255552679461,0.06999929360965758,-0.06209943438893478,0.03437448349001257,0.13132417252338974,-0.1430204162573485,-0.05192460776578301,-0.02433771341527725,-0.027833207115640548,-0.02534957375499496,-0.25901371533146134,0.34537579984949196
4805,20.79417980001017,0.05488787829783078,0.0718397982868734,-0.06320889721869812,0.03415042512569159,0.13121684688805932,-0.14313718093415556,-0.052029759721472,-0.025450318752543017,-0.026343499110028375,-0.023422373100779742,-0.25711528539710904,0.3458514703390273
4806,20.8004277,0.055099107473923006,0.07270567183709624,-0.06387415401870654,0.033925931287985864,0.13110474186431045,-0.14324752018114997,-0.05212660727615587,-0.02655467590582875,-0.024851831834331217,-0.02149620976426154,-0.2551867566087313,0.3462855952149657
4807,20.80573230001028,0.05548238986798939,0.0745307942044593,-0.06528044486540806,0.033701037756090055,0.13098789328101418,-0.14335142594112402,-0.05221515570593909,-0.027650655902715253,-0.02335838455043902,-0.01957146654706841,-0.2532285581911394,0.34667805811011093
4808,20.81037710000237,0.055735300945390066,0.07531671623824547,-0.06601524136783816,0.03347578028296512,0.13086633752030194,-0.1434488909306249,-0.05229541193519981,-0.028738131634141673,-0.0218633370059685,-0.01764852612640154,-0.25124112575117996,0.3470287491426703
4809,20.8144323000015,0.05591930990984084,0.07635521633204595,-0.06680544122129033,0.03325019458824764,0.1307401115094743,-0.14353990864197322,-0.0523673845358612,-0.029816977881834007,-0.020366869406275537,-0.015727770965590172,-0.24922490118008991,0.34733756495642254
4810,20.81810289999703,0.05591930990984084,0.07635521633204595,-0.06680544122129033,0.03302431635116299,0.13060925271279125,-0.14362447334516026,-0.05243108372627902,-0.030887071345308905,-0.018869162386298786,-0.01380958322448621,-0.24718033255390973,0.34760440875994825
4811,20.82300600000599,0.05616422868303945,0.0771625004685803,-0.06757060301002302,0.032798181203443834,0.13047379912314655,-0.14370258008962405,-0.052486521369744785,-0.031948290668444325,-0.017370396982238502,-0.011894344669722499,-0.24510787403198134,0.34782919036490895
4812,20.82648479999625,0.05661410738846232,0.07892827620744922,-0.06904606953442372,0.03257182472225559,0.130333789253628,-0.14377422470590354,-0.052533710972603884,-0.03300051646560866,-0.01587075460307455,-0.009982436584858782,-0.24300798575355523,0.3480118262233591
4813,20.83092010000837,0.05679637811671197,0.07969509295288309,-0.06981987825689033,0.032345282423130554,0.1301892621289663,-0.1438394038071703,-0.05257266768198836,-0.03404363134734008,-0.014370417001927843,-0.008074239680439549,-0.24088113373253262,0.34815223946407914
4814,20.83488059999945,0.056973192825741134,0.0805513111634876,-0.07058983385937394,0.032118589752912305,0.13004025727687343,-0.14389811479063783,-0.05260340828316416,-0.03507751994556792,-0.012869566247269393,-0.006170134003988076,-0.23872778975036898,0.3482503599279168
4815,20.839129400003003,0.05720015017372641,0.08138254499339138,-0.07134498753220368,0.03189178208271187,0.12988681471927302,-0.14395035583884755,-0.05262595119649271,-0.03610206893836831,-0.01136838469398138,-0.004270498849961158,-0.2365484312471658,0.34830612420211965
4816,20.84339570000884,0.057382313207969445,0.08223991699657349,-0.0721095960246981,0.031664894700877376,0.12972897496342423,-0.1439961259208311,-0.052640316474006514,-0.03711716707424592,-0.009867054954274541,-0.0023757126696892067,-0.23434354121097745,0.3483194756536442
4817,20.84738839999773,0.05758190650925767,0.08295077215042293,-0.0728716554845023,0.03143796280597869,0.12956677899294083,-0.14403542479314807,-0.05264652579559891,-0.03812270519593437,-0.008365759868466254,-0.0004861529813265009,-0.23211360806536044,0.3482903644614275
4818,20.852192600010312,0.057776511681127386,0.08378613823771876,-0.07362189522725031,0.03121102149980883,0.12940026825870818,-0.14406825300079854,-0.052644602464827876,-0.03911857626370783,-0.006864682475623761,0.0013978037201635516,-0.2298591255551931,0.3482187476476057
4819,20.855959900000016,0.05797562304450108,0.08456482674297441,-0.07435022041049857,0.030984105780403757,0.12922948466969972,-0.14409461187800954,-0.05263457140433397,-0.04010467537819646,-0.005364005984077053,0.003275782052963138,-0.22758059263079652,0.3481045891076652
4820,20.859877099996083,0.058179169617657935,0.0853179920438198,-0.07507707380321703,0.030757250535082395,0.1290544705836949,-0.14411450354889527,-0.05261645915087287,-0.0410808998026985,-0.003863913741805928,0.0051474078382696496,-0.2252785133303876,0.3479478596395141
4821,20.864065800007666,0.05833139115665531,0.08614229472245713,-0.07585815404726313,0.030530490533508477,0.12887526879790057,-0.1441279309279904,-0.05259029384996277,-0.04204714898498184,-0.0023645892067058454,0.007012308190054981,-0.2229533966608965,0.34774853697145947
4822,20.868070700002136,0.05851055535482417,0.08688152679372668,-0.07656896327403309,0.030303860420775933,0.1286919225394777,-0.1441348977206551,-0.052556105250147304,-0.04300332457856792,-0.0008662159167372098,0.008870111604689255,-0.2206057564771788,0.3475066057890769
4823,20.873022800005856,0.05867231167065456,0.08772218425660401,-0.07728002821526964,0.03007739471051944,0.12850447545597565,-0.14413540842335154,-0.05251392469687465,-0.0439493304634911,0.0006310225400371731,0.010720448050403607,-0.21823611135965398,0.3472220577609589
4824,20.877295800004504,0.05884322990585127,0.08842668444888376,-0.07804227230281979,0.02985112777805173,0.12831297160567667,-0.14412946832379048,-0.05246378512599358,-0.044885072766526736,0.0021269425555216783,0.012562949056566576,-0.21584498449040346,0.3468948915633292
4825,20.88098400000308,0.05894787070363611,0.08930741940644842,-0.07871902764578093,0.029625093853529426,0.12811745544785358,-0.1441170835009474,-0.0524057210568673,-0.045810459880881116,0.003621360531759651,0.014397247802748604,-0.21343290352776206,0.34652511290350957
4826,20.884886700005158,0.05913661200895572,0.0900114820379199,-0.0794305631188986,0.029399327015149156,0.1279179718329423,-0.14409826082494784,-0.05233976858510602,-0.04672540248533688,0.0051140929112025195,0.01622297920754908,-0.21100040047943747,0.34611273454222574
