,time,x,y,z,vx,vy,vz,ax,ay,az,jx,jy,jz
2218,9.353187099972274,0.08380512895494505,-0.10730408245553319,-0.027810261834707,-0.007652177098327758,-0.047975472275607896,0.011485151867168142,0.0914259559995928,0.16477728307655085,0.00971720942228687,0.30174704671316915,0.783439704260232,-0.12083580954127854
2219,9.357893299951684,0.08377616287284881,-0.10751375955356084,-0.028078507027798582,-0.0072498910161114425,-0.047248233743778054,0.011526489080948344,0.09273807162298643,0.1682032120439271,0.009184571926073696,0.29904478316480265,0.7850882576753944,-0.12299014396992329
2220,9.362161599972753,0.08380266539472357,-0.10759552618538672,-0.028259681456011623,-0.006841899510094421,-0.046506014535893335,0.0115654789148861,0.09403824991907687,0.17163611040932472,0.008642507955157775,0.29628446554788973,0.7866320053912944,-0.1251501777572418
2221,9.366361499996856,0.08379500057334593,-0.10768240988000218,-0.02846246317443933,-0.006428255319169926,-0.04574878523947773,0.01160208011410972,0.09532623806131708,0.17507551871224875,0.008090993522230213,0.29346639406097746,0.7880701943646449,-0.1273155439726391
2222,9.370349599979818,0.08376518742233476,-0.10777599858833944,-0.02873357569674486,-0.006009012283669502,-0.044976518456180364,0.011636251322462777,0.09660178456457012,0.1785209742346122,0.007530006255865524,0.29059087978836184,0.7894020843028106,-0.12948587137504083
2223,9.374785299994985,0.08374338873261834,-0.10781934478394466,-0.028853193909001647,-0.005584225339354214,-0.04418918881584372,0.011667951089629437,0.09786463933257165,0.18197201105688568,0.006959525419143621,0.28765824469641454,0.7906269478664437,-0.13166078447291238
2224,9.379586800001562,0.08370501134901291,-0.10785056792719312,-0.028982009674100688,-0.005153950511198029,-0.043386772990324216,0.011697137878340922,0.09911455370536745,0.1854281601151266,0.006379531928002211,0.28466882162829665,0.7917440708714875,-0.13383990358564354
2225,9.383276399981696,0.08369596587372262,-0.1078723167495312,-0.029027989971789802,-0.0047182449069635675,-0.04256924970706126,0.011723770071661838,0.10035128050671907,0.1888889492588856,0.00579000836931364,0.2816229542970444,0.792752752490494,-0.13602284490628888
2226,9.38713429996278,0.08364851894696451,-0.10787091339984937,-0.029086386745904778,-0.004277166710570392,-0.04173659976239104,0.011747805980355158,0.10157457409147051,0.1923539033099876,0.005190939018680389,0.2785209972770122,0.7936523054532052,-0.13820922056565554
2227,9.391384799964726,0.08357076226386512,-0.10784918824059059,-0.029151687322995955,-0.003830775175256103,-0.04088880603460123,0.011769203850324638,0.10278419039286807,0.19582254412218472,0.004582309857943387,0.2753633159936574,0.7944420562463348,-0.14039863869772928
2228,9.395710499957204,0.08352142020628486,-0.10781452811159378,-0.029182358813469075,-0.0033791306165304935,-0.04002585349672313,0.011787921870133337,0.1039798869698261,0.199294390641677,0.0039641085923974,0.27215028671165115,0.7951213453125017,-0.1425907035064279
2229,9.399828499997966,0.08350246384842643,-0.10773649218484282,-0.029126323568302658,-0.0029222944049230918,-0.03914772922905745,0.011803918178596972,0.10516142305413112,0.2027689589684984,0.0033363246677077666,0.26888229652129847,0.7956895272482578,-0.144785015333672
2230,9.40372479998041,0.0834376215237077,-0.10764854258769631,-0.02913403732116529,-0.0024603289585244156,-0.03825442243143034,0.011817150872450772,0.10632855959757702,0.206245762418763,0.0026989492865227838,0.26555974332325133,0.7961459710011627,-0.14698117072876268
2231,9.408438699960245,0.083346738338543,-0.1075918398617409,-0.02917162500883015,-0.0019932977353213145,-0.03734592443517583,0.011827578014088496,0.10748105931902416,0.20972431158776875,0.00205197542477612,0.2621830358114986,0.7964900600658469,-0.14917876251905562
2232,9.411951099988071,0.08334642605506501,-0.10754620308150485,-0.029164082969574526,-0.0015212652253267915,-0.036422228714841395,0.011835157639372207,0.1086186867513744,0.21320411441395234,0.0013953978476736453,0.25875259345461593,0.7967211926790126,-0.15137737988191932
2233,9.41617529996438,0.08335931591903498,-0.10750050052992262,-0.029223314560871662,-0.0010442969425047237,-0.03548333089961301,0.011839847765511365,0.10974120828845454,0.21668467624369042,0.0007292131253591702,0.255268846475259,0.7968387820133175,-0.15357660841796716
2234,9.420844799955375,0.08343798968136841,-0.10749268602023711,-0.029390856470881906,-0.0005624594164899453,-0.03452922878445627,0.011841606399009807,0.11084839223180086,0.22016549989694137,5.341964825362767e-05,0.25173223582788523,0.7968422563700865,-0.15577603022555228
2235,9.424521299952175,0.0834449965348985,-0.1074929777289818,-0.029546557733785162,-7.582018410420167e-05,-0.033559922340969904,0.011840391543679074,0.11194000883733712,0.2236460857337238,-0.0006319823579377062,0.24814321317468785,0.7967310593708021,-0.15797522397651279
2236,9.4287257999531,0.08345950404018866,-0.10748444113492271,-0.02967972275025556,0.00041555221933148025,-0.03257541372794793,0.011836161208716611,0.1130158303619381,0.22712593172142695,-0.0013269908175553146,0.24450224085972452,0.7965046501473133,-0.16017376499315547
2237,9.43282879999606,0.08344885304192978,-0.10750878811710914,-0.029820567501962485,0.0009115882688874372,-0.03157570730164705,0.011828873416847342,0.11407563110987101,0.23060453350294666,-0.002031601790658163,0.2408097918812252,0.7961625035307062,-0.1623712253264667
2238,9.437206099973992,0.08341342255429626,-0.1075343696087665,-0.029916312725918173,0.0014122174591184179,-0.030560809625755345,0.011818486212527006,0.11511918747910709,0.23408138446564092,-0.002745809459044282,0.23706634986206204,0.7957041102387779,-0.1645671738355378
2239,9.441202399961185,0.08335200796340636,-0.10758506756392637,-0.029970476756249666,0.0019173683133583879,-0.02953072948105867,0.011804957670205644,0.11614627800749514,0.23755597581109833,-0.0034696061126243847,0.23327240901836507,0.7951289770620577,-0.16676117626819245
2240,9.445479599991812,0.0832760743204094,-0.1076366106132601,-0.030021280684830842,0.002426968393216407,-0.028485477874801088,0.0117882459026496,0.11715668341878956,0.2410277966257121,-0.004202982136153642,0.22942847412626766,0.7944366270483132,-0.16895279534280272
2241,9.448922399955336,0.0832760743204094,-0.1076366106132601,-0.030021280684830842,0.0029409443082728673,-0.02742506804973582,0.011768309069320438,0.11815018666852463,0.24449633395205286,-0.004945925996326657,0.225535060486765,0.7936265996854831,-0.1711415908312801
2242,9.452521999948658,0.08315673945851956,-0.1076794751095284,-0.030042114576983452,0.0034592217259753325,-0.02634951549286327,0.011745105384809093,0.11912657298972748,0.24796107286103164,-0.0056984242292406374,0.22159269388866978,0.7926984510829763,-0.17332711964322822
2243,9.456517099984922,0.08305297420881726,-0.10772254670487082,-0.030054612966966206,0.003981725381733188,-0.025258837943852707,0.0117185931273236,0.12008562993846154,0.2514214965248466,-0.0064604614282317225,0.21760191056964942,0.7916517541512826,-0.17550893591124272
2244,9.461988699971698,0.08282242549646819,-0.10779749940886478,-0.030012490825800823,0.004508379089210255,-0.024153055403144205,0.011688730647228678,0.12102714743919252,0.2548770862907047,-0.007232020232089346,0.21356325717532929,0.7904860987798369,-0.177686591077344
2245,9.466693299997132,0.08267120638955382,-0.10784598824111351,-0.03003728320612131,0.0050391057508145055,-0.023032190139727588,0.011655476375635482,0.12195091782996845,0.2583273217553118,-0.008013081313653435,0.20947729071644655,0.7892010920130803,-0.17985963398052787
2246,9.470611899974756,0.08267120638955382,-0.10784598824111351,-0.03003728320612131,0.005573827368383962,-0.02189626669859499,0.011618788833039803,0.12285673590740537,0.26177168084012287,-0.008803623368799189,0.2053445785240375,0.7877963582246598,-0.1820276109454198
2247,9.47530099999858,0.08261318715545064,-0.10788453439508602,-0.030013869952580333,0.006112465054067823,-0.02074531190786383,0.011578626638007005,0.12374439897146887,0.26520963986734625,-0.009603623105814073,0.20116569820264332,0.7862715392897015,-0.18419006587201758
2248,9.479278399958275,0.08258715330425999,-0.10790440740442243,-0.030087995553398174,0.006654939041401759,-0.019579354885567044,0.011534948515901972,0.12461370687004261,0.2686406736366929,-0.01041305523517158,0.19694123758151874,0.7846262947550998,-0.1863465403265078
2249,9.483261199959088,0.08264772312107181,-0.10791463583716543,-0.030236701613738592,0.007201168696576371,-0.018398427046107273,0.011487713307662295,0.1254644620432749,0.27206425550286306,-0.011231892459706275,0.19267179466382858,0.7828603020077602,-0.1884965736331414
2250,9.487338099977933,0.0826898218487297,-0.10791576455176843,-0.030408395632955342,0.007751072529897707,-0.01720256210637211,0.011436879978612889,0.12629646956769428,0.27547985745376247,-0.012060105465194544,0.18835797757381512,0.7809732564407387,-0.19063970296715252
2251,9.491955299978144,0.0827526381676035,-0.10791674481824778,-0.030579631055931016,0.00830456820743875,-0.015991796091507252,0.01138240762732025,0.12710953720008603,0.278886950189439,-0.012897662911345385,0.18400040450192032,0.778964871617217,-0.19277546344870433
2252,9.495847999991383,0.08281108192864924,-0.10792587616598827,-0.03069830596000261,0.008861572562880731,-0.014766167340344489,0.011324255494484509,0.12790347542112118,0.28228500320173033,-0.013744531423205539,0.17959970364784753,0.7768348794322522,-0.1949033882378463
2253,9.500048799964134,0.08284868372573005,-0.1079123594813094,-0.030805799775952727,0.009422001609543077,-0.01352571651048143,0.011262382971867478,0.128678097478728,0.28567348485461463,-0.014600675582983166,0.17515651316154796,0.7745830302722337,-0.19702300863046543
2254,9.50371759996051,0.08288772195187898,-0.10788175967754501,-0.030881078828605232,0.009985770552600762,-0.012270486583009997,0.011196749611254825,0.12943321943119732,0.28905186246525344,-0.015466057922294149,0.17067148108211655,0.772209093171984,-0.19913385415521467
2255,9.507850399997553,0.08298618993798629,-0.10780483169341272,-0.030812962758870608,0.010552793801487813,-0.011000522866890688,0.011127315133450544,0.13016866019001283,0.29241960238571685,-0.01634063891483512,0.166145265274581,0.7697128559694374,-0.20123545267140175
2256,9.512160199985374,0.08299165649024655,-0.10775840244200757,-0.030854791561710396,0.011122984982485642,-0.009715873002969663,0.011054039437301776,0.1308842415623979,0.2957761700853809,-0.01722437696948721,0.16157853336457023,0.7670941254578356,-0.20332733046782167
2257,9.516309899976475,0.08296411009882264,-0.10774760251752506,-0.031071165720429103,0.011696256951494842,-0.008416586967635848,0.010976882608752047,0.13157978829357037,0.29912103023398606,-0.018117228423854496,0.156971962670848,0.7643527275353736,-0.20540901236251538
2258,9.520575299975462,0.08298253129504471,-0.10770400775620836,-0.031163756772796942,0.01227252180698913,-0.007102717076115279,0.01089580492992101,0.13225512810869644,0.3024536467853448,-0.01901914753824098,0.15232624013569768,0.7614885073522334,-0.20748002180343572
2259,9.524862999969628,0.08300966139395784,-0.10763840354354173,-0.031208701428945447,0.012851690903150045,-0.005774317985399915,0.010810766888208695,0.13291009175453355,0.30577348306168506,-0.019930086490069884,0.14764206225314389,0.7585013294549441,-0.20953988097000242
2260,9.52905529999407,0.08300965202013452,-0.10757621666284813,-0.03130866116774591,0.013433674863180927,-0.004431446696808286,0.010721729185422278,0.1335445130407542,0.3090800018386183,-0.0208499953687489,0.14292013499499842,0.7553910779280054,-0.21158811087552812
2261,9.533649899996815,0.08304617302509718,-0.10753315511542305,-0.03137980065668768,0.014018383592798661,-0.0030741625581752596,0.010628652746923322,0.1341582288809407,0.3123726654307185,-0.021778822170984865,0.13816117373471712,0.7521576565327133,-0.21362423147049753
2262,9.538203199976124,0.08312306553760498,-0.10751019356282075,-0.03165339469704582,0.014605726293901597,-0.0017025272656683533,0.010531498730793523,0.13475107933324093,0.3156509357776988,-0.0227165127965514,0.13336590316905544,0.7488009888431247,-0.21564776174668118
2263,9.541942099982409,0.0832019049857713,-0.10737976300480548,-0.0316429119345893,0.015195611478412094,-0.00031660486522803495,0.010430228537016884,0.13532290764067584,0.3189142745311708,-0.023663011044512905,0.1285350572375108,0.7453210183790974,-0.21765821984206438
2264,9.545644900004843,0.08325112480693314,-0.10733591814858423,-0.03178083353907064,0.0157879469822921,0.0010835382463705084,0.010324803816676258,0.13587356027109013,0.32216214314197505,-0.024618258609908246,0.12366937903953872,0.7417177087363429,-0.21965512314657185
2265,9.549559000006411,0.08331309946210749,-0.10730662173406777,-0.03191429326441845,0.01638263997973014,0.0024978333208365675,0.010215186481162234,0.1364028869567364,0.32539400294806925,-0.025582195080897218,0.11876962074953151,0.7379910437134343,-0.2216379884085691
2266,9.554173799988348,0.08333597329970424,-0.10728548926528815,-0.03206693427013389,0.01697959699749797,0.00392620925806648,0.010101338711392351,0.13691074073348283,0.32860931526296056,-0.0265547579363729,0.11383654352954814,0.7341410274357064,-0.22360633184212086
2267,9.55782539997017,0.08336241575774773,-0.10726557560303969,-0.032181889981777075,0.0175787239294751,0.005368592606231906,0.009983222967038654,0.13739697797963396,0.33180754146466873,-0.027535882544042937,0.10887091743978453,0.7301676844759873,-0.22555966923498613
2268,9.56225659995107,0.08334804137046846,-0.10726882770254019,-0.03229581116101026,0.018179926051339553,0.006824907562256102,0.009860801995761474,0.13786145845435518,0.3349881430852055,-0.028525502158982627,0.10387352134677305,0.7260710599720979,-0.22749751605732976
2269,9.566527499991937,0.0833177841252813,-0.10724730088868263,-0.032340164523628326,0.018783108035422956,0.00829507597268043,0.009734038842447357,0.13830404533569118,0.33815058190055697,-0.029523547922662624,0.0988451428293007,0.7218512197410545,-0.22941938757113026
2270,9.570551799959503,0.0832465016256681,-0.1072502629924285,-0.032374883075999,0.019388173965728,0.009779017334923305,0.00960289685844903,0.13872460525816854,0.3412943200211534,-0.030529948862454043,0.0937865780820363,0.7175082503899193,-0.23132479894026262
2271,9.574237199965864,0.0832465016256681,-0.1072502629924285,-0.032374883075999,0.01999502735310647,0.011276648798933676,0.009467339710825244,0.13912300834997257,0.3444188199828113,-0.031544631891613724,0.08869863181685769,0.7130422594232344,-0.23321326534123524
2272,9.578410599962808,0.08317973727410165,-0.10726828528458435,-0.03239177440899581,0.020603571150596012,0.012787885169241104,0.009327331391578342,0.13949912826968833,0.347523544838131,-0.03256752180975234,0.0835821171618698,0.7084533753469799,-0.2350843020745598
2273,9.582833899999969,0.08313278751844884,-0.10728481672386436,-0.03235791285849946,0.02121370776891372,0.014312638907404411,0.009182836226887375,0.13985284224259562,0.3506079582483352,-0.0335985413037878,0.07843785555810606,0.7037417477689922,-0.23693742467673234
2274,9.58707059995504,0.0830480658242408,-0.1073304680729991,-0.03226357467347751,0.021825339092104653,0.015850820134860756,0.009033818886334664,0.1401840310965082,0.35367152457553275,-0.03463761094938635,0.07326667665390522,0.6989075474957851,-0.23877214903280405
2275,9.591240499983542,0.08302434402275388,-0.10736567211773007,-0.03220780259406636,0.02243836649334342,0.017402336636176956,0.008880244392123687,0.14049257929714773,0.3567137089753928,-0.03568464921289337,0.06806941819695611,0.6939509666257152,-0.2405879914895186
2276,9.595726799976546,0.083043482208847,-0.10738740283757778,-0.032145555113980734,0.023052690850886765,0.0189670938627048,0.008722078128286117,0.14077837498304302,0.3597339774902132,-0.03673957245375649,0.06284692592400358,0.6888722186384367,-0.24238446896899407
2277,9.599599199951626,0.08305691435529527,-0.10742087233573831,-0.03210914738453538,0.023668212564175027,0.020544994936642063,0.008559285849875838,0.1410413099999448,0.3627317971423684,-0.03780229492744268,0.05760005344820963,0.6836715384805876,-0.2441610990829267
2278,9.60395509999944,0.0831016615962666,-0.10744633827182629,-0.03210791383072068,0.02428483157008045,0.022135940655500782,0.008391833692147705,0.1412812799347455,0.36570663602811865,-0.03887272878885128,0.05232966214416424,0.6783491826476484,-0.24591740024729208
2279,9.60813969996525,0.08314848785595456,-0.10746571946294606,-0.03213441595032849,0.02490244735930018,0.023739829496984374,0.008219688179718902,0.14149818414889417,0.36865796341176504,-0.03995078409622471,0.04703662103054063,0.6729054292619144,-0.24765289179751826
2280,9.61351559998002,0.08320855168702096,-0.10746079024309577,-0.03219532606085737,0.025520958992891796,0.025356557624275033,0.00804281623571069,0.14169192581129536,0.3715852498201338,-0.04103636881555859,0.041721806650390554,0.6673405781465258,-0.2493670941041076
2281,9.617426999961026,0.08326245554163443,-0.10745023049089862,-0.0323044652590599,0.026140265118949062,0.026986018891732834,0.00786118519086836,0.1418624119306827,0.3744879671373743,-0.04212938882551306,0.03638610294907592,0.6616549508955006,-0.2510595286886836
2282,9.621379299962427,0.08330658862741609,-0.10744313223798094,-0.03244645814082595,0.02676026398941564,0.02862810485100793,0.0076747627926571915,0.14200955338745747,0.37736558870005377,-0.043229747922827,0.0310304011498339,0.6558488909397168,-0.2527297183404374
2283,9.625237600004766,0.08332618019925696,-0.10740883404060572,-0.032596159876987496,0.027380853477034516,0.030282704757567076,0.0074835172143321955,0.14213326496498227,0.3802175893925296,-0.04433734782823661,0.025655599626973412,0.6499227636087899,-0.25437718723294844
2284,9.629023199959192,0.0833632045628953,-0.10736473120781696,-0.03269854789603315,0.02800193109243076,0.03194970557763571,0.0072874170639794355,0.1422334653803195,0.38304344574258287,-0.04545208819289971,0.020262603776701367,0.6438769561887931,-0.25600146104135413
2285,9.63404689996969,0.08338897663298431,-0.10732412227772983,-0.0329332162213147,0.028623394001325117,0.033628991995556655,0.0070864313935267015,0.14231007731440445,0.38584263601729407,-0.046573866605327065,0.014852325885577933,0.6377118779757666,-0.25760206705984195
2286,9.641278799972495,0.08333693555284293,-0.1072353760638888,-0.033179863798668045,0.02924513904187607,0.0353204464215666,0.00688052970772136,0.14236302744164234,0.3886146403191413,-0.04770257859882182,0.00942568499660069,0.6314279603249645,-0.259178534319438
2287,9.645141899993178,0.08333693555284293,-0.1072353760638888,-0.033179863798668045,0.029867062742147957,0.03702394899999143,0.006669681973073172,0.14239224645891874,0.391358940682301,-0.04883811765942811,0.003983606772918431,0.625025656695794,-0.26073039370606627
2288,9.64880369999446,0.08331069223755927,-0.1072114638903572,-0.033241894214108975,0.030489061337702628,0.03873937761786126,0.006453858626759872,0.1423976691140135,0.3940750211691316,-0.049980375234389585,-0.0014729766408238078,0.6185054426923928,-0.2622571780788535
2289,9.653831099974925,0.0832456605224359,-0.10719669204537104,-0.03326706139010922,0.031111030789311964,0.04046660791394581,0.006233030585493253,0.14237923423340884,0.39676236796681913,-0.0511292407411186,-0.006943126759506326,0.6118678160997979,-0.26375842238865427
2290,9.658077600004615,0.0832456605224359,-0.10719669204537104,-0.03326706139010922,0.03173286680078866,0.04220551328821076,0.0060071692543435355,0.14233688474948222,0.39942046948416476,-0.0522846015766767,-0.012425898900919857,0.605113296915658,-0.265233663796766
2291,9.66256029997021,0.0832506076357063,-0.10719801980918049,-0.0332184077420533,0.03235446483693254,0.043955964911695664,0.005776246535519826,0.1422705677270748,0.40204881644849655,-0.05344634312776696,-0.01792034233151031,0.5982424273774424,-0.26668244179380685
2292,9.666540499951225,0.08324108593432435,-0.10725492822376806,-0.03323486301848811,0.032975720141589726,0.04571783173681363,0.005540234837104459,0.14218023438942556,0.40464690200268527,-0.054614348781239025,-0.023425500414478398,0.591255771985099,-0.26810429831872884
2293,9.67062479996821,0.0832606661800154,-0.1073034212699267,-0.033254068390921716,0.0335965277558221,0.047490980508073245,0.005299107081738974,0.1420658401434609,0.40721422180224476,-0.055788499935107164,-0.02894041076022853,0.584153917519114,-0.2694987778779377
2294,9.67461829999229,0.08328225569651808,-0.10736183318830705,-0.03326480725200523,0.034216782536184015,0.04927527577322297,0.0050528367152594756,0.14192734460442974,0.4097502741124963,-0.05696867601008171,-0.03446410537916048,0.576937473053928,-0.2708654276644904
2295,9.67825709999306,0.08328225569651808,-0.10736183318830705,-0.03326480725200523,0.03483637917310344,0.05107057989481832,0.004801397715279146,0.1417647116198741,0.41225455990577853,-0.058154754461614215,-0.0399956108367964,0.5696070699666609,-0.2722037976773417
2296,9.683420199959071,0.08334492496471872,-0.10745710864829038,-0.03329109754853286,0.03545521220936464,0.05287675306221201,0.004544764599715689,0.1415779092929266,0.4147265829586833,-0.059346610792456164,-0.045533948411234926,0.5621633619411046,-0.27351344084061036
2297,9.68795329995919,0.08334492496471872,-0.10745710864829038,-0.03329109754853286,0.0360731760586893,0.05469365330396732,0.004282912435261538,0.14136691000492516,0.4171658499492984,-0.060544118565731206,-0.05107813425292334,0.5546070249669386,-0.27479391312283674
2298,9.694436399964616,0.08334886724164847,-0.10756808526155816,-0.033240131708529914,0.03669016502441312,0.05652113650069466,0.004015816845794589,0.14113169043733512,0.41957187055443684,-0.06174714941852054,-0.05662717954673742,0.5469387573341256,-0.27604477365620217
2299,9.700544499966782,0.08332241307375209,-0.10769556874936652,-0.03312789751050352,0.037306073318254744,0.05835905639831141,0.0037434540207272947,0.14087223159296744,0.42194415754683345,-0.06295557307596115,-0.06218009067635822,0.5391592796224426,-0.27726558485568
2300,9.70415269996738,0.08322285926449689,-0.10777582902465656,-0.0329649260745485,0.03792079507917401,0.06020726462172503,0.0034658007232918958,0.14058851881648352,0.42428222689228845,-0.06416925736585681,-0.0677358693909337,0.5312693346861066,-0.27845591253808855
2301,9.708208199997898,0.08322285926449689,-0.10777582902465656,-0.0329649260745485,0.03853422439231631,0.062065610688939205,0.003182834298759594,0.1402805418141759,0.4265855978467367,-0.06538806823380111,-0.07329351297401206,0.5232696876334522,-0.2796153260410164
2302,9.71230449998984,0.08311773348605339,-0.10789771533956644,-0.03277663737248668,0.03914625530804006,0.06393394202558313,0.0028945326825914495,0.13994829467301534,0.4288537930532213,-0.06661186975881246,-0.0788520144147322,0.5151611258016247,-0.2807433983415875
2303,9.71600319998106,0.08311773348605339,-0.10789771533956644,-0.03277663737248668,0.03975678186102432,0.06581210397986348,0.0026008744085188273,0.13959177587895366,0.43108633863874796,-0.06784052416948008,-0.08441036258125648,0.5069444587262509,-0.28183970617503673
2304,9.72131349996198,0.08301339899154676,-0.10800613380413153,-0.032655755268186926,0.040365698089453686,0.06769993983793882,0.0023018386165511977,0.13921098833447249,0.43328276431099877,-0.06907389186062012,-0.08996754239642955,0.49862051810605496,-0.2829038301530646
2305,9.725263700005598,0.08296913803802264,-0.10806071365559745,-0.03263191596945546,0.0409728980542769,0.06959729083971607,0.001997405060909113,0.13880593937536712,0.4354426034548835,-0.07031183141044024,-0.09552253501564677,0.4901901577623828,-0.28393535488194077
2306,9.730734499986283,0.08293765104518033,-0.10810721301340843,-0.03264395239716027,0.04157827585853608,0.07150399619506838,0.001687554117880189,0.138376640786756,0.4375653932289047,-0.07155419959821156,-0.10107431800691435,0.481654253593607,-0.2849338690803243
2307,9.734765200002585,0.0828916840383003,-0.10816653378131934,-0.032579995639613904,0.04218172566676321,0.0734198931004735,0.0013722667935959206,0.1379231088183065,0.4396506746613137,-0.07280085142244687,-0.10662186553308223,0.47301370352437944,-0.28589896569677026
2308,9.738503200002016,0.08289460388729751,-0.10821523462067176,-0.032583686818648025,0.04278314172444071,0.07534481675607174,0.001051524731727169,0.13744536419866776,0.441697992746035,-0.07405164011958408,-0.1121641485362287,0.4642694274497013,-0.28683024202689067
2309,9.742446799995378,0.08288708581351963,-0.10826167143883716,-0.03260098865266796,0.04338241837752268,0.07727860038314263,0.0007253102210961745,0.1369434321491011,0.4437068965383373,-0.07530641718317345,-0.1177001349241762,0.4554223671737831,-0.287727299830138
2310,9.748195599997416,0.08289094713907176,-0.10832515465821164,-0.032604259109805904,0.04397945009201341,0.0792210752419994,0.00039360620320295594,0.13641734239629916,0.4456769392502273,-0.07656503238356699,-0.1232287897591158,0.4464734863436688,-0.28858974544618027
2311,9.75219869997818,0.08287263242010139,-0.10837831937911609,-0.032610500974513415,0.04457413147359978,0.08117207065030017,5.639627966396645e-05,0.1358671291843856,0.4476076783455431,-0.07782733378810762,-0.12874907544831768,0.43742377037759567,-0.2894171899108367
2312,9.757060699979776,0.08286397977951651,-0.10842428300003436,-0.03262852307805284,0.04516635728733405,0.08313141400177496,-0.0002863352804391138,0.13529283128608677,0.4494986756347223,-0.07909316778181616,-0.1342599519369036,0.42827422638806645,-0.2902092490715406
2313,9.76221129996702,0.08277169240108237,-0.10860527913144823,-0.03266459714036567,0.045756022477363635,0.08509893078536658,-0.0006346035333025596,0.13469449201306682,0.45134949736922064,-0.08036237908857399,-0.13976037690265544,0.41902588309960886,-0.2909655437022976
2314,9.76630139996996,0.08270112077017416,-0.10866923650297323,-0.03267614795606416,0.04634302218670434,0.08707444460478443,-0.000988422853237856,0.13407215922541632,0.45315971433556007,-0.0816348107927994,-0.1452493059528332,0.4096797907612027,-0.29168569961810875
2315,9.77067449997412,0.08261900026320511,-0.10873101985611326,-0.03265123567566692,0.046927251777053404,0.0890577771984691,-0.0013478069256051156,0.13342588534028543,0.4549289019489808,-0.08291030436161524,-0.15072569282297466,0.4002370210533541,-0.2923693477888246
2316,9.774562299950048,0.08252241770739102,-0.1087986255000439,-0.03262051734295409,0.04750860684863901,0.09104874845996605,-0.0017127687398447288,0.13275572733965274,0.45665664034667697,-0.08418869966750583,-0.15618848957764805,0.3906986669897995,-0.2930161244523986
2317,9.77876469999319,0.08241559076183988,-0.10887546155068455,-0.03260732092522515,0.048086983260102564,0.09304717645870636,-0.002083320582609318,0.13206174677722027,0.45834251448059304,-0.08546983501146041,-0.1616366468131268,0.3810658428138218,-0.2936256712275069
2318,9.783026899967808,0.08231984293135662,-0.10895256659829204,-0.03259246090969534,0.048662277148410225,0.09505287746119324,-0.0024594740309980393,0.13134400978442679,0.45998611420975816,-0.08675354714660032,-0.1670691138619551,0.37133968388916405,-0.2941976352255017
2319,9.787046399957037,0.08218824511406499,-0.10903498389365278,-0.03259634318930316,0.04923438494878991,0.0970656659525919,-0.0028412399458952638,0.13060258707557112,0.46158703439213544,-0.08803967130228707,-0.17248483899937223,0.36152134658552676,-0.29473166916166443
2320,9.791212899959646,0.08205864083812874,-0.10909858839897144,-0.032601413734166994,0.049803203414690245,0.09908535465872095,-0.00322862846541566,0.12983755395203792,0.46314487497596163,-0.08932804120870776,-0.1778827696515625,0.3516120081586347,-0.2952274314657237
2321,9.795447999960745,0.0819638166228778,-0.1092305827581728,-0.03257085329813567,0.050368629637757664,0.1011117545684433,-0.0036216489984576936,0.1290489903056182,0.46465924109055257,-0.09061848912193485,-0.1832618526056963,0.3416128666248632,-0.29568458639160483
2322,9.799566100002266,0.08184406166127511,-0.10932068811635966,-0.032536499874635146,0.050930561067827486,0.1031446749564543,-0.004020310218367563,0.12823698062091649,0.4661297431365524,-0.09191084584945758,-0.1886210342217271,0.331525140630413,-0.29610280412637857
2323,9.804041999974288,0.08173548410856417,-0.10941315912139624,-0.03251571693456373,0.051488895532924996,0.10518392340646471,-0.004424620056715542,0.12740161397683672,0.4675559968756004,-0.09320494077618177,-0.1939592606459084,0.3213500693150286,-0.29648176089837686
2324,9.808233899995685,0.08161997568909811,-0.10950966785670273,-0.03247699573085561,0.052043531259272614,0.10722930583477563,-0.004834585697186703,0.12654298404714,0.46893762351938967,-0.09450060189089428,-0.19927547802599407,0.3110889121702536,-0.29682113908443936
2325,9.814007799956016,0.0815448514606977,-0.10961690774526803,-0.03240407722075618,0.052594366891299524,0.10928062651424304,-0.0052502135695879715,0.12566118910006696,0.47027424981809357,-0.0957976558131887,-0.20456863272808265,0.30074294889222153,-0.2971206273162577
2326,9.818777699954808,0.0815053829634148,-0.10970681756309093,-0.03224699490776479,0.053141301511649905,0.1113376880986289,-0.005671509343973466,0.1247563319970171,0.4715655081481374,-0.09709592782084828,-0.20983767155506483,0.29031347922897965,-0.297379920585783
2327,9.823573099973146,0.0814789624681476,-0.10978560053624922,-0.03209149134007448,0.05368423466118549,0.11340029164733612,-0.0060984779248900636,0.12382852019027873,0.4728110365992923,-0.09839524187768157,-0.2150815419666344,0.2798018228223477,-0.2975987203496637
2328,9.828471799963154,0.08132844234861306,-0.10996723458304522,-0.03177724744671322,0.05422306635897818,0.11546823665052483,-0.0065311234457451055,0.12287786571980228,0.4740104790610678,-0.09969542066180642,-0.22029919230082046,0.26920931904431306,-0.2977767346326794
2329,9.83292379998602,0.08118711703489127,-0.11010610965813693,-0.031665019486466064,0.05475769712228837,0.11754132105460698,-0.006969449263298148,0.12190448520901098,0.4751634853083808,-0.10099628559437768,-0.22548957199699832,0.25853732682796354,-0.29791367813013636
2330,9.83692059997702,0.08105394782124709,-0.11019038808762943,-0.03135771728238852,0.055288027986524706,0.1196193412881163,-0.007413457952278643,0.12090849985964305,0.4762697110864772,-0.1022976568687543,-0.23065163182033474,0.24778722449296506,-0.29800927230919294
2331,9.84116339997854,0.08094052746638696,-0.11028387559992048,-0.031112787199887675,0.0558139605251808,0.12170209228795052,-0.0078631513001314,0.11989003544561964,0.4773288181950844,-0.10359935348010152,-0.235784324087622,0.23696040956558748,-0.29806324550908037
2332,9.845461399992928,0.08080895859084938,-0.11035597128277971,-0.030899342822847814,0.056335396869744515,0.12378936752598273,-0.008318530301891652,0.11884922230593281,0.47834047457177314,-0.1049011932554232,-0.240886602894455,0.22605829859328633,-0.2980753330401844
2333,9.849449799978174,0.08059593760213815,-0.11045186260411775,-0.030750870899407354,0.05685223972957571,0.12588095903603908,-0.008779595155191569,0.11778619533654729,0.47930435437450714,-0.10620299288401983,-0.24595742434370252,0.21508232695385074,-0.2980452772819518
2334,9.854496499989182,0.08048308082017681,-0.11050688205015322,-0.030518577850262966,0.05736439241174811,0.12797665744123948,-0.009246345255400008,0.11670109398130997,0.4802201380633558,-0.10750456794836714,-0.250995746775224,0.20403394865913044,-0.2979728277795875
2335,9.858011899981648,0.08032790456941226,-0.1105925660567671,-0.03037147039633764,0.057871758840850565,0.13007625198169778,-0.009718779190897284,0.1155940622218616,0.4810875124813485,-0.10880573295541068,-0.2560005309967817,0.19291463615335513,-0.29785774133950993
2336,9.861994099977892,0.0802057634870525,-0.1106435518107695,-0.03022124222793136,0.058374243578743434,0.13217953054257736,-0.010196894738486667,0.11446524856654545,0.48190617093444943,-0.11010630136827096,-0.2609707405160977,0.18172588010606308,-0.29769978212353115
2337,9.866584899951704,0.08008130209963588,-0.11068965313190367,-0.030004787229948066,0.05887175184426583,0.13428627968249776,-0.010680688858944307,0.11331480603830808,0.4826758132706281,-0.11140608563835397,-0.2659053417740027,0.17046918919965726,-0.29749872174172814
2338,9.871477899956515,0.07994700493432742,-0.11077384169592698,-0.029863914220122655,0.05936418953288943,0.1363962846622882,-0.011170157692709315,0.11214289216158753,0.48339614595800395,-0.11270489723786178,-0.27080330437862293,0.15914608991160845,-0.2972543393439717
2339,9.874905699980443,0.07981173182379417,-0.11086133024748175,-0.02977807850684039,0.0598514632363142,0.13850932947408368,-0.01166529655571567,0.11094966894818498,0.48406688216204186,-0.11400254669269712,-0.2756636013405521,0.1477581262913267,-0.29696642171007986
2340,9.87868789996719,0.0796652370951107,-0.11094593195975566,-0.0297521173025337,0.06033348026200153,0.14062519687075875,-0.012166099935367642,0.10973530288211479,0.4846877418217748,-0.11529884361575597,-0.28048520930895515,0.1363068597317254,-0.296634763338563
2341,9.882927800004836,0.07958572818562414,-0.1110358987399176,-0.029691569468210027,0.06081014865264006,0.14274366839569452,-0.012672561486660421,0.10849996490342874,0.48525845172503274,-0.11659359674060235,-0.28526710880854644,0.12479386873550226,-0.2962591665339253
2342,9.887207799998578,0.07949648607848654,-0.1111394161175458,-0.029650636395258244,0.06128137720553972,0.14486452441287406,-0.013184674028447535,0.10724383039101036,0.4857787455826537,-0.11788661395551839,-0.2900082844773862,0.11322074867616526,-0.29583944149248875
2343,9.89102899999125,0.07938315416362693,-0.1112220425991675,-0.029606843193058785,0.06174707549194958,0.14698754413730133,-0.013702429539856658,0.10596707914433574,0.48624836410165556,-0.11917770233792382,-0.2947077253054349,0.10158911155383235,-0.29537540638670473
2344,9.89509049995104,0.07927990572848546,-0.11130701949391872,-0.029691307957823244,0.06220715387629472,0.1491125056657382,-0.014225819156855297,0.10466989536419717,0.4866670550573447,-0.12046666818915822,-0.29936442487380766,0.08990058574583557,-0.2948668874479216
2345,9.899725399969611,0.07916638201043653,-0.11138906657679602,-0.02975481839555837,0.06266152353532807,0.15123918600775485,-0.014754833168967845,0.10335246763238592,0.48703457336433803,-0.1217533170696197,-0.3039773815946676,0.0781568157521623,-0.2943137190475751
2346,9.903650699998252,0.07904222798791143,-0.11145961894922826,-0.029837537677270622,0.06311009647719269,0.15336736111708965,-0.015289461016145551,0.10201498889033163,0.48735068114647545,-0.12303745383425373,-0.3085455989516968,0.06635946193576796,-0.2937157437767695
2347,9.908059699984731,0.07892920274425003,-0.11152252819886503,-0.02989580142143553,0.06355278556039015,0.1554968059233131,-0.015829691285790815,0.10065765641669579,0.4876151478056004,-0.12431888266838481,-0.3130680857410847,0.05451020025779678,-0.2930728125242181
2348,9.912610300001688,0.07878037466316402,-0.11159264456119788,-0.029952516897385238,0.06398950451265088,0.15762729436379092,-0.016375511709937198,0.09928067180391727,0.4878277500891866,-0.12559740712388384,-0.31754385631296994,0.04261072200774936,-0.29238478455251005
2349,9.916248499997891,0.07865561606649445,-0.11165472383608513,-0.030044401214622152,0.06442016794970168,0.15975859941594067,-0.016926909162586552,0.09788424093370775,0.4879882721567922,-0.12687283015566395,-0.32197193081327363,0.030662733528637423,-0.29165152757267376
2350,9.920330699998884,0.07848158104798578,-0.11173280935932092,-0.030118642349116022,0.06484469139392587,0.16189049312977738,-0.017483869657204696,0.09646857395149538,0.4880965056453165,-0.12814495415849758,-0.3263513354258567,0.01866795593716829,-0.29087291781700236
2351,9.924527499999384,0.07831813249748786,-0.11180264186931899,-0.030215645579244683,0.065262991292912,0.16402274666074199,-0.018046378344376963,0.09503388523981503,0.4881522497330367,-0.12941358100414782,-0.33068110261493405,0.006628124839003319,-0.29004884011011006
2352,9.928810099954717,0.07805123300772643,-0.11186377704843001,-0.030284300414040934,0.06567498503788634,0.16615513030280749,-0.018614419509624867,0.09358039339064375,0.4881553112024048,-0.13067851207880593,-0.33496027136767687,-0.005455009960863711,-0.2891791879381879
2353,9.932887399976607,0.07785147488084838,-0.1119249476326228,-0.03038853519009682,0.06608059098202444,0.16828741352185653,-0.019187976571385164,0.09210832117668039,0.48810550450158136,-0.13193954832082777,-0.33918788743693423,-0.01757968475256024,-0.28826386351642963
2354,9.937058099952992,0.0776219667068709,-0.11195260766655546,-0.030358682851123447,0.06647972845863682,0.1704193649893248,-0.019767032079152546,0.09061789552156815,0.4880026518046867,-0.13319649025876126,-0.343363003584004,-0.029744122220570605,-0.2873027778545981
2355,9.941150599974208,0.07741835439143245,-0.11197555308197811,-0.030362052169197604,0.06687231779922409,0.17255075261610375,-0.02035156771178727,0.08910934746905984,0.48784658307074613,-0.13444913804965694,-0.3474846798213844,-0.04194653174770178,-0.28629585082070363
2356,9.945322699961253,0.07719722890560167,-0.1120393852422213,-0.03045813017947422,0.067258280351397,0.17468134358669699,-0.020941564275988884,0.08758291215112546,0.48763713610130727,-0.13569729151765367,-0.3515519836554367,-0.054185109723725484,-0.2852430112027621
2357,9.948919599992225,0.07719722890560167,-0.1120393852422213,-0.03045813017947422,0.06763753849665667,0.17681090439362546,-0.021537001704937175,0.08603882875500257,0.4873741565967086,-0.1369407501928311,-0.35556399032888647,-0.06645803985864082,-0.28414419676860375
2358,9.9536986000021,0.07688254471466717,-0.11205123109541557,-0.03049230715726909,0.06801001566803039,0.17893920087207554,-0.022137859057101448,0.08447734048919003,0.4870574982109769,-0.13817931335031977,-0.35951978306309107,-0.07876349350049953,-0.2829993543237029
2359,9.957483599951956,0.07688254471466717,-0.11205123109541557,-0.03049230715726909,0.0683756363675586,0.1810659982347841,-0.022744114515219377,0.08289869454838632,0.48668702260533586,-0.13941278004965985,-0.36341845330000117,-0.09109962995773412,-0.28180843976699904
2360,9.961980299965944,0.07661728090720694,-0.11204824489923043,-0.03052336888053632,0.0687343261836286,0.1831910611071542,-0.023355745385446488,0.0813031420773733,0.4862625995003045,-0.14064094917440056,-0.36725910094374425,-0.10346459682592724,-0.28057141814468217
2361,9.96628100000089,0.07650029476576445,-0.11206606138984748,-0.0305423688427099,0.06908601180815001,0.18531415356259534,-0.02397272809667724,0.07969093813384688,0.4857841067263678,-0.1418636194719323,-0.37104083460175485,-0.11585653031895932,-0.279288263701912
2362,9.970572799968068,0.0764092136839134,-0.11207782136001174,-0.030524745064091783,0.06943062105356708,0.1874350391580824,-0.02459503820003866,0.07806234165019642,0.4852514302732019,-0.1430805895935425,-0.37476277182537565,-0.12827355560446912,-0.2779589599324431
2363,9.975535499979742,0.07625798901524526,-0.11206915188008187,-0.03061271563655632,0.06976808286970361,0.18955348096992666,-0.025222650368557385,0.0764176153942348,0.4846644643374346,-0.14429165813468708,-0.3784240393498559,-0.1407137871435603,-0.2765834996261269
2364,9.979213399987202,0.07617054775220361,-0.11210745844616178,-0.030503921582271457,0.07009832736043597,0.19166924162975255,-0.02585553839700116,0.07475702592888213,0.4840231113689259,-0.14549662367546828,-0.3820237733336698,-0.15317532903468542,-0.27516188491426546
2365,9.98279379995074,0.07611729082846089,-0.11214628483356835,-0.030385849176972766,0.07042128580018914,0.19378208336067362,-0.026493675201895547,0.07308084357080555,0.4833272821155483,-0.14669528482131025,-0.38556111959707934,-0.16565627536163632,-0.273694127312791
2366,9.986974600004032,0.07603429811530264,-0.11217932873541664,-0.03027402413366681,0.0707368906502517,0.19589176801366076,-0.027137032821716894,0.07138934234801828,0.48257689566644824,-0.14788744024382228,-0.38903523385986444,-0.17815471054556875,-0.27218024776324673
2367,9.9912684999872,0.07591312890072632,-0.11221272157415382,-0.030204606249960672,0.07104507557490526,0.19799805710409585,-0.027785582417262346,0.06968279995644107,0.4817718794937678,-0.14907288872183977,-0.3924452819781436,-0.19066870970098618,-0.27062027667154126
2368,9.995298900001217,0.0757931271191197,-0.112244526234215,-0.030102781534711083,0.07134577545736367,0.2001007118485044,-0.028439294272197727,0.06796149771543059,0.48091216949281124,-0.15025142918263312,-0.39579044018020604,-0.20319633899560655,-0.26901425394445183
2369,9.99948289996246,0.0756972558103182,-0.11228246462346675,-0.030005907196262647,0.07163892641551758,0.20219949320146025,-0.02909813779378389,0.06622572052227835,0.47999771002063574,-0.15142286074327457,-0.39906989530127884,-0.21573565601403416,-0.2673622290238537
2370,10.004097700002603,0.07561490034579847,-0.11230747445420732,-0.02991897957528132,0.07192446581747967,0.20429416189265473,-0.0297620815137821,0.06447575680568501,0.4790284539330529,-0.15258698275215352,-0.4022828450171514,-0.22828471012515708,-0.26566426091865086
2371,10.007828200003132,0.07557099739166499,-0.11233964008093367,-0.02981792608641396,0.07220233229692602,0.20638447846412242,-0.030431093089539188,0.0627118984782146,0.4780043626200239,-0.1537435948306295,-0.40542849807657744,-0.24084154285318887,-0.26392041823438406
2372,10.012054899998477,0.07551438647130793,-0.11235329988578795,-0.02974832688624461,0.0724724657682292,0.20847020330761626,-0.031105139305253354,0.06093444088773356,0.4769254060394328,-0.1548924969148131,-0.40850607453237503,-0.25340418825227184,-0.2621307792004939
2373,10.016281199990772,0.07544966795217209,-0.11235378935142808,-0.02967721526624572,0.07273480744137886,0.21055109670212455,-0.03178418607342108,0.059143682767840634,0.4757915627492218,-0.15603348929746477,-0.411514805971145,-0.26597067328455876,-0.2602954316952161
2374,10.020840899960604,0.07539946983762544,-0.11234066408486909,-0.02963728054358743,0.072989299836685,0.21262691885152166,-0.03246819843646567,0.057339926187293305,0.47460281993787323,-0.15716637267000136,-0.4144539357415293,-0.278539018201688,-0.2584144732680884
2375,10.024818199977744,0.07538000148947371,-0.11232135633009918,-0.0296065073586928,0.07323588679926003,0.21469742992234475,-0.0331571405685479,0.05552347649843732,0.4733591734532231,-0.15829094816460026,-0.4173227191809279,-0.29110723692956325,-0.2564880111600488
2376,10.028734899999108,0.07536200922995308,-0.11228031787796751,-0.029534039510050108,0.07347451351327532,0.2167623900816887,-0.03385097577755915,0.05369464228464592,0.47206062782959063,-0.15940701739639004,-0.420120423840593,-0.30367333745634795,-0.25451616232110247
2377,10.032412700005809,0.07536200922995308,-0.11228031787796751,-0.029534039510050108,0.07370512651598783,0.21882155953521204,-0.03454966650729747,0.05185373530677574,0.47070719631321184,-0.16051438250571715,-0.42284632970902,-0.31623532222358597,-0.2524990534255385
2378,10.037811099959072,0.07526759544703096,-0.11216546822035404,-0.029460040564455947,0.07392767371153268,0.22087469856524614,-0.03525317433982672,0.05000107044864674,0.46929890088595955,-0.16161284620047894,-0.42549972943355446,-0.3287911885203554,-0.25043682088467717
2379,10.041990900004748,0.07522344582574104,-0.11208938458022541,-0.029397761795318073,0.07414210438447717,0.2229215675690003,-0.03596145999801927,0.04813696566155383,0.4678357722873381,-0.1627022117985126,-0.4280799285401321,-0.3413389288803611,-0.2483296108571296
2380,10.046173099952284,0.07517496925177619,-0.11201597716794788,-0.029341407379501833,0.07434836921313213,0.22496192709685414,-0.036674483348282515,0.046261741907818434,0.46631785003474024,-0.163782283270029,-0.4305862456510702,-0.3538765314818689,-0.2461775792565536
2381,10.04976749996422,0.07515608803319809,-0.11194803193545742,-0.029233744876586892,0.07454642028261661,0.22699553789072993,-0.03739220340346935,0.044375723103388054,0.4647451824419524,-0.16485286528008097,-0.43301801270082974,-0.3664019805503834,-0.24398089175688795
2382,10.053683199977968,0.07508720433663067,-0.11188324175533183,-0.029168445404591386,0.07473621109767185,0.22902216092253783,-0.038114578325972696,0.042479236059492616,0.4631178266358955,-0.16591376323105445,-0.4353745751496657,-0.37891325676397053,-0.2417397237950481
2383,10.05784839997068,0.07500656174195641,-0.11181528469686727,-0.029140610411269037,0.07491769659521988,0.23104155743268642,-0.03884156543100422,0.04057261042336664,0.4614358485715915,-0.16696478330517078,-0.43765529219508525,-0.3914083376611245,-0.23945426057106822
2384,10.06194729998242,0.07493865398028561,-0.11172961341098248,-0.02914090197735064,0.07509083315666266,0.2330534889686518,-0.03957312119005724,0.03865617861804688,0.4596993230453428,-0.1680057325069895,-0.4398595369810325,-0.40388519805107986,-0.23712469704567482
2385,10.066345700004604,0.07493139045261143,-0.11166431428901769,-0.029165548425347406,0.07525557861991793,0.2350577174235968,-0.040309201234554067,0.03673027578125514,0.45790833370611184,-0.16903641870590044,-0.44198669680471664,-0.4163418104264654,-0.23475123793527788
2386,10.070451499952467,0.07495471845927128,-0.11159848503042537,-0.0291744888746611,0.07541189229118758,0.2370540050750324,-0.041049760359677764,0.034795239703376765,0.45606297306509247,-0.17005665067859513,-0.4440361733209989,-0.42877614537819414,-0.23233409770436653
2387,10.073927899997216,0.07495471845927128,-0.11159848503042537,-0.0291744888746611,0.0755597349564547,0.23904211462351316,-0.04179475252838818,0.03285141076454532,0.4541633425034645,-0.1710662381515059,-0.44600738274425544,-0.44118617201248395,-0.22987350055529648
2388,10.078499600000214,0.07510739739203438,-0.11142331895876986,-0.029278591461429162,0.07569906889270495,0.24102180923135896,-0.04254413087562229,0.03089913187084458,0.45220955227832044,-0.17206499184320231,-0.44789975604763665,-0.45356985836989994,-0.22736968041545813
2389,10.083400400006212,0.07521959103410931,-0.11130403517847713,-0.029327844818172296,0.07582985787886885,0.24299285256139552,-0.04329784771267866,0.02893874838963919,0.45020172152675497,-0.173052723506733,-0.449712739159641,-0.4659251718463083,-0.2248228809218136
2390,10.086991299991496,0.07529049674817598,-0.11111994957807678,-0.029435331073832817,0.07595206720648089,0.24495500881570542,-0.04405585453178568,0.02697060808404568,0.4481399782681105,-0.17402924597190264,-0.4514457931579252,-0.47825007961563293,-0.22223335540279252
2391,10.091135399998166,0.07536990710439753,-0.11087512164815357,-0.02952521653202328,0.07606566369005172,0.24690804277438091,-0.04481810201085328,0.02499506104655588,0.44602445940437035,-0.17499437318747302,-0.4530983944602682,-0.490542549054301,-0.21960136685753928
2392,10.095490699983202,0.07549994457816402,-0.11057400210795824,-0.02959461826631421,0.07617061567715024,0.24885171983427104,-0.0455845400184076,0.023012459631825157,0.4438553107186918,-0.17594792026327744,-0.4546700350126066,-0.5028005481672637,-0.21692718793250537
2393,10.09954529994866,0.07565927757204448,-0.11019355768297814,-0.02969769128864235,0.0762668930581918,0.2507858060477155,-0.046355117618708176,0.021023158388638167,0.44163268687206986,-0.1768897035122374,-0.45616022247405963,-0.5150220460154771,-0.2142111008953795
2394,10.103685399983078,0.07581736856413711,-0.109789845954249,-0.02984778505397434,0.07635446727592926,0.25271006816125774,-0.04712978307704721,0.019027513991065184,0.43935675139812813,-0.17781954049226997,-0.457568480398863,-0.5272050131447267,-0.21145339760634882
2395,10.107491399976425,0.07581736856413711,-0.109789845954249,-0.02984778505397434,0.0764333113346431,0.25462427365433093,-0.04790848386523058,0.01702588516882247,0.43702767669603126,-0.17873725004807414,-0.45889434841513344,-0.5393474220156844,-0.20865437948668553
2396,10.112162599980364,0.07607891376618434,-0.10875606657154656,-0.030296893754655777,0.0765033998090271,0.25652819077790706,-0.04869116666724019,0.015018632636850495,0.4346456440215129,-0.1796426523527834,-0.46013738240038554,-0.55144724743508,-0.20581435748465426
2397,10.116540299961343,0.07636311060429497,-0.10804375564994508,-0.03043374113140445,0.076564708852766,0.2584215885931042,-0.049477777385077,0.013006119024124196,0.4322108434760133,-0.1805355689494734,-0.4612971546537241,-0.5635024669878703,-0.20293365203873814
2398,10.12031659996137,0.0766248897386459,-0.10730812110710973,-0.030851976646811566,0.07661721620680172,0.2603042370097443,-0.05026826114478425,0.010988708801709839,0.4297234739939215,-0.18141582279251242,-0.46237325406463775,-0.5755110614702882,-0.20001259303818153
2399,10.124435000005178,0.07686121338904352,-0.10652815489747991,-0.031184903573100005,0.07666090120728451,0.2621759068248535,-0.05106256230264981,0.008966768210083315,0.4271837433279201,-0.18228323828874335,-0.4633652862783181,-0.5874710153236495,-0.1970515197808469
2400,10.128603299963288,0.07732814556046433,-0.10552151647395067,-0.03130384248673928,0.07669574479320616,0.2640363697610988,-0.05186062445158694,0.006940665185725154,0.4245918680324292,-0.1831376413384853,-0.46427287385742866,-0.599380317068797,-0.19405078092838599
2401,10.132797800004482,0.07775617096491684,-0.10447417347950026,-0.031596836606689535,0.0767217295137117,0.26588539850515147,-0.052662390427692767,0.004910769287007773,0.4219480734451472,-0.18397885937634387,-0.46509565644025075,-0.6112369597410605,-0.1910107344587248
2402,10.137010899954475,0.07810027851285418,-0.10348199136745699,-0.032293470179756596,0.07673883953508714,0.26772276674596746,-0.05346780231698367,0.002877451619390867,0.41925259366668444,-0.18480672141181856,-0.46583329089512926,-0.6230389413256164,-0.1879317476158632
2403,10.141128099989146,0.07879498584522006,-0.10224399240285062,-0.032610257459012734,0.07674706064742004,0.26954824921297643,-0.05427680146230708,0.000841084759941143,0.4165056715382916,-0.18562105806969603,-0.46648545147114284,-0.6347842651931264,-0.18481419685699105
2404,10.145338199974503,0.07921403615714823,-0.10107498557423286,-0.03294027797327978,0.07674638027093028,0.27136162171417266,-0.05508932847042855,-0.0011979573188070543,0.4137075586176798,-0.18642170163021773,-0.46705182994492783,-0.646470940535532,-0.18165846779692357
2405,10.149486199952662,0.0798770553535936,-0.09964380892243055,-0.033227004567163224,0.07673678746196833,0.2731626611741002,-0.055905323219293195,-0.0032392993256333802,0.41085851515293137,-0.18720848606901144,-0.46753213576358243,-0.6580969828018861,-0.17846495514986005
2406,10.153855099983048,0.08048820418892792,-0.09838986371957843,-0.03357730415486596,0.07671827291867823,0.2749511456717244,-0.0567247248654605,-0.005282564728038194,0.40795881005449913,-0.18798124709677494,-0.46792609618357756,-0.669660414134095,-0.17523406266847066
2407,10.157882299972698,0.08132528366216082,-0.09694720890321158,-0.033680952988334664,0.07669082898632253,0.2767268544781812,-0.05754747185171125,-0.0073273758302568074,0.40500872086529666,-0.18873982219869953,-0.46823345640560265,-0.681159263802446,-0.17196620308031768
2408,10.162438999977894,0.08184858313593951,-0.09546363113405971,-0.034101265338664366,0.07665444966226628,0.27848956809439585,-0.0583735019148256,-0.00937335385186346,0.4020085337288818,-0.18948405067362065,-0.46845397970527897,-0.6925915686407933,-0.16866179802161727
2409,10.166261499980465,0.08263922973877386,-0.09396399009765982,-0.03437630375891481,0.07660913060061778,0.2802390682885645,-0.05920275209353073,-0.0114201190069469,0.3989585433557358,-0.19021377367288336,-0.46858744755967124,-0.7039553734812818,-0.1653212779683494
2410,10.170423300005496,0.08338629626860519,-0.09246143607996579,-0.03441314517361722,0.07655486911652269,0.281975138133489,-0.060035158736617404,-0.0134672905838392,0.39585905298763885,-0.19092883423891097,-0.46863365976953153,-0.7152487315884809,-0.16194508216472447
2411,10.174668399966322,0.08417490723284332,-0.09079494562653385,-0.03463588424989269,0.07649166419010965,0.28369756204375685,-0.06087065751122425,-0.015514487025379017,0.3927103743601447,-0.19162907734346518,-0.4685924345772092,-0.7264697050928076,-0.15853365854901758
2412,10.17888809996657,0.08500788479624237,-0.08912600828231336,-0.034702274202673467,0.07641951647008444,0.2854061258127565,-0.061709183411288504,-0.017561326009690237,0.38951282766315604,-0.1923143499255864,-0.46846360878016086,-0.73761636542311,-0.1550874636767804
2413,10.182886499969754,0.08612551195675953,-0.08734334988958956,-0.034586701659499466,0.07633842827697035,0.2871006166495206,-0.06255067076616176,-0.01960742453145663,0.3862667414996047,-0.19298450092920225,-0.4682470378399957,-0.7486867937382812,-0.15160696264144277
2414,10.187679499969818,0.08697972301455871,-0.08564716576257876,-0.03496722882348742,0.07624840360599268,0.2887808232153888,-0.06339505324938945,-0.021652398983672876,0.38297245284223924,-0.1936393813403933,-0.46794259598699434,-0.7596790813577755,-0.14809262899231662
2415,10.19193400000222,0.08796688118153269,-0.08395500627455142,-0.03500708527800611,0.07614944812960502,0.2904465356604829,-0.06424226388765236,-0.023695865239852044,0.37963030698852523,-0.19427884422430416,-0.4675501763200368,-0.7705913301909016,-0.14454494465001655
2416,10.195579899998847,0.08926162957052856,-0.08210240978290982,-0.03491564762150142,0.07604156919965491,0.29209754565998475,-0.06509223506986854,-0.025737438736669453,0.3762406575136652,-0.19490274476168806,-0.46706969090187983,-0.7814216531647666,-0.14096439981931236
2417,10.199766799982172,0.09030854242577166,-0.08030258868644152,-0.035019355008599914,0.07592477584918643,0.29373364645020683,-0.065944898556454,-0.027776734557022488,0.372803866221744,-0.19551094028507224,-0.46650107084972564,-0.7921681746507433,-0.1373514928994296
2418,10.20375739998417,0.09151137396353672,-0.07863884344455441,-0.035059030782911296,0.07579907879387786,0.29535463286444696,-0.06680018548874068,-0.029813367513485844,0.3693203030950066,-0.1961032903145334,-0.4658442664210243,-0.8028290308893379,-0.13370673039181494
2419,10.20807989995228,0.09288859856081949,-0.07673549542174554,-0.0351130181817538,0.07566449043311296,0.2969603013686196,-0.06765802639854941,-0.03184695223214118,0.36579034624127477,-0.19667965659307268,-0.4650992470944529,-0.813402370413333,-0.1300306268053844
2420,10.212307199952193,0.09416245581848037,-0.07495510930246876,-0.035103407470161885,0.07552102485068463,0.298550450096657,-0.06851835121791588,-0.03387710323676009,0.3622143818395103,-0.1972399031215785,-0.46426600164601645,-0.8238863544690784,-0.1263237045592734
2421,10.21662490000017,0.09539870325262585,-0.07319973085107923,-0.03477824365525205,0.07536869781512913,0.30012487888567113,-0.06938108928896819,-0.03590343503331867,0.35859280408353217,-0.1977838961933669,-0.46334453822021726,-0.8342791574358035,-0.12258649388310755
2422,10.221203299995976,0.09667073110793346,-0.07131173904797936,-0.03474445108946508,0.0752075267796892,0.30168338931086935,-0.07024616937395367,-0.03792556219482175,0.3549260151238967,-0.19831150442828827,-0.462334884396241,-0.8445789672428253,-0.1188195327148162
2423,10.224978699989151,0.09794985630265796,-0.06956372539985341,-0.03463215428687769,0.07503753088190437,0.3032257847202149,-0.07111351966541357,-0.03994309944641489,0.3512144250079511,-0.1988225988063896,-0.4612370872491089,-0.8547839857845301,-0.11502336659601001
2424,10.22899029997643,0.0992482450119777,-0.06776893416767171,-0.03433590177612635,0.07485873094282734,0.3047518702688245,-0.07198306779650343,-0.0419556617507619,0.34745845161807026,-0.19931705270112127,-0.46005121340574795,-0.8648924293330005,-0.11119854856494647
2425,10.232978299958631,0.1005520391484056,-0.06587205880038281,-0.03428531538940377,0.07467114946586499,0.30626145295309526,-0.07285474085145761,-0.04396286439366569,0.3436585206080889,-0.19979474191207797,-0.4587773490959318,-0.8749025289481647,-0.10734563904710685
2426,10.237111299997196,0.10190087729306319,-0.06411286608817308,-0.03418775697386273,0.07447481063524342,0.30775434164455234,-0.07372846537619566,-0.04596432306990956,0.33981506533793837,-0.20025554469726317,-0.45741560019804783,-0.8848125308853381,-0.10346520574340877
2427,10.240607199957594,0.10190087729306319,-0.06411286608817308,-0.03418775697386273,0.07426974031409568,0.3092303471234117,-0.07460416738906869,-0.04795965396929651,0.33592852680650154,-0.2006993418048665,-0.4559660922796474,-0.8946206970000391,-0.0995578235160799
2428,10.24527729995316,0.1045809640829444,-0.06037392290531932,-0.033825828424237495,0.07405596604217148,0.31068928211184915,-0.07548177239174379,-0.04994847386286347,0.33199935358269683,-0.20112601650454345,-0.45442897063273796,-0.9043253051499581,-0.09562407427221979
2429,10.249494399991818,0.10596097478338004,-0.05857087543325583,-0.033718108082111904,0.07383351703316778,0.31213096130697016,-0.07636120538022428,-0.051930400189247355,0.3280280017348036,-0.2015354546181868,-0.4528044003037777,-0.9139246495939556,-0.09166454684507824
2430,10.253661900002044,0.10721562144167941,-0.056834208045522354,-0.03356845520786859,0.0736024241716797,0.3135552014134714,-0.077242390856004,-0.053905051141179536,0.32401493475804205,-0.2019275445501794,-0.45109256611833354,-0.9234170413879642,-0.08767983687307944
2431,10.257870699977502,0.10876284258982007,-0.0549701015240344,-0.033435395505429504,0.07336272000977087,0.31496182117598553,-0.07812525283735343,-0.05587204575208494,0.3199606235004197,-0.20230217731711733,-0.44929367270036275,-0.9328008087776758,-0.08367054667662197
2432,10.26197269995464,0.1103251054146531,-0.05316964073336441,-0.033353062068558204,0.07311443876316286,0.31635064141110153,-0.07900971487073538,-0.05783100398276196,0.31586554608685696,-0.20265924657699455,-0.44740794448608423,-0.9420742975878943,-0.0796372851326858
2433,10.266911199956668,0.11162533789167726,-0.05142204516965115,-0.03330515480902526,0.07285761630704378,0.3177214850390526,-0.07989570004234811,-0.05978154680811934,0.31173018784160433,-0.20299864865783826,-0.4454356257324035,-0.9512358716084347,-0.07558066754727816
2434,10.271338999969885,0.11301002585597662,-0.04965623325608706,-0.033333601496650066,0.07259229017149614,0.31907417711506425,-0.08078313098979328,-0.06172329630394616,0.3075550412089675,-0.20332028258578563,-0.4433769805198605,-0.9602839129764479,-0.07150131552575105
2435,10.275061299966184,0.11457108773625918,-0.04782612862625552,-0.033033702796723234,0.07231849953654411,0.32040854486035525,-0.08167192991386643,-0.06365587573369101,0.30334060567235643,-0.2036240501125927,-0.44123229275007225,-0.9692168225550595,-0.06739985684102426
2436,10.278805299953092,0.11587704496871438,-0.045930935697234825,-0.032925633994926394,0.07203628522682058,0.321724417692786,-0.08256201859046765,-0.0655789096352259,0.2990873876716752,-0.20390985574256631,-0.43900186613764325,-0.9780330203082047,-0.06327692529974842
2437,10.283070000004956,0.11733121580078781,-0.04396594682837952,-0.03274844654186761,0.07174568970585408,0.3230216272571446,-0.08345331838263019,-0.06749202390757046,0.2947959005190683,-0.2041776067589087,-0.43668602419652025,-0.9867309456715383,-0.05913316060644363
2438,10.286998800002038,0.11877548973075372,-0.04200716619300042,-0.032710421533285024,0.07144675706997543,0.32430000745506454,-0.08434575025266469,-0.06939484589755238,0.2904666643130407,-0.20442721324946542,-0.43428511022076305,-0.9953090579193071,-0.05496920822564997
2439,10.291337799979374,0.12009569620299998,-0.03993810911806104,-0.03255516033996553,0.07113953304184421,0.32555939447456533,-0.08523923477441632,-0.07128700448637912,0.2861002058509701,-0.204658588131869,-0.431799487259709,-1.0037658365270687,-0.05078571924212756
2440,10.295425399963278,0.12149331676891376,-0.0379959843248092,-0.03231994317923077,0.07082406496359515,0.32679962681920943,-0.08613369214563255,-0.07316813017609607,0.28169705854003096,-0.2048716471780693,-0.429229538087514,-1.0120997815301411,-0.04658335021914403
2441,10.299615899974016,0.12288436893360168,-0.035855939464376894,-0.03222069608762461,0.07050040178960502,0.3280205453368678,-0.08702904220043893,-0.07503785517590607,0.27725776230654825,-0.20506630903824166,-0.4265756651670539,-1.0203094138776776,-0.042362763054889
2442,10.303715499991084,0.12425532057526156,-0.033578198757731555,-0.03204254628238344,0.07016859407888108,0.3292219932480869,-0.08792520442191991,-0.07689581348832551,0.2727828635038004,-0.20524249526406474,-0.4238382906081728,-1.0283932757822491,-0.03812462483705554
2443,10.307815499952994,0.12570267379599548,-0.03129868157176778,-0.0319619998023896,0.06982869398707195,0.330403816174049,-0.08882209795480175,-0.0787416409951521,0.2682729148182901,-0.20540013033136115,-0.4210178561202627,-1.036349931064822,-0.03386960769562952
2444,10.312184899987187,0.12716169773923464,-0.029069539211193155,-0.03195928460339255,0.06948075525810163,0.3315658621641202,-0.08971964161823501,-0.08057497554321927,0.2637284751745041,-0.20553914166209308,-0.4181148229591653,-1.0441779654950272,-0.029598388653928585
2445,10.31624949997058,0.1284681662991612,-0.026853786164925862,-0.031881651808271357,0.06912483321542774,0.3327079817229786,-0.09061775391867363,-0.0823954570299119,0.2591501096381842,-0.20565945964570567,-0.4151296718683877,-1.0518759871266157,-0.02531164947793326
2446,10.320181199989747,0.12990161108825948,-0.024411010660515833,-0.03165814606588775,0.06876098475292537,0.333830027837317,-0.09151635306284847,-0.08420272748841846,0.25453838931813105,-0.20576101765981064,-0.41206290301462595,-1.0594426266279968,-0.021010076523953737
2447,10.32498299999861,0.1314377320217663,-0.022127060140245226,-0.03159083894738659,0.06838926832539804,0.33493185600211295,-0.09241535697083222,-0.08599643117269433,0.24989389126656195,-0.20584375209020297,-0.40891503591759093,-1.066876537607754,-0.016694360584676233
2448,10.328940199979115,0.132914854426459,-0.019822137032522613,-0.03160409793601409,0.06800974393871738,0.3360133242464579,-0.09331468328919272,-0.08777621464211108,0.24521719837804382,-0.20590760235020322,-0.4056866093741311,-1.074176396935036,-0.012365196733633997
2449,10.332889399956912,0.13441341670742127,-0.01757564133650261,-0.031590899314190984,0.06762247313959244,0.3370742931589405,-0.09421424940423129,-0.08954172684576625,0.24050889928702465,-0.20595251089931813,-0.40237818137665293,-1.081340905054724,-0.00802328416814867
2450,10.33703469997272,0.13572634256729849,-0.015250354996895407,-0.031715391753487324,0.06722751900497033,0.33811462591257624,-0.09511397245530347,-0.0912926192064281,0.23576958826398733,-0.2059784232612127,-0.3989903290258401,-1.0883687862972757,-0.0036693260507883315
2451,10.341227800003251,0.13717270898089312,-0.013038223058426165,-0.03166619912723286,0.06682494613106943,0.3391341882892778,-0.09601376934821895,-0.0930285457040902,0.23099986511024959,-0.2059852880409868,-0.3955236484376741,-1.0952587891831438,0.0006959706506105645
2452,10.34542229998624,0.13862201272616215,-0.01075066322261175,-0.03168637416137127,0.0664148206220475,0.34013284870385985,-0.09691355676871737,-0.09474916295911082,0.22620033505143564,-0.20597305694174908,-0.39197875464476245,-1.1020096867216749,0.005071895324309491
2453,10.349471599969547,0.13995434199158413,-0.008487141918728056,-0.03165036449434447,0.06599721007830635,0.34111047822757234,-0.09781325119601697,-0.0964541303149126,0.2213716086296453,-0.20594168478048241,-0.3883562814919808,-1.1086202767043878,0.009457733877373855
2454,10.353868299978783,0.14126392236057467,-0.006198878060714186,-0.031704295417908056,0.06557218358443462,0.34206695061115794,-0.09871276891643357,-0.09814310992021709,0.21651430159434665,-0.20589112950319388,-0.38465688152643934,-1.115089381992536,0.013852768899669526
2455,10.35806749999756,0.14252704158810894,-0.003968957638797593,-0.031673298843152314,0.06513981169679042,0.34300214230742676,-0.09961202603706676,-0.09981576681078988,0.21162903479201656,-0.20582135219934442,-0.38088122588178447,-1.1214158507988639,0.018256279829100008
2456,10.361766499991065,0.14252704158810894,-0.003968957638797593,-0.031673298843152314,0.0647001664307259,0.34391593249334323,-0.10051093849955059,-0.10147176899067077,0.2067164340545538,-0.2057323171155518,-0.3770300041568498,-1.1275985569634637,0.022667543118033835
2457,10.366319299966564,0.14485801298431836,0.0005590849839400736,-0.031587197765871024,0.06425332124745634,0.3448082030916199,-0.10140942209386522,-0.10311078751286402,0.20177713008649031,-0.2056239916685615,-0.37310392428867356,-1.1336364002236423,0.02708583240087108
2458,10.371089799969925,0.14609592847148728,0.0027557130369468357,-0.03163540690764584,0.06379935104057632,0.3456788387918128,-0.10230739247220624,-0.1047324965594641,0.19681175835102702,-0.20549634645748086,-0.3691037124199037,-1.1395283064777058,0.03151041866269728
2459,10.374820099968929,0.14720676503934668,0.004947511541940047,-0.03165889640926239,0.06333833212222564,0.34652772707091334,-0.1032047651629089,-0.10633657352119258,0.1918209589549213,-0.20534935527527073,-0.36503011276061054,-1.1452732280425795,0.03594057040897254
2460,10.379811499966308,0.14827296158012426,0.006964274209521188,-0.03172000220229675,0.06287034220890758,0.3473547582134332,-0.10410145558442385,-0.10792269907632218,0.18680537653225307,-0.20518299511948934,-0.3608838874445302,-1.1508701439051778,0.04037555383620296
2461,10.383243399963249,0.14946281371101036,0.00911617401593222,-0.031951454262979184,0.06239546040696194,0.3481598253309783,-0.10499737905934102,-0.10949055726896369,0.18176566012709747,-0.20499724620228404,-0.35666581637976535,-1.1563180599674374,0.04481463300354097
2462,10.38704030000372,0.15060412036347606,0.011134965850543842,-0.03197473330939457,0.0619137671976953,0.3489428243813058,-0.10589245082845808,-0.11103983558669182,0.17670246307513193,-0.20479209195962708,-0.3523766970939727,-1.161616009284938,0.04925707000526071
2463,10.3913201999967,0.15160070121965108,0.013203921950166649,-0.03212155209267905,0.0614253444221719,0.3497036541868609,-0.10678658606489062,-0.11257022503748484,0.17161644288420674,-0.2045675190597919,-0.3480173445740684,-1.1667630522990284,0.053702125144054105
2464,10.3955751999747,0.15279425114444806,0.015220441476800685,-0.032212560547233204,0.0609302752656681,0.35044221645278734,-0.1076796998882212,-0.1140814202259542,0.1665082611139069,-0.20432351741106675,-0.3435885911004851,-1.171758277062389,0.058149057105092695
2465,10.400132499984466,0.1539522697603708,0.017388742946531158,-0.03232521040172731,0.060428644241793145,0.35115841578440726,-0.10857170737868355,-0.11557311942883987,0.16137858325413373,-0.2040600801687029,-0.339091286076014,-1.1766007994579584,0.0625971231307998
2466,10.403562099963892,0.15504571612561557,0.01950244699970132,-0.03248076696301546,0.059920537176279695,0.35185215970416517,-0.10946252359137926,-0.11704502466974684,0.15622807860273558,-0.203777203741094,-0.3345262958492666,-1.1812897634111543,0.06704557919627793
2467,10.408205299987458,0.15604087473334424,0.02162898200043281,-0.03271508858870811,0.059406041190447116,0.3525233586680325,-0.11035206357052324,-0.1184968417930992,0.15105742014221793,-0.20347488779518402,-0.32989450353279326,-1.1858243410953253,0.0714936801853349
2468,10.412031499959994,0.15710598478649715,0.023892233852164903,-0.03280046637880522,0.058885244684340976,0.35317192608136844,-0.11124024236371449,-0.11992828053728867,0.14586728441556265,-0.2031531352611009,-0.3251968088159022,-1.1902037331303634,0.07594068006705232
2469,10.416175899968948,0.15810958347988538,0.026158924889343006,-0.032900621031985336,0.05835823731955259,0.3537977783142327,-0.11212697503622822,-0.12133905460699423,0.14065835140118757,-0.20281195233601337,-0.32043412777222174,-1.1944271687744092,0.08038583207283899
2470,10.420587199972942,0.15912560548255536,0.02835958734505275,-0.03295609559743998,0.05782511000172231,0.3544008347161469,-0.11301217668532623,-0.12272888174464991,0.13543130438707782,-0.20245134848720797,-0.31560739266205434,-1.198493906108583,0.0848283888739121
2471,10.424509799981024,0.16012751969842512,0.030511567055633636,-0.03313565870366602,0.057285954862730366,0.3549810176303,-0.11389576245458263,-0.12409748380103747,0.13018682984412036,-0.20207133645438513,-0.310717551729567,-1.202403232214689,0.08926760275914852
2472,10.428909299953377,0.16123728187793815,0.03274283757703799,-0.033206846598180344,0.05674086524257927,0.35553825240719455,-0.1147776475482216,-0.1254445868049814,0.12492561729867262,-0.2016719322511721,-0.3057655689948683,-1.2061544633458328,0.09370272581324847
2473,10.4328185999766,0.16228579259950027,0.03493618253426277,-0.03349449390915747,0.05618993567097175,0.3560724674177303,-0.11565774724546408,-0.12676992103212373,0.11964835920439815,-0.20125315516585168,-0.30075242404102426,-1.2097469450899025,0.09813301009515317
2474,10.438326100003906,0.16324300709981932,0.037090713291249806,-0.03363876446676367,0.05563326184858818,0.3565835940657202,-0.11653597691488074,-0.1280732210727565,0.11435575081340035,-0.20081502776130478,-0.2956791117960671,-1.2131800525258554,0.10255770781665817
2475,10.44190899998648,0.16424186210352956,0.03926785450250216,-0.03388635277730676,0.0550709406280677,0.35707156679983765,-0.11741225202874789,-0.12935422589869006,0.10904849004668525,-0.20035757587416617,-0.290546642310053,-1.216453190372753,0.10697607152116417
2476,10.445337699959056,0.16525301914087157,0.0415726142339309,-0.03412503976794405,0.054503069994697194,0.3575363231249927,-0.11828648817740202,-0.13061267892913514,0.10372727736398571,-0.19988082861319284,-0.28535604052722663,-1.2195657931314987,0.11138735426250672
2477,10.4496145999874,0.16627643026538216,0.04382831990388695,-0.03439245684845829,0.05392974904681281,0.35797780361313714,-0.11915860108358976,-0.131848328095578,0.09839281563297957,-0.1993848183568447,-0.2801083460533532,-1.2225173252192207,0.11579080978380628
2478,10.453682799998203,0.16724260026616244,0.0460277622708485,-0.03473829292890291,0.05335107797591852,0.3583959519134952,-0.12002850661680976,-0.13306092590562676,0.09304580999793403,-0.19886958075007766,-0.2748046129182801,-1.2253072810962524,0.12018569269627993
2479,10.45791359996656,0.16824471399208218,0.04830943417810235,-0.035092567223066355,0.052767158046526284,0.3587907147622195,-0.12089612080764273,-0.13425022950580817,0.08768696774780978,-0.1983351547003485,-0.2694459093337913,-1.2279351853856768,0.12457125865795586
2480,10.462036299984902,0.16920088312186382,0.05067446078808326,-0.03541421753161732,0.052178091575722334,0.359162041991469,-0.12176135986206602,-0.135416000743294,0.08231699818385714,-0.19778158237283278,-0.26403331744682174,-1.2304005929853963,0.12894676455223147
2481,10.465644599986264,0.16920088312186382,0.05067446078808326,-0.03541421753161732,0.051583981912464355,0.3595098865379077,-0.12262414017574931,-0.13655800622653602,0.07693661248673761,-0.19720890918485665,-0.25856793308809994,-1.2327030891726924,0.13331146866621577
2482,10.47043789998861,0.17087146921871546,0.055460110708448314,-0.03624065738989955,0.050984933416614135,0.35983420445062086,-0.12348437834832787,-0.13767601738478963,0.07154652358320425,-0.19661718379954318,-0.2530508655162893,-1.2348422897012452,0.13766463086879702
2483,10.474546599958558,0.17178277941190853,0.05784493656550828,-0.036674582609008965,0.05038105143771078,0.36013495489844727,-0.12434199119764942,-0.1387698105265056,0.06614744601237466,-0.19600645811867393,-0.24748323715770112,-1.2368178408905883,0.14200551278837645
2484,10.478758599958384,0.1726055590624979,0.060128582255846955,-0.037051867421278306,0.04977244229348957,0.36041210017672615,-0.12519689577399132,-0.1398391668965706,0.06074009579163005,-0.1953767872747661,-0.24186618334165347,-1.238629419707972,0.14633337799020857
2485,10.483071399969049,0.1734022023803904,0.06242599525623277,-0.037540175129929354,0.049159213248151534,0.36066560571345724,-0.126049009374244,-0.14088387273237704,0.05532519028217376,-0.1947282296223671,-0.2362008520315509,-1.2402767338426097,0.1506474921532896
2486,10.486873199988622,0.1734022023803904,0.06242599525623277,-0.037540175129929354,0.04854147249038883,0.36089544007487157,-0.12689824955605744,-0.14190371931870344,0.0499034480542829,-0.19406084672856835,-0.23048840355176176,-1.2417595217722845,0.15494712324673485
2487,10.490398399997504,0.17411253366147036,0.06464258694155668,-0.03792512419571282,0.04791932911117138,0.36110157497041073,-0.1277445341519467,-0.1428985030413866,0.04447558875228744,-0.19337470336274043,-0.2247300103103729,-1.2430775528222913,0.15923154170558576
2488,10.494258299993817,0.17411253366147036,0.06464258694155668,-0.03792512419571282,0.047292893081300164,0.36128398525711336,-0.12858778128335202,-0.14386802543976787,0.03904233295931062,-0.19266986748549175,-0.21892685651790353,-1.2442306272166965,0.16350002060598787
2489,10.500181799987333,0.17610987245974666,0.0716804003567868,-0.03921819461902196,0.04666227522873282,0.3614426489434086,-0.12942790937465104,-0.14481209325789576,0.03360440206180486,-0.1919464102368538,-0.21308013790206162,-1.2452185761218995,0.16775183583968117
2490,10.503746400005184,0.1766465973388328,0.07405229994120524,-0.0398536186307358,0.046027587215687095,0.361577547192316,-0.13026483716711912,-0.1457305184944673,0.028162518113917033,-0.19120440592369628,-0.20719106141862734,-1.2460412616824748,0.17198626628774433
2491,10.50803339999402,0.17733440206229073,0.07649383161606645,-0.04043208452021868,0.045388941515527616,0.3616886643240515,-0.1310984837328347,-0.1466231184514921,0.0227174037017173,-0.19044393200637535,-0.20126084495855034,-1.2466985770492862,0.17620259399353405
2492,10.512644100002944,0.1780168434308639,0.07897149399915523,-0.040983096395254756,0.044746451389441694,0.3617759878180385,-0.13192876848852633,-0.14748971578166298,0.017269781807325545,-0.1896650690846177,-0.19529071705134923,-1.2471904463998615,0.18040010433476214
2493,10.516254299960565,0.1785556715927111,0.08149908464049996,-0.041541527183296366,0.04410023086291006,0.36183950831432277,-0.1327556112093574,-0.14833013853441804,0.011820375672970031,-0.1888679008826433,-0.18928191656490245,-1.2475168249510153,0.1845780861946529
2494,10.51966170000378,0.1785556715927111,0.08149908464049996,-0.041541527183296366,0.0434503947019781,0.3618792196143912,-0.13357893204264465,-0.1491442202006784,0.006369908665012443,-0.1880525142335309,-0.18323569240172302,-1.2476776989637233,0.18873583213212397
2495,10.524632999964524,0.17971457731467408,0.0864834972815168,-0.04293225633278391,0.04279705838933339,0.36189511868139373,-0.13439865152150757,-0.1499317997562466,0.0009191041379737228,-0.18721899906283104,-0.17715330319180955,-1.2476730857402565,0.1928726385509334
2496,10.528748199983966,0.18028756256576775,0.0889175206933155,-0.043697711135989206,0.04214033810019566,0.3618872056397701,-0.13521469057844435,-0.1506927217038505,-0.004531314701405,-0.18636744837143163,-0.17103601698216828,-1.2475030336135773,0.196987805867737
2497,10.532878900005016,0.1808212588236899,0.0913172358907701,-0.04434086869581021,0.04148035067802514,0.3618554837742807,-0.13602697055883156,-0.15142683611381857,-0.0099806249300321,-0.18549795821768078,-0.16488511092310054,-1.247167621928999,0.20108063867900008
2498,10.5369737999863,0.18127276942543682,0.09375101462267549,-0.04511361562318913,0.04081721361005565,0.3617999595284428,-0.1368354132343438,-0.15213399866337163,-0.015428104044231502,-0.18461062769877234,-0.15870187095135357,-1.2466669610181227,0.20515044592670847
2499,10.5412049999577,0.18176462028087012,0.09615633267020052,-0.04591680053107595,0.04015104500265808,0.36172064250237485,-0.1376399408162896,-0.15281407067451813,-0.020873030095370882,-0.1837055589313996,-0.15248759147023283,-1.246001192165063,0.20919654106282265
2500,10.545372899970973,0.18215068439010093,0.09852555902476659,-0.046708724955499506,0.039481963556540524,0.3616175454500468,-0.13844047596885942,-0.15346691915053837,-0.026314681825317886,-0.1827828570316826,-0.14624357502677637,-1.2451704875649825,0.21321824221242028
2501,10.551477500004694,0.18262328899272773,0.10087507126575312,-0.04757772751990414,0.038810088541791354,0.36149068427593944,-0.13923694182228236,-0.1540924168110444,-0.031752338801690316,-0.18184263009437468,-0.13997113198609298,-1.244175050274948,0.21721487233547224
2502,10.555960799974857,0.1831152058272641,0.1031233650806629,-0.04827596348871746,0.03813553977277177,0.3613400780311126,-0.14002926198588797,-0.1546904421256032,-0.03718528155286628,-0.180884989171354,-0.13367158020296774,-1.2430151141571284,0.2211857593871976
2503,10.559617599996272,0.18360889934949473,0.105460836961151,-0.048973397554249995,0.037458437582864546,0.3611657489086835,-0.14081736056107053,-0.1552608793459113,-0.0426127917027205,-0.1799100482494066,-0.12734624469083894,-1.241690943814345,0.22513023647694408
2504,10.56372839998221,0.18406506014811158,0.10783014798094206,-0.049693847570470344,0.036778902799085335,0.36096772223871454,-0.1416011621541533,-0.15580361853650987,-0.04803415210505285,-0.17891792422730796,-0.12099645728825202,-1.2402028345180054,0.22904764202554
2505,10.568113999965137,0.18448549270118875,0.11023957986848978,-0.05053803789583816,0.03609705671656309,0.3607460264825119,-0.14238059188914984,-0.15631855560402952,-0.053448646977675825,-0.17790873689221012,-0.11462355632289735,-1.2385511121284347,0.23293731992106528
2506,10.57228879997274,0.1849385267478116,0.11266910142147159,-0.05146142545993854,0.03541302107289614,0.3605006932263386,-0.1431555754204191,-0.15680559232495445,-0.05885556203612728,-0.17688260889534135,-0.10822888627333982,-1.2367361330076299,0.23679861967298868
2507,10.576303799985908,0.18542192165168797,0.11515219793453722,-0.05220619589769366,0.03472691802239068,0.36023175717454287,-0.1439260389452111,-0.15726463637189628,-0.06425418462697556,-0.17583966572702664,-0.10181379742854907,-1.2347582839244682,0.2406308965646208
2508,10.58057039999403,0.1858923104235078,0.1175387303928277,-0.053109513123602126,0.03403887011018826,0.35993925614210476,-0.1446919092161008,-0.15769560133836744,-0.06964380386068388,-0.1747800356910365,-0.09537964554534037,-1.232617981952409,0.24443351180383185
2509,10.584520599979442,0.1862528644577164,0.11999524809770036,-0.054043891226077626,0.03334900024628906,0.3596232310466025,-0.14545311355330698,-0.15809840676204473,-0.07502371074400117,-0.1737038498782722,-0.08892779150383703,-1.2303156743597237,0.24820583267198496
2510,10.588907399971504,0.18664868501759665,0.1223865669881752,-0.05524310877521026,0.03265743167947742,0.3592837258995998,-0.14620957985689356,-0.15847297814651398,-0.0803931983118463,-0.17261124213979506,-0.0824596009610657,-1.2278518384922905,0.2519472326710369
2511,10.593030099989846,0.18694620332663492,0.12485901263440966,-0.056281831012540605,0.03196428797115625,0.35892078779745457,-0.14696123661885033,-0.15881924698148708,-0.08575156175865263,-0.17150234905920853,-0.07597644400279761,-1.2252269816490005,0.25565709166875905
2512,10.597165799990762,0.18721548983638073,0.1272852708446953,-0.05732544301486491,0.03126969296909691,0.35853446691155166,-0.14770801293505023,-0.15913715076148346,-0.09109809856914096,-0.1703773099243999,-0.06947969479374921,-1.222441640949811,0.25933479604203014
2513,10.601302700000817,0.1875101903161156,0.1297077719932857,-0.058335647494201774,0.03057377078111127,0.35812481647796174,-0.1484498385170803,-0.1594266330029684,-0.09643210864848847,-0.1692362666986509,-0.06297073122625593,-1.219496383196489,0.2629797388181536
2514,10.605350999976508,0.1877787354664133,0.13221240900843442,-0.059462013243345005,0.029876645748652574,0.35769189278653174,-0.1491866437039431,-0.15968764325994272,-0.1017528944518615,-0.16807936399112672,-0.056450934567534215,-1.2163918047260938,0.2665913198141538
2515,10.609571999986656,0.18792711612074367,0.1346202288955946,-0.06055704182050724,0.029178442420351898,0.3572357551694094,-0.14991835947362647,-0.1599201371379783,-0.10705976111328032,-0.16690674902675304,-0.049921689105647746,-1.2131285312572524,0.2701689457740063
2516,10.613753099984024,0.18816297279437877,0.13707831622743885,-0.06154594246622801,0.02847928552549711,0.35675646598900507,-0.1506449174545385,-0.16012407630669373,-0.11235201657378431,-0.16571857161549075,-0.04338438179429429,-1.2097072177292791,0.2737120305037587
2517,10.617951299995184,0.1883105826552287,0.13954320151028202,-0.06253867224896557,0.027779299947461245,0.3562540906253951,-0.15136624993680498,-0.16029942851066642,-0.11762897170886637,-0.1645149841210171,-0.03684040189653032,-1.2061285481341908,0.27721999500449745
2518,10.62210649996996,0.18836160169411711,0.1421198528676467,-0.06368793168895191,0.02707861069708714,0.35572869746317093,-0.1520822898834264,-0.16044616757877678,-0.12288994045514572,-0.16329614142882326,-0.030291140627550804,-1.2023932353416757,0.28069226760311816
2519,10.626439499959815,0.18835486481166178,0.14456971389746287,-0.06477691992585279,0.02637734288603514,0.35518035787773494,-0.1527929709412926,-0.16056427343198004,-0.1281342399362478,-0.1620622009137372,-0.023737990796642218,-1.1985020209170743,0.2841282840808574
2520,10.630551199952606,0.18829458900095156,0.14711434915992325,-0.06576117315542536,0.025675621700100612,0.35460914622104733,-0.153498227452052,-0.16065373208950237,-0.13336119058786078,-0.16081332240688156,-0.017182346448427147,-1.194455674932433,0.2875274877995462
2521,10.634639700001571,0.18839021698315372,0.1495728563327079,-0.06688396928120613,0.02497357237250826,0.3540151398068289,-0.15419799446283322,-0.1607145356734576,-0.1385701162819379,-0.15954966816207744,-0.010625602503519538,-1.1902549957706914,0.29088932982554533
2522,10.63884309999412,0.18831844704152112,0.15194060743845147,-0.06811972014376391,0.024271320157190173,0.3533984188952248,-0.15489220773681647,-0.1607466824118835,-0.1437603444500167,-0.1582714028217042,-0.004069154398709713,-1.1859008099230601,0.29421326905132633
2523,10.643134099955205,0.1883923897938539,0.1543622439177433,-0.06933980167866748,0.023568990302054563,0.3527590666769315,-0.15558080376365174,-0.16075017664019567,-0.14893120620562447,-0.15697869338202725,0.0024856022732011626,-1.1813939717796629,0.29749877231466054
2524,10.647376099950634,0.18847633448311768,0.1567592972145061,-0.0704618276258791,0.02286670802225223,0.3520971692567915,-0.15626371976972095,-0.16072502880105838,-0.1540820364657416,-0.15567170915800324,0.009037272123797358,-1.1767353634135065,0.30074531451538067
2525,10.65154180000536,0.18842580082257618,0.15908835832588625,-0.07169473191966753,0.022164598473447764,0.35141281563685806,-0.15694089372824083,-0.16067125544267188,-0.15921217407129348,-0.15435062174757377,0.015584460329555665,-1.171925894357855,0.3039523787296802
2526,10.655811899981927,0.1884955903746961,0.161446166132995,-0.07306447354934593,0.021462786725102417,0.35070609769893507,-0.15761226436920442,-0.1605888792154757,-0.16432096190664341,-0.15301560499545863,0.02212577299234317,-1.1669665013770851,0.3071194563219165
2527,10.659314799995627,0.1884955903746961,0.161446166132995,-0.07306447354934593,0.02076139773377568,0.34997711018659594,-0.1582777711891586,-0.16047792886726767,-0.16940774701805822,-0.15166683495645947,0.02865981749978553,-1.1618581482310948,0.31024604705388664
2528,10.663127499981783,0.18849447718171558,0.16378753495791498,-0.07434406465113488,0.02006055631645258,0.3492259506866865,-0.15893735446081533,-0.1603384392367397,-0.17447188073111972,-0.15030448985828496,0.035185202885385534,-1.1566018254333401,0.313331659191543
2529,10.666605899983551,0.18856181295351862,0.16858857824782078,-0.07668158992034155,0.019360387123903654,0.3484527196103163,-0.15959095524249467,-0.16017045124543194,-0.17951271876705455,-0.1489287500639096,0.04170054018827181,-1.1511985500025872,0.31637580960911743
2530,10.670533899974544,0.18846669143080097,0.17101065217801903,-0.0779871415754598,0.01866101461408465,0.3476575201733448,-0.160238515387397,-0.15997401188810662,-0.18452962135795567,-0.1475397980334769,0.04820444281245744,-1.1456493652084576,0.31937802389062414
2531,10.6745879999944,0.18837276487759028,0.17348484921703292,-0.07904965701349861,0.01796256302558282,0.346840458376366,-0.16087997755270353,-0.1597491742215452,-0.1895219533608688,-0.14613781828575834,0.05469552688548869,-1.1399553403108529,0.3223378364287123
2532,10.67816369998036,0.18837276487759028,0.17348484921703292,-0.07904965701349861,0.017265156351116685,0.3460016429841981,-0.16151528520850322,-0.15949599735177092,-0.19448908437071696,-0.1447229973591802,0.0611724116163639,-1.1341175702933397,0.3252547905208398
2533,10.681783499952871,0.18837276487759028,0.17348484921703292,-0.07904965701349861,0.016568918311096036,0.345141185504882,-0.162144382646545,-0.15921454641969984,-0.19943038883203756,-0.14329552377242957,0.06763371965260268,-1.1281371755905847,0.3281284384627408
2534,10.685393299965654,0.18844701320720947,0.17592036063747074,-0.08007343855753676,0.015873972327249117,0.3442592001681949,-0.16276721498881327,-0.15890489258522433,-0.20434524614950617,-0.14185558798465206,0.07407807743634622,-1.1220153018099224,0.33095834163916005
2535,10.689045799954329,0.18824721053775534,0.1804895514325887,-0.0823637702740751,0.015180441496323846,0.3433558039036844,-0.16338372819592428,-0.15856711300973342,-0.2092330407972223,-0.14040338235525335,0.08050411555936951,-1.1157531194471502,0.33374407061182804
2536,10.692932999983896,0.18811072591399833,0.1827433725582172,-0.08342757672578271,0.014488448563870002,0.34243111631822787,-0.16399386907534103,-0.15820129083707524,-0.2140931624267326,-0.13893910110331661,0.08691046911688645,-1.1093518235966386,0.33648520520465625
2537,10.697313599986956,0.18795062238360424,0.18490158083585828,-0.08453858327600415,0.013798115898109142,0.34148525967312277,-0.16459758528940627,-0.15780751517296748,-0.21892500597376754,-0.13746294026664804,0.09329577806002952,-1.1028126336558546,0.33918133458613087
2538,10.700954899948556,0.18795062238360424,0.18490158083585828,-0.08453858327600415,0.013109565463899022,0.3405183588607153,-0.16519482536319277,-0.15738588106286222,-0.2237279717636685,-0.13597509766046423,0.09965868754688606,-1.0961367930243908,0.34183205734888605
2539,10.7052405999857,0.18783549986441664,0.18703192243040329,-0.08574584743646249,0.012422918796799213,0.3395305413805729,-0.16578553869217036,-0.15693648946827127,-0.22850146561548193,-0.13447577283573375,0.10599784829197362,-1.0893255687975956,0.34443698158643876
2540,10.708826999994926,0.18750464224766933,0.19113622351376236,-0.08813737718342195,0.011738296977244744,0.3385219373152063,-0.16636967554968732,-0.15645944724156055,-0.23324489894469758,-0.13296516703718553,0.11231191691403773,-1.0823802514548995,0.34699572496706943
2541,10.712824399990495,0.18719424491869266,0.1932245891590743,-0.08947606071404914,0.01105582060483442,0.33749267930534904,-0.16694718709426512,-0.15595486709922193,-0.23795768886460766,-0.13144348316099752,0.1185995562820566,-1.0753021545429409,0.3495079148048305
2542,10.71637290000217,0.18693122235439158,0.19524452504809664,-0.09083539387900899,0.010375609772740482,0.33644290252480297,-0.1675180253767046,-0.15542286759363086,-0.24263925828626576,-0.12991092571217897,0.12485943585933795,-1.0680926143535945,0.35197318812766754
2543,10.71956139995018,0.18693122235439158,0.19524452504809664,-0.09083539387900899,0.009697784042246194,0.33537274465485606,-0.16808214334700208,-0.1548635730832986,-0.2472890360170223,-0.12836770076165846,0.13109023204559334,-1.0607529895970012,0.3543911917426388
2544,10.723293499962892,0.18693122235439158,0.19524452504809664,-0.09083539387900899,0.009022462417417897,0.33428234585827815,-0.16863949486107413,-0.15427711370162897,-0.25190645685761537,-0.12681401590309088,0.1372906285168761,-1.0532846610697002,0.356761582298218
2545,10.728500199969858,0.18594097693233114,0.20117353089779177,-0.09488395549595696,0.008349763319918092,0.33317184875290057,-0.16919003468728963,-0.15366362532418956,-0.2564909616977965,-0.12525008020939654,0.1434593165632699,-1.0456890313179725,0.359084026343668
2546,10.733478899986949,0.18558690349686488,0.20320354295696247,-0.09629150543188426,0.007679804563966101,0.33204139838478536,-0.16973371851280786,-0.15302324953450805,-0.2610419976104699,-0.12367610418904558,0.1495949954242152,-1.0379675242965012,0.36135820038547267
2547,10.737136799958536,0.18513232763470625,0.20511202919575053,-0.09782646529226556,0.00701270333145281,0.3308911422009908,-0.1702705029497221,-0.1523561335884042,-0.26555901794432535,-0.12209229974210126,0.15569637262136196,-1.0301215850224585,0.36358379094081866
2548,10.74144419998629,0.18468787040685883,0.2070731242551003,-0.09911434860273857,0.006348576147215866,0.3297212300219393,-0.17080034554100834,-0.15166243037686752,-0.27004148241494413,-0.1204988801160359,0.16176216428883866,-1.022152679225126,0.3657604945881154
2549,10.74534909997601,0.1843165385470465,0.20899973905294772,-0.10048293156800174,0.005687538854481669,0.32853181401339565,-0.17132320476627846,-0.15094229838749196,-0.2744888571943582,-0.11889605986133268,0.16779109550082794,-1.0140622929911571,0.3678880180145461
2550,10.749498299963308,0.1838272690542191,0.21075158389225856,-0.10202975374276485,0.0050297065904804485,0.32732304865806006,-0.17183904004733858,-0.15019590166448044,-0.27890061499904323,-0.1172840547868857,0.17378190059634135,-1.0058519324055952,0.369966078060643
2551,10.753587999963202,0.18337128128109198,0.21261011847121006,-0.10347849513520718,0.00437519376224067,0.3260950907267818,-0.17234781175355252,-0.1494234097672319,-0.2832762351763278,-0.11566308191521212,0.17973332350108698,-0.9975231231887557,0.3719944017618809
2552,10.758021299960092,0.1828688029463964,0.21436286375752955,-0.10493828849861588,0.003724114022568937,0.32484809924940045,-0.172849481207009,-0.14862499772752308,-0.2876152037892004,-0.11403335943748971,0.18564411804632464,-0.989077410329086,0.37397272638728635
2553,10.762099199986553,0.18238052440512098,0.2160949364790415,-0.10650251097864459,0.003076580246221497,0.32358223548522264,-0.17334401068749064,-0.1478008460052985,-0.2919170136994964,-0.11239510666843358,0.1915130482846048,-0.980516357712122,0.3759007994750594
2554,10.766198900004383,0.1817814115071704,0.21783769800478855,-0.10811136556285073,0.002432704506273409,0.3222976628931402,-0.17383136343724412,-0.14695114044308324,-0.29618116464944827,-0.11074854400102577,0.19733888880228825,-0.9718415477456513,0.37777837886520577
2555,10.770340199989732,0.18132148932830344,0.21958631820585583,-0.10961882900487926,0.0017925980506913433,0.3209945471013967,-0.17431150366555132,-0.14607607221903268,-0.30040716334158335,-0.10909389286111151,0.2031204250287456,-0.9630545809811984,0.37960523272917895
2556,10.774722500005735,0.18081735547593758,0.2213006797141199,-0.11140611579163763,0.0011563712791159532,0.31967305587700917,-0.17478439655310096,-0.14517583779863372,-0.3045945235169537,-0.1074313756618758,0.20885645354213714,-0.9541570757319533,0.38138113959653336
2557,10.778711299994027,0.18017483080323055,0.2229745007970031,-0.1130529475429941,0.0005241337198596703,0.3183333590948517,-0.17525000825615952,-0.14425063888507372,-0.30874276603168294,-0.10576121575821397,0.21454578237167385,-0.9451506676872636,0.38310588837859133
2558,10.783346399955915,0.1797002020797687,0.22472170017711388,-0.11466135976251396,-0.00010400599287429223,0.3169756287064086,-0.17570830591054046,-0.14330068236829313,-0.31285141893181717,-0.1040836374010099,0.2201872312962631,-0.9360370095238091,0.384779278389127
2559,10.787099299952388,0.17901737777412435,0.22640267226138663,-0.11636189638693614,-0.000727940141546015,0.3156000387082051,-0.1761592576353712,-0.14232618027273766,-0.3169200175264668,-0.10239886569133524,0.22577963213944294,-0.9268177705135728,0.3864011193620722
2560,10.791293499991298,0.17837174066615685,0.22816855634228506,-0.1180078388575616,-0.0013475619476003833,0.3142067651099233,-0.17660283253665837,-0.1413273497038272,-0.3209481044592258,-0.10070712653458284,0.23132182906051038,-0.9174946361287333,0.38797123146624846
2561,10.795481799985282,0.17776594584731048,0.22988659322003524,-0.11965178988868634,-0.0019627655935504675,0.3127959859022094,-0.17703900071065073,-0.1403044127931583,-0.3249352297778544,-0.09900864659454778,0.2368126788417503,-0.9080693076435944,0.38948944531713386
2562,10.799501099972986,0.17702701599766388,0.23154985479582263,-0.12124381233961339,-0.0025734462448172737,0.31136788102417917,-0.1774677332469995,-0.13925759664245743,-0.3288809510022128,-0.09730365324746909,0.24225105117167317,-0.8985435017336706,0.3909556019856736
2563,10.80366509995656,0.17635853450906186,0.23315025138065804,-0.12282211749932237,-0.003179500071320444,0.30992263233062856,-0.17788900223171575,-0.138187133266303,-0.33278483319043384,-0.09559237453604486,0.24763582892417335,-0.8889189500720397,0.39236955300414245
2564,10.807842499983964,0.1757136397459993,0.2347815421373736,-0.12449619867151195,-0.00378082426881456,0.30846042355895853,-0.17830278074992514,-0.13709325953363488,-0.3366464490033248,-0.09387503912343358,0.2529659084335192,-0.8791973989230873,0.39373116036906947
2565,10.811994999996386,0.17497763556485985,0.2363022755776144,-0.12600539013738596,-0.004377317079965787,0.3069814402958217,-0.1787090428884197,-0.13597621710806967,-0.34046537876698824,-0.09215187624725536,0.2582401997650888,-0.8693806087337635,0.3950402965412338
2566,10.81622249999782,0.17434591178056247,0.23778104955819146,-0.12753298133556099,-0.004968877815163682,0.3054858699434978,-0.17910776373800694,-0.1348362523870405,-0.3442412105336498,-0.09042311567360571,0.2634576269817678,-0.8594703537224724,0.39629684444274443
2567,10.819849699968472,0.17434591178056247,0.23778104955819146,-0.12753298133556099,-0.005555406873063104,0.30397390168600597,-0.17949891939565615,-0.1336736164397812,-0.34797354014068305,-0.08868898765109445,0.2686171284059238,-0.8494684214657177,0.39750069745121713
2568,10.827221199986525,0.17320720501100062,0.24072054546943256,-0.13049755238371047,-0.0061368057608512105,0.3024457264549613,-0.17988248696644205,-0.1324885649441752,-0.3516619712678234,-0.08694972286492265,0.2737176568768748,-0.839376612482626,0.39865175939106223
2569,10.834360799985006,0.17181224241869503,0.24350747966127817,-0.13378549751510632,-0.006712977114234644,0.3009015368951834,-0.1802584445652858,-0.1312813581224886,-0.35530611549256286,-0.08520555239101009,0.2787581800037741,-0.8291967398174659,0.3997499445218995
2570,10.840200399979947,0.1712032167311401,0.2449213503407736,-0.1352699805516822,-0.0072838247171421195,0.29934152733006547,-0.18062677131849442,-0.13005226067600809,-0.35890559234371583,-0.08345670765018592,0.283737680413832,-0.8189306286202871,0.40079517752411714
2571,10.846802599960938,0.1698627443410088,0.2477702110895035,-0.13815804242232418,-0.00784925352113769,0.29776589372671236,-0.18098744736509878,-0.12880154171860458,-0.36246002935315125,-0.08170342036245536,0.2886551559957997,-0.8085801157258006,0.4017873934815928
2572,10.850901799974965,0.16919309349751488,0.24919769665477115,-0.13960544976780712,-0.008409169664540033,0.2961748336608565,-0.18134045385799213,-0.12752947470924422,-0.36596906210568353,-0.07994592250135503,0.2935096201386403,-0.7981470492306191,0.40272653786159673
2573,10.854820099950302,0.1685368206232809,0.2506031239918971,-0.14090369074659456,-0.008963480491243256,0.2945685462815598,-0.18168577296486885,-0.12623633738346912,-0.3694323342871132,-0.07818444624841019,0.29830010196531465,-0.7876332880689785,0.4036125664918986
2574,10.85834999999497,0.16789808914734808,0.2518481716480193,-0.14239988922537164,-0.009512094569234821,0.2929472322757094,-0.1820233878689645,-0.12492241168386956,-0.3728494977304122,-0.07641922394770606,0.3030256465616123,-0.7770407015870632,0.40444544553509826
2575,10.861983999959191,0.16735048320614967,0.2531159399106014,-0.14376029384770492,-0.010054921708806262,0.29131109383231635,-0.18235328276959809,-0.12358798368956868,-0.3762202124600465,-0.0746504880605854,0.3076853151999591,-0.7663711691160582,0.4052251514602013
2576,10.86661639995873,0.16666146364404655,0.25429157211315545,-0.1451236180959654,-0.010591872980452466,0.2896603346066275,-0.18267544288251691,-0.12223334354474141,-0.3795441467344296,-0.07287847112048468,0.31227818555813464,-0.7556265795440502,0.40595167101146334
2577,10.870684099965729,0.16603962462510918,0.2554984335664537,-0.14644315227554322,-0.011122860732455452,0.2879951596840573,-0.1829898544400451,-0.12085878538619044,-0.38282097708650376,-0.07110340568792149,0.3168033519328344,-0.7448088308869011,0.4066250011745283
2578,10.874528099957388,0.16525188383147943,0.25656743849758806,-0.14769289337815486,-0.011647798608148617,0.2863157755439481,-0.18329650469103648,-0.11946460727000256,-0.3860503883624434,-0.06932552430564556,0.3212599254480172,-0.7339198298582166,0.4072451491398877
2579,10.878792999952566,0.16452426016112406,0.257609107475638,-0.1490674038860429,-0.012166601562857548,0.2846223900231687,-0.1835953819006324,-0.11805111109730891,-0.38923207375847846,-0.0675450594539651,0.32564703425797625,-0.7229614914385325,0.4078121322636859
2580,10.882377200003248,0.16452426016112406,0.257609107475638,-0.1490674038860429,-0.012679185880513569,0.2829152122795601,-0.18388647534982458,-0.11661860253917246,-0.39236573485583487,-0.0657622435062601,0.3299638237450743,-0.711935738443839,0.40832597802590215
2581,10.88691070000641,0.16284467082694512,0.25959701128192747,-0.15144274597601828,-0.013185469189936374,0.28119445275523564,-0.18416977533482431,-0.11516739096062673,-0.3954510816537901,-0.06397730868469384,0.33420945671208785,-0.7008445010935637,0.40878672398593513
2582,10.89110399998026,0.16199682843273677,0.26054136317207305,-0.15263379031766183,-0.013685370480782113,0.2794603231397417,-0.18444527316623885,-0.11369778934388938,-0.39848783260084114,-0.06219048701613408,0.3383831135691075,-0.6896897165781357,0.4091944177356229
2583,10.895392399979755,0.1610261873613711,0.2614109531993178,-0.15376563292266204,-0.014178810119153392,0.2777130363330873,-0.1847129611680559,-0.1122101142107753,-0.4014757146239824,-0.06040201028829497,0.34248399251494277,-0.6784733286262512,0.4095491168497272
2584,10.899565399973651,0.1599961326883798,0.2622663314979467,-0.15500824480670714,-0.01466570986286773,0.2759528064086516,-0.18497283267643824,-0.11070468554433299,-0.4044144631560928,-0.05861211000611094,0.3465113097129805,-0.6671972870719609,0.4098508888339164
2585,10.903150699974503,0.1599961326883798,0.2622663314979467,-0.15500824480670714,-0.015145992876381128,0.274179848575977,-0.18522488203832893,-0.1091818267097292,-0.40730382216143224,-0.05682101734835396,0.35046429946144886,-0.6558635474217024,0.41009981107027726
2586,10.90763249999145,0.157927384868419,0.26380147355415273,-0.1571986059705463,-0.015619583745363487,0.27239437914345527,-0.18546910460986823,-0.10764186437440659,-0.41014354415924825,-0.05502896312450483,0.3543422143580421,-0.6444740704213959,0.4102959707603892
2587,10.912206599954516,0.15693611180004696,0.2645126243754387,-0.15813569418874363,-0.01608640849092274,0.2705966154809129,-0.1857054967546239,-0.10608512842753946,-0.4129333902454942,-0.05323617773188905,0.3581443254588642,-0.6330308216237187,0.410439464865993
2588,10.91624969994882,0.15574966008474803,0.26520928604866084,-0.15916031213830764,-0.016546394583474684,0.26878677598210465,-0.18593405584163622,-0.1045119518988122,-0.4156731301126596,-0.05144289111308754,0.36186992243165256,-0.6215357709556735,0.41053040004729113
2589,10.920209599949883,0.1546042838132415,0.26591762312961464,-0.1602280258910287,-0.01699947095625567,0.2669650800271242,-0.18615478024327853,-0.10292267087654532,-0.4183625420677153,-0.04964933271363237,0.36551831370324245,-0.6099908922865673,0.4105688925989162
2590,10.92443590000039,0.1534542644333985,0.266555358620846,-0.1611068542680377,-0.017445568018475313,0.2651317479447379,-0.1863676693329334,-0.10131762442519422,-0.42100141304817484,-0.04785573143999776,0.3690888266012358,-0.5983981629965125,0.41055506838360356
2591,10.92869430000428,0.15223774278775698,0.26721214848384817,-0.1620314072553301,-0.017884617668106582,0.26328700097464836,-0.18657272348248644,-0.0996971545022459,-0.4235895386362755,-0.04606231561789605,0.37258080748983996,-0.5867595635455618,0.4104890627636061
2592,10.93322269996861,0.15111691961152915,0.26781442408777173,-0.16279763516836607,-0.018316553304310777,0.261431061229696,-0.1867699440596383,-0.0980616058745393,-0.4261267230712809,-0.04426931295088886,0.37599362189984525,-0.5750770770435913,0.41037102052988933
2593,10.936974999960512,0.14985189460588053,0.2684112724394886,-0.16361303790150708,-0.01874130983949509,0.25956415165800717,-0.18695933342503618,-0.09641132603403532,-0.42861277925990926,-0.04247695047932265,0.37932665465271304,-0.5633526888210476,0.4102010958291433
2594,10.9412297999952,0.14862001904008595,0.26900464890758735,-0.16446538167494473,-0.019158823711000455,0.25768649600509697,-0.18714089492922636,-0.09474666511306275,-0.43104752878489416,-0.04068545453959841,0.3825793099787482,-0.5515883860006694,0.40997945208864867
2595,10.945355999981984,0.14746481160032068,0.2695140370545104,-0.16527454302454014,-0.019569032892417487,0.25579831877593784,-0.18731463290942993,-0.09306797579906682,-0.433430801911684,-0.03889505072378455,0.38575101162933195,-0.5397861570702972,0.4097062619390369
2596,10.949588199961,0.14631081608838026,0.26997383633892946,-0.1660057185543639,-0.019971876904528462,0.2538998451970028,-0.18748055268614355,-0.0913756132488865,-0.43576243759328515,-0.03710596383958219,0.38884120298319325,-0.5279479914568831,0.4093817071349856
2597,10.953607000003103,0.14520957165004672,0.2704552618888665,-0.166723016716734,-0.02036729682587329,0.2519913011782915,-0.18763866055956627,-0.0896699350025871,-0.43804228347325463,-0.0353184178706517,0.39184934714669944,-0.5160758791018112,0.40900597847388953
2598,10.957920099957846,0.1441786167042458,0.27086672561413044,-0.16749911363540498,-0.0207552353029376,0.2500729132753466,-0.18778896380585375,-0.08795130089687485,-0.440270195886847,-0.033532635937309006,0.39477492704814915,-0.5041718100376386,0.40857927571255
2599,10.962097199982964,0.14312984372991022,0.271206990097238,-0.1682550014513938,-0.02113563655996122,0.2481449086512685,-0.18793147067320232,-0.08622007297811927,-0.44244603986032166,-0.03174884025760017,0.39761744552605216,-0.4922377739663692,0.4081018074819248
2600,10.96617809997406,0.14212927447390347,0.2715546144501442,-0.16916874467430032,-0.021508446408365477,0.24620751503873614,-0.1880661903777652,-0.08447661541501009,-0.4445696891084159,-0.029967252108762707,0.40037642541138413,-0.48027575983936893,0.40757379119998255
2601,10.970378199999686,0.1411765097529011,0.27183312296114703,-0.1700236106617153,-0.021873612255797738,0.24426096070204184,-0.1881931330994031,-0.08272129441087506,-0.44664102602998934,-0.028188091789081698,0.40305140960380575,-0.4682877554390244,0.4069954529827047
2602,10.974492999957874,0.14021410600619622,0.2720757003687651,-0.17070289218530207,-0.022231083114791803,0.24230547439915,-0.1883123099772723,-0.08095447811568582,-0.4486599417018462,-0.026411578580148976,0.40564196114183665,-0.45627574696224965,0.40636702755328097
2603,10.978660799970385,0.1393052126537833,0.27227293732501395,-0.17140371019068587,-0.022580809611042814,0.2403412853437877,-0.18842373310525243,-0.0791765365377781,-0.4506263358707443,-0.024637930709533025,0.4081476632669776,-0.4442417186059435,0.40568875814954125
2604,10.982731500000227,0.13837920405883689,0.2724474302288107,-0.17213761417344917,-0.022922743991295496,0.23836862316757465,-0.18852741552721597,-0.07738784145531256,-0.4525401169435985,-0.02286736531386708,0.4105681194817781,-0.43218765215450217,0.40496089642966837
2605,10.98711170000024,0.1373653542418706,0.2726120687356321,-0.17281434001256674,-0.023256840130844773,0.23638771788220148,-0.1886233712321404,-0.07558876632750271,-0.45440120197588696,-0.021100098402362568,0.4129029536018484,-0.42011552656948864,0.4041837023762382
2606,10.99170149996644,0.1363924505317928,0.2727274341922705,-0.17343052136743645,-0.02358305354064777,0.234398799841664,-0.18871161514906556,-0.07377968620563694,-0.4562095166582718,-0.019336344820755098,0.4151518098018188,-0.40802731758155664,0.40335744419863206
2607,10.99544979998609,0.13546167542178345,0.27279188243725344,-0.17407996375039425,-0.02390134137404644,0.23240209970455958,-0.18879216314189895,-0.07196097764392084,-0.4579649953014467,-0.017576318215689796,0.4173143526552481,-0.3959249972847259,0.4024823982338646
2608,11.000070699956268,0.13449814180012448,0.27283971307365573,-0.17458170114308397,-0.024211662433100217,0.23039784839645355,-0.1888650320040705,-0.07013301861016631,-0.4596675808192215,-0.015820230999552605,0.41939026716848543,-0.38381053373310664,0.4015588488458713
2609,11.00389999995241,0.13349360889651293,0.27282656717182696,-0.17511281327657752,-0.024513977174528124,0.22838627707232442,-0.18893023945303847,-0.06829618839635357,-0.4613172247098546,-0.014068294315754046,0.4213792588084934,-0.3716858905401668,0.40058708832330236
2610,11.007972999999764,0.13247483134632218,0.2727922724955682,-0.17548938355435817,-0.024808247715259867,0.22636761707909445,-0.1889878041246483,-0.06645086752909243,-0.46291388703564473,-0.012320718004471617,0.4232810535246427,-0.35955302648063714,0.39956741677586904
2611,11.012577899964526,0.1314833609513343,0.27273011991500323,-0.1759103374946274,-0.025094437837595553,0.22434209991825385,-0.18903774556734668,-0.06459743768000899,-0.4644575364007923,-0.010577710568856879,0.4250953977644911,-0.34741389509514725,0.39850014202928924
2612,11.016239599965049,0.1304939428923857,0.2726485274613565,-0.176456231751236,-0.025372512993973726,0.22230995720858743,-0.1890800842362519,-0.06273628157608384,-0.4659481499275433,-0.008839479141713062,0.4268220584835621,-0.33527044429768404,0.3973855795188798
2613,11.020640200003982,0.12946232528056156,0.27248394177751606,-0.17694217099753431,-0.025642440311347797,0.22027142064901217,-0.18911484148708285,-0.060867782909968256,-0.467385713230627,-0.0071062294526487105,0.42846082314913925,-0.3231246159859642,0.3962240521818436
2614,11.024608899955638,0.1285110789592666,0.27231977182004025,-0.17738382989765805,-0.02590418859517094,0.21822672198153314,-0.18914203956994868,-0.05899232625030428,-0.46877022039000027,-0.005378165795712769,0.4300114997380964,-0.3109783456548106,0.3950158903482989
2615,11.028654999972789,0.12756769127494724,0.2721790573677337,-0.17785392101199915,-0.026157728332989523,0.21617609295432486,-0.189161701623001,-0.05711029695207477,-0.47010167392191476,-0.003655490997516293,0.43147391672878105,-0.2988335620126228,0.3937614316311
2616,11.032904599967878,0.1266899027158901,0.2720612640913323,-0.17833555452015948,-0.02640303169764542,0.2141197652849464,-0.1891738516659505,-0.05522208106700888,-0.4713800847483201,-0.0019384063858456852,0.432847923086976,-0.2866921866010278,0.3924610208144958
2617,11.03748810000252,0.12573721767631252,0.2719094157204734,-0.178841742812596,-0.026640072550087567,0.2120579706236978,-0.1891785145934499,-0.053328065254068614,-0.472605472164617,-0.00022711175877215158,0.4341333882459644,-0.27455613341779384,0.39111500974167795
2618,11.041193299985023,0.12486036652193765,0.2718280391715867,-0.17928973148727637,-0.026868826441793257,0.20999094051712394,-0.1891757161683442,-0.05142863669004233,-0.47377786380577586,0.0014781946457381402,0.4353302020807286,-0.2624273085430922,0.3897237572012648
2619,11.045419599977322,0.12412810631347185,0.27176117176941383,-0.17966743721385017,-0.02708927061679968,0.20791890637167326,-0.1891654830147896,-0.049524182980270455,-0.4748972956108346,0.0031773161797089312,0.4364382748763127,-0.25030760976918803,0.3882876288127674
2620,11.049508599971889,0.12335159710214971,0.27174820202257577,-0.18013781183157832,-0.027301384013346253,0.20584209941751896,-0.18914784261124254,-0.04761509206952924,-0.4759638117857913,0.004870057814529698,0.4374575372903844,-0.23819892623364033,0.3868069969110851
2621,11.053840599954128,0.12259730948075172,0.2717235185276537,-0.18064084412313602,-0.027505147265128444,0.203760750672549,-0.1891228232833206,-0.045701752153097616,-0.4769774647649067,0.006556226169818586,0.4383879403100282,-0.2261031380560902,0.38528224043007736
2622,11.057870799966622,0.12187298765719325,0.2716945010384066,-0.1811746048941299,-0.02770054270216394,0.2016750909065318,-0.1890904541965387,-0.043784551588032364,-0.4779383151704362,0.008235629541768824,0.439229455202809,-0.21402211597871368,0.38371374478525966
2623,11.061973799951376,0.1211791994313157,0.27172847856065335,-0.1816161794811423,-0.02788755435127213,0.1995853506054638,-0.18905076534892157,-0.04186387880467663,-0.4788464317708062,0.009908077930975166,0.43998207346214196,-0.2019577210104151,0.382101901755671
2624,11.066208399948664,0.12060814647461508,0.27176059129900804,-0.18210480044525845,-0.028066167936168,0.19749175993610563,-0.18900378756349534,-0.03994012221842642,-0.4797018914372506,0.011573383069737183,0.44064580674701254,-0.1899118040748326,0.38044710936496007
2625,11.070405199949164,0.12009720061374315,0.271810357808006,-0.1825895150434877,-0.028236370877171693,0.19539454871071332,-0.1889495524806601,-0.03801367014177964,-0.4805047790989246,0.013231358448836349,0.4412206868160861,-0.1778862056622296,0.3787497717617379
2626,11.074435099959372,0.1196116077332238,0.2718777624442169,-0.18310379589303763,-0.02839815229053517,0.19329394635197245,-0.18888809255044645,-0.03608491069669215,-0.4812551876965136,0.014881819343784164,0.44170676545625176,-0.1658827554853414,0.37701029909924477
2627,11.078843600000257,0.11904603671728449,0.27200906132903524,-0.18376401249314253,-0.028551502987387272,0.19119018185814068,-0.18881944102465822,-0.034154231727264846,-0.48195321813435443,0.01652458284053869,0.44210411440564434,-0.15390327213924643,0.37522910741438065
2628,11.083099699986631,0.11851561466472793,0.27216100883519423,-0.1843610884275354,-0.028696415472298686,0.18908348376840559,-0.18874363194890348,-0.03222202071278617,-0.48259897923108436,0.018159467860687117,0.44241282527119447,-0.1419495627653288,0.3734066185061453
2629,11.08704219997162,0.11798001945779898,0.27232263302271237,-0.18494886181273343,-0.028832883941468445,0.18697408012846373,-0.18866070015451608,-0.03028866468115364,-0.4831925876688358,0.019786295186092148,0.44263300944075923,-0.13002342271939837,0.37154325981353187
2630,11.091337299963923,0.11745228437269446,0.27253349778167424,-0.18562010795335543,-0.02896090428053373,0.1848621984563273,-0.18857068125037027,-0.028354550122697664,-0.48373416794099366,0.02140488748300015,0.442764797989886,-0.11812663524403204,0.3696394642929208
2631,11.096191099961288,0.11683921901950213,0.27279869010370683,-0.18642238405545858,-0.029080474062004664,0.18274806570836355,-0.1884736116145908,-0.026420062904431028,-0.4842238522985335,0.023015069325609386,0.442808341583259,-0.1062609711451985,0.36769567029502476
2632,11.099805699952412,0.11622059691712058,0.2731540253404406,-0.18709093579364217,-0.02919159254232592,0.18063190824557313,-0.18836952838616206,-0.024485588184746936,-0.48466178069495863,0.02461666721909673,0.4427638103708874,-0.09442818847322675,0.36571232144143034
2633,11.1037287999643,0.11556572948769318,0.2735172066597235,-0.18773630831867505,-0.029294260658567137,0.17851395180011362,-0.1882584694564389,-0.02255151032858829,-0.485048100729856,0.02620950962210159,0.44263139387909123,-0.08263003220817722,0.36368986650078505
2634,11.10788510000566,0.11492116299080268,0.2738543264098919,-0.18834512391596847,-0.029388481024744156,0.17639442144207407,-0.18814047346056134,-0.020618212823110604,-0.48538296759109023,0.027793426968665786,0.4424113008963436,-0.07086823394967245,0.36162875926467236
2635,11.112099499965552,0.11420701596008356,0.2742057384628554,-0.1890965273298007,-0.029474257927773438,0.17427354154650543,-0.18801557976877534,-0.018686078193860846,-0.48566654399565284,0.0293682516896284,0.4421037593540273,-0.059144511611242886,0.35952945842321904
2636,11.115559600002598,0.11420701596008356,0.2742057384628554,-0.1890965273298007,-0.029551597323062038,0.1721515357607124,-0.1878838284776616,-0.01675548792149409,-0.4858990001291854,0.030933818233474856,0.4417090162021675,-0.04746056911924154,0.3573924274404793
2637,11.120532699977048,0.11284282467878802,0.27486255795711734,-0.19032401684403902,-0.029620506829735424,0.17002862697181265,-0.18774526040127473,-0.01482682235904976,-0.48608051358419263,0.03248996308663935,0.44122733728020586,-0.0358180961163799,0.35521813442964045
2638,11.124948299955577,0.1121725291369322,0.27513950095509276,-0.1907956810068914,-0.02968099572550567,0.16790503727456904,-0.1875999170621945,-0.01290046064980877,-0.48621126929696523,0.034036524793260324,0.44065900718287987,-0.024218767669935144,0.35300705202809407
2639,11.129097600001842,0.11151733566357296,0.27540487463812835,-0.1912717442064035,-0.029733074941182585,0.1657809879395002,-0.18744784068249148,-0.010976780645752597,-0.48629145948323277,0.035573343974388646,0.44000432912127607,-0.012664243984677529,0.3507596572724173
2640,11.132820400001949,0.11084289507427925,0.2757102568415539,-0.19181671890818522,-0.02977675705483049,0.16365669938127392,-0.18728907417460902,-0.009056158826645079,-0.48632128357256943,0.03710026334664861,0.43926362477912334,-0.001156170120564933,0.34847643147330876
2641,11.13698710000608,0.11019484336698629,0.2760180198993441,-0.19229438559643292,-0.029812056285573554,0.1615323911273892,-0.1871236611321638,-0.007138970219757392,-0.4863009481415737,0.038617127740352024,0.43843723416439734,0.010303824284750072,0.3461578600905198
2642,11.141126799979247,0.10958235568370926,0.2763092181450218,-0.19271012023863535,-0.029838988487052548,0.15940828178715205,-0.18695164582066714,-0.0052255883202564045,-0.48623066684584415,0.040123784117066026,0.4375255154563083,0.021714125288557113,0.3438044326078238
2643,11.144605799985584,0.10958235568370926,0.2763092181450218,-0.19271012023863535,-0.02985757114053599,0.15728458902095124,-0.1867730731681696,-0.003316385012276168,-0.48611066035077466,0.04162008158663503,0.4365288448477473,0.03307313491082703,0.34141664240806374
2644,11.148815999971704,0.10845064286628428,0.2768581113348499,-0.19368991412276598,-0.02986782334768879,0.1551615295098397,-0.18658798875583138,-0.0014117304906920488,-0.4859411562611932,0.04310587142365758,0.4354476163832633,0.044379271397012844,0.33899498664831873
2645,11.153360199998133,0.10804002972695376,0.27709732618811656,-0.19418468402342381,-0.02986976582300138,0.15303931892542538,-0.18639643880842074,0.00048800681638334404,-0.4857223890498658,0.044581007083418826,0.4342822417926479,0.05563096947587423,0.33653996613522796
2646,11.158382699999493,0.10769779503221717,0.27733309589100413,-0.1946818498951298,-0.02986342088588244,0.15091817190007722,-0.18619847018474314,0.0023824603243635806,-0.4854545999848874,0.04604534421727972,0.43303315032020523,0.06682668061228884,0.3340520852005121
2647,11.162139599968214,0.10746102889065058,0.2775985078840218,-0.1951720749361641,-0.02984881245241858,0.14879830199745087,-0.18599413036800352,0.004271265368192685,-0.4851380370559817,0.047498740687524,0.4317007885497879,0.07796487325501529,0.33153185157673
2648,11.166192399978172,0.10723002780393623,0.27788274091712706,-0.19575767392437152,-0.029825966026804426,0.14667992168333857,-0.1857834674561051,0.0061540592775721084,-0.48477295489973127,0.048941056581664345,0.4302856202256756,0.08904403307937431,0.32897977627330915
2649,11.170419299975038,0.10699069059866574,0.27818242980306374,-0.19629207451037978,-0.029794908692446734,0.14456324229684758,-0.18556653015188743,0.008030481451392592,-0.4843596147237619,0.050372154226208825,0.4287881260693765,0.1000626632248164,0.3263963734528895
2650,11.17486959998496,0.10686434014131452,0.27848125283921865,-0.19671949585026072,-0.029755669102746025,0.14244847402191116,-0.18534336775330706,0.009900173431353477,-0.483898284229904,0.051791898199889504,0.4272088035924326,0.11101928452734593,0.32378216030801815
2651,11.17873879999388,0.10671831814134701,0.2787120853867752,-0.19725335635614963,-0.02970827747155924,0.14033582585913731,-0.18511403014356342,0.011762778974752384,-0.4833892375363555,0.05320015534635495,0.4255481669053137,0.12191243574677305,0.321137656938232
2652,11.182818499975838,0.1066277560347122,0.27894618875339094,-0.1977142204496114,-0.02965276556334725,0.1382255055979987,-0.18487856778117207,0.01361794412642857,-0.4828327550988671,0.05459679478632841,0.42380674652248157,0.1327406737887664,0.3184633862275649
2653,11.186430799949449,0.1066277560347122,0.27894618875339094,-0.1977142204496114,-0.029589166683010825,0.13611771978936837,-0.18463703168998832,0.01546531728984365,-0.48222912363097425,0.05598168792923374,0.4219850891637091,0.14350257392168142,0.3157598737225166
2654,11.191895900003146,0.10652159566364397,0.2794284480517912,-0.19860923874355035,-0.029517515665419023,0.13401267371840467,-0.18438947344918497,0.0173045492972837,-0.48157863602330037,0.05735470848429157,0.420083757551743,0.15419672998814102,0.31302764751051776
2655,11.195478199981151,0.10645215256633557,0.2796827230830921,-0.19908920587343745,-0.029437848864633572,0.13191057137778978,-0.18413594518318604,0.01913529347916714,-0.48088159126195285,0.058715732471088335,0.4181033302063948,0.1648217546113461,0.3102672380989261
2656,11.199667799985036,0.10638184403416781,0.2799086544333593,-0.1994900179665354,-0.02935020414283342,0.1298116154413254,-0.18387649955155896,0.020957205732443196,-0.4801382943460368,0.06006463822962098,0.41604440123514824,0.17537627939609482,0.30747917829458743
2657,11.203952099953312,0.10632957967538807,0.280138716774646,-0.19989709488696478,-0.029254620858943464,0.12771600723789006,-0.18361118973886692,0.022769944588066002,-0.47934905620430646,0.06140130642982016,0.41390758012037276,0.18585895512449158,0.3046640030839944
2658,11.208138199988753,0.1062780900156614,0.28037156178304135,-0.20032948119096652,-0.029151139856971625,0.12562394672576221,-0.18334006944448442,0.024573171277529858,-0.478514193610978,0.06272562008055511,0.4116934915032333,0.19626845194632794,0.30182224951407577
2659,11.212237700005062,0.10623292975575313,0.28059607922654817,-0.20071956607092653,-0.029039803454058342,0.12353563246731182,-0.183063192872379,0.02636654979845143,-0.4776340291007274,0.064037464538123,0.4094027749643882,0.2066034595641201,0.29895445657364794
2660,11.216254799976014,0.10615916656672829,0.2808251657139379,-0.20107868802629733,-0.02892065542824269,0.1214512616040636,-0.1827806147208614,0.028149746979185333,-0.4767088908828969,0.06533672751422598,0.4070360848015658,0.21686268741278947,0.2960611650755603
2661,11.220777099952102,0.10605533206689832,0.28109849149275956,-0.20140018397192935,-0.028793741005949478,0.11937102983213571,-0.18249239017230612,0.02992243254245987,-0.47573911275493497,0.06662329908343888,0.40459408980411177,0.22704486483397346,0.2931429175395658
2662,11.22444129997166,0.10599979560639802,0.28137074582549965,-0.20165541950970164,-0.02865910684920147,0.11729513137805736,-0.18219857488284372,0.03168427916802011,-0.47472503401509014,0.06789707169017098,0.40207747302460156,0.23714874124495477,0.2902002580759459
2663,11.22874699998647,0.10593664469922191,0.2816457602923347,-0.20199866640758138,-0.028516801042561116,0.11522375897496832,-0.18189922497202718,0.03343496255426582,-0.4736669993743848,0.0691579401551254,0.39948693154761017,0.24717308630220006,0.2872337322699201
2664,11.232888599974103,0.10582798597008962,0.28189482821108597,-0.2023168777082806,-0.028366873079805986,0.11315710383920372,-0.18159439701247312,0.03517416147887214,-0.47256535886789236,0.07040580168126022,0.3968231762557316,0.2571166900594986,0.28424388706686776
2665,11.237285699986389,0.10571005190895177,0.28211393878119995,-0.2025545959156996,-0.02820937385034235,0.11109535564726669,-0.18128414801948028,0.03690155785838119,-0.4714204677653433,0.07164055585925534,0.39408693159294045,0.26697836312069567,0.2812312706583895
