,time,x,y,z,vx,vy,vz,ax,ay,az,jx,jy,jz
1704,8.255251700000372,-0.005361193610515633,-0.042075727421746596,0.028057727154402454,0.01677523610646995,0.0039623788242806966,0.0036216685290727507,0.05368134372767887,0.05834365600180872,-0.034667597057190545,0.13205615368803222,0.12930977330332713,-0.07943443855866042
1705,8.262770099987392,-0.005252349202791766,-0.042047034984068386,0.028049569716602434,0.017036374337234327,0.004246023736909071,0.0034530887848625946,0.05431847282517095,0.058967505251857955,-0.035050863885181624,0.13144873823125128,0.12865743051331568,-0.07906808518693463
1706,8.266283499993733,-0.005199508024565593,-0.042033265511483384,0.02805654890989571,0.017300586035167393,0.004532678089074802,0.0032826598256767738,0.05495261044413099,0.05958814939764476,-0.03543234232253257,0.13081820116860188,0.12798337400555518,-0.07869394651815292
1707,8.269755799992708,-0.005139421879422279,-0.042018581363626704,0.028057209163019153,0.01756785647632559,0.004822326151066382,0.0031103903868250553,0.05558364495367165,0.06020548348496385,-0.03581199465554983,0.13016456270430238,0.12728762311101208,-0.0783120024852818
1708,8.273559599998407,-0.005094757302398285,-0.04201626336030925,0.02807251775885955,0.017838170398101344,0.005114951686082041,0.002936289386236945,0.05621146482864584,0.06081940265910821,-0.03618978307315538,0.1294878472081884,0.1265702007758785,-0.07792223361950579
1709,8.277953199998592,-0.005040652299235098,-0.0419956993411779,0.028075316809968068,0.018111511999774555,0.0054105379507255694,0.0027603659249293175,0.05683595866962542,0.06142980218233674,-0.03656566966985789,0.12878808322656352,0.1258311335691929,-0.07752462106440496
1710,8.28257460000168,-0.004980160965519804,-0.04197968004238717,0.02807598607975487,0.018387864943159787,0.005709067695586186,0.002582629287459462,0.05745701522293301,0.06203657745138163,-0.036939616448794316,0.1280653034921875,0.125070451689791,-0.07711914659016929
1711,8.286384099992574,-0.004920850053635511,-0.041976974371393756,0.028098343238839536,0.018667212353349356,0.006010523165902672,0.0024030889423632146,0.058074523400722854,0.06263962401499204,-0.03731158532484189,0.12731954493339312,0.12428818897258329,-0.07670579260784484
1712,8.294918899991899,-0.004811449958925558,-0.04197548670672821,0.02808919773794207,0.018949536819552568,0.006314886102311973,0.002221754542577835,0.05868837230110678,0.06323883759151085,-0.037681538127800625,0.12655084868232272,0.12348438289415463,-0.07628454218360699
1713,8.29889049999474,-0.0047511551079302775,-0.04198573804474253,0.028087588968856877,0.019234820396031214,0.006622137741682491,0.002038635925849287,0.05929845122832135,0.06383411408648083,-0.03804943660564639,0.12575926008227709,0.12265907457768176,-0.07585537905305528
1714,8.303005099995062,-0.0046977723419485955,-0.0419919098678051,0.0281089109372033,0.019523044603131607,0.006932258818032249,0.0018537431151235836,0.059904649712931725,0.06442534961027663,-0.03841524242785458,0.12494482869416794,0.12181230879716443,-0.07541828763552444
1715,8.307360199993127,-0.004611931585915361,-0.04191123007858095,0.028135477404336064,0.019814190428413342,0.007245229563532063,0.0016670863189218346,0.060506857532068706,0.06501244049575922,-0.038778917188794046,0.12410760830206734,0.1209441339809667,-0.07497325304840584
1716,8.312061599994195,-0.004595669893169218,-0.04199991714070661,0.028150044783149173,0.020108238327874877,0.00756102970959386,0.0014786759316986532,0.061104964729694886,0.0655952833159501,-0.03914042241119128,0.12324765691784649,0.1200546022146659,-0.07452026112147417
1717,8.319211299996823,-0.004521071561444204,-0.042009340092087476,0.028180888937061888,0.020405168227275998,0.007879638488044257,0.001288522534183573,0.06169886163689544,0.06617377490172188,-0.03949971954966485,0.12236503678489793,0.11914376924320613,-0.07405929841121407
1718,8.324016899990966,-0.0044827033661720235,-0.04201462066076119,0.028196487712072612,0.020704959523557307,0.008201034632383506,0.0010966368937051407,0.06228843889218911,0.06674781235950167,-0.03985676999433002,0.12145981438093414,0.11821169447235302,-0.07359035221514143
1719,8.32956519999425,-0.004437221991083316,-0.04201878965722329,0.02820893316472128,0.02100759108635689,0.008525196379129902,0.000903029964497334,0.06287358746185556,0.06731729308898371,-0.04021153507447329,0.12053206041985638,0.1172584409694468,-0.07311341058611319
1720,8.33583219999855,-0.004346547830709442,-0.042033593192385234,0.02823884361374122,0.02131304125962426,0.008852101469249734,0.000707712887987969,0.06345419866027478,0.06788211480084745,-0.040563976062296794,0.11958184985268783,0.1162840754634502,-0.07262846234661999
1721,8.340081399990595,-0.004306729972786424,-0.04203567938447892,0.028248603706316416,0.021621287863331718,0.009181727149672813,0.0005106969930687492,0.06403016417027432,0.06844217553447776,-0.04091405417673235,0.11860926186756476,0.11528866834428783,-0.07213549710305561
1722,8.344697799999267,-0.004238265177189197,-0.042034721709498894,0.028276048657984366,0.021932308195283207,0.009514050174893587,0.0003119937963466131,0.06460137606348007,0.06899737367568375,-0.04126173058732494,0.11761437988877985,0.11427229366147458,-0.0716345052599575
1723,8.348958299990045,-0.004163889321870392,-0.04204282735489952,0.028308198855690945,0.02224607903302061,0.009849046808657844,0.00011161500237604436,0.06516772682066643,0.069547607974413,-0.041606966418185634,0.1165972915748721,0.1132350291220306,-0.07112547803421239
1724,8.353655300001265,-0.004105092790354376,-0.04204321990761304,0.028330955409523174,0.02256257663582747,0.010186692825734983,-9.042749612798983e-05,0.06572910935210116,0.07009277756245803,-0.04194972275201369,0.1155580888157583,0.11217695608768034,-0.07060840746922074
1725,8.357351399987238,-0.0040507750777106265,-0.042064701536822784,0.02833374730709785,0.022881776746830146,0.010526963513775852,-0.00029412161809681386,0.0662854170178799,0.07063278197115101,-0.042289960634187725,0.11449686772890075,0.11109815957133419,-0.07008328644901397
1726,8.36140679998789,-0.003984972466219227,-0.042060873063391,0.02834966490657264,0.023203654595196275,0.010869833675256105,-0.0004994550939348681,0.06683654364824612,0.07116752114904325,-0.04262764107692523,0.11341372865450727,0.10999872823285083,-0.0695501087123183
1727,8.365936499991221,-0.003935079095936928,-0.04208062972114496,0.028358498638561852,0.023528184898430542,0.011215277629504994,-0.0007064154653669178,0.06738238356389196,0.07169689547956591,-0.042962725063510177,0.11230877614975945,0.10887875437407897,-0.0690088688665589
1728,8.369662199998857,-0.003883347888474699,-0.042111245461964,0.028379295890916204,0.023855341864767635,0.011563269214819519,-0.0009149900853059764,0.06792283159623558,0.07222080579866837,-0.043295173552588176,0.11118211898206536,0.10773833393317638,-0.06845956240179843
1729,8.373941400001058,-0.00382785243508065,-0.04212992692462899,0.02842162463474949,0.02418509919566241,0.011913781790663876,-0.0011251661177422748,0.06845778310767005,0.07273915341243019,-0.043624947482528514,0.11003387012133255,0.10657756647820482,-0.06790218570460425
1730,8.378185199995642,-0.0037942410755883154,-0.04215997879077013,0.02844268432986182,0.024517430088377205,0.012266788239954127,-0.0013369305376535997,0.06898713401177967,0.07325184011464284,-0.043952007775852606,0.10886414673125719,0.10539655520000032,-0.06733673607183828
1731,8.38222109999333,-0.0037481928661101263,-0.04217625071981109,0.028465285350931912,0.02485230723866606,0.012622260971428049,-0.00155027013093732,0.06951078079351901,0.07375876820435756,-0.044276315343728334,0.10767307015962589,0.10419540690431786,-0.06676321172436364
1732,8.386210799988476,-0.0036940511647314267,-0.042195983480281064,0.02849834915471311,0.02518970284355581,0.012980171922100055,-0.00176517149436442,0.0700286205293504,0.07425984050339622,-0.04459783109052974,0.10646076592762721,0.10297423200324916,-0.06618161182066189
1733,8.390454199994565,-0.0036365596151097263,-0.042220878166081464,0.02850653461242353,0.025529588604223778,0.01334049255980106,-0.0019816210355558537,0.07054055090733473,0.07475496037382093,-0.044916515918461665,0.10522736371816976,0.10173314450591292,-0.06559193647035426
1734,8.394980199998827,-0.003588667836179756,-0.04223832918693493,0.02852277480556453,0.02587193572897177,0.013703193885803133,-0.0021996049729815417,0.07104647024717055,0.07524403173535905,-0.04523233073224874,0.10397299736320442,0.10047226200841675,-0.06499418674762125
1735,8.398693999988609,-0.0035326021175912242,-0.04225833154539156,0.02854830620797325,0.026216714936296043,0.014068246437528712,-0.0024191093359823205,0.07154627752017682,0.07572695908277984,-0.045545236443888144,0.10269780483004809,0.09919170568309105,-0.06438836470451414
1736,8.40289089998987,-0.003483496744573781,-0.04229489092333462,0.02858414118911596,0.02656389645805292,0.014435620291344202,-0.002640119964815162,0.0720398723692143,0.07620364750321895,-0.04585519397746532,0.10140192820670768,0.09789160026699449,-0.06377447338415278
1737,8.407190099998843,-0.003439049330449421,-0.042332050684379556,0.02862110825833668,0.026913450042719805,0.014805285065437743,-0.0028626225107219756,0.0725271551285403,0.07667400269344782,-0.04616216427403201,0.10008551368620243,0.0965720740496914,-0.06315251683380337
1738,8.411537099993438,-0.0033852975160172816,-0.042358582774821,0.028659189351674184,0.027265344958751422,0.015177209922780988,-0.0030866024360223,0.07300802684359196,0.07713793097708421,-0.04646610829654591,0.09874871154988338,0.09523325886030161,-0.0625225001178303
1739,8.416401599999517,-0.0033444200980586236,-0.042395749158594544,0.028695229909053176,0.027619549998030738,0.015551363574174608,-0.003312045014230194,0.07348238929069331,0.07759533932174101,-0.04676698703487134,0.09739167614974892,0.09387529005382367,-0.06188442933051597
1740,8.420817599995644,-0.003299675560109576,-0.04242160254923363,0.02872669965730481,0.02797603347941429,0.015927714281377275,-0.003538935330195633,0.07395014499668114,0.0780461353561091,-0.04706476151084021,0.09601456588975625,0.09249830649673199,-0.06123831160874227
1741,8.424765499992645,-0.0032466027924891493,-0.042451943657299006,0.028752140117687272,0.028334763252371536,0.016306229860317847,-0.003767258280270691,0.07441119725844503,0.07849022738697087,-0.04735939278337266,0.09461754320612849,0.09110245055184901,-0.06058415514452752
1742,8.428586299996823,-0.0032168415220715316,-0.042479387037773556,0.028770758980564366,0.02869570670071803,0.01668687768439046,-0.003996998572500784,0.07486545016237717,0.07892752441614066,-0.047650841953656854,0.09320077454665751,0.0896878680624936,-0.05992196919741264
1743,8.433099599991692,-0.003169423725196908,-0.042501510737185895,0.02880516513139984,0.029058830746441746,0.0170696246878322,-0.004228140726841241,0.07531280860372652,0.0793579361573287,-0.0479390701703874,0.09176443034900278,0.08825470833590708,-0.05925176410669028
1744,8.437859199999366,-0.0031175580744888806,-0.04252239729121012,0.028883617094709556,0.029424101853622226,0.017454437369182996,-0.004460669075399486,0.07575317830585265,0.07978137305292447,-0.04822403863506144,0.09030868501798718,0.08680312412595842,-0.058573551303471035
1745,8.443256599988672,-0.0030751608541703555,-0.04255207721163453,0.028938635951046232,0.02979148603244204,0.017841281794827392,-0.004694567762703076,0.07618646583937427,0.08019774629069615,-0.04850570860733171,0.08883371690189053,0.085333271615131,-0.05788734332258038
1746,8.449121599987848,-0.0029949646232863506,-0.042602826453802416,0.029011425391514002,0.030160948843289966,0.018230123602617845,-0.004929820745993901,0.07661257864120735,0.08060696782040234,-0.048784041410415376,0.08733970826774232,0.08384531039579342,-0.057193153814280334
1747,8.45456299999205,-0.0029616990905209934,-0.04262136989021357,0.029053147527210835,0.03053245540095529,0.01862092800557915,-0.005166411795548783,0.0770314250334877,0.08100895037031322,-0.04905899843655778,0.08582684527561586,0.08233940345075665,-0.05649099755581
1748,8.459200699988287,-0.0029135455564414867,-0.042655341427030126,0.029099627649032244,0.030905970378912687,0.01901365979569357,-0.005404324495026757,0.077442914242373,0.08140360746363762,-0.04933054115254987,0.08429531795192531,0.08081571713312041,-0.05578089046273925
1749,8.463106700000935,-0.0028758952909333692,-0.04268380598379648,0.029122591127301253,0.03128145801369703,0.019408283347766214,-0.005643542241843294,0.07784695641671965,0.08179085343485266,-0.049598631105298295,0.08274532016172781,0.0792744211454116,-0.05506284960012976
1750,8.46657459999551,-0.0028363704857436427,-0.04269564195423151,0.02915264400426269,0.03165888210936765,0.019804762623370213,-0.005884048247571727,0.07824346264662994,0.08217060344593251,-0.04986322992744734,0.08117704958003323,0.07771568851801783,-0.054336893193497535
1751,8.472716199990828,-0.002799199959116529,-0.042721743943362214,0.02919051476417028,0.03203820604206143,0.0202030611748712,-0.006125825538372103,0.07863234498186411,0.08254277350247304,-0.05012429934305164,0.07959070766212435,0.07613969558691913,-0.05360304063957106
1752,8.478288199999952,-0.002729342735690683,-0.042767841482732376,0.029256607745417235,0.032419392764633966,0.02060314214953055,-0.006368856955447698,0.07901351645011247,0.08290728046970929,-0.050381801173298754,0.07798649961289121,0.07454662197072073,-0.05286131251683965
1753,8.48187489999691,-0.0026908101793018772,-0.04279756707197239,0.029278895460817016,0.03280240481138856,0.02100496829368684,-0.006613125155529456,0.07938689107512228,0.08326404208842177,-0.05063569734228058,0.07636463435518331,0.0729366505469906,-0.05211173059588608
1754,8.490434299994376,-0.0026022642261951147,-0.04282078932489358,0.02930627419261854,0.033187204302892445,0.021408501957015092,-0.006858612611388541,0.0797523838946747,0.08361297699072823,-0.0508859498828124,0.07472532449718412,0.07130996742790519,-0.05135431784949797
1755,8.494467999989865,-0.00256296936330163,-0.042821895810031464,0.029311094342645304,0.03357375295087955,0.021813705096863263,-0.00710530161237727,0.08010991097840722,0.08395400471575745,-0.051132520942298594,0.07306878629881233,0.06966676193520734,-0.05058909846255236
1756,8.499032399995485,-0.002515169115277955,-0.04282420421283629,0.029317747309873753,0.033962012063239205,0.02222053928266551,-0.007353174264998637,0.0804593894454772,0.08428704572520153,-0.05137537278864382,0.07139523963715491,0.06800722657448062,-0.04981609784166806
1757,8.50317539999378,-0.0024769937452931035,-0.042833112295866914,0.029330293917093363,0.034351942549090034,0.022628965700431755,-0.007602212493504684,0.08080073748206137,0.08461202141874302,-0.051614467816208764,0.06970490797093712,0.06633155700874467,-0.049035342624620275
1758,8.50722329999553,-0.0024328732525310936,-0.04284617088425983,0.02932028862994525,0.03474350492393829,0.023038945157312925,-0.007852398040523864,0.08113387435868635,0.08492885414935361,-0.0518497685518092,0.06799801830403525,0.06463995203137596,-0.04824686068951206
1759,8.511531099997228,-0.0023729960234121694,-0.042850363896517245,0.02933280180318325,0.03513665931491997,0.023450438086241202,-0.008103712467717572,0.08145872044738531,0.08523746723846118,-0.05208123766075695,0.06627480114803874,0.06293261353835881,-0.0474506811636975
1760,8.515427099991939,-0.002346795135298521,-0.042882678224529694,0.029326842575281644,0.03553136546612594,0.023863404550644642,-0.008356137156466022,0.08177519723867578,0.08553778499098215,-0.052308837952941584,0.06453549048386817,0.06120974649987189,-0.04664683443245133
1761,8.52013910000096,-0.002308942133886718,-0.04288387396539257,0.029313533349559058,0.03592758274400906,0.024277804249235556,-0.008609653308583692,0.08208322735835438,0.08582973271021599,-0.052532532388951614,0.06278032372245584,0.05947155893121512,-0.045835352147380055
1762,8.524061199990683,-0.0022612098375717916,-0.04289236046596534,0.029318433177789156,0.03632527014287258,0.02469359652087207,-0.008864241947064548,0.08238273458410403,0.08611323671259856,-0.052752284086233975,0.061009541664496146,0.057718261863082765,-0.04501626723456964
1763,8.527878399996553,-0.0022237356179925687,-0.04290350490258429,0.029308289987786385,0.036724386290438844,0.025110740349492056,-0.009119883916857257,0.08267364386190924,0.08638822434231096,-0.052968056325290225,0.05922338845927281,0.05595006931118797,-0.044189613902464675
1764,8.532163600000786,-0.0021860518295999743,-0.042900643359645343,0.02928218491699705,0.03712488945349753,0.025529194369118675,-0.00937655988567052,0.08295588132227483,0.08665462398574102,-0.053179812555908174,0.05742211156257142,0.05416719824524454,-0.04335542764947416
1765,8.53622959999484,-0.002157228312137374,-0.042913298013808526,0.029272504166147528,0.03752673754363246,0.025948916868936873,-0.009634250344808689,0.08322937429624361,0.08691236508579467,-0.05338751640342776,0.05560596169368524,0.05236986855731187,-0.04251374527129915
1766,8.540463500001351,-0.002115573664563623,-0.04292090570940879,0.029261207338649,0.037929888123025814,0.02636986579844016,-0.009892935610037795,0.08349405133120823,0.08716137815605399,-0.05359113167504001,0.05377519279152307,0.0505583030295091,-0.04166460486797779
1767,8.544486799990409,-0.0020905680043272895,-0.04292415677140626,0.02924894558287542,0.038334298410338946,0.026791998772646985,-0.010152595822482123,0.08374984220651213,0.0874015947947788,-0.053790622366117986,0.0519300619698282,0.048732727301105,-0.04080804585064327
1768,8.548175299991271,-0.0020905680043272895,-0.04292415677140626,0.02924894558287542,0.03873992528666894,0.027215273077385808,-0.010413210949551563,0.08399667794883539,0.08763294769874877,-0.05398595266657822,0.05007082947151768,0.0468933698349899,-0.03994410894799051
1769,8.552981000000727,-0.002018646408532869,-0.042897380400066194,0.029208929158027766,0.03914672530157997,0.027639645674648144,-0.010674760785899835,0.08423449084736093,0.08785537067694336,-0.054177086967271644,0.04819775862215166,0.04504046188353644,-0.03907283621244722
1770,8.557130299988785,-0.0019750566403049933,-0.04289142606375179,0.029195871082709712,0.039554654679208476,0.028065073208008766,-0.010937224954413726,0.0844632144687171,0.08806879866405663,-0.054363989866402486,0.046311115782542794,0.043174237453855756,-0.03819427102604516
1771,8.561282499998924,-0.0019348409910131953,-0.042887028313643785,0.029178401158281863,0.039963669324440995,0.028491512008112313,-0.011200582907233518,0.08468278367169238,0.08827316773384374,-0.05454662617597396,0.04441117030051635,0.041294933272456036,-0.03730845810598735
1772,8.565689600000042,-0.0019040475550757725,-0.04287715061956665,0.029158244523950366,0.04037372482916361,0.02891891809822548,-0.011464813926804693,0.08489313462171802,0.08846841511229592,-0.054724960928259445,0.04249819446183152,0.039402788749310726,-0.036415443509907296
1773,8.569662800000515,-0.0018786605886350546,-0.042861277045621274,0.029129533465614213,0.04078477647858182,0.029347247199853956,-0.01172989712696098,0.08509420480511484,0.08865447919064064,-0.05489895938229768,0.04057246344027519,0.03749804594134368,-0.03551527464081627
1774,8.574008799987496,-0.001854488919681937,-0.04284454856917753,0.029131682942083036,0.04119677925760978,0.02977645473842312,-0.01199581145403879,0.08528593304309975,0.08883129953816378,-0.05506858703041028,0.03863425524693941,0.035580949515338765,-0.03460800025173437
1775,8.577919399991515,-0.0018254004596532578,-0.04283255807312119,0.029118397092920467,0.041609687857328014,0.030206495849021655,-0.01226253568802314,0.08546825950554825,0.08899881691485137,-0.05523380960474019,0.036683850678694785,0.03365174671028151,-0.0336936704500021
1776,8.582682299995213,-0.0018048019435986402,-0.04281173203085856,0.02910463106190191,0.042023456681508614,0.030637325382207106,-0.01253004844372519,0.08564112572450915,0.08915697328384818,-0.0553945930838095,0.03472153326587188,0.03171068729914081,-0.03277233670126905
1777,8.586314499989385,-0.0017892396470444091,-0.042782712939112025,0.02910794178775921,0.042438039853206745,0.03106889790987258,-0.012798328171991464,0.08580447460746732,0.08930571182372998,-0.05555090369909524,0.03274758921916351,0.029758023550098735,-0.031844051833156306
1778,8.590408499992918,-0.0017713432965007674,-0.04275835893924052,0.02909233800861447,0.042853391221417195,0.03150116773117367,-0.013067353160944846,0.0859582504503504,0.0894449769405863,-0.055702707941621465,0.030762307375760634,0.027794010187236633,-0.03090887003858926
1779,8.594882099991082,-0.0017514349457933504,-0.042729909825132396,0.029071824447478797,0.04326946436779466,0.0319340888785145,-0.013337101537257425,0.08610239895027574,0.08957471427991101,-0.05584997256856608,0.028765979144735058,0.025818904350685613,-0.029966846878797405
1780,8.603750299997046,-0.0016950431685601626,-0.04265473332212063,0.029068393567179628,0.04368621261343673,0.03236761512359186,-0.013607551267455236,0.08623686721803411,0.08969487073829778,-0.055992664609880734,0.026758898451682358,0.02383296555624985,-0.02901803928597809
1781,8.607844599988312,-0.001677423303191915,-0.04261335668392224,0.029059972189335367,0.04410358902572838,0.03280169998349628,-0.013878680159254976,0.08636160379030637,0.08980539447493786,-0.05613075137492205,0.024741361682638692,0.021836455654511176,-0.028062505565621173
1782,8.611735499987844,-0.001661729150676452,-0.04257761623829985,0.029031761269190402,0.04452154642524709,0.03323629672686896,-0.014150465862932757,0.08647655864160954,0.08990623492291758,-0.05626420045909254,0.02271366762728548,0.01982963878942369,-0.02710030539849178
1783,8.619550999996136,-0.0016366848473832038,-0.04249163667606372,0.029007163265931234,0.04494003739272694,0.033671358380113765,-0.014422885872724979,0.08658168319596846,0.08999734280031296,-0.056392979750489666,0.02067611742145637,0.017812781356407292,-0.026131499842268414
1784,8.62401499999396,-0.001625320532863423,-0.0424439480123629,0.028979953641513866,0.045359014276080786,0.034106837733663166,-0.014695917528261378,0.08667693033830941,0.09007867012107874,-0.05651705743656145,0.01862901448896113,0.015786151959949153,-0.025156151332834036
1785,8.627936599994428,-0.001597948939372395,-0.042404876660917745,0.02895189626964962,0.04577842919747885,0.034542687348297164,-0.014969538016030267,0.08676225442557185,0.09015017020572945,-0.05663640201076691,0.016572664482741514,0.01375002137072221,-0.024174323685217713
1786,8.632715699990513,-0.0015700365457555609,-0.042352896068707416,0.02891669906823043,0.04619823406048231,0.03497885956151437,-0.015243724370875893,0.08683761129753484,0.09021179769181015,-0.05675098227923971,0.01450737522537436,0.011704662482230095,-0.023186082094184615
1787,8.636525800000527,-0.0015579975393218018,-0.0423211571947385,0.02886276202255457,0.046618380557230346,0.03541530649395412,-0.015518453477528005,0.08690295828735511,0.09026350854415446,-0.056860767367453206,0.012433456648937623,0.009650350266987882,-0.022191493134472256
1788,8.640493200000492,-0.0015508845485470435,-0.042273005669644495,0.02881424268417531,0.04703882017567919,0.03585198005586864,-0.015793702072163594,0.08695825423181382,0.090305260064928,-0.056965726726885296,0.010351220734255285,0.007587361732248177,-0.021190624760670997
1789,8.645239099991159,-0.001542583168301137,-0.042228317166523144,0.028769233010237892,0.04745950420689172,0.03628883195364435,-0.01606944674400081,0.08700345948126863,0.09033701090345489,-0.05706583014168132,0.008260981449537422,0.00551597587528222,-0.020183546306746954
1790,8.64886979998846,-0.0015056105582378632,-0.04217503383641482,0.028722646490637722,0.047880383752376306,0.03672581369637127,-0.016345663936925003,0.08703853590930795,0.09035872106582492,-0.05716104773531319,0.006163054688431989,0.003436473638225756,-0.01917032848520575
1791,8.653025299994624,-0.0014630257184676783,-0.04211740202536443,0.028699587964214852,0.04830140973147352,0.037162876602459614,-0.016622329951146826,0.08706344692210413,0.09037035192427902,-0.05725134997723325,0.00405775820750503,0.001349137862499549,-0.01815104338589557
1792,8.657162299990887,-0.0014174763112878514,-0.04206188747681158,0.028655481682607946,0.048722532888789145,0.03759997180630231,-0.016899420944892392,0.08707815746746272,0.09037186622637104,-0.05733670768952074,0.0019454115631663495,-0.0007457467571854942,-0.017125764474447965
1793,8.661298199993325,-0.0013639014906303036,-0.04199733146037012,0.028610906409303492,0.049143703801672274,0.03803705026498229,-0.017176912936125447,0.08708263404356528,0.0903632281039038,-0.057417092053519254,-0.00017366395194217557,-0.0028478937192284955,-0.01609456659035512
1794,8.665369900001679,-0.0013321738885845036,-0.04194510021334909,0.02855272812188477,0.049564872887737046,0.038474062765023326,-0.01745478180430152,0.08707684470740301,0.09034440308163676,-0.057492474616463375,-0.0022991453730781416,-0.0049570147619338685,-0.01505752594468233
1795,8.669586499992874,-0.0012709944737461726,-0.04174753238121931,0.028570530498283002,0.04998599041242675,0.03891095992918341,-0.01773300329215394,0.08706075908289848,0.09031535808576331,-0.0575628272980926,-0.004430708128032301,-0.007072819910691399,-0.014014720117414694
1796,8.673709599999711,-0.001206079989626796,-0.041649277711566575,0.028588746594809755,0.05040700649661852,0.03934769222328958,-0.018011553007511664,0.08703434836871293,0.09027606145215537,-0.05762812239725111,-0.006568026102246376,-0.00919501752553076,-0.012966228054437237
1797,8.677955799998017,-0.0011510633817404577,-0.04157615279446987,0.028550188523518066,0.05082787112426698,0.03978420996311302,-0.018290406425148877,0.08699758534573696,0.09022648293437303,-0.05768833259847146,-0.00871077170439679,-0.011323314349039961,-0.01191213006414772
1798,8.68386439999449,-0.0011341005585986516,-0.04150160931277116,0.028502543659803967,0.0512485341500855,0.0402204633212832,-0.018569538888666273,0.08695044438426208,0.0901665937114377,-0.05774343097854061,-0.010858615932425911,-0.013457415554637213,-0.010852507813701628
1799,8.687521399988327,-0.0011167096190080354,-0.04144580756830233,0.02845629163385583,0.05166894530726334,0.04065640233423963,-0.01884892561240395,0.08689290145083077,0.09009636639536658,-0.05779339101304683,-0.01301122844000218,-0.01559702479518549,-0.009787444324888886
1800,8.696137299994007,-0.0010456570655582387,-0.04130228782769958,0.028362533268584202,0.05208905421521726,0.041091976909220104,-0.019128541683385784,0.08682493411476223,0.09001577503846647,-0.05783818658290572,-0.015168277603390306,-0.017741844251939056,-0.008717023969642024
1801,8.70301529999415,-0.000960694826048861,-0.041170629707300704,0.02827048034008971,0.052508810387376,0.041527136831284096,-0.01940836206329516,0.08674652155435157,0.08992479514038529,-0.05787779198086364,-0.01732943058871251,-0.019891574683811118,-0.007641332465175618
1802,8.70721959999355,-0.0009167893301518766,-0.041099036107276554,0.028225505293057784,0.052928163238996,0.04196183177037003,-0.019688361590481936,0.08665764456274024,0.08982340365491953,-0.05791218191797663,-0.0194943534195816,-0.022045915476951648,-0.006560456868756991
1803,8.712055500000133,-0.0008658584312899132,-0.04101082937894881,0.028172391327567225,0.053347062095006614,0.042396011288385,-0.019968514982000515,0.08655828555345563,0.08971157899657614,-0.057941331530063325,-0.021662711045086533,-0.02420456469462452,-0.005474485572108333
1804,8.719142599991756,-0.0008138589822636868,-0.040862788703675046,0.028084541405466224,0.05376545619788322,0.04282962484632562,-0.020248796835678852,0.08644842856561788,0.08958930104688746,-0.057965216384129756,-0.023834167408110722,-0.02636721912737292,-0.004383508295440531
1805,8.728706299996702,-0.0007704194594947023,-0.0407081503929672,0.0279623315172397,0.05418329471554626,0.04326262181142866,-0.0205291816322184,0.08632805926881248,0.08945655116047833,-0.05798381248476432,-0.0260083855139634,-0.028533574343462046,-0.003287616081119155
1806,8.733133699992322,-0.0007532375466888412,-0.04064137555545356,0.02788771983583552,0.05460052674928479,0.04369495146434998,-0.020809643737324898,0.08619716496762696,0.08931331217088441,-0.05799709628050124,-0.028185027499303995,-0.030703324739588048,-0.002186901286963246
1807,8.736656599998241,-0.0007312103012439399,-0.04057083819226625,0.027818382833299585,0.055017101341702485,0.04412656300637055,-0.021090157403869964,0.08605573460584977,0.08915956839612009,-0.058005044670150725,-0.030363754701339327,-0.03287616359184207,-0.001081457579177649
1808,8.74058939999668,-0.0007002414419562146,-0.04050955344830076,0.027750403770631222,0.055432967484684785,0.04455740556662852,-0.02137069677408326,0.08590375877032978,0.08899530564399517,-0.05800763500909387,-0.03254422772727353,-0.035051783106918234,2.862007508017597e-05
1809,8.744938199990429,-0.0006574965826634336,-0.04042574168114917,0.027687163086490395,0.055848074127385704,0.04498742820937611,-0.021651235881775113,0.0857412296944953,0.08882051121717882,-0.05800484511554033,-0.03472610652399036,-0.03722987447355446,0.001143235415497812
1810,8.749018199989223,-0.0006318721648083296,-0.04034772922045802,0.027615269981344944,0.05626237018423235,0.04541657994126,-0.02193174865458924,0.08556814126153128,0.08863517391800954,-0.05799665327674661,-0.03690905044794772,-0.039410127914194716,0.002262290896768826
1811,8.752975700001116,-0.000597406050422941,-0.04029752517276499,0.02754862681429385,0.056675804542945594,0.04584480971862388,-0.022212208916285503,0.08538448900721382,0.08843928405305018,-0.05798303825519368,-0.0390927183352636,-0.0415922327368614,0.0033856876971156556
1812,8.7572966000007,-0.0005526643539936708,-0.040235611031021926,0.027460815658385478,0.05708832607257486,0.046272066454831784,-0.022492590389052436,0.08519027012240056,0.08823283343738678,-0.0579639792947221,-0.04127676857197258,-0.04377587738722655,0.004513325727172964
1813,8.761196599996765,-0.0005013554151406148,-0.040166325930923986,0.027384002130136836,0.05749988363154526,0.04669829902761079,-0.022772866695849468,0.08498548345517647,0.08801581539867065,-0.05793945612662281,-0.043460859164431785,-0.04596074950087033,0.0056451036392298455
1814,8.765507599993725,-0.00040726845775621717,-0.040064075610441306,0.027295146082238382,0.05791042607571557,0.047123456286411985,-0.023053011362778746,0.0847701295126538,0.08778822478090306,-0.057909448975681746,-0.045644647809855186,-0.048146535955715546,0.006780918836829138
1815,8.769934999989346,-0.0003205743984789882,-0.039979490255688234,0.027222390317967454,0.058319902266445164,0.04754748705978842,-0.02333299782148633,0.08454421046242566,0.08755005794796139,-0.05787393856617649,-0.04782779196695533,-0.050332922924626856,0.007920667484721935
1816,8.774107299992465,-0.00023034132835685148,-0.03988744223697995,0.02714877509530712,0.058728261078668374,0.047970340162788574,-0.02361279941159241,0.08430773013367246,0.0873013127868664,-0.05783290612782316,-0.050009948926671585,-0.05251959592816344,0.009064244519175289
1817,8.77858249998826,-0.00014291180482025895,-0.039836106956717486,0.027055878369030766,0.05913545140897437,0.048391964404364225,-0.023892389383150248,0.08406069401792021,0.0870419887107895,-0.057786333401672406,-0.05219077588296396,-0.05470623988747351,0.010211543658630877
1818,8.787862699988182,3.458769408575934e-05,-0.039687284608687444,0.026901007012941205,0.059541422183690955,0.0488123085947908,-0.024171740899133494,0.08380310926945075,0.08677208666179978,-0.05773420264595257,-0.05436993000365153,-0.056892539177319505,0.011362457414712345
1819,8.792054399993503,0.00010866639582141069,-0.0396062101383248,0.026818092767828764,0.05994612236697053,0.049231321553099276,-0.024450827037951473,0.08353498470536364,0.08649160911335013,-0.057676496641858595,-0.05654706850127432,-0.0590781776792226,0.012516877103578804
1820,8.797521199987386,0.00020225661746008441,-0.03952874614729656,0.02671766938986603,0.0603495009688765,0.049648952114518134,-0.024729620795992165,0.08325633080528981,0.08620056007250179,-0.05761319869928508,-0.05872184870395751,-0.061262838834715116,0.013674692857621858
1821,8.80775029999495,0.0005031490560246017,-0.03926900873500129,0.02640472459638106,0.060751507053468164,0.050065149137924085,-0.02500809509019259,0.08296715971075698,0.08589894508188661,-0.05754429266250176,-0.06089392812625655,-0.06344620569868951,0.014835793637503416
1822,8.813225099991541,0.000592178703785637,-0.03918681995749708,0.026301348464337113,0.06115208974688218,0.05047986151330052,-0.025286222760636433,0.08266748522420707,0.08558677122140647,-0.05746976291576967,-0.06306296453996188,-0.0656279609928324,0.016000067244531492
1823,8.817521499993745,0.0007001523015439026,-0.03909585222022136,0.02620120301859851,0.061551198245408986,0.0508930381692026,-0.02556397657317869,0.08235732280766618,0.08526404710966949,-0.05738959438889632,-0.06522861604484192,-0.06780778715913222,0.01716740033337101
1824,8.826179499999853,0.0009085737319141094,-0.038905265530650095,0.025982428849443975,0.06194878182356237,0.05130462808022762,-0.02584132922209705,0.08203668958106745,0.08493078290516272,-0.057303772562728436,-0.06739054113930354,-0.06998536641344912,0.018337678425086667
1825,8.831051099987235,0.001016432645757048,-0.03881910200737366,0.025865166933628326,0.06234478984214062,0.051714580274489226,-0.026118253332769768,0.08170560432022751,0.08458699030716096,-0.057212283474580794,-0.06954839879094898,-0.07216038079913582,0.019510785920514494
1826,8.83601469999121,0.0012680981370366629,-0.038616656847092104,0.025627655339412626,0.0627391717562775,0.05212284384109424,-0.02639472146437984,0.08136408745447724,0.08423268255637201,-0.05711511372359981,-0.07170184850700823,-0.0743325122406979,0.02068660611395885
1827,8.840213799994672,0.0013945353467799456,-0.03851827201494479,0.025502996841933533,0.06313187712348126,0.05252936793762094,-0.02667070611264514,0.08101216106394693,0.0838678744353177,-0.0570122504760601,-0.07385055040462543,-0.07650144259748223,0.02186502120721133
1828,8.848532999996678,0.0016564705073195468,-0.03830276304331891,0.02523956215919524,0.06352285561165985,0.052934101797597694,-0.026946179712574122,0.0806498488765067,0.08349258226845055,-0.0569036814705931,-0.07599416528097824,-0.07866685371738277,0.023045912323888026
1829,8.853396599995904,0.0017952349882628476,-0.03819902190269519,0.025120855874002757,0.06391205700713073,0.053336994737980745,-0.0272211146412467,0.08027717626436308,0.08310682392200641,-0.05678939502334602,-0.07813235468320855,-0.08082842749055201,0.02422915952408151
1830,8.861228599998867,0.002087082985126134,-0.03784120292702472,0.0248352303984276,0.06429943122261347,0.05373799616663,-0.02749548322061993,0.07989417024031283,0.08271061880359266,-0.05666938003307,-0.08026478097814398,-0.08298584590310694,0.025414641819323815
1831,8.865419999987353,0.0022245725849104974,-0.03767945680351638,0.02470133738226234,0.06468492830520342,0.054137055589781505,-0.02776925772035804,0.07950085945365495,0.08230398786151197,-0.05654362598613591,-0.08239110742178894,-0.08513879109081811,0.026602237187856387
1832,8.869561599989538,0.0023834670968630777,-0.03752879763731169,0.02457822748817388,0.06506849844432475,0.05453412261951526,-0.028042410360686377,0.07909727418576257,0.08188695358382168,-0.056412122961476505,-0.08451099822856413,-0.08728694539277074,0.027791822590203002
1833,8.873932199989213,0.0025661763701682614,-0.037390891377091416,0.024468358761678435,0.06545009197966138,0.05492914698121713,-0.028314913315268846,0.07868344634531584,0.08145953999712885,-0.056274861635453755,-0.08662411864027357,-0.08942999140498684,0.028983273985041424
1834,8.87799019999511,0.0027663014435852376,-0.037241298985499056,0.024354130950352618,0.06582965940906425,0.055322078521033664,-0.028586738714108387,0.07825940946319729,0.08102177266512128,-0.056131833286649786,-0.08873013499477819,-0.09156761203399724,0.030176466345369482
1835,8.883078200000455,0.002937557753867778,-0.03709250497873568,0.024254693535703222,0.0662071513964334,0.055712867213318445,-0.028857858646470225,0.07782519868705107,0.0805736786868352,-0.05598302980058041,-0.09082871479435552,-0.09369949055035298,0.031371273674961224
1836,8.887561799987452,0.0031482489774468823,-0.03693183002847827,0.024152275194489155,0.06658251877957318,0.056101463168068626,-0.029128245163827417,0.07738085077550784,0.08011528669465981,-0.05582844367432995,-0.09291952677372503,-0.0958253106420652,0.03256756902510871
1837,8.892580299987458,0.0033500538062025977,-0.036779874959821435,0.024046125414594388,0.06695571257801881,0.05648781663835041,-0.029397870282828246,0.0769264040920767,0.07964662685207965,-0.05566806802110611,-0.0950022409677194,-0.09794475646796302,0.03376522451164503
1838,8.896347699992475,0.003606317461732206,-0.03661127902554734,0.023939627587158962,0.06732668400083311,0.056871878027712576,-0.029666705988285153,0.07646189859870603,0.07916773085115517,-0.055501896574713196,-0.09707652877858121,-0.1000575127109587,0.03496411133224392
1839,8.90283969999291,0.004092399096564334,-0.03624465679044833,0.023670235811822607,0.067695384454371,0.057253597897586335,-0.02993472423618472,0.07598737584901492,0.07867863190974216,-0.05532992369394234,-0.09914206304286464,-0.10216326463120978,0.0361640997839912
1840,8.908724399996572,0.004347424866594228,-0.03600459508995659,0.02357142879472756,0.06806176555001049,0.05763292697467035,-0.030201896956718252,0.0755028789811964,0.07817936476845082,-0.05515214436687731,-0.10119851809792256,-0.10426169811916804,0.037365059281223176
1841,8.912738200000604,0.00461755385898834,-0.03578741768857629,0.023446086877416616,0.06842577911184841,0.0580098161582997,-0.030468196057332544,0.07500845271059442,0.07766996568734534,-0.05496855421511448,-0.10324556984795928,-0.10635249974850411,0.03856685837362707
1842,8.918895199996768,0.004891268879840418,-0.03557105143821949,0.02332186861975211,0.06878737718435878,0.058384216527797385,-0.030733593425800385,0.07450414332195665,0.07715047244238525,-0.054779149497895585,-0.10528289582962946,-0.10843535682889739,0.03976936476459852
1843,8.925235599992448,0.005454582336964556,-0.0351433114195264,0.023122968627913375,0.06914651204001239,0.058756079349807484,-0.03099806093331033,0.07398999866136526,0.07662092432160963,-0.0545839271161524,-0.1073101752771635,-0.11050995745868047,0.040972445329850976
1844,8.932196999987355,0.006096068896637037,-0.03463979507868857,0.02290976731703546,0.06950313618685619,0.05912535608560819,-0.03126157043757507,0.07346606812784835,0.076081362121065,-0.05438288461646151,-0.10932708918700035,-0.1125759905773287,0.04217596613627193
1845,8.937424299991108,0.006406711231430236,-0.03438749012189774,0.022802980928531315,0.06985720237605042,0.05949199839840337,-0.031524093785957934,0.07293240266467506,0.07553182814047789,-0.054176020194908414,-0.111333320381908,-0.11463314601778479,0.043379792461020604
1846,8.944464200001676,0.007059845532972004,-0.03386825821063961,0.02259587763284492,0.07020866360936202,0.0598559581605908,-0.03178560281861717,0.0723890547503367,0.07497236617867283,-0.05396333270085946,-0.1133285535745721,-0.11668111455860865,0.04458378881086212
1847,8.949617899997975,0.007407704181515498,-0.033588097484684984,0.022499312949244992,0.07055747314661252,0.060217187461005656,-0.032046069371667686,0.07183607838921652,0.07440302152873696,-0.05374482164064043,-0.11531247543063439,-0.11871958797594294,0.04578781894173256
1848,8.953158699994674,0.007740818108665813,-0.03328847771026743,0.022427849598795707,0.07090358451307939,0.06057563861213823,-0.03230546528035986,0.07127352910195067,0.0738238409729322,-0.05352048718112073,-0.11728477463116369,-0.12074825909528493,0.0469917458785295
1849,8.957362799992552,0.008134923437379128,-0.03304793361025866,0.022342290707407203,0.07124695150684944,0.06093126415732441,-0.03256376238227508,0.0707014639154832,0.07323487277735632,-0.05329033015320216,-0.119245141934541,-0.12276682184305539,0.04819543193512238
1850,8.961873199994443,0.008513982517829807,-0.03276554572004301,0.022246349664257842,0.07158752820612248,0.06128401687790789,-0.03282093252053774,0.07011994135281739,0.07263616668635466,-0.05305435205521118,-0.121193270237741,-0.12477497129795508,0.049398738734577174
1851,8.974903800000902,0.009786583337602048,-0.03158409763491376,0.022026268772445564,0.07192526897646394,0.06163384980037286,-0.03307694754704316,0.06952902142246672,0.07202777391668357,-0.05281255505619368,-0.12312885463699255,-0.12677240374209917,0.05060152722958951
1852,8.978467199995066,0.010222357344135104,-0.0311672323599915,0.021965584062367587,0.07226012847800492,0.06198071620344659,-0.033331779325701125,0.06892876560760859,0.07140974715142687,-0.05256494199911124,-0.12505159248780165,-0.12875881671192022,0.05180365772312059
1853,8.983903100001044,0.010681263220412077,-0.03072179607870106,0.021941339962700552,0.07259206167258786,0.06232456962517063,-0.033585399735694514,0.06831923685494418,0.0707821405336661,-0.0523115164039379,-0.12696118346431978,-0.13073390904883075,0.05300498988923028
1854,8.990589099994395,0.0115869614802204,-0.029765386513133058,0.021897967951709965,0.07292102383085662,0.06266536386993952,-0.03383778067475266,0.06770049956326787,0.07014500965990592,-0.052052282470656415,-0.1288573296180416,-0.13269738094963585,0.05420538279410164
1855,8.99478470000031,0.012061297579737838,-0.029230419740816572,0.021881833132372134,0.07324697053928948,0.06300305301550593,-0.03408889406243899,0.06707261957174988,0.06949841157325565,-0.05178724508215326,-0.13073973543581607,-0.1346489340166865,0.055404694917250884
1856,8.998916399999871,0.012541158252813055,-0.028696016218568852,0.0218749954585587,0.07356985770717328,0.06333759141995123,-0.03433871184345269,0.06643566414793532,0.06884240475636841,-0.05151640980701115,-0.13260810789715521,-0.13658827130776566,0.05660278417291719
1857,9.002877299993997,0.013043822584965576,-0.028180048450606336,0.021841208033960276,0.07388964157351739,0.0636689337286206,-0.03458720599094402,0.0657897019754632,0.06817704912413901,-0.051239782902198355,-0.1344621565308246,-0.13851509738569823,0.0577995079316266
1858,9.007128699988243,0.01351705107729801,-0.02762384785448467,0.02181932304014566,0.07420627871390602,0.06399703488102149,-0.034834348509842794,0.06513480314150881,0.06750240601616249,-0.05095737131565371,-0.13630159347070053,-0.14042911836767644,0.05899472304192421
1859,9.011605599996985,0.014037839245930092,-0.027075755122651743,0.021768606713502853,0.07451972604728763,0.06432185011768449,-0.035080111440199443,0.06447103912395293,0.06681853818895525,-0.050669182688766516,-0.13812613351087769,-0.14233004197429228,0.06018828585226869
1860,9.015818100000615,0.014596069324972294,-0.02650839278960196,0.021744287226134033,0.07482994084270043,0.06464333498698559,-0.03532446686053811,0.06379848277828164,0.06612550980794034,-0.05037522535875031,-0.13993549416001294,-0.14421757757826972,0.061380052233082814
1861,9.019671199988808,0.015203741489512188,-0.025918314184205492,0.02181692338427813,0.07513688072593286,0.06496144535192831,-0.03556738689122134,0.06311720832422024,0.06542338643919843,-0.050075508360909696,-0.1417293956948914,-0.1460914362528877,0.06256987759895379
1862,9.023246500000823,0.015203741489512188,-0.025918314184205492,0.02181692338427813,0.07544050368611746,0.06527613739688458,-0.03580884369782575,0.06242729133210497,0.06471223504098617,-0.049770041430799154,-0.14350756121320107,-0.1479513308200852,0.06375761693097709
1863,9.0272258999903,0.015796700780294066,-0.025269886610259754,0.021894205717839742,0.07574076808225712,0.06558736763429317,-0.036048809494528315,0.06172880870899609,0.06399212395502381,-0.04945883500627299,-0.14526971668550204,-0.14979697589823995,0.0649431247992378
1864,9.032193499995628,0.016941919466946277,-0.024081590738296684,0.02179922947769266,0.076037632649682,0.06589509291131478,-0.03628725654750271,0.06102183868453652,0.063263122897554,-0.04914190022942567,-0.1470155910063763,-0.15162808794961397,0.06612625538542305
1865,9.036319099992395,0.017542334271201245,-0.02345557844727305,0.02178573760374093,0.07633105650643573,0.06619927041644262,-0.03652415717832519,0.06030646079656016,0.06252530295017335,-0.04881924894842192,-0.14874491604474507,-0.1534443853274576,0.06730686250555934
1866,9.040704499988353,0.01814708681936994,-0.02286999239664858,0.0217690650644807,0.07662099915958963,0.0664998576860674,-0.03675948376738957,0.059582755876454126,0.0617787365504386,-0.04849089371921629,-0.15045742669334145,-0.15524558832276514,0.06848479963286874
1867,9.045285399988645,0.018757172835602482,-0.022272699271769465,0.02180166883278793,0.07690742051148379,0.06679681261099585,-0.036993208757330295,0.05885080603427945,0.06102349748224945,-0.04815684780716166,-0.15215286091732527,-0.15703141921067348,0.0696599199207379
1868,9.048865399992792,0.01936355800460685,-0.02170861156812017,0.021821295678342397,0.07719028086589377,0.06709009344292138,-0.03722530465645322,0.05811069464365471,0.060259660866010145,-0.04781712518850602,-0.1538309598020287,-0.15880160229649598,0.07083207622579388
1869,9.052974799997171,0.01997816429197542,-0.02110264117782116,0.02183003948894227,0.07746954093412164,0.06737965880084595,-0.037455744042173444,0.05736250632640678,0.05948730314857186,-0.04747174055177704,-0.15549146759982047,-0.16055586396138297,0.07200112113108069
1870,9.057305299997097,0.020629701304085948,-0.02054731865492004,0.021810055334298018,0.07774516184101024,0.06766546767745187,-0.03768449956445962,0.05660632693699297,0.058706502092958,-0.04712070929905383,-0.15713413177607746,-0.16229393270760142,0.07316690696933033
1871,9.061745999992128,0.021271289000040217,-0.019976904103795178,0.021767204427207525,0.07801710513087992,0.06794747944542247,-0.037911543949284435,0.05584224354669914,0.0579173367678741,-0.04676404754712552,-0.1587587030542538,-0.16401553920342604,0.07432928584632169
1872,9.066288699992583,0.02190163551918845,-0.019405129986827613,0.021737403588760355,0.07828533277338626,0.06822565386371046,-0.03813685000208076,0.05507034442761858,0.057119887537004636,-0.046401772128536356,-0.1603649354600363,-0.16572041632763423,0.0754881096643213
1873,9.069923999995808,0.022566848758468382,-0.018818102191363067,0.02167723436852463,0.07854980716929741,0.06849995108375316,-0.038360390611202895,0.054290719036416045,0.056314236048098903,-0.046033900592516906,-0.1619525863645761,-0.1674082992135981,0.07664323014559969
1874,9.074828999990132,0.02320722851239833,-0.018261223100277967,0.021627113433135076,0.07881049115619024,0.06877033165563377,-0.03858213875139227,0.05350345799788164,0.05550046522184743,-0.04566045120580135,-0.16352141652678587,-0.16907892529296617,0.07779449885601676
1875,9.081811600000949,0.02450639271490787,-0.017137001059570584,0.021539676000317295,0.07906734801406431,0.06903675653418778,-0.03880206748724699,0.052708653088279246,0.05467865924055118,-0.04528144295333053,-0.16507119013469362,-0.17073203433892767,0.07894176722867025
1876,9.085991999992984,0.02519783397428121,-0.016565796173143438,0.02151974180237457,0.07932034147087272,0.06929918708505346,-0.03902014997669486,0.05190639721849395,0.05384890353658555,-0.04489689553884059,-0.16660167484584446,-0.17236736850905177,0.08008488658760103
1877,9.091025000001537,0.02586230583200256,-0.01597406011046195,0.021476567915379906,0.07956943570796907,0.06955758509066548,-0.03923635947446951,0.05109678441698344,0.053011284780661375,-0.04450682938533704,-0.1681126418267404,-0.1739846723876958,0.08122370817154927
1878,9.095061499989242,0.026523824563284597,-0.015386364497595433,0.02138030157375323,0.07981459536546996,0.06981191275619052,-0.03945066933558888,0.050279909812538166,0.052165890869885184,-0.04411126563545402,-0.16960386579130945,-0.17558369302797588,0.08235808315775575
1879,9.098759499989685,0.02716133675095452,-0.014767584883117222,0.021271517035831904,0.08005578554753189,0.07006213271540412,-0.03966305301883554,0.049455869616855525,0.051312810915620885,-0.04371022615169867,-0.1710751250383955,-0.17716417999329434,0.08348786268580291
1880,9.103518499992788,0.02783530680379669,-0.01413549938839572,0.021174734413775764,0.08029297182754175,0.07030820803650785,-0.039873484090238435,0.04862476110693297,0.0504521352311551,-0.04330373351658035,-0.1725262014882623,-0.17872588539841797,0.08461289788148932
1881,9.107921799994074,0.02851277337645714,-0.013523501150794296,0.021128285092235133,0.08052612025322042,0.07055010222788591,-0.04008193622655528,0.047786682607284976,0.04958395531916815,-0.04289181103262467,-0.17395688071810478,-0.18026856395010213,0.08573303988073204
1882,9.113758199993754,0.029207964607432677,-0.012860796363054929,0.021012838063136204,0.08075519735163818,0.07078777924380047,-0.04028838321875535,0.04694173347198895,0.04870836385901317,-0.042474482722272326,-0.17536695199656144,-0.18179197298725427,0.08684813985349064
1883,9.1178196999972,0.02987944390971551,-0.012192312866772775,0.020856275581064294,0.08098017013414135,0.07102120349002446,-0.04049279897550212,0.046090014066565176,0.047825454693805836,-0.04205177332766269,-0.17675620831722252,-0.18329587252062973,0.08795804902770749
1884,9.121763799994367,0.03052780389988737,-0.011553088671707743,0.020730545662942624,0.08120100610118966,0.07125033982941079,-0.04069515752663502,0.045231625749695664,0.04693532281732709,-0.04162370831030229,-0.17812444643112835,-0.184780025272054,0.089062618713258
1885,9.125837200001117,0.03116148791302065,-0.010943424996826746,0.020614858213286104,0.08141767324710307,0.07147515358739742,-0.04089543302665,0.04436667085478699,0.0460380643607413,-0.04119031385061822,-0.1794714668782533,-0.18624419671316556,0.0901617003259053
1886,9.134534099997836,0.03248731221174139,-0.009742350503694057,0.02037015414600197,0.08163014006471753,0.07169561055744662,-0.041093599758178535,0.043495252671382344,0.045133776579132284,-0.040751616847396144,-0.1807970740179717,-0.18768815510367423,0.0912551454112529
1887,9.13857999999891,0.03317703146768493,-0.009136189377060148,0.020214258843280052,0.08183837554994912,0.07191167700641758,-0.041289632135464834,0.042617475426427784,0.04422255783785957,-0.04030764491710273,-0.1821010760585011,-0.18911167152912936,0.09234280566869016
1888,9.142663999999058,0.03386251709977153,-0.008547234159145035,0.02002842868784749,0.08204234920626621,0.07212331967987184,-0.04148350470784022,0.041733444265397684,0.04330450759873735,-0.039858426393092415,-0.18338328508531906,-0.1905145199381926,0.09342453297532466
1889,9.1468171000015,0.03457448554634267,-0.007989880216275416,0.01986968649299378,0.08224203104906917,0.0723305058073109,-0.041675192163194395,0.04084326523328456,0.042379726406038404,-0.03940399032469856,-0.1846435170885505,-0.1918964771794102,0.09450017940989584
1890,9.150851300000795,0.03526005987761914,-0.007464902891296719,0.019659827924519237,0.08243739160997682,0.07253320310734507,-0.041864669331442644,0.039947045255458356,0.04144831587232545,-0.03894436647620931,-0.18588159198932164,-0.19325732303748014,0.09556959727666416
1891,9.15532499999972,0.035927309585673764,-0.006945986865892893,0.01942941665826878,0.08262840194101902,0.07273137979279329,-0.042051911187988816,0.03904489211840037,0.04051037866411255,-0.03847958532572812,-0.18709733366507833,-0.19459684026900942,0.0966326391292705
1892,9.16140829998767,0.037252077397915494,-0.006038792562985001,0.01896527333060398,0.08281503361873507,0.07292500457571331,-0.042236892857183635,0.038136914450317055,0.0395660184873592,-0.0380096780639189,-0.188290569973867,-0.19591481463775637,0.09768915779456054
1893,9.165652799987583,0.03793188393047173,-0.005637262024401879,0.018687467260224647,0.0829972587481771,0.07311404667236156,-0.04241958961577787,0.03722322170163905,0.0386153400727998,-0.03753467659263596,-0.18946113277757712,-0.19721103494935344,0.09873900639636894
1894,9.169973299998674,0.03865657274139698,-0.005154297443844987,0.01837155995964406,0.08317504996681797,0.07329847580808195,-0.04259997689636977,0.03630392412541058,0.03765844916111121,-0.037054613523439264,-0.19060885796414365,-0.1984852930855065,0.09978203837925922
1895,9.17375109999557,0.03937976886195191,-0.00470250480417072,0.018032806913492024,0.08334838044836376,0.07347826222212307,-0.042778030290845905,0.035379132757574296,0.036695452487921165,-0.036569522175995406,-0.19173358546870786,-0.19973738403766692,0.10081810753221357
1896,9.179251800000202,0.04004685435248189,-0.004307856616224259,0.017685578116993554,0.08351722390647036,0.0736533766723824,-0.042953725553814756,0.03444895939715705,0.03572645776865999,-0.036079436576364234,-0.19283515929373554,-0.20096710594017123,0.10184706801226726
1897,9.182870999997249,0.040721563632367265,-0.003924304569456301,0.01738033640959878,0.0836815545983642,0.07382379044007682,-0.04312703860603256,0.0335135165863619,0.03475157368325824,-0.035584391455171574,-0.19391342752809235,-0.20217426010284376,0.10286877436808232
1898,9.188175699993735,0.04145327691066364,-0.003533421966298391,0.017065938042034753,0.0838413473283667,0.07398947533433879,-0.043297945537820404,0.03257291759057155,0.033770909860692644,-0.0350844222456684,-0.19496824236507654,-0.20335865104305823,0.10388308156345515
1899,9.192630699995789,0.0421493623624845,-0.0031040357290886616,0.016714800771822386,0.08399657745132189,0.0741504036967376,-0.04346642261247209,0.03162727637826849,0.032784576863382896,-0.03457956508167678,-0.1959994601194093,-0.20452008651725417,0.10488984500075277
1900,9.19637989999319,0.04282950999589034,-0.0027783336906643946,0.016411117910105785,0.08414722087592642,0.07430654840572486,-0.043632446269651924,0.03067670760087671,0.03179268617144188,-0.03406985679542307,-0.19700694124318363,-0.20565837755190416,0.1058889205442728
1901,9.204925099998944,0.04427253783457261,-0.0019925688506508632,0.01568731363567359,0.08429325406796183,0.07445788288100348,-0.043795993128782,0.029721326572530456,0.03079535016678208,-0.033555334915258694,-0.19799055034077392,-0.20677333847392793,0.10688016454352188
1902,9.21105479999096,0.04563951126984131,-0.0013431133656539019,0.015009874176163854,0.08443465405342837,0.07460438108781951,-0.043957039992418276,0.02876124924977534,0.029792682117080752,-0.03303603766326895,-0.19895015618270848,-0.2078647869405506,0.10786343385640768
1903,9.215852900000757,0.04633534944628947,-0.0009872185666683865,0.014646575683545307,0.0845713984215807,0.07474601754117563,-0.0441155638496149,0.027796592211207113,0.028784796159606586,-0.032512003952770034,-0.1998856317185069,-0.20893254396860164,0.10883858587233977
1904,9.219875399998273,0.04702456207474409,-0.0006490440592680357,0.01427899716136204,0.08470346532786499,0.07488276730996618,-0.04427154187927608,0.02682747263705332,0.027771807284910636,-0.0319832733856948,-0.20079685408848522,-0.20997643396325064,0.10980547853523415
1905,9.223791799988248,0.047726254440419606,-0.00027363344559787773,0.013888337380858453,0.0848308334967572,0.0750146060210328,-0.044424951453494864,0.025854008288702997,0.02675383132038439,-0.03144988624986772,-0.20168370463453186,-0.21099628474617663,0.1107639703664168
1906,9.228828299994348,0.04841842320344259,9.785074376290892e-05,0.013503692980675212,0.08495348222450243,0.07514150986314028,-0.04457577014087836,0.024876317488189612,0.025730984913687683,-0.03091188351616935,-0.20254606890985902,-0.2119919275831679,0.11171392048742142
1907,9.233021699998062,0.04906133711718165,0.0005134388928658283,0.01313018297719358,0.08507139138175436,0.07526345559087237,-0.04472397570985875,0.02389451909763235,0.024703385516049173,-0.030369306835590866,-0.20338383668773363,-0.212963197211149,0.11265518864267703
1908,9.238275799987605,0.04969770974023485,0.0008787055934584118,0.012792693990027776,0.08518454141611508,0.07538042052844691,-0.044869546131989575,0.022908732498640828,0.023671151365442247,-0.029822198536179033,-0.20419690196919252,-0.2139099318646323,0.11358763522208062
1909,9.242725399992196,0.050348259472563,0.0012553684863461536,0.012452751613838171,0.08529291335457563,0.0754923825734498,-0.04501245958522678,0.021919077571688414,0.022634401469639125,-0.029270601619872303,-0.20498516298974617,-0.2148319733015916,0.11451112128345001
1910,9.247082399990177,0.05098986696421167,0.0016176914378460295,0.012096253659868883,0.08539648880585696,0.07559932020048712,-0.04515269445719381,0.020925674675459218,0.021593255589145884,-0.028714559759228667,-0.20574852222507709,-0.21572916682875473,0.11542550857485291
1911,9.252687999993212,0.05223801207877503,0.002331799583267363,0.011372400786024596,0.08549524996265068,0.07570121246475503,-0.04529022934843035,0.01992864462617383,0.020547834220021242,-0.02815411729404576,-0.20648688639573864,-0.21660136132631147,0.11633065955680821
1912,9.257015899987891,0.05285257750175521,0.0027084403898723474,0.011002247881421758,0.08558917960376008,0.07579803900552666,-0.04542504307562412,0.018928108676898744,0.019498258576581908,-0.02758931922787383,-0.20720016647086154,-0.2174484092720343,0.1172264374243549
1913,9.261447699987912,0.05343141910556485,0.003056321443137792,0.010691814363423893,0.08567826109614124,0.07588978004955589,-0.04555711467482528,0.017924188496844417,0.01844465057399738,-0.02702021122442219,-0.20788827767087323,-0.21827016676481034,0.11811270612898472
1914,9.266159399994647,0.05403289308211728,0.0033500892409171453,0.010409811411167293,0.08576247839684428,0.0759764164143974,-0.045686423404642885,0.016917006150656846,0.017387132810776983,-0.026446839603859684,-0.20855113946923723,-0.2190664935475808,0.11898933040043481
1915,9.269933999996285,0.05465042748072879,0.003631685705800383,0.010127977712349126,0.08584181605485486,0.07605792951164245,-0.04581294874942287,0.015906684077707484,0.016325828551151878,-0.025869251339009965,-0.20918867559322005,-0.2198372530296851,0.11985617576833653
1916,9.274257999990368,0.0552044830594597,0.003925116845629653,0.009834788346567175,0.0859162592128356,0.07613430135007027,-0.04593667042240686,0.014893345071386269,0.015260861707354873,-0.025287494051442476,-0.2098008140236939,-0.2205823123086067,0.12071310858371645
1917,9.283277499998803,0.05637408546887561,0.004580899452653865,0.009158510204662636,0.08598579360876774,0.07620551453871403,-0.0460575683688714,0.013877112258402505,0.014192356821800785,-0.024701616007459695,-0.21038748699398324,-0.22130154219111858,0.12155999604034577
1918,9.286766599994737,0.05696648951393315,0.004948283917531895,0.008831169306861295,0.08605040557749269,0.07627155228984096,-0.046175622769247235,0.012858109078098395,0.013120439049170146,-0.02411166611398139,-0.21094863098776134,-0.2219948172138273,0.12239670619593451
1919,9.29074509999191,0.05754833068677949,0.005294138645807941,0.00853370452978118,0.08611008205215376,0.07633239842184608,-0.04629081404221803,0.01183645926177992,0.012045234138399138,-0.02351769391432656,-0.21148418673600458,-0.22266201566311325,0.12322310799316645
1920,9.294730499997968,0.05813505243805944,0.005584583918388401,0.008263577736847433,0.08616481056553768,0.07638803736205926,-0.04640312284779804,0.010812286812069652,0.010966868414578605,-0.022919749583893822,-0.2119940992130136,-0.22330301959446555,0.12403907128057165
1921,9.298977300000844,0.058723839815972706,0.005897835580440763,0.007957402043179528,0.08621457925131641,0.07643845414946544,-0.046512530090388284,0.009785715982286176,0.009885468760765057,-0.022317883925740963,-0.2124783176315102,-0.22391771485121104,0.12484446683323369
1922,9.303230699995764,0.059274390441731266,0.006228478219525451,0.007688337982802431,0.08625937684518882,0.0764836344373374,-0.04661901692181064,0.008756871255854625,0.008801162599706475,-0.021712148366064353,-0.21293679543681945,-0.22450599108263508,0.1256391663733282
1923,9.307483500000671,0.05982574005235973,0.00652350858823286,0.007442670205820108,0.08629919268592266,0.07652356449578077,-0.04672256474431925,0.00772587732575282,0.007714077875485829,-0.021102594949579015,-0.21336949030014576,-0.22506774176149338,0.12642304259049003
1924,9.31135639999411,0.0603886983119204,0.006839440263882527,0.007174179140642523,0.0863340167162971,0.0765582312141907,-0.0468231552135888,0.006692859073997422,0.00662434303508513,-0.020489276334800154,-0.2137763641109537,-0.22560286420091313,0.12719596916200657
1925,9.315443299987235,0.060953726748134374,0.00715162998613682,0.0068996457719938,0.08636383948394603,0.07658762210361923,-0.04692077024167917,0.005657941551174517,0.005532087009872879,-0.01987224578922694,-0.21415738296846307,-0.2261112595706832,0.12795782077283446
1926,9.319887599995129,0.06155626031281747,0.007485205430503702,0.006560896184357647,0.08638865214210224,0.07661172529905337,-0.04701539199997613,0.004621249956018983,0.0044374391970177975,-0.019251557184429276,-0.2145125171722689,-0.2265928329129305,0.12870847313543782
1927,9.324085000000196,0.062117950372596056,0.007776184526378802,0.006310375078829157,0.08640844645024291,0.07663052956160338,-0.047107002922107316,0.003582909615046905,0.003340529440831659,-0.018627264991038336,-0.21484174121209615,-0.2270474931571807,0.12944780300944456
1928,9.327974200001336,0.06260630352939721,0.008051897430005192,0.0060367323529735405,0.08642321477463717,0.07664402428060094,-0.04719558570683296,0.0025430459622452664,0.0022414880140440674,-0.017999424273641852,-0.21514503375669985,-0.22747515313480174,0.1301756882211185
1929,9.33206609998888,0.0630863097285704,0.008324019285412964,0.005789698235612024,0.0864329500887963,0.07665219947560682,-0.04728112332091101,0.0015017845188230493,0.0011404455990120092,-0.017368090685585008,-0.2154223776419221,-0.22787572959282867,0.13089200768264536
1930,9.336112299992235,0.06363962717650928,0.008625388303043683,0.005499675879907993,0.08643764597382654,0.07665504579832781,-0.047363599001936235,0.0004592508730278643,3.7533268867064525e-05,-0.016733320463677794,-0.21567375985791729,-0.22824914320716705,0.13159664141122984
1931,9.341016099991975,0.06411358077963507,0.008896947901669151,0.005228647687354265,0.08643729661868459,0.07665255453444245,-0.04744299626115288,-0.000584429339967839,-0.0010671175313968723,-0.016095170422809717,-0.2158991715355573,-0.2285953185951728,0.13228947054800128
1932,9.34902449999936,0.06500300010782166,0.009395734247020724,0.00467984080987436,0.0864318968203361,0.0766447176053352,-0.04751929888624035,-0.0016291304581069856,-0.002173375003892496,-0.01545369795047274,-0.21609860793202865,-0.22891418432760846,0.13297037737672687
1933,9.353974699988612,0.06547263439563311,0.00965971949476103,0.0044037489495551,0.08642144198381778,0.07663152756973905,-0.04759249094407161,-0.0026747268124105938,-0.003281107016861759,-0.014808961001193327,-0.21627206841563376,-0.22920567293997385,0.13363924534233054
1934,9.363784999994095,0.06630846816719822,0.010204651523460034,0.003871638296150181,0.08640592812220306,0.07661297762528659,-0.04766255678344376,-0.0037210927468591367,-0.004390181123749443,-0.014161018090874587,-0.21641955644980862,-0.22946972094321072,0.13429595906921607
1935,9.37413659998856,0.0675545553399918,0.01087999377160169,0.0031528612230839973,0.0863853518564721,0.0765890616099698,-0.047729481037780526,-0.004768102638188767,-0.005500464582324774,-0.013509928291049493,-0.21654107957636928,-0.22970626883378165,0.13494040437939364
1936,9.378453899989836,0.06797726961384923,0.01113459233386467,0.0029576898990691797,0.08635971041528641,0.07655977400350836,-0.047793248627806116,-0.005815630915598676,-0.006611824373848219,-0.012855751223046151,-0.21663664939800034,-0.22991526110312288,0.13557246831040837
1937,9.382174799990024,0.06836657208225375,0.011343937940998082,0.002782698411869549,0.08632900163466821,0.0765251099286261,-0.04785384476419034,-0.006863552080365932,-0.007724127222280616,-0.012198547052066,-0.21670628155999844,-0.2300966462464713,0.13619203913306904
1938,9.38709169998765,0.06874725962065435,0.011525713355427923,0.002619619704213089,0.08629322395758543,0.07648506515223549,-0.04791125495016419,-0.007911740725364212,-0.008837239613531769,-0.01153837648117594,-0.21674999573128334,-0.23025037677106386,0.13679900636897624
1939,9.39091180000105,0.06914333144481476,0.011728103054042297,0.002415298786799398,0.08625237643344238,0.07643963608652994,-0.0479654649841055,-0.008960071554482892,-0.009951027814745684,-0.010875300745215397,-0.2167678155846901,-0.23037640920370928,0.13739326080784905
1940,9.395365399992444,0.0695377856281856,0.011949090261826218,0.0022440096001243096,0.08620645871747651,0.07638881978998362,-0.04801646096209426,-0.010008419401943042,-0.011065357893619588,-0.010209381604619294,-0.2167597687765555,-0.23047470409773274,0.13797469452464986
1941,9.399342699995032,0.06990136680239253,0.012158031285043076,0.002023537716029814,0.08615547107006152,0.0763326139682587,-0.04806422928043724,-0.011056659251506925,-0.012180095737753876,-0.009540681339157966,-0.21672588692561276,-0.2305452260392915,0.13854320089650585
1942,9.40321619999304,0.07027193932871299,0.012421915897499662,0.0018159486764364949,0.08609941435591749,0.07627101697502046,-0.04810875663816141,-0.01210466625557762,-0.013295107074030128,-0.00886926274159497,-0.21666620559120728,-0.23058794365306237,0.13909867461942654
1943,9.409231599987834,0.07061607914216575,0.012660805510207405,0.0016367575584248749,0.08603829004322823,0.0762040278126603,-0.04815003003947614,-0.013152315754185531,-0.014410257488014333,-0.00819518911126382,-0.21658076425084724,-0.23060282960730175,0.13964101172481538
1944,9.41333019999729,0.07093203724521692,0.012850637990075528,0.0014726868565208655,0.08597210020266648,0.07613164613292689,-0.048188036796203704,-0.014199483293858603,-0.01552541244338238,-0.007518524247564637,-0.21646960627710332,-0.23058986061827805,0.1401701095957748
1945,9.41760489999433,0.07123904231612953,0.013031783107270632,0.001319612666949398,0.08590084750632676,0.07605387223746565,-0.04822276453017756,-0.015246044646373197,-0.01664043730136493,-0.006839332443381702,-0.2163327789138716,-0.23054901745407747,0.14068586698320415
1946,9.421987199995783,0.07155945515763285,0.013194611913687197,0.0011629211983339004,0.08582453522656638,0.07597070707826625,-0.04825420117560834,-0.016291875827382646,-0.017755197340208837,-0.0061576784784228705,-0.2161703332520114,-0.23048028493778377,0.14118818402169014
1947,9.425738899997668,0.07182739764821115,0.013343811167037433,0.001037321826701831,0.08574316723475477,0.07588215225801817,-0.048282334981417374,-0.017336853114920545,-0.018869557774652254,-0.00547362761248186,-0.2159823242043735,-0.2303836519500307,0.14167696224518944
1948,9.429238199998508,0.07213739868490066,0.01350576152141663,0.0008871723733536487,0.0856567479999318,0.07578821003037384,-0.04830715451353747,-0.018380853067775822,-0.019983383775410462,-0.0047872455786244225,-0.21576881048023325,-0.23025911143092911,0.1421521046025027
1949,9.433172999997623,0.07237878018326781,0.013634503425382824,0.0007390753347133235,0.08556528258737575,0.07568888330011922,-0.04832864865718043,-0.01942375254373684,-0.021096540488669532,-0.004098598576299415,-0.21552985455914378,-0.23010666038137137,0.14261351547254028
1950,9.43684339999163,0.07263688776462424,0.013762310881607238,0.0005978968671373919,0.08546877665708158,0.07558417562325187,-0.04834680661907115,-0.020465428717701784,-0.022208893055585023,-0.0034077532643757716,-0.21526552266422255,-0.2299262998637119,0.14306110067938044
1951,9.44109199999366,0.0729063783511004,0.013849095804204138,0.00046164609305302147,0.0853672364621499,0.07547409120696615,-0.048361617929647674,-0.021505759099652643,-0.023320306631782868,-0.002714776754106352,-0.21497588473488533,-0.22971803500182408,0.14349476750711934
1952,9.44474779999291,0.0731414838551622,0.013917634725532112,0.00031404466701096326,0.08526066884708786,0.07535863490954552,-0.04837307244522718,-0.02254462155249016,-0.0244306464068595,-0.002019736602019654,-0.21466101439904145,-0.22948187498053385,0.14391442471451288
1953,9.448816099989926,0.07334091978901078,0.013952407986607613,0.00019960223851165845,0.08514908124602288,0.07523781224016242,-0.048381160350137446,-0.023581894309727243,-0.025539777623878285,-0.0013227008027404438,-0.21432098894476354,-0.22921783304443022,0.14431998254941
1954,9.45327179999731,0.07354070062269745,0.013990193054822063,7.995565124074323e-05,0.08503248168083018,0.07511162935858544,-0.04838587215881374,-0.024617455993038426,-0.026647565598859394,-0.000623737781740314,-0.2139558892914452,-0.22892592649605395,0.14471135276297817
1955,9.461268499988364,0.07383251775316,0.014024299539113577,-0.00015802434596788074,0.08491087875917466,0.07498009307479359,-0.04838719871786082,-0.02565118562966309,-0.02775387574026036,7.708361198080572e-05,-0.21356579996046016,-0.22860617669346409,0.1450884486237209
1956,9.465365299998666,0.07396902750750131,0.014053956990450646,-0.0002835625801142286,0.0847842816724683,0.07484321084849785,-0.04838513120807973,-0.026682962669660318,-0.02885857356844442,0.0007796941132811714,-0.21315080904533618,-0.22825860904718434,0.14545118493128834
1957,9.47058670000115,0.07410071411320099,0.014078653560622462,-0.00041661123163753457,0.08465270019374399,0.07470099078857027,-0.048379661146458974,-0.027712667003013315,-0.02996152473513382,0.0014840240483307643,-0.212711008181459,-0.2278832530165306,0.1457994780300821
1958,9.477880299993558,0.074335160333892,0.014186668770908408,-0.0007507616716146154,0.08451614467544662,0.0745534416523805,-0.04837078038812922,-0.0287401789765813,-0.03106259504284514,0.0021900033421308313,-0.21224649251531996,-0.2274801421053199,0.14613324582265552
1959,9.483923099993262,0.07443467398387055,0.014267764579768612,-0.0008974618172281311,0.08437462604714205,0.0744005728450394,-0.04835848112828143,-0.029765379410896974,-0.03216165046430356,0.0028975615260984073,-0.21175736067332168,-0.2270493138569615,0.14645240778290902
1960,9.490363799995976,0.07465772756337767,0.014418056969776142,-0.0012183803358894966,0.08422815581314462,0.07424239441854984,-0.04834275590404829,-0.030788149616807526,-0.03325855716183331,0.003606627745714807,-0.2112437147301555,-0.22659080984893068,0.1467568849690819
1961,9.49460549998912,0.07480169902826937,0.014480753215549057,-0.00140001582469715,0.08407674605006399,0.07407891707086402,-0.048323597596348696,-0.031808371411957165,-0.03435318150672127,0.00431713076823707,-0.21070566017676387,-0.22610467568662598,0.14704660003654188
1962,9.500338099998771,0.07493003910215258,0.014561842627280733,-0.0015779466302112116,0.08392040940427238,0.073910152144848,-0.0483009994316951,-0.03282592713710949,-0.035445390098551084,0.005028998990471345,-0.2101433058879022,-0.22559096099661116,0.14732147725037245
1963,9.50830779998796,0.07520527314351383,0.014691885267458186,-0.0019379178503092162,0.08375915908929317,0.07373611162715348,-0.04827495498396359,-0.033840699672308086,-0.03653504978450477,0.005742160446607209,-0.2095567640893141,-0.2250497194192419,0.14758144249775837
1964,9.512346799994702,0.07535845172097397,0.01475879119102257,-0.00211585783084532,0.08359300888311197,0.07355680814699689,-0.04824545817612624,-0.03485257245287386,-0.037622027678629,0.006456542816111945,-0.20894615032453343,-0.22448100860067988,0.1478264233001702
1965,9.518004699988523,0.07555072140840434,0.014836747608969051,-0.0023069036551852766,0.08342197312541054,0.07337225497484613,-0.04821250328194516,-0.0358614294852375,-0.038706191181063304,0.007172073431683809,-0.2083115834213271,-0.2238848901842961,0.1480563488253493
1966,9.523732499990729,0.07591061590841335,0.014953073846534052,-0.002637236946996529,0.08324606671472422,0.07318246602101466,-0.048176084927628114,-0.036867155362605486,-0.03978740799722731,0.00788867928726331,-0.20765318545779124,-0.22326142980146477,0.14827114989909346
1967,9.527957300000708,0.07606998593261462,0.014976576804642134,-0.002827706771340144,0.08306530510552396,0.07298745583416326,-0.048136198093445194,-0.037869635280457906,-0.04086554615696442,0.008606287046101566,-0.20697108172811285,-0.2226106970617499,0.14847075901684464
1968,9.53248339999118,0.07622330049580182,0.015029939169226162,-0.0030039457667260074,0.08287970430522379,0.07278723959970945,-0.048092838115306395,-0.03886875505187684,-0.04194047403363888,0.009324823048884748,-0.20626540070801042,-0.22193276554248534,0.1486551103550783
1969,9.536741499992786,0.07640700941796234,0.015098897448077991,-0.003202886131547119,0.08268928087111471,0.0725818331381452,-0.048046000686299724,-0.03986440112270375,-0.04301206036318345,0.010044213321913608,-0.2055362740198661,-0.22122771277774914,0.14882413978249534
1970,9.54084229998989,0.07662609301133166,0.015185361099871775,-0.0034488006574501743,0.0824940519072257,0.07237125290326331,-0.04799568185818966,-0.040856460586524694,-0.04408017426309481,0.010764383585337147,-0.20478383639756145,-0.2204956202467362,0.14897778487101734
1971,9.545354599991697,0.07683671384973159,0.015230058830735879,-0.003680413325797825,0.08229403506111267,0.07215551598029248,-0.04794187804287567,-0.04184482119948221,-0.04514468525137391,0.011485259261439444,-0.20400822565103022,-0.21973657336152969,0.1491159849065863
1972,9.553190199992969,0.07722804703394573,0.015377910839227033,-0.004127117645614493,0.08208924852057677,0.07193464008394143,-0.04788458601381067,-0.04282937139491259,-0.04620546326540874,0.012206765482978733,-0.20320958263054134,-0.2189506614542727,0.14923868089976924
1973,9.55808829999296,0.07740531567194546,0.015458956780178681,-0.004360205880221907,0.08187971101031301,0.07170864355635229,-0.04782380290737908,-0.0438100002978074,-0.047262378680796586,0.012928827101577783,-0.20238805119072528,-0.21813797776374166,0.14934581559616802
1974,9.562439000001175,0.07763673804023806,0.01558446099611402,-0.0045750477868482025,0.08166544178849061,0.07147754536496345,-0.04775952622423441,-0.044786597739098113,-0.048315302330103095,0.013651368696164625,-0.20154377815435665,-0.21729861942132483,0.14943733348663615
1975,9.566138999987745,0.07783072807430669,0.015681061473540394,-0.004793619487136037,0.08144646064326583,0.07124136510028249,-0.047691753830596,-0.0457590542697626,-0.0493641055215553,0.014374314581462627,-0.20067691327590667,-0.21643268743640842,0.14951318081730383
1976,9.570080999998028,0.07801252963295205,0.01575580560051982,-0.005009838678900617,0.08122278788922843,0.0710001229735691,-0.04762048395950471,-0.04672726117475257,-0.050408660057666185,0.01509758881652898,-0.1997876092048778,-0.21554028668117384,0.1495733055994133
1977,9.574028099988936,0.07818596202436051,0.01585038819661326,-0.005217791069463853,0.08099444436378295,0.07075383981442833,-0.047545715212037355,-0.04769111048674122,-0.05144883825378829,0.015821115213340585,-0.1988760214489318,-0.2146215258748078,0.14961765761896562
1978,9.577938099988389,0.07835575927907887,0.015967030672696562,-0.005407921843428727,0.08076145142346534,0.0705025370683147,-0.047467446558479495,-0.04865049499969028,-0.05248451295659347,0.016544817345426455,-0.19794230833682283,-0.21367651756712555,0.14964618844618094
1979,9.582844899996417,0.07855652389247463,0.016146876178020138,-0.005675583691226569,0.08052383094019581,0.07024623679394756,-0.04738567733945669,-0.04960530828223575,-0.053515557562476286,0.017268618556545705,-0.19698663098114594,-0.21270537812160928,0.14965885144477353
1980,9.586893499988946,0.0787048185936099,0.01630983536639987,-0.005884816761189993,0.08028160529746828,0.06998496166063847,-0.04730040726702378,-0.0505554446908915,-0.05454184603587837,0.017992441969410307,-0.1960091532409128,-0.21170822769786396,0.14965560178104276
1981,9.590780099999392,0.0788548118039304,0.016484368200736253,-0.00606813374512509,0.08003479738647763,0.06971873494553113,-0.04721163642571192,-0.05150079938307027,-0.05556325292753068,0.018716210494451692,-0.19501004168396582,-0.21068519023349216,0.14963639643278148
1982,9.59505759998865,0.07897414818466397,0.016670693095390182,-0.006235756177728429,0.07978343060218596,0.06944758053075419,-0.04711936527353301,-0.05244126832992139,-0.05657965339261102,0.019439846838630395,-0.19398946554923988,-0.2096363934253903,0.149601194198003
1983,9.598817599995527,0.07909431419892407,0.016861251357924517,-0.006421136433491783,0.07952752883932833,0.0691715229004874,-0.04702359464294122,-0.05337674832898469,-0.05759092320881412,0.020163273514287847,-0.19294759670888348,-0.2085619687104693,0.14954995570348717
1984,9.604415699999665,0.07919496202244476,0.017079157843106093,-0.006647384230743696,0.07926711648835891,0.06889058713794155,-0.046924325741751344,-0.054307137016660054,-0.058596938794331685,0.020886412848039396,-0.1918846096302492,-0.20746205124580247,0.14948264341314643
1985,9.609936699998798,0.07928497859292079,0.01731787874758922,-0.006824695436054849,0.07900221843133821,0.06860479892225228,-0.046821560154013925,-0.05523233288049206,-0.05959757722573967,0.021609186989707648,-0.19080068133776348,-0.20633677988820318,0.14939922163621341
1986,9.614862899994478,0.07937547496968453,0.017760893112135186,-0.007157867625815899,0.07873286003776286,0.06831418452528874,-0.04671529984084708,-0.05615223527126924,-0.06059271625578985,0.022331517921295185,-0.18969599137468546,-0.20518629717323542,0.1492996565352521
1987,9.619291299997712,0.0794369942001457,0.01800298545539446,-0.007297310481747533,0.07845906716033867,0.06801877080837695,-0.04660554714122476,-0.057066744414937566,-0.061582234331103276,0.023053327465995838,-0.18857072176476436,-0.20401074929365978,0.14918391613399393
1988,9.623821000001044,0.07953373298946088,0.018260810287894495,-0.007434096850303221,0.07818086613069843,0.06771858521893842,-0.04649230477272108,-0.05797576142432814,-0.06256601060976318,0.02377453729724368,-0.18742505697380563,-0.20281028607731796,0.14905197032500025
1989,9.62846829999762,0.07961286565069714,0.018513820647949163,-0.007562285303630507,0.0778982837550653,0.06741365578704454,-0.04637557583221057,-0.05887918831069858,-0.06354392497880464,0.024495068947798862,-0.18625918387115512,-0.20158506096445936,0.14890379087715264
1990,9.634451599995373,0.07968073239782732,0.018754153765487985,-0.007724699199895373,0.07761134730986283,0.06710401112188732,-0.04625536379652399,-0.05977692799508783,-0.06451585807159804,0.025214843818869497,-0.18507329169111103,-0.2003352309845114,0.14873935144297262
1991,9.639078299995164,0.07982005494140076,0.01907135009267361,-0.007919678324539173,0.07732008453727257,0.06678968040816714,-0.04613167252305965,-0.06066888431948407,-0.06548169128512399,0.025933783189268794,-0.18386757199427317,-0.19906095673229646,0.14855862756577248
1992,9.644804600000498,0.08005612493112121,0.019730089797450022,-0.008340052546365653,0.07702452364074089,0.06647069340239763,-0.04600450625034962,-0.061554962057805224,-0.06644130679713704,0.026651808224606485,-0.18264221862883906,-0.1977624023436987,0.14836159668663867
1993,9.648651199997405,0.08015362126228873,0.020059222052940053,-0.008544236668901277,0.07672469328043563,0.06614708042912755,-0.045873869598580905,-0.06243506692669239,-0.06739458758321569,0.027368839986513727,-0.18139742769185527,-0.19643973547078508,0.14814823815125036
1994,9.65803700000106,0.08046585162712298,0.02085000395371435,-0.008912053287903093,0.07642062256865331,0.06581887237708078,-0.04573976757007135,-0.06330910559611602,-0.06834141743369597,0.02808479944190059,-0.18013339749043192,-0.19509312725638456,0.14791853321653428
1995,9.662369400000898,0.08059730094587034,0.02124177080930473,-0.009078672359084543,0.07611234106517745,0.06548610069521457,-0.04560220554970022,-0.06417698569979496,-0.06928168097048648,0.028799607472245144,-0.1788503285029282,-0.19372275230812955,0.1476724650571565
1996,9.66694650000136,0.08073199626010617,0.021674909374779606,-0.009232554772330401,0.0757998787725889,0.06514879738869667,-0.04546118930529334,-0.06503861584542797,-0.07021526366376252,0.029513184882913372,-0.17754842334011786,-0.19232878867196287,0.14741001877185123
1997,9.670880599995144,0.08083659386270589,0.02205740718910127,-0.009395484600194182,0.07548326613152927,0.06480699501480217,-0.04531672498796261,-0.06589390562473774,-0.07114205184853696,0.03022545241250894,-0.17622788670634212,-0.1909114178051138,0.147131181389588
1998,9.67527279999922,0.08096228506013457,0.02250846141707933,-0.009577535201973245,0.07516253401591856,0.06446072667872997,-0.0451688191323997,-0.06674276562332727,-0.0720619327411051,0.030936330742251966,-0.17488892536065803,-0.18947082454854663,0.14683594187557777
1999,9.680226699987545,0.0810978238164056,0.022997584707896257,-0.009776691255090878,0.07483771372812822,0.06411002602933948,-0.045017478657123654,-0.06758510743034898,-0.07297479445536059,0.0316457405053859,-0.17353174807799066,-0.18800719709888591,0.146524291137119
2000,9.68436039998778,0.08123691209145255,0.02349367923375058,-0.010010991618085763,0.07450883699411036,0.06375492725480796,-0.04486271086468242,-0.06842084364798616,-0.07388052601897968,0.032353602296611564,-0.17215656561029644,-0.18652072697982294,0.14619622202928478
2001,9.68913829998928,0.08143025931054282,0.02404628815146505,-0.010343212728118577,0.07417593595848426,0.06339546507820942,-0.044704523441808204,-0.06924988790074721,-0.0747790173894712,0.03305983668154762,-0.17076359064774457,-0.1850116090130081,0.1458517293604518
2002,9.694630400001188,0.08175288847320111,0.025123759262691836,-0.0107944079994689,0.07383904317958113,0.06303167475301559,-0.0445429244595264,-0.07007215484457288,-0.07567015947009019,0.03376436420621688,-0.16935303777992267,-0.18348004128843448,0.14549080989767238
2003,9.699047299989616,0.08190481033219364,0.025615543575110616,-0.010992201884246674,0.0734981916244479,0.06266359205851937,-0.04437792237321841,-0.07088756017575681,-0.07655384412561242,0.03446710540655772,-0.1679251234570738,-0.18192622513431772,0.1451134623718909
2004,9.70339179999428,0.08206065864689555,0.026148766563628863,-0.011126932757064124,0.07315341466381102,0.06229125329518153,-0.044209526022638265,-0.07169602063967997,-0.07742996419796729,0.03516798081795968,-0.16648006595137108,-0.18035036508647545,0.14471968748300618
2005,9.707795199996326,0.08216547481093577,0.026664697738657782,-0.011305516420127082,0.07280474606700114,0.0619146952799009,-0.04403774463188306,-0.0724974540393592,-0.07829841352172617,0.03586691098482259,-0.1650180853182355,-0.17875266885721147,0.14430948790477963
2006,9.712248600000748,0.082279942255496,0.027225214028313634,-0.011513389340952408,0.0724522199968397,0.06153395534120905,-0.04386258780931692,-0.07329177924381018,-0.07915908693944373,0.03656381647013855,-0.1635394033577031,-0.17713334730370947,0.14388286828958963
2007,9.717262599995593,0.0823916749434829,0.027803791892117607,-0.011716080347618008,0.07209587100448811,0.061149071314390256,-0.04368406554744853,-0.07407891619622572,-0.08001188031684968,0.03725861786509588,-0.16204424357584626,-0.1754926143959421,0.14343983527303325
2008,9.721527000001515,0.08250885243837631,0.028384428888252728,-0.011946481906599192,0.07173573402426053,0.06076008153652765,-0.0435021882227623,-0.07485878592196955,-0.08085669055788884,0.037951235798704346,-0.16053283114625455,-0.1738306871841003,0.14298039747837726
2009,9.72610309999436,0.08266870758931885,0.02892291898661374,-0.012117234674704972,0.0713718443684006,0.06036702484147597,-0.04331696659550286,-0.07563131053638611,-0.08169341561960686,0.03864159094744083,-0.15900539287157853,-0.17214778576554848,0.14250456552085936
2010,9.730387699994026,0.08275333984065715,0.029477633301336546,-0.012259044282330928,0.07100423772182235,0.05996994055476138,-0.04312841180941309,-0.0763964132524268,-0.0825219545268791,0.039329604044914646,-0.15746215714514178,-0.17044413325131058,0.14201235201184134
2011,9.735297999999602,0.08273793519280602,0.02997569383981443,-0.012434976578162699,0.07063295013681631,0.05956886848840918,-0.04293653539142551,-0.07715401838809327,-0.08334220738698102,0.04001519589155167,-0.15590335391262589,-0.16871995573209256,0.14150377156281496
2012,9.740731599988068,0.08305318658032299,0.031082108491402118,-0.012731866753625077,0.07025801802772202,0.059163848935700016,-0.04274134925130706,-0.07790405137369821,-0.0841540754039973,0.04069828736429642,-0.15432921463383253,-0.16697548224384604,0.14097884078926037
2013,9.74468099999649,0.08324572246081552,0.03165484570286602,-0.012947621452463275,0.0698794781655676,0.05875492266585544,-0.042542865681257314,-0.07864643875894395,-0.08495746089306744,0.04137879942633124,-0.15273997224452648,-0.16521094473287845,0.1404375783143573
2014,9.75321249999979,0.08366687773291984,0.03279304845660471,-0.013344482219702844,0.06949736767267738,0.05834213091865345,-0.04234109735546028,-0.07938110821981927,-0.08575226729446501,0.04205665313681192,-0.15113586111836314,-0.163426578020515,0.13988000477255028
2015,9.763063899998087,0.08407134983058145,0.033808434502305126,-0.013686312949886351,0.06911172401724833,0.0579255153989748,-0.04213605732958977,-0.08010798856531527,-0.08653839918750887,0.042731769660618875,-0.14951711702890438,-0.16162261976731845,0.13930614281296813
2016,9.769802800001344,0.08470017256430035,0.034923320074275156,-0.014269819028268581,0.06872258500789592,0.057505118271280804,-0.04192775904026788,-0.0808270097439607,-0.08731576230430384,0.04340407027812336,-0.1478839771117264,-0.15979931043687307,0.13871601710269935
2017,9.7738110999926,0.0850975813250229,0.03556407122186113,-0.014542417528700512,0.06832998878817026,0.057080982154023574,-0.04171621630447651,-0.08153810285017687,-0.08808426354330877,0.044073476394968086,-0.1462366798266233,-0.15795689325913825,0.13810965432992348
2018,9.77811759999895,0.08541267798247511,0.03616158068098494,-0.01478252579094424,0.06793397383104309,0.05665315011398957,-0.04150144331892182,-0.0822412001304529,-0.08884381098272928,0.04473990955186164,-0.1445754649199098,-0.1560956141933775,0.13748708320689976
2019,9.783254199996009,0.08570211746119234,0.036720859200898535,-0.014962214696778227,0.06753457893336635,0.05622166566057732,-0.041283454659351786,-0.08293623498934209,-0.08959431389373347,0.045403291434386206,-0.1429005733868263,-0.15421572189066823,0.13684833447281383
2020,9.786821599991526,0.08594064944429854,0.03727279179930059,-0.015121334043088214,0.06713184321030291,0.05578657274001048,-0.041062265279826475,-0.08362314199528044,-0.09033568275348895,0.04606354388281762,-0.14121224743404975,-0.15231746765599838,0.13619344089648291
2021,9.791132899990773,0.08617179218917892,0.0377838422692534,-0.015291594950049916,0.06672580608973058,0.05534791572948687,-0.040837890511941116,-0.0843018568862277,-0.09106782925801886,0.04672058890195705,-0.13951073044231163,-0.15040110540995638,0.1355224372789194
2022,9.795484099988244,0.08645175305805725,0.038345886694266425,-0.015495090133153512,0.06631650730662027,0.05490573943126461,-0.040610346064001906,-0.08497231657513156,-0.0917906663348749,0.04737434867097359,-0.1377962669291257,-0.1484668916500207,0.13483536045575262
2023,9.799180199988768,0.08673301097295147,0.038935832693769705,-0.01571303130458744,0.06590398689738873,0.054460089066686646,-0.040379648020154674,-0.08563445915521543,-0.09250410815562574,0.04802474555325695,-0.1360691025116277,-0.14651508541145558,0.13413224929950865
2024,9.80321699999331,0.08709540056641897,0.03957108261056016,-0.01589032597549306,0.06548828519422668,0.054011010270144516,-0.040145812839466166,-0.08628822390509042,-0.09320807014815881,0.048671702106279496,-0.1343294838695282,-0.1445459482278185,0.13341314472174845
2025,9.807251899997937,0.08741993031948359,0.040210937063726894,-0.016123376527299275,0.06506944281940277,0.05355854908298213,-0.039908857354957805,-0.08693355129369242,-0.09390246900879341,0.049315141091467035,-0.13257765870817953,-0.14255974409108618,0.13267808967506278
2026,9.81211239998811,0.08768806246214196,0.040749030615091726,-0.016320336121027165,0.064647500679544,0.05310275194734035,-0.039668798772591794,-0.08757038298504494,-0.09458722271420286,0.04995498548407765,-0.13081387572175962,-0.14055673941140615,0.13192712915492347
2027,9.816866799999843,0.08792987934616883,0.04124064298960883,-0.01647457197959804,0.06422249995989346,0.0526436656999431,-0.039425654670209524,-0.08819866184284807,-0.09526225053314388,0.05059115848308808,-0.1290383845565732,-0.1385372029764799,0.1311603102013909
2028,9.821095699997386,0.08830324616169995,0.041829110282098916,-0.016822083797999297,0.06379448211854614,0.05218133756582617,-0.03917944299642233,-0.08881833193489438,-0.09592747303799136,0.05122358352108674,-0.12725143577447195,-0.13650140591058615,0.13037768190067697
2029,9.825823599996513,0.08860473408739508,0.042372443374689144,-0.01709698855921709,0.06336348888066368,0.05171581515200927,-0.038930182069454734,-0.08942933853731336,-0.09658281211607617,0.05185218427417254,-0.1254532808163938,-0.13444962163325225,0.12957929538656254
2030,9.829985699994722,0.08893082345481752,0.042907344898611366,-0.017256495446238636,0.06292956223266906,0.05124714644111216,-0.03867789057593993,-0.09003162813864536,-0.09722819098082464,0.052476884671858584,-0.12364417196602237,-0.132382125817581,0.12876520384167012
2031,9.835137999994911,0.08923424377976616,0.043388726586344656,-0.017428694212565723,0.06249274441642269,0.05077537978491559,-0.03842258756966751,-0.09062514844374599,-0.09786353418269786,0.05309760890697988,-0.12182436231356697,-0.13029919634824066,0.12793546249859025
2032,9.840678599997773,0.0898170560986518,0.044434698277201805,-0.01781237774678959,0.06205307792338026,0.050300563897868154,-0.03816429247028334,-0.09120984837752129,-0.09848876761992918,0.053714281445604355,-0.11999410571966308,-0.12820111327912556,0.12709012864086058
2033,9.845146799998474,0.09007431697988158,0.044865578534037616,-0.017953635392477862,0.06161060548873309,0.04982274785054023,-0.03790302506194143,-0.09178567808849465,-0.09910381854905805,0.05432682703694648,-0.11815365677939395,-0.1260881587906942,0.12622926160379658
2034,9.84886829998868,0.0902876922575553,0.04525568064054635,-0.01808284654096554,0.06116537008553152,0.049341981063026105,-0.03763880549190769,-0.09235258895220652,-0.09970861559525837,0.05493517072328267,-0.11630327078643332,-0.12396061714699225,0.12535292277517354
2035,9.855085199989844,0.09055569518592468,0.045691333478862436,-0.01820902384603604,0.060717414918792345,0.048858313298295306,-0.03737165426911563,-0.0929105335744472,-0.10030308876246002,0.05553923784986787,-0.11444320369730995,-0.1218187746523675,0.12446117559575834
2036,9.861133499987773,0.09120396185620971,0.04666414591565244,-0.018534591177275753,0.06026678341959091,0.04837179465549423,-0.03710159226267381,-0.09345946579432317,-0.10088716944326157,0.05613895407485267,-0.11257371209579398,-0.11966291960788561,0.1235540855596893
2037,9.865397399989888,0.09148310683423533,0.04706648543769474,-0.01867543603931146,0.059813519239138524,0.04788247556319946,-0.0368286407003251,-0.09399934068715743,-0.10146079042863287,0.05673424537920024,-0.11069505315740513,-0.11749334226745418,0.12263172021470327
2038,9.869586399989204,0.09173960836896312,0.04749833460337702,-0.01882497723345183,0.059357666242845775,0.04739040677262384,-0.03655282116685764,-0.09453011456722471,-0.10202388591740612,0.05732503807660259,-0.1088074846140425,-0.115310334793663,0.12169414916220722
2039,9.874002600001404,0.09213932378565827,0.04799071409585301,-0.019191859648181125,0.05889926850437265,0.04689563935077666,-0.036274155602467405,-0.09505174499032189,-0.10257639152555327,0.05791125882339516,-0.10691126471873501,-0.11311419121334859,0.12074144405719332
2040,9.880900999996811,0.0924776164414999,0.0484228173635263,-0.019426432796950076,0.05843837029966635,0.04639822467357888,-0.035992666301072375,-0.09556419075617421,-0.1031182442952493,0.05849283462846931,-0.10500665221051243,-0.11090520737289225,0.11977367860799588
2041,9.886937199989916,0.09300537386811468,0.04917489354042656,-0.01953337029146771,0.057975016100987355,0.045898214418934574,-0.035708375908578296,-0.09606741191067797,-0.1036493827037193,0.05906969286318184,-0.103093906279396,-0.10868368089325918,0.11879092857588806
2042,9.890731599996798,0.09325700020863413,0.04954987022787231,-0.01958860212802242,0.057509250570924784,0.04539566055975971,-0.035421307421096136,-0.09656136974798042,-0.10416974667186893,0.059641761271261036,-0.10117328653150841,-0.10644991112478613,0.11779327177451639
2043,9.894727499995495,0.09351284096016842,0.04990215430183842,-0.019669251399738446,0.05704111855640188,0.04489061535696932,-0.035131484183111204,-0.09704602681239725,-0.10467927757269659,0.0602089679787085,-0.09924505295430212,-0.10420419910172529,0.11678078806917178
2044,9.89891920000082,0.09378004273616526,0.05025291681065558,-0.01975163752845558,0.05657066508267205,0.04438313135242416,-0.03483892988560408,-0.097521346900168,-0.10517791823948636,0.06077124150369604,-0.09730946588190517,-0.10194684749655296,0.1157535593758953
2045,9.903181299989228,0.09405490663299233,0.05063562230834721,-0.019831822421031493,0.056097935347306255,0.043873261361837806,-0.03454366856412347,-0.09798729506105044,-0.10566561297377973,0.06132851076645743,-0.09536678596058312,-0.0996781605740515,0.11471166966041646
2046,9.907197699998504,0.09426827414852981,0.050992105408474944,-0.0199205298145329,0.0556229747141725,0.04336105846764499,-0.034245724596810974,-0.09844383759975445,-0.10614230755312475,0.061880705099174496,-0.09341727411431629,-0.09739844414517249,0.1136552049369219
2047,9.911356699987664,0.09445488435729085,0.051322189470213025,-0.020023324481629762,0.05514582870740829,0.042846576011832324,-0.03394512270237798,-0.09889094207721569,-0.10660794923860137,0.06242775425585662,-0.0914611915104915,-0.0951080055206894,0.11258425326665257
2048,9.91587040000013,0.09470145726355644,0.05164558519432874,-0.02010433695290937,0.05466654300538672,0.04232986758873268,-0.033641887938034576,-0.09932857731170963,-0.1070624867821223,0.06296958842221295,-0.089498799525707,-0.09280715346464838,0.11149890475632725
2049,9.92069799998717,0.09497591416097656,0.05194739863417177,-0.020158678157440223,0.05418516343467676,0.04181098703778456,-0.03333604569737042,-0.09975671337980632,-0.10750587043350765,0.0635061382255167,-0.08753035971168958,-0.09049619814762472,0.1103992515563903
2050,9.924274799996056,0.09528153957105294,0.05225266326910069,-0.020185549234006013,0.05370173596399859,0.041289988436257266,-0.033027621708187786,-0.10017532161716663,-0.10793805194733265,0.0640373347444605,-0.08555613376132289,-0.08817545109979355,0.10928538785908186
2051,9.929106499999762,0.0955405145232216,0.052531237077238266,-0.020261976875702928,0.05321630669817432,0.040766926091942726,-0.032716642030286784,-0.10058437461918056,-0.10835898458954692,0.06456310951900163,-0.08357638347478526,-0.08584522516382324,0.10815740989632747
2052,9.933595199996487,0.09572682653997808,0.052774509471567525,-0.020316568099830228,0.05272892187207512,0.040241854535814976,-0.03240313305320318,-0.10098384624144842,-0.10876862314386496,0.06508339456019674,-0.08159137072579621,-0.08350583444760033,0.10701541593744401
2053,9.938447699998504,0.09595153504634578,0.05300863002297752,-0.020346835960315994,0.05223962784456545,0.03971482851465826,-0.03208712149389881,-0.10137371160010537,-0.10916692391792668,0.06559812236002494,-0.07960135742796975,-0.08115759427679445,0.105859506286659
2054,9.942812900000716,0.09621881920644566,0.05324293759128865,-0.02039899353115144,0.05174847109244505,0.03918590298366499,-0.03176863439440466,-0.10175394707198968,-0.10955384474922727,0.06610722590119834,-0.07760660550127299,-0.07880082114727194,0.10468978328043949
2055,9.9465169999894,0.09645517616323726,0.05343967921362797,-0.02046061588844729,0.05125549820438929,0.03865513309900442,-0.03144769911941687,-0.10212453029465529,-0.10992934501081528,0.06661063866695906,-0.07560737683858881,-0.07643583267736671,0.10350635128462767
2056,9.951051999989431,0.09667723749873952,0.05364358335083301,-0.020566105697379294,0.05076075587488866,0.0381225742103632,-0.031124343353845698,-0.10248544016622933,-0.11029338561675832,0.06710829465086113,-0.07360393327238118,-0.07406294756001672,0.10230931669137897
2057,9.955466399987928,0.09696428955202523,0.053839394088803255,-0.020634214011168432,0.050264290898188194,0.03758828185345904,-0.030798595100317443,-0.10283665684511475,-0.11064592902737534,0.06760012836653664,-0.07159653654146181,-0.07168248551477442,0.10109878791589987
2058,9.961502899997868,0.09748582842771972,0.05417771596530128,-0.020774885195644452,0.04976615016222765,0.037052311742528286,-0.03047048267662941,-0.10317816174953877,-0.11098693925423425,0.06808607485744482,-0.06958544825785727,-0.06929476723970013,0.09987487539298188
2059,9.966005599999336,0.09776361900877417,0.054345981384083544,-0.020902637791897515,0.049266380642583235,0.03651471976278886,-0.03014003471315816,-0.10350993755694775,-0.11131638186491434,0.06856606970660312,-0.06757092987377539,-0.0669001143631471,0.0986376915733289
2060,9.970188599996618,0.09803408075595335,0.05446550071029601,-0.021037599813081922,0.04876502939641161,0.035975561962879765,-0.029807280150221206,-0.103831968203249,-0.11163422398753249,0.06904004904629892,-0.06555324264866925,-0.06449884939544728,0.09738735091967418
2061,9.974308299992115,0.09833222853943445,0.05464039709211082,-0.0212808940500223,0.04826214355639705,0.035434894547278384,-0.02947224823539213,-0.10414423888189984,-0.11194043431503256,0.06950794956778077,-0.06353264761639828,-0.06209129568050617,0.09612396990268353
2062,9.978472999995574,0.09860784107137179,0.05475778787033828,-0.02143891246000018,0.04775777032470249,0.03489277386869682,-0.029134968520769418,-0.10444673604284366,-0.11223498310923695,0.06996970853092799,-0.061509405552484804,-0.05967777734731562,0.0948476669966411
2063,9.98261249999632,0.09890061892999445,0.05485696286388282,-0.021511827390921903,0.04725195696692532,0.03434925642045838,-0.028795470860199023,-0.10473944739129325,-0.11251784220465971,0.07042526377389792,-0.059483776941465324,-0.057258619261393244,0.09355856267491461
2064,9.986966899989056,0.09918865585079668,0.05494400258272257,-0.021553306586351382,0.046744750806058236,0.033804398828855366,-0.028453785406450872,-0.10502236188636208,-0.1127889850120808,0.07087455372275007,-0.05745602194433531,-0.05483414697615691,0.09225677940519639
2065,9.990760599990608,0.09947554427150254,0.054974704933179776,-0.02161124689713141,0.04623619921645617,0.03325825784548933,-0.028109942608349443,-0.10529546973954347,-0.11304838652188118,0.0713175174010461,-0.055426400366086606,-0.0524046866842432,0.09094244164451668
2066,9.994833999997354,0.09975236146208669,0.05499761819802704,-0.021663530384565408,0.045726349617809796,0.03271089033959505,-0.027763973207858693,-0.10555876241303841,-0.1132960233071381,0.07175409443942452,-0.05339517162333663,-0.04997056516877835,0.08961567583402467
2067,9.99891629999911,0.09995598512979165,0.05499688811423421,-0.02174686318224868,0.045215249469126174,0.03216235329034963,-0.027415908237121332,-0.10581223261793175,-0.11353187352648053,0.07218422508514982,-0.051362594712048286,-0.0475321097546104,0.08827661039353372
2068,10.002977999989524,0.100239222183365,0.055001000014309215,-0.02184422910877863,0.04470294626271761,0.03161270377916773,-0.027065779015452585,-0.1060558743122175,-0.11375591692670346,0.07260785021163438,-0.049328928175340035,-0.04508964825951137,0.08692537571582658
2069,10.00721139999223,0.10051354169899289,0.05500396590193048,-0.02191333069518297,0.044189487518199344,0.03106199898198435,-0.0267136171462886,-0.10628968269867346,-0.11396813484514137,0.0730249113279316,-0.047294430071385264,-0.04264350894535785,0.08556210416071718
2070,10.011520299987753,0.1008209092277423,0.05501016659781462,-0.021984922056646664,0.04367492077649674,0.03051029616152622,-0.026359454514089675,-0.10651365422258602,-0.11416851021180029,0.07343535058819936,-0.04525935794140005,-0.04019402046929893,0.08418693004886506
2071,10.015457199988305,0.10113127097826259,0.05500087858849789,-0.022054605424075512,0.04315929359386273,0.02995765265957311,-0.026003323281198424,-0.10672778656932501,-0.11435702755124871,0.07383911080113194,-0.04322396877771856,-0.03774151183492009,0.08279998965533837
2072,10.019735499998204,0.1014819294217565,0.05501310945342471,-0.022112428032268823,0.04264265353590625,0.02940412588921028,-0.025645255884653075,-0.10693207866176938,-0.11453367298426723,0.07423613543935963,-0.04118851899195545,-0.03528631234341218,0.08140142120292121
2073,10.023833799990824,0.10179368530162747,0.054976758465761874,-0.022173805718505576,0.042125048171632526,0.028849773327073294,-0.025285285032955948,-0.10712653065758378,-0.11469843422925662,0.07462636864881524,-0.03915326438325484,-0.032828751544754196,0.07999136485516126
2074,10.028102199998102,0.10210450494281177,0.054935702128076004,-0.02223987083898499,0.041606525067495854,0.02829465250558653,-0.024923443702797313,-0.10731114394634646,-0.11485130060340448,0.07500975525806625,-0.037118460106625374,-0.030369159188918433,0.07856996270915334
2075,10.032431499988888,0.10241806013650694,0.05487421221697881,-0.022316305490526496,0.041087131781465565,0.0277388210051967,-0.024559765135734872,-0.10748592114652838,-0.11499226302361022,0.07538624078761116,-0.0350843606413612,-0.027907865177106504,0.07713735878805512
2076,10.036211699989508,0.10269093581682576,0.05479969402284518,-0.022381433381772946,0.04056691585710578,0.027182336446602413,-0.024194282834829002,-0.10765086610232398,-0.11512131400716893,0.07575577145913838,-0.03305121975954877,-0.025445199513024545,0.07569369903333063
2077,10.040628599992488,0.10300591442883325,0.054706183884854834,-0.022410495235018583,0.04004592481766976,0.026625256482980923,-0.023827030561234076,-0.1078059838803335,-0.11523844767221385,0.07611829420474586,-0.031019290494659565,-0.022981492254206086,0.07423913129671725
2078,10.045159699991927,0.10329771313809974,0.054619882017978356,-0.022451485363762964,0.03952420616020946,0.026067638792213178,-0.023458042330745946,-0.10795128076609734,-0.11534365973791762,0.07647375667612087,-0.02898882511022864,-0.020517073463391013,0.07277380533191144
2079,10.048892099992372,0.10371618547007978,0.05455300074917946,-0.022750031634251898,0.03900180734970095,0.025509541069108327,-0.023087352410305722,-0.1080867642604829,-0.11543694752445285,0.07682210725367818,-0.026960075068619156,-0.018052273159968962,0.07129787278596873
2080,10.053340999991631,0.10409080495367254,0.05452209909298263,-0.02296844211834031,0.03847877581318648,0.024951021017628923,-0.02271499531445994,-0.10821244307592406,-0.1155183099527121,0.07716329505565572,-0.024933290999872997,-0.015587421271495459,0.06981148719041408
2081,10.057715299990376,0.1044639889419761,0.054447991940961296,-0.023025761167157065,0.03795515893393384,0.024392136343118025,-0.022341005801777336,-0.10832832713251313,-0.11558774754378787,0.07749726994716626,-0.022908722670647842,-0.01312284758528911,0.06831480395205772
2082,10.061923299988848,0.10478463384153275,0.05430563390126452,-0.023009170534255774,0.037431004045613406,0.023832944744529252,-0.02196541887122239,-0.10843442755394528,-0.11564526241821278,0.07782398254920352,-0.02088661895324125,-0.01065888170011805,0.06680798034351226
2083,10.065983199994662,0.10505470875356857,0.05412821793647632,-0.022918227549760556,0.03690635842649374,0.02327350390666101,-0.02158826975848572,-0.10853075666331595,-0.11569085829496031,0.0781433842476015,-0.018867227794702447,-0.008195852977983782,0.0652911754934066
2084,10.069690999996965,0.10538882996862102,0.054012430234158325,-0.02286437091386142,0.036381269293656475,0.022713871492396214,-0.021209593932271488,-0.10861732797877162,-0.11572454049020607,0.07845542720194522,-0.016850796186032656,-0.005734090496010445,0.06376455037629224
2085,10.074330499992357,0.10567788779206867,0.05388575599580729,-0.02282813229020825,0.03585578379723113,0.022154105134948757,-0.0208294270905419,-0.10869415620901379,-0.11574631591584966,0.078760064354431,-0.014837570131475056,-0.0032739229984475073,0.06222826780223749
2086,10.077889799998957,0.10595220559230789,0.05373214451434268,-0.02277615900066372,0.035329949014650655,0.021594262430117955,-0.020447805156718936,-0.10876125724865685,-0.11575619307779761,0.0790572494386752,-0.01282779461789556,-0.0008156788487938318,0.0606824924061049
2087,10.08298369999102,0.10620625526829802,0.05361273175074634,-0.022757356208342745,0.03480381194492833,0.02103440092855216,-0.020064764275843586,-0.10881864817343996,-0.1157541820740083,0.07934693698846955,-0.010821713584255594,0.001640314017949038,0.05912739063650756
2088,10.091550400000417,0.10665931243072947,0.05332832428995197,-0.0226392512717931,0.034277419502956846,0.020474578128022714,-0.019680340810692823,-0.10886634723529352,-0.11574029459229976,0.07962908234648162,-0.0088195698911782,0.004093728142886618,0.057563130744440166
2089,10.095366399997149,0.10686331845650308,0.05319258058132245,-0.022572237122267705,0.033750818513830404,0.019914851465709316,-0.01929457133785454,-0.10890437385726007,-0.11571454390792067,0.07990364167289929,-0.006821605290608936,0.006544236590696557,0.0559898827715803
2090,10.102044899991595,0.10712764219379828,0.05304861947525813,-0.022487913306912737,0.03322405570719043,0.019355278310497905,-0.01890749264376082,-0.10893274862827035,-0.1156769448808858,0.08017057195401758,-0.0048280603955732386,0.008991512996941446,0.054407818538255305
2091,10.107235499992385,0.1075422557806881,0.0527642544376118,-0.022301224392751565,0.032697177711595936,0.018795915955292303,-0.01851914172067987,-0.10895149329777418,-0.11562751395307691,0.08042983101076652,-0.002839174650032114,0.011435231615221869,0.052817111631070564
2092,10.110868499992648,0.1075422557806881,0.0527642544376118,-0.022301224392751565,0.03217023104891914,0.01823682160934074,-0.01812955576266697,-0.10896063077022644,-0.11556626914510998,0.08068137750717815,-0.0008551862988380781,0.013875067364162278,0.051217937390194666
2093,10.115325899998425,0.10795385272504465,0.05251722790877828,-0.022109292893137705,0.031643262128766905,0.017678052390578375,-0.017738772161474663,-0.10896018509942842,-0.11549323005296974,0.08092517095879133,0.0011236676422064905,0.01631069587422232,0.04961047289629736
2094,10.119734499996412,0.10818456598697464,0.05239825459869041,-0.0220072042183199,0.03111631724292881,0.017119665317986962,-0.01734682850242247,-0.10895018148272456,-0.11540841784441243,0.08116117174099235,0.0030971514161862988,0.018741793534326444,0.04799489695713619
2095,10.125199799993425,0.1084538746501331,0.05226821305662566,-0.02192531003457238,0.030589442559852485,0.01656171730397275,-0.01695376256022644,-0.1089306462550543,-0.11531185525513744,0.08138934109728957,0.005065030554802936,0.02116803753830475,0.04637139009378774
2096,10.133275599990156,0.1088654399372526,0.05202977042851016,-0.021800486925095078,0.03006268411914689,0.01600426514676371,-0.016559612294788976,-0.10890160688285931,-0.11520356658472926,0.08160964114752045,0.007027071907994928,0.02358910593113802,0.044740134526519496
2097,10.138475999992806,0.10907170809412935,0.05191216842091986,-0.02175193573746934,0.029536087826114242,0.015447365522827355,-0.01616441584694925,-0.10886309195784573,-0.115083577692371,0.08182203489598944,0.008983043673445294,0.026004677655000183,0.04310131416029816
2098,10.144492199993692,0.10946646147014488,0.05168441399123591,-0.021672362578780087,0.02900969944631126,0.01489107497931035,-0.015768211534194408,-0.1088151311906022,-0.11495191599233053,0.08202648623953485,0.0109327154259737,0.0284144325950914,0.041455114569930146
2099,10.148799199989298,0.1096808108679519,0.051607042702243,-0.021657436344619217,0.02848356460014055,0.014335449926501063,-0.015371037846331993,-0.10875775540407412,-0.1148086104492201,0.08222295997552326,0.012875858146810115,0.030818051625255034,0.03980172298483036
2100,10.153177499989395,0.1099053391926261,0.05150832974297131,-0.02162988753357878,0.0279577287574728,0.013780546630316214,-0.014972933441123885,-0.10869099652689458,-0.11465369157303068,0.08241142180976985,0.014812244252746761,0.0332152166533718,0.038141328273415105
2101,10.15823139999702,0.11010024052227223,0.05138757139138188,-0.021613613263232995,0.027432237232300424,0.0132264212048127,-0.014573937139882203,-0.10861488758657187,-0.11448719141394137,0.08259183836438272,0.016741647625164936,0.03560561066652453,0.03647412092711534
2102,10.161998499999754,0.11038184630732364,0.0513136673855955,-0.021578657592682834,0.026907135177423533,0.01267312960472569,-0.014174087923027413,-0.1085294627025346,-0.11430914355690507,0.08276417718552948,0.01866384363893311,0.03798891777592708,0.034800293044006544
2103,10.169800999996369,0.11091956309366857,0.05116893381129805,-0.02161994467565756,0.02638246757916901,0.0121207276180341,-0.013773424925609087,-0.10843475707903483,-0.11411958311601209,0.08292840675112417,0.020578609191172603,0.040364823261611005,0.03312003831205149
2104,10.173357599996962,0.11091956309366857,0.05116893381129805,-0.02161994467565756,0.0258582792521433,0.011569270858554564,-0.013371987432789643,-0.10833080699790944,-0.1139185467286338,0.08308449647843313,0.022485722729886862,0.04273301361686377,0.0314335519919523
2105,10.177554599998984,0.1111811132118511,0.051104674014676256,-0.021707743946075074,0.025334614834019657,0.011018814758564982,-0.012969814875291447,-0.1082176498112002,-0.11370607254934802,0.0832324167315977,0.024384964282450336,0.04509317659241214,0.029741030899607977
2106,10.181970099991304,0.11170868327592234,0.05098451161668933,-0.021951119845449063,0.02481151878036056,0.010469414561458789,-0.012566946824807712,-0.10809532393363344,-0.11348220024364773,0.08337213882907207,0.026276115483952766,0.04744500124034498,0.028042673388173987
2107,10.186364299996058,0.11195121335978352,0.050913790548372216,-0.022098232748966908,0.024289035359475915,0.009921125314431,-0.0121634229893776,-0.10796386883495948,-0.11324697098143502,0.08350363505097447,0.0281589596053944,0.04978817795776941,0.02633867932972028
2108,10.190517800001544,0.1121370456942847,0.0508424346325896,-0.022316470938006417,0.02376720864731772,0.00937400186119709,-0.01175928320872594,-0.10782332503215233,-0.1130004274303021,0.08362687864635021,0.030033281581727637,0.05212239853019451,0.02462925009648435
2109,10.194798999989873,0.11236842692727202,0.050796791357710265,-0.022503377034928534,0.02324608252241196,0.008828098834745801,-0.011354567449568012,-0.10767373408147077,-0.11274261374860071,0.08374184384034489,0.03189886803974054,0.05444735617463708,0.022914588541716074
2110,10.198852599991367,0.11264183641729647,0.05081087567146001,-0.02278215228549578,0.022725700660828414,0.008283470650126877,-0.010949315800879806,-0.10751513857038178,-0.11247357557830152,0.08384850584128545,0.03375550732577735,0.05676274558244394,0.021194898980110996
2111,10.202973299994484,0.11281415575848003,0.05076671580884377,-0.02301198589520652,0.02220610653118907,0.007740171497274734,-0.010543568469134205,-0.10734758210934717,-0.11219336003764495,0.08394684084766757,0.03560298953329091,0.05906826296182546,0.019470387167829093
2112,10.207522199998492,0.11294082952844732,0.050677723831423556,-0.02317037428729652,0.021687343389715674,0.007198255333869087,-0.010137365773503503,-0.10717110932347375,-0.11190201571358456,0.08403682605504759,0.03744110653022198,0.06136360608009496,0.017741260282096077
2113,10.213365499992506,0.11300523122553227,0.05057875188266957,-0.02327192725410585,0.02116945427531714,0.006657775878233517,-0.009730748141028672,-0.1069857658440281,-0.1115995926540244,0.08411843966283705,0.03926965198619985,0.06364847430560899,0.01600772690038427
2114,10.217429699987406,0.11310407730211339,0.05049424112288193,-0.023393212176739897,0.020652482004717445,0.006118786602273038,-0.00932375610175586,-0.10679159829981666,-0.11128614235985125,0.08419166088099783,0.041088421399559295,0.06592256864940362,0.014269996979170268
2115,10.22600669998792,0.11321221111965592,0.05033550269916552,-0.023707823420586846,0.02013646916762468,0.00558134072445169,-0.008916430283840569,-0.106588654308432,-0.11096171777676347,0.08425646993663538,0.042897212124168284,0.06818559180652153,0.012528281832266733
2116,10.22981579999032,0.11329987943808899,0.05025807544507241,-0.02387608896365289,0.019621458121941892,0.005045491202811181,-0.008508811408619987,-0.1063769824673658,-0.11062637328689832,0.084312848080488,0.04469582339606081,0.07043724819702502,0.010782794108725888
2117,10.233846999995876,0.11328821342774334,0.05013729181728618,-0.024036887302855803,0.01910749098902034,0.004511290728031528,-0.008100940285654022,-0.10615663234498934,-0.11028016470025931,0.08436077759330973,0.04648405635986931,0.07267724400669028,0.00903374777031231
2118,10.23819229999208,0.11333650634117771,0.05002530381487713,-0.02421298913134427,0.01859460964895585,0.003978791716534656,-0.007692857807735553,-0.105927654471402,-0.10992314924594544,0.08440024179214478,0.048261714095050805,0.07490528722737926,0.007281358068542849
2119,10.242543899992596,0.11340723058366393,0.04991681151090005,-0.024358171298575468,0.018082855735929007,0.0034480463036319358,-0.0072846049458703864,-0.10569010032914851,-0.1095553855631842,0.08443122503649114,0.05002860164190085,0.07712108769708441,0.005525841521291472
2120,10.24652519999654,0.1135052831814159,0.049810428784460896,-0.024526054609509115,0.017572270633589866,0.002919106336716598,-0.00687622274422747,-0.105444022343806,-0.10917693369216983,0.08445371273435165,0.05178452602734909,0.07932435713964243,0.0037674158889571224
2121,10.250972299996649,0.11359016156765125,0.049694983228639515,-0.02470164453435418,0.017062895470487748,0.0023920233685019994,-0.006467752315059939,-0.10518947387444129,-0.10878785506470844,0.08446769134817067,0.053529296290530305,0.08151480920411318,0.002006300150192762
2122,10.255323399993358,0.11373236604072422,0.04958301147792858,-0.024882775050477354,0.016554771115546717,0.001866848650306657,-0.006059234833597562,-0.10492650920393957,-0.10838821249467188,0.08447314840065462,0.05526272350812455,0.08369215950381984,0.00024271447719390377
2123,10.261438799992902,0.11388990133574323,0.04933932666727458,-0.025263945405856233,0.016047938173587403,0.001343633125386978,-0.0056507115329111285,-0.10465518352920511,-0.10797807016826276,0.08447007248047395,0.056984620819460166,0.08585612565504672,-0.0015231197894548488
2124,10.266215399999057,0.11402849885894023,0.04923837129604526,-0.025416000945392488,0.015542436980895837,0.0008224274223186124,-0.005242223698749407,-0.10437555295123498,-0.10755749363409159,0.08445845324784472,0.058694803451373116,0.08800642731539046,-0.00329098016637665
2125,10.270751799995196,0.1142164307225186,0.04916115770600032,-0.025551129408414947,0.015038307600839991,0.00030328184842733015,-0.004833812664349248,-0.10408767446506731,-0.10712654979306843,0.08443828143998754,0.060393088742816375,0.09014278622176097,-0.005060643053443862
2126,10.275373500000567,0.1143754250927662,0.049062346854143575,-0.025679033579148844,0.01453558981953466,-0.00021375361672967437,-0.00442551980521947,-0.10379160594960489,-0.10668530688811047,0.08440954887646172,0.06207929616921279,0.09226492622802904,-0.00683188376026517
2127,10.282404799989308,0.1146641267196288,0.04884618568646965,-0.02593344177675172,0.014034323141555326,-0.0007286293278311602,-0.00401738653389912,-0.10348740615731516,-0.10623383449366713,0.08437224846437279,0.06375324736654484,0.09437257334231737,-0.008604476533119236
2128,10.287036299996544,0.11476703781238441,0.048737324703744075,-0.02606163033625411,0.013534546785701684,-0.0012412959802070218,-0.0036094542946907312,-0.10317513470380779,-0.10577220350506425,0.08432637420345065,0.06541476615517437,0.0964654557639318,-0.010378194582335623
2129,10.29498569999123,0.1150569775298466,0.04855580687096158,-0.026459685558896953,0.013036299680811499,-0.0017517046162004077,-0.003201764558369189,-0.10285485205729146,-0.10530048612766886,0.08427192119099594,0.06706367856338513,0.09854330391992956,-0.012152810110123518
2130,10.29948649999278,0.115167794022078,0.04843508171357627,-0.026557306368510683,0.01253962046162544,-0.002259806631475919,-0.002794358816866833,-0.10252661952791144,-0.10481875586587662,0.08420888562669256,0.06869981285064083,0.10060585050132197,-0.01392809433884864
2131,10.303541000001132,0.11522824728292183,0.04829322264472187,-0.026637071332621783,0.012044547464703547,-0.002765553781273042,-0.002387278577935436,-0.1021904992569695,-0.10432708751192384,0.08413726481728447,0.07032299953055178,0.10265283049890862,-0.015703817539758514
2132,10.307174899993695,0.11532369133115805,0.04817964841431703,-0.026712299042113866,0.011551118724393907,-0.0032688981866039893,-0.001980565359785718,-0.10184655420602762,-0.10382555713452572,0.08405705718111428,0.07193307139354244,0.10468398123874073,-0.017479749062156148
2133,10.31126449999283,0.11537174476494234,0.04807998502992673,-0.026819220009057673,0.011059371968854117,-0.0037697923403951306,-0.0015742606857050603,-0.10149484814589686,-0.1033142420673432,0.08396826225252174,0.0735298635292127,0.10669904241721072,-0.019255657363021896
2134,10.315332400001353,0.11540841410131825,0.04796850326650638,-0.02690433412155404,0.010569344616126084,-0.004268189113571217,-0.0011684060786541137,-0.1011354456455131,-0.10279322089728046,0.08387088068609976,0.07511321334838578,0.10869775613576564,-0.021031310037083112
2135,10.31988399999682,0.11548123098747574,0.04787355630136049,-0.026998949045873563,0.01008107377026466,-0.0047640417610816084,-0.0007630430558429787,-0.10076841206070043,-0.1022625734526154,0.08376491426080515,0.07668296060483511,0.1106798669352419,-0.022806473847330998
2136,10.323887199992896,0.11555459048307719,0.047813450547279326,-0.027100307703947897,0.009594596217520703,-0.005257303927867708,-0.0003582131232876716,-0.10039381352282356,-0.1017223807909653,0.08365036588392195,0.07823894741668312,0.11264512182981898,-0.02458091475598378
2137,10.327995899991947,0.11558122921393778,0.04773017352726512,-0.027214844647346623,0.009109948422579107,-0.0057479296547708275,4.604222965241706e-05,-0.10001171692732977,-0.10117272518708947,0.08352723959487479,0.0797810182874636,0.1145932703405907,-0.026354397955895233
2138,10.333169299992733,0.1155648195010242,0.047647924616046416,-0.027344031544003864,0.008627166524852407,-0.006235873384379705,0.0004496815357553444,-0.09962218992218241,-0.10061369012053079,0.08339554056889024,0.08130902012684033,0.11652406452875202,-0.028126687902407438
2139,10.336774799987325,0.11558535463276234,0.047573193193151966,-0.027458929465760305,0.008146286334830501,-0.006721089966816899,0.0008526633554349829,-0.099225300896188,-0.1000453602630979,0.08325527512050437,0.08282280227097476,0.11843725902839991,-0.02989754834564645
2140,10.34293259998958,0.11562443450726435,0.047521763267348985,-0.027539157303793017,0.007667343330487051,-0.007203534665463326,0.0012549462822561844,-0.09882111896721829,-0.09946782146619015,0.08310645070691437,0.08432221650253573,0.12033261107894594,-0.03166674236325928
2141,10.35057969999616,0.11568850838726785,0.04739724821416541,-0.027726888732940616,0.007190372653743086,-0.0076831631626201845,0.0016564889484659818,-0.09840971397032934,-0.09888116074796675,0.08294907593117218,0.08580711707034348,0.12220988055713786,-0.033434032393590316
2142,10.355161599989517,0.11573310897534789,0.04731262172748659,-0.027837845087746782,0.006715409106988379,-0.008159931565107508,0.0020572500305400566,-0.09799115644577903,-0.09828546628036282,0.08278316054521799,0.08727736070864028,0.1240688300086884,-0.035199180269294895
2143,10.36134969998966,0.11581810367564736,0.047133349414218755,-0.02802877455745896,0.0062424871496611165,-0.008633796409798692,0.002457188254743694,-0.09756551762694475,-0.09768082737595421,0.0826087154527514,0.08873280665597984,0.12590922467950974,-0.03696194725138794
2144,10.36955339999986,0.1158799286619793,0.04695115351903114,-0.028155190888149995,0.005771640894886363,-0.009104714669090278,0.002856262402706432,-0.09713286942814336,-0.09706733447467336,0.08242575271193836,0.09017331667372773,0.12773083254655213,-0.038722094063724725
