,time,x,y,z,vx,vy,vz,ax,ay,az,jx,jy,jz
1759,7.150555800006259,0.006005676026010312,-0.012740599418372698,-0.025978464802367766,0.014856740997203485,0.013871268706430042,-0.0022599203872691177,0.08240266665615598,0.06305592721129162,0.0015301477384717388,0.17992845486208364,0.04252523520543078,-0.09406698884985448
1760,7.154129700007616,0.006352519800283967,-0.012769106411545652,-0.025794058327700993,0.01520517322589316,0.014137057102548123,-0.0022542984149788734,0.08315830698189093,0.06323112522790776,0.0011322314329421167,0.17908548890214723,0.040728711837671044,-0.09499403481620443
1761,7.158290100007434,0.006099315315570619,-0.012803790929297818,-0.026076978561374704,0.015556778906856496,0.014403566787312973,-0.0022503594994398237,0.08391034050008458,0.06339872249243189,0.0007304260351053491,0.17821414786454684,0.03891274010149214,-0.0959145768820713
1762,7.162324900011299,0.006057142608989744,-0.012840817546837396,-0.026135105397097895,0.015911542610481708,0.014670765600310233,-0.0022481199555998746,0.08465864778472515,0.06355863773147524,0.00032475925867321136,0.17731444421073306,0.037077565700041906,-0.09682846107048972
1763,7.166362500007381,0.006088569441889491,-0.012879668730369028,-0.02615231548493123,0.01626944840434415,0.014938621041689675,-0.002247595980463509,0.08540310947180864,0.06371079071467582,-8.474053430127749e-05,0.17638639524543126,0.03522343948847692,-0.09773553346387488
1764,7.170520200001192,0.006147802509686372,-0.012918407399855714,-0.02615740106362645,0.0166304798535046,0.015207100276602778,-0.0022488036503616944,0.0861436062798051,0.06385510227626177,-0.0004980443337419442,0.1754300231375595,0.03335061745108728,-0.09863564023084882
1765,7.174685100006172,0.006202166216157642,-0.012969546357652129,-0.026171568761465064,0.016994620020894316,0.015476170139730162,-0.002251758918223253,0.08688001903021055,0.063991494336517,-0.0009151224819810163,0.17444535494019114,0.03145936067713021,-0.09952862765322347
1766,7.179103300004499,0.006235427881603867,-0.013018766137827003,-0.026214669890506904,0.0173618514677873,0.01574579713989848,-0.0022564776108481574,0.08761222866818057,0.06411988992314353,-0.0013359446743047866,0.1734324226095503,0.029549935335366068,-0.10041434215313484
1767,7.183197999998811,0.006265076215373153,-0.013057021309645655,-0.026238872530375254,0.0177321562543601,0.016015947464786358,-0.0022629754261832375,0.08834011628324091,0.06424021319251515,-0.0017604799596140119,0.1723912630230285,0.0276226126472902,-0.10129263032032201
1768,7.187444000010146,0.006319057244971013,-0.013111510803811195,-0.02627269798838921,0.0181055159403395,0.01628658698571895,-0.0022712679306007865,0.08906356313007113,0.06435238945081712,-0.0021886967411996385,0.17132191799621047,0.025677668859054842,-0.10216333893954492
1769,7.19084440000006,0.006319057244971013,-0.013111510803811195,-0.02627269798838921,0.01848191158573834,0.016557681262550618,-0.0022813705561805678,0.08978245064935662,0.06445634517506643,-0.0026205627776344277,0.17022443429889828,0.023715385212075172,-0.10302631501813514
1770,7.194482999999309,0.006319057244971013,-0.013111510803811195,-0.02627269798838921,0.018861323751679746,0.01682919554863514,-0.0022932985979957137,0.09049666048870483,0.06455200803400658,-0.003056045183781026,0.16909886367012394,0.02173604791231415,-0.10388140581367385
1771,7.19949970000016,0.006560881081949541,-0.013218585665540213,-0.02627984403907214,0.01924373250131003,0.017101094795883023,-0.002307067211403012,0.09120607452362157,0.06463930690887144,-0.0034951104319170083,0.16794526283214012,0.01973994809824118,-0.10472845886179002
1772,7.203924600005848,0.006462354138119932,-0.013257361809614641,-0.026365015737252168,0.01962911740080057,0.01737334365990534,-0.0023226914093380725,0.09191057487854266,0.06471817191401288,-0.003937724352977381,0.16676369350337836,0.017727381807459926,-0.10556732200407215
1773,7.207957999999053,0.006473537019650862,-0.013281541661783736,-0.026396386602550895,0.020017457520438854,0.01764590650524333,-0.002340186059615882,0.09261004394791655,0.06478853441738595,-0.004383852137914996,0.16555422241036435,0.015698649942001094,-0.10639784341608707
1774,7.212427900012699,0.006504455782165008,-0.013300504527945213,-0.026394391962839023,0.02040873143580895,0.017918747410683097,-0.002359565882237244,0.09330436441733342,0.064850327060886,-0.004833458339179323,0.16431692129857983,0.013654058232276388,-0.10721987163550001
1775,7.2160489000089,0.006504455782165008,-0.013300504527945213,-0.026394391962839023,0.020802917229061604,0.018191830174654817,-0.002380845446701607,0.09399341928469657,0.06490348378053247,-0.005286506872314009,0.1630518669422608,0.01159391719969018,-0.10803325559028906
1776,7.219585300001199,0.006504455782165008,-0.013300504527945213,-0.026394391962839023,0.02119999249027407,0.01846511832071572,-0.0024040391693267815,0.09467709188143165,0.06494793982649358,-0.00574296101767361,0.1617591411531234,0.009518542117905853,-0.10883784462704728
1777,7.223038299998734,0.006504455782165008,-0.013300504527945213,-0.026394391962839023,0.02159993431889984,0.018738575103116155,-0.0024291613105760336,0.09535526589372918,0.06498363178294636,-0.006202783422259836,0.1604388307880085,0.007428252972764174,-0.10963348853936566
1778,7.226739600009751,0.00699124463016478,-0.013333199649833217,-0.026091986466506827,0.022002719325308315,0.019012163512448096,-0.002456225972393071,0.09602782538381524,0.06501049758776652,-0.00666593610167762,0.15909102775543532,0.0053233744208514375,-0.11042003759629059
1779,7.230742400002782,0.006707731518600518,-0.01342149134243652,-0.02637663823336845,0.02240832363241469,0.019285846281375484,-0.0024852470955454187,0.09669465481124538,0.06502847655204234,-0.007132380442211306,0.1577158290210555,0.003204235746715566,-0.1111973425708486
1780,7.234235700001591,0.006659606514378667,-0.013472580378053907,-0.02640367735709784,0.022816722877400122,0.01955958589044563,-0.002516238456976693,0.09735563905421685,0.06503750937940744,-0.007602077203021206,0.15631333661199762,0.001071170818728738,-0.11196525476863158
1781,7.237514600012219,0.006689218113411281,-0.013530641092489627,-0.026415952416945523,0.023227892213522304,0.019833344573980966,-0.0025492136671682814,0.0980106634308944,0.06503753818518718,-0.00807498651846073,0.15488365762009426,-0.0010754819564044312,-0.11272362605643628
1782,7.240933799999766,0.006689218113411281,-0.013530641092489627,-0.026415952416945523,0.023641806312016483,0.02010708432605038,-0.0025841861675109483,0.09865961372074543,0.06502850651535319,-0.008551067900514298,0.1534269042039842,-0.0032353796804937066,-0.1134723088909508
1783,7.244274900003802,0.006689218113411281,-0.013530641092489627,-0.026415952416945523,0.024058439364086977,0.02038076690651927,-0.002621169227686882,0.0993023761858793,0.06501035936528024,-0.009030280241356213,0.15194319359008224,-0.005408175012065152,-0.11421115634748048
1784,7.247785700004897,0.0071768609692275855,-0.013601317814917092,-0.026124944493909272,0.02447776508298923,0.02065435384717745,-0.002660175943062691,0.0999388375923864,0.0649830431982994,-0.009512581816030697,0.15043264807240952,-0.0075935162159178286,-0.11494002214870676
1785,7.251761000006809,0.00688707291668527,-0.013683260774973246,-0.02639541433453336,0.02489975670620234,0.020927806457943912,-0.00270121923209386,0.10056888523167241,0.0649465059640423,-0.009997930285253169,0.14889539501127677,-0.009791047214034468,-0.11565876069347115
1786,7.255260200006887,0.006812758818334615,-0.013750144992888274,-0.0264625571296399,0.025324386997691975,0.0212010858331476,-0.0027443118337411912,0.10119240694178315,0.06490069711657098,-0.010486282698332912,0.14733156683081391,-0.012000407637844887,-0.11636722708557798
1787,7.258599799999502,0.006812758818334615,-0.013750144992888274,-0.0264625571296399,0.02575162825026361,0.021474152857883122,-0.002789466304899754,0.10180929112871515,0.06484556763228719,-0.010977595496217163,0.1457413010153395,-0.014221232881840443,-0.1170652771626082
1788,7.262566500008688,0.007294835119541855,-0.013823893245544954,-0.0261702648489618,0.026181452288006096,0.021746968214440377,-0.0028366950178408566,0.1024194267877069,0.06478107002761636,-0.011471824514656632,0.14412474010456391,-0.016453154158537337,-0.1177527675247375
1789,7.266868999999133,0.006981999114736556,-0.01385280927356479,-0.02646751134613219,0.026613830468825428,0.02201949238880705,-0.002886010157667574,0.10302270352450676,0.06470715837646045,-0.011968924987492418,0.14248203168761997,-0.018695798554786116,-0.11842955556355156
1790,7.270747400005348,0.006882478229792991,-0.01391577142228738,-0.02655208672474053,0.02704873368706849,0.02229168567724304,-0.0029374237197843512,0.10361901157661267,0.06462378832741418,-0.012468851550064226,0.14081332839591618,-0.020948789089424193,-0.11909549949085099
1791,7.274907800005167,0.006890402417033826,-0.013971036530246408,-0.026590828748940486,0.027486132376236597,0.022563508192925897,-0.0029909475073812003,0.1042082418344791,0.06453091712073927,-0.012971558242739819,0.1391187878948072,-0.023211744772267787,-0.11975045836743813
1792,7.279309300007299,0.006915571341109605,-0.014004704927584214,-0.026597979623478873,0.0279259965117887,0.022834919872666205,-0.0030465931289330177,0.10479028586268688,0.06442850360509093,-0.013476998514565592,0.13739857287407753,-0.025484280664439172,-0.12039429213187842
1793,7.283427300004405,0.006935008742340192,-0.01404411578391118,-0.026612972239554594,0.028368295614034214,0.02310588048369197,-0.003104371995714537,0.10536503592107041,0.06431650825399095,-0.013985125227038136,0.1356528510372342,-0.02776600794002461,-0.12102686162922842
1794,7.28751110000303,0.006950499556272041,-0.014092996557369626,-0.026627201775967044,0.028812998751115294,0.023376349630500972,-0.003164295319331438,0.10593238498579778,0.06419489318204141,-0.014495890657996632,0.13388179508960465,-0.030056533949057863,-0.12164802863972236
1795,7.291536200005794,0.006975372473417281,-0.014145617997257307,-0.026636420271611873,0.02926007454207841,0.02364628676178009,-0.0032263741092681307,0.10649222677039819,0.0640636221608734,-0.015009246505636013,0.13208558272523668,-0.03235546228182363,-0.12225765590740988
1796,7.294930100004421,0.006975372473417281,-0.014145617997257307,-0.026636420271611873,0.029709491160034875,0.023915651177390432,-0.003290619170452738,0.10704445574673191,0.06392266063482524,-0.01552514389264069,0.1302643966125978,-0.034662392834474774,-0.12285560716873686
1797,7.298348600001191,0.006975372473417281,-0.014145617997257307,-0.026636420271611873,0.030161216335409878,0.02418440203541709,-0.0033570411008398047,0.1075889671658983,0.06377197573634542,-0.016043533370438668,0.12841842437907072,-0.03697692187595689,-0.12344174718106199
1798,7.302909500009264,0.007317097995402252,-0.014257303001505283,-0.026417775388496993,0.030615217359279683,0.024452498359282378,-0.0034256502890112357,0.10812565707907683,0.06361153630111427,-0.016564364923575763,0.12654785859424164,-0.039298642116233004,-0.12401594175110157
1799,7.30694080000103,0.007123369490886611,-0.014344741262953058,-0.02669620348500128,0.03107146108679675,0.02471989904492148,-0.003496456911795993,0.1086544223582962,0.06344131288287912,-0.017087587974209683,0.12465289675197842,-0.04162714277580106,-0.12457805776329492
1800,7.310457400002633,0.007123369490886611,-0.014344741262953058,-0.02669620348500128,0.03152991394070242,0.024986562868019372,-0.003569470931909064,0.10917516071712664,0.06326127776799786,-0.017613151386723567,0.12273374125129677,-0.043962009656496145,-0.12512796320808262
1801,7.314239800005453,0.007439942608993928,-0.014485516730054122,-0.02647842898053811,0.03199054191492672,0.025252448491307786,-0.003644702095610209,0.1096877707312903,0.06307140498968601,-0.018141003472458655,0.12079059937601234,-0.04630282521356878,-0.12566552721008994
1802,7.3176494000072125,0.007439942608993928,-0.014485516730054122,-0.02647842898053811,0.03245331057827502,0.025517514471920997,-0.0037221599303829843,0.11019215185918423,0.062871670341962,-0.018671091994565646,0.11882368327317663,-0.04864916862903056,-0.12619062005620807
1803,7.320943900005659,0.0075130840583870215,-0.014648075366881933,-0.026549431659586394,0.032918185078201045,0.02578171926880924,-0.0038018537426345238,0.11068820446231088,0.06266205139328566,-0.01920336417297429,0.11683320993029547,-0.051000615886257636,-0.12670311322356462
1804,7.325197800004389,0.007190800753293709,-0.014734197045089053,-0.026853171519865243,0.03338513014466588,0.026045021250208505,-0.003883792615416593,0.11117582982561056,0.06244252749988424,-0.019737766689480702,0.11481940115133017,-0.0533567398458421,-0.1272028794073766
1805,7.329326200007927,0.007176806650143255,-0.014788821184408569,-0.02689243808690192,0.03385411009408239,0.02630737870116552,-0.003967985406168412,0.1116549301776904,0.062213079818760474,-0.02027424569295182,0.11278248353148024,-0.055717110322680626,-0.12768979254867804
1806,7.333434600004693,0.00721781789188102,-0.014823175345604019,-0.026900673093559258,0.03432508883334489,0.026568749831116723,-0.004054440744481737,0.11212540871094503,0.06197369132037768,-0.02081274680464649,0.11072268843074849,-0.05808129416428895,-0.12816372786191396
1807,7.337626400010777,0.007226720227328887,-0.01486675944257303,-0.026919107848094453,0.03479802986394351,0.02682909278151998,-0.004143167029888732,0.11258716960156323,0.061724346801016516,-0.021353215123652514,0.10864025194628897,-0.0604488553303304,-0.12862456186239288
1808,7.341571900004055,0.007233294027752482,-0.014902636548525658,-0.02694094887530929,0.035272896286162654,0.027088365633537642,-0.004234172429673107,0.1130401180294157,0.061465032894798315,-0.02189559523243908,0.10653541488353838,-0.06281935497334583,-0.12907217239359056
1809,7.3456986000092,0.00724065700430147,-0.014945541591859696,-0.02696176034085442,0.035749650803363085,0.027346526415769547,-0.004327464876705016,0.11348416019781889,0.06119573808537019,-0.022439831202523727,0.1044084227261317,-0.06519235152067214,-0.12950643865429767
1810,7.349834799999371,0.007258084207087817,-0.01501075505772212,-0.02701803682546615,0.03622825572634681,0.02760353311203469,-0.004423052067300221,0.11391920335316935,0.06091645271724691,-0.0229858666002531,0.10225952560460354,-0.06756740075753596,-0.12992724122560406
1811,7.354082200006815,0.007262278902868171,-0.015056727536845801,-0.027035166166037378,0.03670867297780452,0.027859343669200256,-0.004520941459103979,0.11434515580444286,0.06062716900680439,-0.023533644492696692,0.1000889782638774,-0.06994405591130855,-0.1303344620977117
1812,7.358294600009685,0.007272127437584503,-0.015108004658497775,-0.027058228093287215,0.03719086409684517,0.028113916005056673,-0.0046211402690001435,0.11476192694255286,0.06032788105292004,-0.02408310745365284,0.0978970400295455,-0.07232186773690745,-0.13072798469656813
1813,7.362454600006458,0.007278899318532475,-0.015159945368704447,-0.027071029438383225,0.03767479024360679,0.028367208016237256,-0.004723655471045918,0.11516942725956271,0.060018584847254586,-0.024634197569766106,0.09568397477294173,-0.07470038460333057,-0.13110769391031266
1814,7.36670640000375,0.007285291531800225,-0.015209704001710303,-0.027087448340858213,0.038160412203948016,0.02861917758618085,-0.004828493794432736,0.11556756836774695,0.059699278284170536,-0.025186856446755078,0.09345005087501111,-0.07707915258130695,-0.13147347611552768
1815,7.37090690000332,0.007294784221309703,-0.015252212554246884,-0.02711191667970189,0.03864769039421934,0.028869782593135954,-0.00493566172147375,0.11595626301849614,0.0593699611702828,-0.025741025215749665,0.09119554118897934,-0.07945771553204851,-0.13182521920328677
1816,7.375002700006007,0.007314364016466348,-0.01530011042993402,-0.027128419167745856,0.03913658486611318,0.029118980918204862,-0.00504516548561834,0.11633542512106086,0.05903063523363681,-0.026296644539737075,0.08892072300182653,-0.08183561519708701,-0.13216281260499105
1817,7.379159800009802,0.007327337117810872,-0.015334163522423366,-0.027147356445814414,0.03962705531159188,0.02936673045342643,-0.005157011069494087,0.11670496976112962,0.05868130413250985,-0.02685365462011551,0.08662587799456958,-0.08421239128917873,-0.13248614731798558
1818,7.3831802000058815,0.00733373105039921,-0.015350555653921882,-0.02716236625975088,0.04011906106789278,0.029612989109895932,-0.005271204202976632,0.11706481321923531,0.05832197346383118,-0.027411995203354605,0.08431129220135787,-0.08658758158425992,-0.13279511593094873
1819,7.38768890000938,0.007357695071912255,-0.01538492754414963,-0.027189833134644726,0.040612561122609706,0.02985771482592044,-0.005387750361287878,0.11741487298898531,0.05795265077121659,-0.027971605587761617,0.08197725596738792,-0.08896072201443453,-0.13308961264904598
1820,7.391029100006563,0.007357695071912255,-0.01538492754414963,-0.027189833134644726,0.04110751411885012,0.030100865575208226,-0.005506654763122987,0.117755067795111,0.05757334555261284,-0.028532424630352247,0.07962406390564235,-0.09133134676197627,-0.13336953331884055
1821,7.395183900007396,0.007749562422825599,-0.015459930457544147,-0.026929261601130704,0.041603878360467236,0.03034239937509056,-0.005627922368806595,0.11808531761133187,0.05718406926754786,-0.029094390753825274,0.07725201485245926,-0.09369898835432525,-0.13363477545295285
1822,7.39943299999868,0.007463813084474314,-0.015380626003030052,-0.02722368485661882,0.042101611817366096,0.030582274294774073,-0.005751557878478701,0.11840554367803001,0.05678483534398241,-0.02965744195364002,0.07486141182193848,-0.09606317776006024,-0.13388523825446086
1823,7.402832100007799,0.007463813084474314,-0.015380626003030052,-0.02722368485661882,0.042600672130882915,0.030820448463621898,-0.005877565730310658,0.11871566851973002,0.05637565918475914,-0.030221515805195564,0.07245256195919139,-0.09842344448582617,-0.13412082264103334
1824,7.406187400003546,0.007463813084474314,-0.015380626003030052,-0.02722368485661882,0.043101016619236654,0.03105688007946203,-0.006005950098751687,0.1190156159623792,0.05595655817364527,-0.030786549471110432,0.07002577649244165,-0.10077931667419635,-0.13434143126878823
1825,7.410149300005287,0.00779448099580768,-0.015432773522786577,-0.02701689959248459,0.04360260228305191,0.03129152741692134,-0.006136714892806327,0.1193053111504232,0.05552755168096468,-0.031352479708601645,0.06758137068398382,-0.10313032120244867,-0.1345469685558693
1826,7.413531300000613,0.007541983929013219,-0.015353929546948726,-0.027306010837717953,0.044105385810952316,0.03152434883578352,-0.006269863754343203,0.11958468056367223,0.05508866106881554,-0.03191924287696175,0.065119663780008,-0.10547598378223498,-0.13473734070573362
1827,7.417114399999264,0.007521388970799704,-0.015355207998685418,-0.027360493819500138,0.04460932358522359,0.03175530278936921,-0.006405400056435533,0.11985365203395307,0.05463990969586955,-0.0324867749451327,0.06264097895929868,-0.10781582906012221,-0.13491245573014157
1828,7.420973400003277,0.007570796253980008,-0.01535746819802902,-0.027391553977466312,0.04511437168754526,0.03198434783293647,-0.006543326901733736,0.1201121547615424,0.054181322921749285,-0.033055011499375106,0.06014564328081627,-0.1101493807189831,-0.13507222347184172
1829,7.424902800004929,0.00762315246605875,-0.015346473051840266,-0.02741089893360501,0.04562048590479005,0.03221144263209997,-0.006683647120870521,0.12036011933137719,0.05371292811098,-0.03362388775103172,0.05763398763017052,-0.11247616158021365,-0.13521655562694368
1830,7.429003600002034,0.007689978301151576,-0.015347694804406493,-0.027475909707434944,0.046127621734890156,0.03243654597126702,-0.006826363270898854,0.12059747772903757,0.05323475463651261,-0.03419333854438375,0.05510634666499508,-0.11479569370675327,-0.13534536576697134
1831,7.432418299998972,0.007689978301151576,-0.015347694804406493,-0.027475909707434944,0.04663573439276926,0.032659616762088756,-0.006971477633763206,0.1208241633564979,0.052746833882814294,-0.03476329836459869,0.05256305875923271,-0.1171074985068835,-0.13545856936058936
1832,7.436146799998823,0.007689978301151576,-0.015347694804406493,-0.027475909707434944,0.04714477881633958,0.03288061405192433,-0.007118992214804501,0.12104011104764167,0.05224919924852325,-0.03533370134576818,0.05000446594634124,-0.11941109683878054,-0.13555608379499517
1833,7.439511500007939,0.008206922158658616,-0.01538627868530047,-0.02716768980111459,0.04765470967256263,0.03309949703231635,-0.007268908741299122,0.12124525708353596,0.0517418861486641,-0.035904481279034596,0.0474309138614307,-0.12170600911579747,-0.1356378283969685
1834,7.443608000001404,0.007989626181656995,-0.015292923515247381,-0.027510852744581985,0.04816548136357286,0.03331622504747567,-0.00742122866103237,0.12143953920746046,0.05122493201642085,-0.036475571620804836,0.044842751682342384,-0.1239917554124508,-0.13570372445357165
1835,7.4476530000101775,0.007973485199504696,-0.015270573160467373,-0.027601591915242415,0.04867704803286336,0.0335307576027735,-0.007575953140906695,0.12162289663968667,0.05069837630446425,-0.037046905501049845,0.04224033206968116,-0.1262678555710867,-0.13575369523249337
1836,7.451189200000954,0.007973485199504696,-0.015270573160467373,-0.027601591915242415,0.049189363571532474,0.03374305437323908,-0.007733083065585037,0.1217952700920025,0.05016226048583084,-0.0376184157316884,0.03962401110581286,-0.12853382930920057,-0.1357876660020292
1837,7.4547467000084,0.008480429835324502,-0.01528987418963461,-0.027332439938806075,0.049702381624590584,0.03395307521206091,-0.0078926190361696,0.1219566017819782,0.04961662805435095,-0.038190034815053515,0.03699414823283889,-0.1307891963273829,-0.13580556405069175
1838,7.458249900009832,0.008338888506735214,-0.01505438006267103,-0.027701988632864504,0.050216055597325775,0.034160780159089625,-0.008054561368916404,0.12210683544696901,0.049061524524622944,-0.038761694952439946,0.03435110618956077,-0.1330334764178641,-0.13580731870644303
1839,7.4616826999990735,0.008338888506735214,-0.01505438006267103,-0.027701988632864504,0.05073033866172701,0.03436612944934022,-0.008218910093985949,0.12224591635784948,0.04849699743153102,-0.0393333280527311,0.03169525094744728,-0.13526618957363082,-0.13579286135554208
1840,7.465000500000315,0.008338888506735214,-0.01505438006267103,-0.027701988632864504,0.05124518376296377,0.034569083521491545,-0.008385664954230265,0.12237379133247625,0.04792309632930395,-0.039904865741103634,0.029026951645617544,-0.1374868560980855,-0.1357621254610014
1841,7.469160900000133,0.00874787711470463,-0.014978413112445967,-0.02754637754822778,0.05176054362592072,0.03476960302638105,-0.008554825404016654,0.12249040874887518,0.047339872790112376,-0.04047623936780798,0.02634658052485349,-0.13969499671522073,-0.13571504658064562
1842,7.472892200006754,0.008688676984713001,-0.014786111555394119,-0.027902210622392114,0.05227637076178654,0.034967648835492963,-0.00872639060808845,0.12259571855814846,0.04674738040220242,-0.04104738001702311,0.023654512860656063,-0.14189013268027953,-0.1356515623847659
1843,7.476886900010868,0.00874632135180203,-0.014705794830458627,-0.0279796016997498,0.05279261747469535,0.03516318204943808,-0.008900359440463197,0.12268967229709798,0.04614567476756371,-0.041618218515783977,0.020951126895359495,-0.14407178589087244,-0.13557161267336337
1844,7.481272600009106,0.00892699671154865,-0.01463558163710482,-0.02798738937929716,0.053309235868419465,0.035356164006423114,-0.009076730483368496,0.12277222310056145,0.04553481349912967,-0.04218868544297971,0.018236803769318192,-0.14623947899852296,-0.13547513939297665
1845,7.485321200001636,0.009080913065111374,-0.014556238450032444,-0.028005238742475933,0.05382617785311221,0.035546556290707486,-0.009255502026215818,0.12284332571345748,0.04491485621750813,-0.04275871113842082,0.015511927451181377,-0.14839273552061205,-0.13536208665308588
1846,7.4891848000115715,0.009237656137581731,-0.014485313564344314,-0.028068067685929548,0.054343395152099655,0.03573432074104536,-0.009436672064612584,0.12290293650253552,0.044285864547240573,-0.04332822571197339,0.012776884667270803,-0.15053107995269122,-0.13523240074208787
1847,7.493207400009851,0.009401296843086934,-0.014385941535780726,-0.028091488311047515,0.05486083930872011,0.03591941945911091,-0.009620238299412808,0.12295101346782741,0.04364790211258823,-0.04389715905275861,0.010032064830077167,-0.15265403788113344,-0.13508603014283566
1848,7.49996739999915,0.009759138813632749,-0.01421631960147089,-0.028175915737131598,0.055378461693210194,0.03610181481790478,-0.009806198135806602,0.12298751625379722,0.04300103453284367,-0.044465440838415915,0.007277859965891192,-0.1547611360960914,-0.13492292554773597
1849,7.50336740000057,0.009759138813632749,-0.01421631960147089,-0.028175915737131598,0.055896213509636396,0.036281469470139674,-0.009994548682448874,0.12301240616018531,0.04234532941716647,-0.045033000544427985,0.004514664641585602,-0.15685190270473304,-0.13474303987339734
1850,7.506765300000552,0.009759138813632749,-0.01421631960147089,-0.028175915737131598,0.05641404580287043,0.03645834635660278,-0.010185286750627501,0.12302564615254348,0.041680856358942,-0.0455997674535059,0.0017428758905646362,-0.15892586724472343,-0.13454632827482388
1851,7.510154900010093,0.009759138813632749,-0.01421631960147089,-0.028175915737131598,0.05693190946560735,0.03663240871449299,-0.01037840885347124,0.12302720087245766,0.04100768692966205,-0.046165670665032285,-0.0010371068621018661,-0.16098256079792142,-0.13433274815914897
1852,7.5143150000076275,0.010316155722971338,-0.014208704120627032,-0.027910752914068058,0.057449755245424845,0.036803620085730994,-0.01057391120519764,0.12301703664745516,0.04032589467232637,-0.04673063910456047,-0.0038248818753425337,-0.1630215161042584,-0.13410225919890276
1853,7.518413800004055,0.010550464044473032,-0.013853052078220136,-0.028327875537374866,0.05796753375188268,0.036971944325240334,-0.010771789720401256,0.12299512150059273,0.039635555094364415,-0.0472946015333676,-0.006620045168529096,-0.16504226767576824,-0.1338548233448081
1854,7.521749899999122,0.010550464044473032,-0.013853052078220136,-0.028327875537374866,0.058485195463660926,0.03713734560919767,-0.010972040013382398,0.12296142515972297,0.038936745660076405,-0.04785748655805981,-0.009422190598683673,-0.16704435191073638,-0.13359040483809959
1855,7.525227300007828,0.011056882766628792,-0.01378379937669022,-0.028114018364367138,0.05900269073573593,0.037299788443250194,-0.0111746573975166,0.12291591906643577,0.03822954578259312,-0.04841922264022734,-0.012230909938430512,-0.16902730720793535,-0.13330897022236082
1856,7.529064400005154,0.011158491243435435,-0.013407128339163066,-0.02842463206575026,0.05951996980659295,0.037459237670698274,-0.01137963688466499,0.12285857638467297,0.037514036815353945,-0.048979738106147634,-0.015045792954673669,-0.17099067408091284,-0.1330104883548767
1857,7.533231500012334,0.011324231310384231,-0.013306023364899725,-0.028464454737089865,0.06003698280547402,0.037615658480641315,-0.011586973184625775,0.12278937200901308,0.0367903020431026,-0.049538961156534334,-0.017866427487981867,-0.1729339952722995,-0.13269493041749394
1858,7.537487800000235,0.011559754098447202,-0.01319664227971427,-0.028494279372760986,0.06055367975965935,0.03776901641608519,-0.01179666070462703,0.1227082825726236,0.0360584266724005,-0.050096819876329926,-0.020692399532661474,-0.1748568158681035,-0.1323622699269848
1859,7.541565800012904,0.011796977504180283,-0.013103104512171585,-0.02854641137710919,0.06107001060178062,0.0379192773820092,-0.012008693548861013,0.12261528645487904,0.03531849782165772,-0.050653242244539896,-0.02352329331749827,-0.1767586834119589,-0.13201248274490893
1860,7.545983400006662,0.012049365120471153,-0.01299062859767169,-0.0285959984929722,0.06158592517716443,0.038066407653390755,-0.012223065518060119,0.12251036378864144,0.03457060451068156,-0.05120815614410621,-0.026358691387148407,-0.17863914801929434,-0.131645547086969
1861,7.549397800001316,0.012049365120471153,-0.01299062859767169,-0.0285959984929722,0.06210137325120462,0.03821037388318579,-0.012439770109114649,0.1223934964672007,0.03381483764974311,-0.051761489371817904,-0.02919817468415862,-0.18049776249138844,-0.13126144353185548
1862,7.553821500012418,0.012636067155246202,-0.012908250462917265,-0.028369894831476963,0.06261630451676237,0.03835114311026304,-0.01265880051473251,0.12226466815087209,0.033051290028162476,-0.05231316964825662,-0.03204132263159559,-0.18233408242927843,-0.13086015502957668
1863,7.557262900008936,0.012636067155246202,-0.012908250462917265,-0.028369894831476963,0.0631306686015924,0.03848868276729013,-0.012880149623141032,0.12212386427324774,0.03228005630241319,-0.052863124627774795,-0.03488771321626412,-0.1841476663474877,-0.13044166690927042
1864,7.560563700011698,0.012636067155246202,-0.012908250462917265,-0.028369894831476963,0.06364441507579385,0.038622960688569304,-0.013103810017831098,0.12197107204709905,0.03150123298374635,-0.05341128190850448,-0.03773692307249341,-0.18593807578753851,-0.13000596688649363
1865,7.563867900011246,0.012636067155246202,-0.012908250462917265,-0.028369894831476963,0.06415749345928443,0.038753945117820855,-0.013329773977343768,0.12180628046992667,0.030714918425335403,-0.0539575690423946,-0.04058852756647048,-0.18770487543121606,-0.12955304506998508
1866,7.567224700003862,0.013084891384495305,-0.012729377611956149,-0.028431694725580034,0.06466985322929662,0.03888160471591221,-0.013558033475099608,0.121629480329156,0.029921212808942724,-0.05450191354527423,-0.04344210088109926,-0.18944763321354877,-0.12908289396789685
1867,7.570804700008011,0.013084891384495305,-0.012729377611956149,-0.028431694725580034,0.06518144382789487,0.0390059085685309,-0.013788580179270782,0.12144066420697568,0.02912021813110914,-0.05504424290693985,-0.04629721610136401,-0.1911659204354706,-0.12859550849349158
1868,7.575000100012403,0.013927268516581577,-0.012309359232515754,-0.02846483359332102,0.06569221466951171,0.039126826193799626,-0.01402140545269597,0.12123982648481677,0.02831203818886768,-0.05558448460126425,-0.049153445300175395,-0.19285931187613012,-0.12809088597030166
1869,7.5792330000113,0.014029774248425208,-0.011918579562463947,-0.028798955310975205,0.06620211514850198,0.03924432754983146,-0.014256500352838168,0.1210269633474701,0.02749677856498306,-0.05612256609632497,-0.052010359624677475,-0.1945273859048117,-0.12756902613674767
1870,7.583235900005093,0.014223473349158203,-0.011833672380985434,-0.028879684092691434,0.06671109464671338,0.03935838304222312,-0.014493855631785513,0.12080207278683956,0.02667454661271851,-0.05665841486455016,-0.05486752938299367,-0.1961697245924344,-0.12702993115021333
1871,7.587349000008544,0.014439606394219238,-0.011703761325203576,-0.028899785469046452,0.06721910254107213,0.039468963531484276,-0.014733461736295082,0.12056515460532977,0.025845451440131593,-0.05719195839287949,-0.057724524131389544,-0.19778591382259486,-0.12647360559057355
1872,7.591378900004202,0.01469692080825525,-0.011527756720128514,-0.028844453656263817,0.06772608821118208,0.03957604034040083,-0.014975308807879726,0.12031621041886664,0.025009603893900754,-0.05772312419293788,-0.06058091276182999,-0.19937554340211963,-0.12590005646317273
1873,7.59548290001112,0.014941508852213481,-0.0113719329972595,-0.028883404210219246,0.06823200104693523,0.0396795852613301,-0.015219386682937984,0.1200552436595497,0.024167116542684525,-0.05825183981121969,-0.0634362635899083,-0.2009382071710928,-0.12530929320125067
1874,7.599745800005621,0.015215549426665314,-0.011210177393850655,-0.028866469770051126,0.0687367904561325,0.039779570563426,-0.015465684892927196,0.11978225957793405,0.023318103660015483,-0.058778032839281014,-0.06629014444312444,-0.2024735031123237,-0.12470132766781347
1875,7.604190400001244,0.015464949191339509,-0.011064159447159405,-0.028926405846706534,0.06924040587211301,0.039875968999792254,-0.01571419266457988,0.11949726524494063,0.022462681206731207,-0.059301630923938024,-0.06914212274948948,-0.20398103346022078,-0.12407617415694737
1876,7.608447300008265,0.0157326470945114,-0.01092053762461157,-0.028924449599970644,0.0697427967613906,0.039968753814561435,-0.015964898920163312,0.11920026955339282,0.021600966812944735,-0.05982256177746884,-0.07199176562643346,-0.20546040480903738,-0.12343384939457314
1877,7.612451300010434,0.015973378718881503,-0.010771988729556188,-0.028941483316274056,0.070243912631296,0.040057898749897985,-0.01621779227778235,0.11889128321917758,0.020733079759557217,-0.06034075318781709,-0.07483863996999353,-0.2069112282204564,-0.12277437253863922
1878,7.616657100006705,0.016201554879239133,-0.010624968101501956,-0.02896146639566134,0.07074370303762333,0.04014337805292304,-0.016472861051725456,0.11857031878202937,0.019859140959315572,-0.060856133028794966,-0.07768231254425907,-0.20833311933047877,-0.12209776517875205
1879,7.620860100010759,0.016459400402103377,-0.010460417360961793,-0.028947545218404595,0.07124211759227969,0.04022516648255921,-0.016730093252853986,0.1182373906059353,0.018979272937418017,-0.061368629270283435,-0.08052235007104971,-0.20972569845558053,-0.12140405133524182
1880,7.624907500008703,0.016727435530726847,-0.010300899448506685,-0.028942504719716555,0.07173910597093663,0.04030323931629361,-0.01698947658903456,0.11789251487916122,0.018093599811670493,-0.061878169988427566,-0.08335831931980248,-0.21108859069810476,-0.12069325745766238
1881,7.629157800009125,0.016992876803902494,-0.01013575755268938,-0.028908183328601456,0.0722346179206819,0.04037757235685726,-0.017250998465614488,0.11753570961389709,0.017202247272197154,-0.062384683375824444,-0.08618978719764413,-0.21242142605085412,-0.119965412422724
1882,7.633358899998711,0.01723011225405259,-0.00999484735758943,-0.02889229100943978,0.07272860326767024,0.040448141938818655,-0.017514645985940172,0.11716699464552068,0.016305342560708223,-0.06288809775170141,-0.0890163208396249,-0.2137238395008517,-0.11922054753165838
1883,7.6375143000041135,0.017527171427836274,-0.009802876718309305,-0.02887971019047705,0.07322101192477193,0.04051492493508961,-0.017780405951918436,0.1167863916314794,0.015403014449328694,-0.06338834157208226,-0.09183748769908961,-0.21499547113223633,-0.11845869650701506
1884,7.64091320001171,0.017527171427836274,-0.009802876718309305,-0.02887971019047705,0.07371179389921766,0.040577898763341606,-0.01804826486462069,0.11639392404978945,0.014495393218991548,-0.06388534343993871,-0.09465285563816225,-0.21623596622825939,-0.1176798954888885
1885,7.644406800012803,0.017527171427836274,-0.009802876718309305,-0.02887971019047705,0.07420089930023785,0.040637041392330764,-0.018318208924929878,0.11598961719715187,0.013582610637399316,-0.06437903211532463,-0.09746199301831944,-0.2174449753723483,-0.11688418303057493
1886,7.647798600009992,0.01811384988237097,-0.009718264443404102,-0.02863632440301094,0.07468827834669513,0.04069233134812978,-0.018590224034230177,0.11557349818668533,0.01266479993655784,-0.06486933652549091,-0.10026446879102864,-0.218622154548205,-0.11607160009365793
1887,7.651253400006681,0.01811384988237097,-0.009718264443404102,-0.02863632440301094,0.075173881374708,0.04074374772026495,-0.018864295795139274,0.11514559594527547,0.011742095789886288,-0.06535618577497893,-0.10305985258842638,-0.2197671652389063,-0.11524219004252247
1888,7.654852600011509,0.018666944804820423,-0.009455587050656333,-0.028641514841133184,0.07565765884526421,0.040791270167756466,-0.019140409512283053,0.11470594121054087,0.010814634288907627,-0.06583950915569,-0.10584771481401177,-0.22087967452497217,-0.11439599863829752
1889,7.658370100005413,0.018889750096770755,-0.008975381190391624,-0.028844136848369114,0.0761395613518228,0.04083487892506036,-0.019418550193112494,0.11425456652741606,0.009882552919523965,-0.06631923615692861,-0.10862762673333051,-0.22195935518136917,-0.11353307403222743
1890,7.662435700010974,0.01914936213208012,-0.00881786347000368,-0.028829646446099977,0.07661953962790329,0.04087455480791027,-0.019698702548762704,0.11379150624435165,0.008945990537881204,-0.06679529647541659,-0.11139916056462491,-0.2230058857734173,-0.11265346675847272
1891,7.666235400000005,0.01914936213208012,-0.00881786347000368,-0.028829646446099977,0.07709754455466065,0.040910279219057266,-0.019980850994954003,0.11331679650913187,0.008005087345827666,-0.06726762002527571,-0.11416188956942498,-0.2240189507515691,-0.11175722972634088
1892,7.670452999998815,0.01975480868904114,-0.008671134437094009,-0.02857600210620822,0.0775735271684442,0.04094203415390614,-0.020264979652934903,0.1128304752643097,0.007059984865971443,-0.06773613694797662,-0.1169153881430559,-0.22499824054502834,-0.11084441821194847
1893,7.674591800008784,0.020056082624595746,-0.008280232779173296,-0.02874465553922762,0.0780474386683386,0.0409698022060464,-0.020551072350466812,0.11233258224226043,0.006110825916341346,-0.0682007776222513,-0.11965923190503698,-0.225943451654176,-0.1099150898493154
1894,7.679056100008893,0.020313980093962097,-0.008074808644893667,-0.028720340014119352,0.07851923042368544,0.040993566572676256,-0.02083911262285035,0.11182315895985477,0.005157754584656502,-0.06866147267396712,-0.12239299778934737,-0.226854286741773,-0.10896930462089179
1895,7.683285999999498,0.02061874271498408,-0.007909603773021592,-0.028699331455220942,0.0789888539815837,0.04101331105991792,-0.02112908371399314,0.11130224871275224,0.004200916202209796,-0.06911815298595984,-0.1251162641345332,-0.22773045472290873,-0.1080071248475191
1896,7.687602100006188,0.020928951805663412,-0.007742658369190262,-0.028687007431147805,0.07945626107436736,0.04102902008802265,-0.021420968577518913,0.1107698965693153,0.0032404573173704628,-0.06957074970782336,-0.12782861077363147,-0.22857167085366453,-0.1070286151778278
1897,7.691140599999926,0.020928951805663412,-0.007742658369190262,-0.028687007431147805,0.07992140362705823,0.04104067869646379,-0.021714749877917838,0.11022614936414493,0.0022765256687112636,-0.0700191942656536,-0.1305296191238864,-0.22937765681846095,-0.10603384257707334
1898,7.696077200002037,0.021594355056262098,-0.007622064295900504,-0.028407672615972004,0.08038423376479224,0.04104827254891624,-0.022010409991737936,0.10967105569123842,0.001309270157765814,-0.07046341837174432,-0.13321887227623333,-0.23014814081606041,-0.10502287631541253
1899,7.701913900004001,0.02196718527448962,-0.007104455925447216,-0.02859333292658262,0.0808447038202178,0.04105178793812091,-0.022307931008817387,0.10910466589676976,0.0003388408214218034,-0.0709033540342322,-0.13589595508452654,-0.23088285764419553,-0.10399578795562212
1900,7.705695299999206,0.02196718527448962,-0.007104455925447216,-0.02859333292658262,0.08130276634086459,0.04105121179063287,-0.022607294733557406,0.10852703207149411,-0.0006346111960440657,-0.07133893356668922,-0.13856045425448563,-0.23158154878279263,-0.10295265134026235
1901,7.709421899999143,0.022573173535445742,-0.006952055333200447,-0.028375502305554155,0.08175837409648125,0.04104653167145149,-0.02290848268623544,0.10793820804277736,-0.0016109336712834602,-0.07177008959766008,-0.14121195843233625,-0.23224396247576046,-0.10189354257828817
1902,7.712897000004887,0.022573173535445742,-0.006952055333200447,-0.028375502305554155,0.0822114800863403,0.041037735788530844,-0.023211476104358295,0.10733824936625207,-0.002589973330540038,-0.07219675508014277,-0.14385005829312014,-0.23286985381131572,-0.10081854003111004
1903,7.717008600011468,0.023193246293853928,-0.006494614788166885,-0.02842636465308593,0.08266203754650879,0.041024812997168966,-0.023516255944054924,0.10672721331710136,-0.003571575878653098,-0.07261886330100967,-0.1464743466286513,-0.2334589848008181,-0.09972772429810768
1904,7.721050600011949,0.023511845763557075,-0.00599730923464596,-0.0286084814082585,0.08310999995708335,0.04100775280427446,-0.023822802881508707,0.10610515888097229,-0.0045555860283949265,-0.07303634789036685,-0.1490844184350938,-0.23401112445608735,-0.09862117820159955
1905,7.7254149000073085,0.023831085821416142,-0.00576473295193002,-0.02862892468697342,0.08355532104938802,0.04098654537250916,-0.024131097314428904,0.1054721467445201,-0.005541847530135371,-0.07344914283084902,-0.15167987100013613,-0.2345260488651768,-0.09749898677127171
1906,7.729348400011077,0.02420036218153654,-0.005483428280085078,-0.02864982273755133,0.08399795481313374,0.040961181524305196,-0.024441119363561078,0.10482823928558546,-0.006530203201827082,-0.07385718246684773,-0.15426030398973903,-0.2350035412665768,-0.09636123722806941
1907,7.733931000009761,0.02451629572404976,-0.005228578291316072,-0.028633576992657603,0.08443785550353798,0.04093165274575504,-0.0247528488742361,0.10417350056300674,-0.007520494959304704,-0.07426040151367105,-0.15682531953443232,-0.23544339212182208,-0.09520801896755537
1908,7.737657400008175,0.02451629572404976,-0.005228578291316072,-0.028633576992657603,0.08487497764840297,0.04089795119037315,-0.025066265417957444,0.1035079963060697,-0.008512563846891214,-0.07465873506663259,-0.15937452231513652,-0.23584539918647746,-0.09403942354273856
1909,7.741700600003242,0.02523910399562186,-0.004954947850807249,-0.028355079957598787,0.08530927605515068,0.040860069682727915,-0.02538134829402639,0.1028317939035961,-0.009506250068304446,-0.0750521186100674,-0.16190751964848438,-0.23620936757947567,-0.09285554464637741
1910,7.7459547000034945,0.025679045921144714,-0.004294825175698249,-0.028555361205963727,0.08574070581781362,0.040818001721942776,-0.02569807653120492,0.10214496239267389,-0.010501393017856818,-0.07544048802627208,-0.16442392157161964,-0.23653510985078274,-0.09165647809276174
1911,7.749359000008553,0.025679045921144714,-0.004294825175698249,-0.028555361205963727,0.08616922232397996,0.040771741485065335,-0.026016428889415782,0.10144757244703191,-0.01149783131194109,-0.07582377960436704,-0.16692334092644961,-0.23682244604736577,-0.09044232179897813
1912,7.752762700009043,0.025679045921144714,-0.004294825175698249,-0.028555361205963727,0.08659478126169094,0.04072128383030316,-0.026336383861479462,0.10073969636506144,-0.012495402820794858,-0.07620193004907894,-0.16940539344332745,-0.23707120377743945,-0.08921317576566377
1913,7.75714460000745,0.026333341849879392,-0.004075882073605032,-0.028337204026523788,0.08701733862628931,0.040666624300124785,-0.026657919674887804,0.10002140805748694,-0.013493944700536413,-0.07657487648944161,-0.17186969782414135,-0.2372812182729675,-0.0879691420572538
1914,7.761297600009129,0.02683925752737061,-0.0033664048565352827,-0.028524398066844234,0.08743685072721634,0.04060775912422476,-0.026981014293613832,0.09929278303468887,-0.014493293425464482,-0.0769425564874131,-0.17431587582478777,-0.23745233245039593,-0.08671032478172634
1915,7.765181900002062,0.02683925752737061,-0.0033664048565352827,-0.028524398066844234,0.08785327419475576,0.04054468522235162,-0.02730564541995728,0.09855389839368103,-0.015493284820614444,-0.07730490804640644,-0.17674355233700556,-0.23758439696959627,-0.08543683006985107
1916,7.769449400002486,0.027533395504425087,-0.0030662079565912303,-0.028288354735873503,0.08826656598672265,0.04047740020699803,-0.027631790496425383,0.09780483280474493,-0.01649375409456333,-0.0776618696197317,-0.17915235546954827,-0.23767727029099645,-0.0841487660539468
1917,7.772925500001293,0.027533395504425087,-0.0030662079565912303,-0.028288354735873503,0.08867668339509589,0.040405902385952056,-0.027959426707648546,0.09704566649772399,-0.01749453587247583,-0.07801338011894744,-0.18154191662867236,-0.2377308187308788,-0.08284624284615397
1918,7.776815600009286,0.0283580522782911,-0.002372788068092763,-0.028318912454679775,0.08908358405259258,0.04033019076470873,-0.028288530982330508,0.09627648124798004,-0.01849546422938343,-0.07835937892211921,-0.1839118705979172,-0.23774491651482452,-0.08152937251622827
1919,7.78082820000418,0.028812594339775396,-0.0016428111720211533,-0.028594910314340125,0.08948722593918315,0.04025026504874067,-0.028619079995232586,0.09549736036201499,-0.019496372723688718,-0.07869980588198384,-0.18626185561715405,-0.2377194458292846,-0.08019826906886172
1920,7.784182100003818,0.029228457401251635,-0.0012374266779605994,-0.028621692439772608,0.08988756738854609,0.04016612564562683,-0.028951050169191694,0.09470838866276075,-0.020497094430886854,-0.0790346013340181,-0.1885915134608808,-0.23765429687125816,-0.07885304842053771
1921,7.7876385999989,0.0296606176942823,-0.0008369978746980477,-0.028591875924380592,0.09028456709446096,0.040077773667038505,-0.02928441767717174,0.09390965247454068,-0.021497461977496097,-0.07936370610440939,-0.19090048951574068,-0.23754936789606032,-0.07749382837592653
1922,7.791573000009521,0.030096739982521763,-0.00042363987529707567,-0.028594669275681925,0.09067818411713797,0.03998521093058213,-0.029619158444347867,0.09310123960770542,-0.022497307575189175,-0.07968706151792669,-0.19318843285724432,-0.23740456526316153,-0.07612072860382824
1923,7.79581200001121,0.030557686475714278,-4.901192872433795e-05,-0.028656962716607885,0.09106837788948258,0.03988843996149792,-0.029955248150223178,0.09228323934294626,-0.023496463055117184,-0.08000460940569032,-0.19545499632567245,-0.23721980348008198,-0.07473387061266973
1924,7.799896500000614,0.031017313198928552,0.0003587649427144291,-0.028689486106298134,0.09145510822329388,0.03978746399421343,-0.030292662230777444,0.09145574241528959,-0.024494759902417673,-0.0803162921128391,-0.19769983660113905,-0.23699500524432465,-0.07333337772556366
1925,7.804376600004616,0.031483524025546446,0.0007716446271077319,-0.028668991906915835,0.09183833531539555,0.03968228697375116,-0.03063137588064743,0.09061884099777572,-0.025492029290898582,-0.08062205250609325,-0.19992261427779423,-0.23673010148333137,-0.07191937505493652
1926,7.807832999998936,0.031483524025546446,0.0007716446271077319,-0.028668991906915835,0.09221801975369814,0.039572913556989546,-0.030971364055338287,0.08977262868482562,-0.026488102117889496,-0.08092183398121115,-0.2021229939371459,-0.2364250313924471,-0.07049198947673375
1927,7.812055300004431,0.03228536300882278,0.0011996986915409375,-0.02846033047114578,0.09259412252319109,0.03945934911377639,-0.03131260147346554,0.08891720047529965,-0.027482809039251644,-0.08121558047033822,-0.2043006442204791,-0.2360797424708779,-0.0690513496042095
1928,7.815457700009574,0.03228536300882278,0.0011996986915409375,-0.02846033047114578,0.09296660501186235,0.039341599727894104,-0.03165506261902721,0.08805265275525216,-0.02847598050453793,-0.08150323644924604,-0.20645523790035344,-0.23569419055562782,-0.06759758576130918
1929,7.818824900008622,0.03228536300882278,0.0011996986915409375,-0.02846033047114578,0.09333542901654387,0.039219672197876206,-0.03199872174370559,0.08717908328038602,-0.029467446792294263,-0.08178474694446052,-0.2085864519511575,-0.23526833985340187,-0.06613082995565248
1930,7.822186100005638,0.03228536300882278,0.0011996986915409375,-0.02846033047114578,0.0937005567486819,0.0390935740376744,-0.032343552869198176,0.08629659115821087,-0.03045703804549354,-0.08206005754027806,-0.210693967618702,-0.23480216297046125,-0.06465121585112454
1931,7.825497199999518,0.033280948916502635,0.0021141208096325586,-0.0284821112750873,0.09406195084003083,0.038963313477175965,-0.032689529789577426,0.0854052768299088,-0.03144458430709365,-0.08232911438566806,-0.21277747048883092,-0.23429564094041966,-0.06315887874008422
1932,7.828940800012788,0.033280948916502635,0.0021141208096325586,-0.0284821112750873,0.09441957434826935,0.03882889946257093,-0.033036626073678806,0.0845052420519116,-0.03242991555571084,-0.08259186420105967,-0.21483665055503093,-0.23374876324996915,-0.061653955515197416
1933,7.833273100011866,0.034749585608952124,0.0034363019025207353,-0.028651105982003443,0.09477339076253814,0.03869034165656859,-0.033384815067516435,0.08359658987719384,-0.03341286174139969,-0.08284825428501137,-0.21687120228501938,-0.2331615278625259,-0.06013658464090466
1934,7.837458599999081,0.0354384103129705,0.004426027826323195,-0.02894949871598781,0.09512336400889768,0.03854765043846298,-0.03373406989672589,0.08267942463628634,-0.03439325282153055,-0.08309823252076169,-0.21888082468629297,-0.23253394123978532,-0.058606906124531635
1935,7.841630499999155,0.03593662841579142,0.004886309284999768,-0.029105757351881242,0.09546945845570479,0.03840083690404692,-0.034084363469033575,0.08175385191801447,-0.035370918796755704,-0.08334174738265987,-0.22086522137061884,-0.23186601836117846,-0.05706506148705211
1936,7.845878600011929,0.03646532012656504,0.005337360341274332,-0.029185020164037432,0.0958116389189069,0.03824991286537404,-0.03443566847675219,0.08081997854996567,-0.03634568974705486,-0.08357874794247519,-0.22282410061744948,-0.23115778274122292,-0.05551119373351255
1937,7.850006600012421,0.037009361473774975,0.0058368523563183195,-0.02926630014724322,0.09614987066725257,0.0380948908503686,-0.03478795739930205,0.07987791257869034,-0.03731739586785117,-0.08380918387558367,-0.22475717543624266,-0.23040926644476134,-0.053945447323128115
1938,7.854019700011122,0.03752806085333636,0.006327090405344938,-0.029339684204851238,0.09648411942741754,0.03793578410228294,-0.035141202505757634,0.07892776324964097,-0.03828586750618855,-0.08403300546703027,-0.2266641636276685,-0.22962051010008086,-0.052367968139059626
1939,7.85786870001175,0.03752806085333636,0.006327090405344938,-0.029339684204851238,0.09681435138904505,0.03777260657900226,-0.035495375857418944,0.07796964098685472,-0.03925093519696146,-0.08425016361746507,-0.22854478784368557,-0.22879156290990826,-0.05077890345788129
1940,7.862100199999986,0.03839789811418352,0.006773419879285328,-0.029194427676379437,0.09714053320969919,0.037605372952196396,-0.035850449310407206,0.07700365737238415,-0.04021242969918777,-0.08446060984895246,-0.2303987756464691,-0.22792248266027462,-0.04917840191874927
1941,7.866363799999817,0.03922688588754459,0.007821994547282994,-0.029524132901567513,0.09746263201973006,0.03743409860631822,-0.03620639451828407,0.07602992512548129,-0.041170182032315844,-0.0846642963106517,-0.23222585956617398,-0.22701333572724525,-0.047566613492281536
1942,7.869768900010968,0.03922688588754459,0.007821994547282994,-0.029524132901567513,0.09778061542704965,0.03725879963744853,-0.03656318293469408,0.07504855808154001,-0.04212402351255648,-0.0848611757843674,-0.23402577715751555,-0.2260641970815109,-0.04594368944915969
1943,7.873180499998853,0.03922688588754459,0.007821994547282994,-0.029524132901567513,0.09809445152181707,0.03707949285198709,-0.036920785816029755,0.07405967117080259,-0.043073785789230656,-0.0850512016899689,-0.23579827105515144,-0.22507515029083655,-0.04430978232846345
1944,7.876638900008402,0.0401387036207472,0.008280875217356055,-0.029394874291094733,0.09840410888103192,0.036896195765189696,-0.037279174224118826,0.07306338039683526,-0.04401930088112391,-0.08523432809067759,-0.2375430890278478,-0.22404628752036498,-0.0426650459057483
1945,7.881005200004438,0.04091448901120206,0.009252614291646729,-0.02987215501316657,0.09870955657303428,0.03670892659955143,-0.037638319028933095,0.07205980281477828,-0.04496040121283819,-0.08541050969822113,-0.2392599840314148,-0.22297770953077448,-0.04100963516087702
1946,7.885038000007626,0.0414950621023859,0.009780322551528728,-0.02998454868116813,0.09901076416191047,0.03651770428303607,-0.037998190911318404,0.07104905650937542,-0.045896919651132184,-0.08557970187785313,-0.2409487142603968,-0.22186952567428897,-0.03934370624561583
1947,7.888510000004317,0.0421051089819911,0.010249809202617673,-0.030074778223425476,0.09930770171180306,0.036322548447151715,-0.03835876036574496,0.07003126057278851,-0.04682868954124107,-0.08574186065323755,-0.24260904319850327,-0.22072185388854013,-0.0376674164510063
1948,7.89452520001214,0.0426827728157703,0.010699316878617094,-0.030208283317250655,0.09960033979112395,0.03612347942487279,-0.038719997703077415,0.06900653508220227,-0.04775554474316639,-0.08589694271119715,-0.24424073966776585,-0.21953482068828306,-0.03598092417452418
1949,7.90115030000743,0.043923815344515775,0.011734814307432864,-0.03046096221394193,0.09988864947666945,0.0359205182484085,-0.03908187305336394,0.06797500107722453,-0.04867731966792658,-0.08604490540632502,-0.24584357787640798,-0.21830856115496713,-0.03428438888703661
1950,7.904691100004129,0.044549987772603356,0.012148652972090937,-0.0305356083003431,0.10017260235763663,0.0357136866468179,-0.039444356368643935,0.06693678053708715,-0.049593849313759195,-0.08618570676545836,-0.24741733746541147,-0.21704321892416356,-0.03257797109956908
1951,7.908349200006342,0.045175454122280655,0.012578127662857808,-0.03075349539474413,0.10045217053954063,0.03550300704347184,-0.03980741742577368,0.06589199635765249,-0.050504969302265494,-0.08631930549201346,-0.248961803553768,-0.21573894617085296,-0.03086183232989368
1952,7.912474199998542,0.04577189487045262,0.013025683997514713,-0.030932996142782464,0.10072732664803191,0.03528850255336188,-0.04017102582926963,0.06484077232823143,-0.051410515914488204,-0.0864456609701809,-0.2504767667824029,-0.21439590359257615,-0.029136135068950336
1953,7.916530900009093,0.04645590429635905,0.013465783684700257,-0.031031001852986146,0.10099804383261285,0.03507019698025646,-0.040535151014169025,0.06378323310821885,-0.05231032612691308,-0.08656473326898032,-0.2519620233567592,-0.2130142603904527,-0.027401042747112837
1954,7.920897400006652,0.04711224262417024,0.013889527902435351,-0.03114704794782768,0.10126429577025271,0.03484811481370464,-0.040899762248906915,0.06271950420355211,-0.05320423764738518,-0.08667648314617378,-0.25341737508803175,-0.2115941942480707,-0.02565671970031161
1955,7.924956600007135,0.04773399297251298,0.014276973395576126,-0.03134130712634782,0.10152605666890066,0.03462228122588789,-0.04126482863820914,0.061649711942999036,-0.05409208895093084,-0.08678087205203787,-0.2548426294330393,-0.21013589130825414,-0.023903331136025368
1956,7.92920560001221,0.048384579118206095,0.014729582352027239,-0.03152810640601513,0.10178330127089616,0.03439272206831999,-0.041630319126000424,0.060573983454281104,-0.05497371931547617,-0.0868778621329939,-0.2562375995327251,-0.2086395461477151,-0.022141043099153882
1957,7.933412700003828,0.049022886344202515,0.015161539096056324,-0.03167742727418916,0.10203600485627594,0.03415946386839554,-0.04199620249832717,0.05949244664003795,-0.0558489688574528,-0.08696741623509581,-0.2576021042492727,-0.20710536174959748,-0.020370022437784047
1958,7.937448500000755,0.04966297385179775,0.01554936977865128,-0.031923714689398607,0.10228414324597712,0.033922533825787506,-0.042362447386294286,0.0584052301536386,-0.05671767856728212,-0.08704949790737604,-0.25893596820182696,-0.20553354947392094,-0.018590436768861594
1959,7.94156560000556,0.05032087704289085,0.01597552138153962,-0.032090687485889946,0.10252769280493636,0.03368195980869418,-0.04272902226901553,0.05731246337484538,-0.05757969034472888,-0.08712407140504834,-0.2602390218008101,-0.20392432902593374,-0.01680245444378094
1960,7.945684900012566,0.050962508361652864,0.01639022115612682,-0.03224608696249869,0.10276663044508451,0.033437770349935995,-0.043095895476576725,0.05621427638533646,-0.0584348470341155,-0.08719110169256723,-0.26151110128082194,-0.2022779284223842,-0.015006244513905817
1961,7.94913940000697,0.050962508361652864,0.01639022115612682,-0.03224608696249869,0.10300093362823617,0.033189994642902884,-0.04346303519301144,0.05511079994409276,-0.05928299245938756,-0.08725055444654384,-0.2627520487321142,-0.20059458395571997,-0.013201976696033435
1962,7.952721100009512,0.050962508361652864,0.01639022115612682,-0.03224608696249869,0.10323058036887327,0.032938662537352725,-0.043830409459288705,0.05400216546265541,-0.06012397145902165,-0.08730239605851779,-0.2639617121306316,-0.1988745401562255,-0.011389821337814913
1963,7.957002900002408,0.05194913046324783,0.01683023406656312,-0.03218532149677336,0.1034555492368226,0.03268380453506175,-0.04419798617631214,0.05288850498025976,-0.06095762992076676,-0.08734659363758465,-0.26513994536661295,-0.19711804975210825,-0.009569949383144705
1964,7.962038500001654,0.05353792939992298,0.018070386220874205,-0.0330708447377381,0.10367581935982713,0.03242545178532758,-0.04456573310792983,0.051769951138852105,-0.061783814816210446,-0.08738311501287911,-0.2662866082717448,-0.19532537362754562,-0.007742532337531808
1965,7.966079200006789,0.054153614717016775,0.018468442645629086,-0.03325416244267819,0.10389137042601079,0.03216363608032587,-0.04493361788395469,0.050646637157995396,-0.06260237423516117,-0.08741192873591402,-0.2674015666448596,-0.19349678077870516,-0.00590774223346565
1966,7.970558800006984,0.054780542693288144,0.018847452002859047,-0.03346112674072384,0.10410218268623593,0.03189838985032132,-0.04530160800319475,0.049518696809670165,-0.06341315741983772,-0.08743300408277509,-0.2684846922761716,-0.19163254826775095,-0.004065751595789637
1967,7.975060700002359,0.05543550329078421,0.019292242054809363,-0.03367832622692142,0.10430823695635283,0.031629746158734116,-0.04566967083649287,0.04838626439297682,-0.06421601479885727,-0.08744631105617098,-0.269535862970044,-0.18973296117484958,-0.0022167334070954414
1968,7.978467699998873,0.05543550329078421,0.019292242054809363,-0.03367832622692142,0.10450951461934112,0.03135773869706283,-0.04603777362977536,0.04724947470874531,-0.065010798021014,-0.08745182038733874,-0.2705549625662826,-0.1877983125481906,-0.00036086107315108136
1969,7.981939600009355,0.05543550329078421,0.019292242054809363,-0.03367832622692142,0.10470599762734292,0.031082401779664585,-0.04640588350710898,0.046108463034058265,-0.0657973599888397,-0.08744950353780467,-0.2715418809599493,-0.18582890335203586,0.0015016916116240824
1970,7.98517540001194,0.056418376217107845,0.01976253799477638,-0.033674371503258645,0.10489766850358732,0.030803770338393714,-0.04677396747376573,0.04496336509669377,-0.06657555489193824,-0.08743933270100106,-0.2724965141196904,-0.1838250424128141,0.0033707504986242214
1971,7.988708700009738,0.056418376217107845,0.01976253799477638,-0.033674371503258645,0.1050845103442067,0.03052187991709963,-0.047141992419294704,0.043814317049493984,-0.06734523824008537,-0.08742128080373876,-0.2734187641045747,-0.18178704636327644,0.005246141119448583
1972,7.997043600000325,0.058662373461948615,0.021260993192913812,-0.034842178014488384,0.10526650681994484,0.030236766665984953,-0.04750992512060042,0.042661455444665534,-0.06810626689608561,-0.08739532150753639,-0.27430853907943725,-0.17971523958472932,0.007127688720206461
1973,8.00187440001173,0.05925302694404787,0.02163190992974257,-0.035134872334929096,0.10544364217775613,0.029948467335824843,-0.047877732245026804,0.041504917208017675,-0.06885849910837864,-0.08736142920980643,-0.27516575332872495,-0.177609954147363,0.00901521829572234
1974,8.006752200002666,0.05988873628149351,0.021999695349822174,-0.035382402074639295,0.10561590124229514,0.029657019272048977,-0.04824538035344638,0.040344839613144445,-0.06960179454338682,-0.08731957904489904,-0.27599032726884,-0.17547152974869337,0.010908554623627928
1975,8.011001300008502,0.05988873628149351,0.021999695349822174,-0.035382402074639295,0.10578326941729622,0.02936246040868707,-0.04861283590335382,0.03918136025555694,-0.07033601431759566,-0.08726974688500368,-0.27678218745897837,-0.17330031365013562,0.012807522298327776
1976,8.017727500002366,0.061874137200278734,0.023099095822991193,-0.03609585721170666,0.10594573268684307,0.02906482926217922,-0.048980065251963405,0.03801461702677201,-0.07106102102935968,-0.08721190934090889,-0.2775412666104616,-0.17109666061172973,0.01471194576482508
1977,8.02146800000628,0.0625121724658816,0.023419638169311547,-0.03639817421649747,0.10610327761652799,0.02876416492505228,-0.04934703465930975,0.0368447480883638,-0.07177667879042561,-0.08714604376262068,-0.278267503594559,-0.16886093282503795,0.01662164935239443
1978,8.02521490000072,0.06315915789890239,0.02375277007662965,-0.03668502638816505,0.10625589135450082,0.02846050705946336,-0.049713710291351625,0.035671891845984786,-0.07248285325716544,-0.08707212823983992,-0.27896084344879996,-0.16659349984423513,0.01853645730808809
1979,8.029159300000174,0.0638184952726904,0.024095486347179805,-0.0369655106305006,0.10640356163240736,0.028153895890611638,-0.05008005822307807,0.03449618692336268,-0.07317941166151153,-0.08699014160229986,-0.2796212373817775,-0.16429473851541285,0.020456193830062624
1980,8.033263600009377,0.06449267186557,0.02440915774277254,-0.037246705366490315,0.10654627676621752,0.02784437220001977,-0.05044604444161616,0.03331777213627986,-0.07386622284158641,-0.08690006341996458,-0.2802486427764419,-0.16196503290411818,0.022380683100712468
1981,8.03740210000251,0.06513304451857953,0.024742579536189076,-0.03749161510410699,0.10668402565694357,0.02753197731868624,-0.05081163484933985,0.0321367864665418,-0.07454315727202036,-0.0868018740030895,-0.2808430231918843,-0.15960477422114872,0.024309749319597177
1982,8.041412300008233,0.06579778050474325,0.025064801394925503,-0.037877367061785475,0.10681679779124889,0.027216753120110078,-0.051176795266979394,0.030953369035941137,-0.07521008709394962,-0.08669555440214445,-0.28140434836361233,-0.15721436074662548,0.026243216736149013
1983,8.045896300012828,0.06642215323896272,0.02536270179777899,-0.0381551077268573,0.10694458324194682,0.026898742013189342,-0.051541491436730924,0.029767659080223698,-0.07586688614468784,-0.08658108640759998,-0.28193259420231886,-0.15479419775236666,0.028180909682147617
1984,8.049893700008397,0.0670965339103723,0.025640852305825444,-0.03848725935000788,0.10706737266838978,0.026577986934994684,-0.051905689025365166,0.028579795923062888,-0.07651342998706344,-0.08645845254957743,-0.2824277427911464,-0.1523446974225863,0.030122652603948787
1985,8.05403670000669,0.06769541630483762,0.025962126186290607,-0.03878754683936185,0.107185157316749,0.0262545313434195,-0.052269353627334994,0.02738991895004878,-0.07714959593841567,-0.08632763609736367,-0.282889782381448,-0.14986627877294195,0.032068270094454336
1986,8.058227300003637,0.0683434141877454,0.026275437725996234,-0.039146789877109844,0.10729792902018517,0.025928419209708124,-0.0526324507678812,0.026198167582698058,-0.0777752630992425,-0.08618862105879109,-0.2833187073870475,-0.1473593675679556,0.03401758692481013
1987,8.062265400003525,0.06892875057418545,0.026522873089065424,-0.039449146881526204,0.10740568019891006,0.025599695010863448,-0.05299494590613611,0.02500468125249131,-0.07839031238149359,-0.08604139217948362,-0.2837145183770026,-0.14482439623683283,0.035970428075819294
1988,8.06665740000608,0.06958149092207175,0.026828526790193274,-0.03980607702497278,0.1075084038601395,0.025268403721935458,-0.0533568044382243,0.023809599374943976,-0.07899462653650137,-0.08588593494197011,-0.284077222066876,-0.14226180378770556,0.03792661876905794
1989,8.07071569999971,0.07018392470343678,0.0271074475873179,-0.04012868156727011,0.10760609359793841,0.024934590808192207,-0.05371799170035958,0.022613061323717404,-0.07958809018254372,-0.08572223556466584,-0.2844068313085174,-0.1396720357203238,0.0398859844976803
1990,8.074847399999271,0.07081110486603215,0.027381474392267888,-0.04044490958684847,0.10769874359295777,0.0245983022171748,-0.0540784729719378,0.02141520640477621,-0.0801705898320311,-0.08555028100072305,-0.28470336507835975,-0.13705554393722325,0.041848351056900775
1991,8.079142100003082,0.07144817219625722,0.027605088787132782,-0.04080092257929708,0.10778634861206421,0.024259584370637927,-0.054438213478624146,0.020216173830598285,-0.08074201391831218,-0.08537005893675215,-0.28496684846423387,-0.13441278665339498,0.04381354457414029
1992,8.082666700007394,0.07144817219625722,0.027605088787132782,-0.04080092257929708,0.10786890400786238,0.023918484156377512,-0.05479717839543461,0.019016102694443673,-0.08130225282209184,-0.08518155779141476,-0.28519731265070614,-0.1317442283044845,0.045781391538824295
1993,8.086155700002564,0.07144817219625722,0.027605088787132782,-0.04080092257929708,0.10794640571811019,0.02357504891994731,-0.05515533284981075,0.017815131944688634,-0.0818511988974553,-0.08498476671389088,-0.2853947949029443,-0.1290503394535472,0.047751718831820056
1994,8.089503800001694,0.07230969179495857,0.0278610824034695,-0.04097453691327204,0.10801885026502722,0.02322932645626612,-0.05551264192468732,0.016613400359231065,-0.08238874649749192,-0.08477967558222146,-0.28555933854911797,-0.12633159669638794,0.049724353754500385
1995,8.093384799998603,0.07322219689053525,0.028386315844734673,-0.041802999572008864,0.10808623475449665,0.02288136500111731,-0.055869070661552125,0.015411046519973576,-0.0829147919995123,-0.08456627500152825,-0.28569099296133954,-0.12358848256551262,0.05169912405742162
1996,8.097868700002437,0.07378393281975194,0.02861416781888211,-0.042253986852577266,0.1081485568751617,0.02253121322254242,-0.0562245840634979,0.014208208787390476,-0.08342923382985298,-0.08434455630211304,-0.28578981353515015,-0.12082148543272038,0.05367585796860353
1997,8.102171100006672,0.07437789685195396,0.028880914991816567,-0.042569081142005506,0.10820581489741703,0.022178920212130665,-0.056579147098265954,0.013005025275184894,-0.08393197248826284,-0.08411451153743821,-0.28585586166755855,-0.11803109941036435,0.05565438422139913
1998,8.106121400007396,0.07500446213368947,0.029137824548021527,-0.04288942735127112,0.10825800767229526,0.021824535476206053,-0.05693272470128119,0.011801633825042056,-0.08442291057186528,-0.08387613348198983,-0.28588920473363955,-0.11521782425131054,0.05763453208194249
1999,8.110173000008217,0.07557326727680899,0.029363742598667843,-0.043231102241636295,0.10830513463024889,0.021468108926913976,-0.057285281778678476,0.010598171981484775,-0.0849019527986913,-0.08362941562902565,-0.2858899160616991,-0.11238216524762433,0.059616131376162874
2000,8.114682500003255,0.07616334673734888,0.02952955432974284,-0.04363367212404967,0.10834719577982818,0.02110969087320907,-0.057636783210319675,0.009394776966837277,-0.0853690060307778,-0.08337435218820957,-0.2858580749070133,-0.10952463312801483,0.061599012516353586
2001,8.119495000006282,0.07678531371070833,0.02973649202402509,-0.043992889061347656,0.10838419170625578,0.020749332011746245,-0.05798719385280098,0.008191585656303391,-0.08582397929682645,-0.08311093808313441,-0.28579376642414756,-0.10664574395406673,0.06358300652728392
2002,8.12471080000978,0.0779380217683544,0.030146955328923773,-0.044683716636416966,0.10841612356989826,0.020387083417676796,-0.058336478542450276,0.006988734553165123,-0.08626678381441787,-0.08283916894873451,-0.28569708163786484,-0.10374601901529049,0.06556794507184291
2003,8.12892990000546,0.07850970873074514,0.030310853692530896,-0.045068886906660784,0.10844299310463523,0.020022996535351688,-0.058684602098314,0.005786359764107551,-0.08669733301177567,-0.08255904112858957,-0.2855681174126315,-0.10082598472302093,0.06755366047620344
2004,8.133209100007662,0.0791212607243557,0.030553559359133144,-0.04547081043924044,0.10846480261612636,0.019657123168933838,-0.05903152932513295,0.004584596974675954,-0.0871155425490756,-0.08227055167212144,-0.2854069764207308,-0.09788617250319501,0.06953998575449573
2005,8.13751040000352,0.07969471969491755,0.03075932877776781,-0.04581145119658951,0.10848155497997716,0.01928951547292142,-0.0593772250163065,0.0033835814248710785,-0.08752133033929536,-0.0819736983316863,-0.28521376710899654,-0.09492711868803923,0.071526754632979
2006,8.14176870000665,0.08022507633396198,0.03088812118187344,-0.046151551336236225,0.10849325363980436,0.018920225942584124,-0.059721653956844596,0.0021834478848883803,-0.08791461656860054,-0.08166847955956434,-0.2849886036641782,-0.0919493644066983,0.07351380157370001
2007,8.145742000007886,0.08083990527599721,0.031004976017325377,-0.04661520483457962,0.10849990260520097,0.018549307404314434,-0.06006478092630725,0.0009843306310070158,-0.08829532371626231,-0.08135489450484956,-0.28473160597695024,-0.08895345547483663,0.07550096179762773
2008,8.149911800006521,0.08142580410257746,0.03116494578714006,-0.04701864504518582,0.10850150644960194,0.01817681300589605,-0.0604065707017313,-0.00021363657836568131,-0.08866337657410273,-0.08103294301024212,-0.2844428996045756,-0.08593994228324375,0.07748807130725337
2009,8.1532339000114,0.08142580410257746,0.03116494578714006,-0.04701864504518582,0.10849807030805086,0.017802796206691465,-0.06074698806054399,-0.0014103205264885401,-0.08901870226546356,-0.08070262560874561,-0.28412261573223446,-0.08290937968547539,0.07947496690864528
2010,8.156774600007338,0.08142580410257746,0.03116494578714006,-0.04701864504518582,0.10848959987486835,0.017427310767750774,-0.06108599778346312,-0.0026055885619140568,-0.08936123026369472,-0.08036394352027175,-0.2837708911330303,-0.07986232688456109,0.08146148623294866
2011,8.160855699999956,0.08238884255329212,0.03128399985087455,-0.047074266299159784,0.10847610140122228,0.017050410741843883,-0.06142356465738357,-0.0037993086219434598,-0.08969089241015826,-0.0800168986481547,-0.2833878681266865,-0.07679934731881036,0.08344746775731979
2012,8.164230900001712,0.08238884255329212,0.03128399985087455,-0.047074266299159784,0.10845758169260075,0.01667215046341817,-0.06175965347825003,-0.0049913492559037955,-0.09000762293174443,-0.0796614935755773,-0.28297369453694754,-0.07372100854674932,0.08543275082528498
2013,8.167802900003153,0.08238884255329212,0.03128399985087455,-0.047074266299159784,0.10843404810618859,0.016292584538483628,-0.06209422905391539,-0.006181579648241541,-0.09031135845789622,-0.07929773156191162,-0.28252852364769737,-0.07062788213121969,0.08741717566651507
2014,8.17132190000848,0.08238884255329212,0.03128399985087455,-0.047074266299159784,0.10840550854814822,0.01591176783442773,-0.06242725620698483,-0.007369869641427318,-0.09060203803713919,-0.07892561653897692,-0.28205251415780724,-0.06752054352267216,0.08940058341600611
2015,8.174785700000939,0.08238884255329212,0.03128399985087455,-0.047074266299159784,0.10837197147080589,0.015529755469762055,-0.06275869977764524,-0.008556089758666348,-0.09087960315311315,-0.07854515310721735,-0.28154583013472667,-0.06439957194168622,0.09138281613265747
2016,8.179234399998677,0.08336722290047256,0.03152240385240162,-0.047994060205739895,0.1083334458697439,0.01514660280380292,-0.06308852462647935,-0.009740111226409312,-0.09114399774010314,-0.07815634653180173,-0.2810086409668311,-0.061265550260748876,0.09336371681723873
2017,8.183351900006528,0.08590918762205402,0.032071184385165985,-0.05013833652538461,0.10828994128079926,0.014762365426288,-0.06341669563726417,-0.010921805996658384,-0.09139516819806663,-0.07775920273864748,-0.2804411213145412,-0.05811906488532436,0.0953431294297368
2018,8.187465300012263,0.0864651704862551,0.03218200917389478,-0.050563466848594474,0.1082414677769694,0.014377099146931156,-0.06374317771975388,-0.012101046769063222,-0.09163306340715408,-0.07735372831037138,-0.27984345106022934,-0.05496070563424706,0.09732089890607484
2019,8.19170490000397,0.08703656854499726,0.032296671262212535,-0.05097059510761906,0.10818803596522518,0.01399085998491768,-0.06406793581244702,-0.013277707012801829,-0.09185763474171993,-0.07693993048216954,-0.2792158152569278,-0.051791065619470035,0.09929687117419508
2020,8.195274199999403,0.08703656854499726,0.032296671262212535,-0.05097059510761906,0.10812965698323239,0.013603704158342196,-0.06439093488533738,-0.014451660988241192,-0.09206883608382187,-0.07651781713762926,-0.2785584040758522,-0.04861074112520106,0.10127089316949778
2021,8.199736300011864,0.08786793656537134,0.03237762852002839,-0.051150660078689576,0.10806634249598167,0.013215688073591447,-0.06471213994264816,-0.015622783768372615,-0.09226662383620574,-0.07608739680447499,-0.2778714127527555,-0.04542033148645873,0.10324281284962906
2022,8.204134400002658,0.08860060258920419,0.03245723066806993,-0.052235144184530534,0.10799810469232739,0.012826868314674188,-0.06503151602554896,-0.016790951260016798,-0.09245095693477408,-0.07564867865025145,-0.2771550415331276,-0.04222043896708084,0.10521247920861047
2023,8.208275400000275,0.08910847441883109,0.03254186849548811,-0.05263634061266287,0.10792495628143627,0.012437301632500362,-0.06534902821485535,-0.01795604022479386,-0.0926217968605358,-0.0752016724779463,-0.2764094956162558,-0.039011668637217126,0.10717974229030294
2024,8.212496700012707,0.08963286755991337,0.03259262291451851,-0.05297630282350895,0.10784691048914684,0.01204704493411173,-0.06566464163371043,-0.019117928299853496,-0.09277910765103486,-0.07474638872155509,-0.27563498509816253,-0.035794628250338724,0.10914445320119862
2025,8.215985700007877,0.08963286755991337,0.03259262291451851,-0.05297630282350895,0.10776398105424087,0.011656155271866172,-0.06597832145024869,-0.02027649401836053,-0.09292285591125621,-0.07428283844159149,-0.27483172491343816,-0.0325699281197964,0.11110646412253401
2026,8.220234300009906,0.09042401706278198,0.03259508871062823,-0.05311579926792913,0.10767618222462791,0.011264689832577886,-0.06629003288024113,-0.02143161682973131,-0.09305301082400745,-0.0738110333205462,-0.2739999347759857,-0.029338180994959717,0.11306562832171776
2027,8.224597799999174,0.09114273572424196,0.03268249334102881,-0.05419911287725964,0.10758352875344408,0.010872705926615761,-0.06659974118972128,-0.022583177119616337,-0.0931695441597749,-0.07333098565829706,-0.27313983911869477,-0.026100001936969375,0.11502180016306733
2028,8.22887800000899,0.0915655875794643,0.032679950964339816,-0.05460190045299411,0.10748603589506651,0.010480260976962093,-0.06690741169759193,-0.023731056229624778,-0.09327243028605285,-0.07284270836747325,-0.27225166703206133,-0.0228560081941348,0.11697483511784884
2029,8.232844099999056,0.0915655875794643,0.032679950964339816,-0.05460190045299411,0.1073837194010448,0.010087412508233928,-0.06721300977821199,-0.024875136476786405,-0.09336164617614522,-0.07234621496877622,-0.27133565220177297,-0.01960681907700896,0.11892458977361495
2030,8.237561600006302,0.09259966923450226,0.03266789676779424,-0.05536178186069488,0.10727659551595063,0.009694218135669234,-0.0675165008639633,-0.026015301172746735,-0.09343717141743761,-0.07184151958626024,-0.27039203284527796,-0.016353055833172092,0.12087092184283578
2031,8.241816500012646,0.09308543509532952,0.03268878724543934,-0.055707727936735216,0.10716468097314695,0.00930073555408017,-0.06781785044779687,-0.027151434642691073,-0.09349898821913909,-0.07132863694257623,-0.2694210516473559,-0.013095341521755895,0.12281369017081872
2032,8.245898500012117,0.0935419350117489,0.03264586141114201,-0.05612418573182428,0.10704799299047776,0.008907022526775742,-0.06811702408575812,-0.028283422243993384,-0.09354708141949247,-0.07080758235418151,-0.26842295569470753,-0.009834300887739766,0.12475275474291236
2033,8.249997400009306,0.09403559502915715,0.032566521826313685,-0.05646284914075316,0.1069265492658802,0.008513136874456118,-0.06841398739949134,-0.029411150384586002,-0.0935814384924522,-0.07027837172651911,-0.2673979964095837,-0.006570560236050464,0.12668797669099036
2034,8.254184600009467,0.09451526901135147,0.03249087830562107,-0.05679128888279691,0.10680036797291992,0.008119136464080886,-0.06870870607872345,-0.030534506541046152,-0.09360204955382863,-0.0697410215491694,-0.26634642948247395,-0.0033047473054963303,0.12861921829921108
2035,8.257642800002941,0.09451526901135147,0.03249087830562107,-0.05679128888279691,0.10666946775625094,0.00772507919771348,-0.06900114588372663,-0.03165337927639538,-0.09360890736689816,-0.06919554889097755,-0.2652685148038721,-3.749114256702551e-05,0.13054634300904974
2036,8.261184200004209,0.09451526901135147,0.03249087830562107,-0.05679128888279691,0.1065338677270012,0.007331023001344052,-0.06929127264775935,-0.0327676582576079,-0.09360200734747923,-0.06864197139515987,-0.26416451639514066,0.0032305780248704876,0.13246921542359985
2037,8.266458600002807,0.09600203783537127,0.0322566671518769,-0.0579049137113606,0.10639358745808486,0.006937025813693054,-0.06957905227948614,-0.033877234272824,-0.09358134756847412,-0.06808030727439238,-0.26303470233849224,0.006498828913949097,0.13438770131114144
2038,8.270520900012343,0.09639390781361291,0.032093604246638936,-0.05825608178533168,0.10624864697944317,0.006543145574997818,-0.06986445076537583,-0.03498199924826504,-0.09354692876387725,-0.06751057530588471,-0.2618793447061104,0.009766629313221423,0.1363016676079728
2039,8.27472200000193,0.0968324721803635,0.03191345504088578,-0.058606407640377375,0.10609906677321525,0.006149440215784391,-0.07014743417207794,-0.036081846264846326,-0.09349875433224997,-0.06693279482644232,-0.2606987194884291,0.013033346209092255,0.13821098242050311
2040,8.278907300002174,0.09731112162171601,0.031735679149642836,-0.058976868334235585,0.10594486776884025,0.005755967645626922,-0.07042796864877794,-0.03717666957448456,-0.0934368303396619,-0.06634698572751964,-0.25949310652159174,0.016298345912233524,0.1401155150266037
2041,8.284294800003408,0.09782472814027587,0.031587711347092116,-0.05931898575940947,0.10578607133809201,0.005362785741896845,-0.07070602042953099,-0.038266364616096324,-0.0933611655220992,-0.06575316845026716,-0.2582627894141119,0.01956099418395212,0.14201513587621573
2042,8.287752600008389,0.09825347037775273,0.03138329851284394,-0.05964819186328273,0.10562269929004736,0.004969952338504165,-0.07098155583557456,-0.039350828031284535,-0.09327177128734025,-0.06515136398057578,-0.2570080554727582,0.022820656362481033,0.14390971659121388
2043,8.291546100008418,0.09867899351170704,0.031225891324252807,-0.059964560142163725,0.10545477386599003,0.004577525214633046,-0.07125454127761977,-0.04042995767970958,-0.09316866171629928,-0.06454159384412132,-0.25572919562768603,0.026076697489164566,0.14579912996452396
2044,8.295746900010272,0.09916154378995569,0.031005789698576355,-0.060297638614539247,0.10528231773425145,0.004185562083473966,-0.0715249432581219,-0.041503652654142076,-0.09305185356383823,-0.06392388010141219,-0.2544265043568365,0.029328482434508776,0.14768324995849452
2045,8.300042800008669,0.09959459986848092,0.03077175171231971,-0.06057246637951025,0.10510535398498996,0.00379412058095468,-0.07179272837352998,-0.04257181329519414,-0.09292136625904765,-0.06329824534284305,-0.25310027960962506,0.032575376024068486,0.1495619517025226
2046,8.304161000007298,0.10003857887997034,0.030613329812625455,-0.06089581226151966,0.1049239061249098,0.0034032582544722655,-0.0720578633165151,-0.04363434120572623,-0.09277722190499758,-0.0626647126837581,-0.2517508227299409,0.03581674316414253,0.15143511148993385
2047,8.308473100012634,0.1004506276914295,0.030440066792479542,-0.06118162878327345,0.10473799807192143,0.003013032551628489,-0.07232031487817803,-0.04469113926492652,-0.09261944527795951,-0.062023305759527005,-0.2503784383784797,0.03905194896724906,0.15330260677411794
2048,8.312467000010656,0.1008951963073612,0.03020203716959283,-0.06149006306161418,0.1045476541497453,0.002623500808970751,-0.0725800499502363,-0.04574211164206046,-0.09244806382610063,-0.06137404872063664,-0.24898343445443102,0.042280358877353284,0.15516431616392035
2049,8.316662800003542,0.10132713030531489,0.02997048705573758,-0.06174474998552352,0.1043528990824602,0.002234720240740816,-0.07283703552719092,-0.0467871638098879,-0.09226310766765115,-0.060716966227801664,-0.2475661220165441,0.04550133879482039,0.15702011941829225
2050,8.32075860000623,0.10173980049754922,0.02980381811883824,-0.06200706009611086,0.10415375798899719,0.0018467479276335543,-0.07309123870847241,-0.04782620255774542,-0.09206460958854629,-0.06005208344709717,-0.24612681520359217,0.04871425520106661,0.1588698974402
2051,8.325172400000156,0.10217663000381925,0.029572888871689067,-0.062324282040347075,0.10395025637758036,0.001459640805567901,-0.0733426267005663,-0.04885913600429138,-0.09185260503954436,-0.059379426045116465,-0.24466583115425922,0.051918475282881446,0.16071353226979598
2052,8.329221799998777,0.10261572313113762,0.029324757538096453,-0.06257664037545187,0.1037424201401152,0.0010734556544722321,-0.07359116681911813,-0.0498858736099113,-0.09162713213282267,-0.05869902018415665,-0.2431834899264714,0.05511336705639506,0.16255090707685388
2053,8.333267900001374,0.10301617413483904,0.029065459947411765,-0.06288176907626691,0.10353027554652551,0.0006882490870863594,-0.07383682649101805,-0.05090632618878153,-0.09138823163805275,-0.05801089251743508,-0.241680114416196,0.05829829949066477,0.1643819061524713
2054,8.337612900009844,0.10336178728262913,0.028798277656601787,-0.06317253847044894,0.1033138492390396,0.0003040775377823376,-0.07407957325646554,-0.051920405920589247,-0.09113594697795646,-0.05731507018433999,-0.24015603027573038,0.06147264263085495,0.1662064149000435
2055,8.341706200008048,0.10372590141009089,0.028485704631863742,-0.0634893058652142,0.10309316822642693,-7.900274859373603e-05,-0.07431937477101487,-0.05292802636190693,-0.09087032422334465,-0.05661158080571828,-0.23861156583150278,0.06463576772098478,0.16802431982551147
2056,8.345269000012195,0.10372590141009089,0.028485704631863742,-0.0634893058652142,0.10286825987818647,-0.00046093572785675646,-0.07455619880760145,-0.05392910245721896,-0.09059141208763981,-0.055900452479203756,-0.2370470520014081,0.06778704732621876,0.1698355085268881
2057,8.34864130000642,0.10372590141009089,0.028485704631863742,-0.0634893058652142,0.1026391519186885,-0.0008416655675923151,-0.07479001325854921,-0.05492355054959877,-0.09029926192088517,-0.055181713774588866,-0.23546282221170095,0.07092585545467542,0.17163986968306655
2058,8.351998500002082,0.10372590141009089,0.028485704631863742,-0.0634893058652142,0.1024058724212712,-0.0012211366582389148,-0.07502078613755946,-0.05591128839103491,-0.0899939277032424,-0.05445539372924299,-0.23385921231346757,0.07405156767872952,0.17343729304191613
2059,8.355623100011144,0.10372590141009089,0.028485704631863742,-0.0634893058652142,0.10216844980229295,-0.0015992936241405501,-0.07524848558168143,-0.056892235152404595,-0.08967546603798011,-0.05372152184358036,-0.2322365604987004,0.07716356125578373,0.17522766940767198
2060,8.362388400011696,0.10438116529449949,0.028173079297541023,-0.06348063094515452,0.10192691281514189,-0.001976081334567517,-0.07547307985326486,-0.057866311433093356,-0.08934393614395583,-0.05298012807658065,-0.2305952072159985,0.08026121524848566,0.177010890627624
2061,8.366622400004417,0.10591408299586416,0.026884577881092612,-0.06459674748826114,0.10168129054420467,-0.002351444914703331,-0.07569453734189448,-0.058833439270259004,-0.08899939984759385,-0.05223124284136512,-0.22893549508591673,0.08334391064436644,0.17878684957811114
2062,8.371009300011792,0.10641771931553791,0.02635646629059541,-0.0652795538371889,0.10143161239879618,-0.0027253297565956436,-0.075912826566307,-0.05979354214773875,-0.08864192157436213,-0.05147489700083127,-0.22725776881598733,0.08641103047487834,0.18055544014982713
2063,8.374885700002778,0.10675688746324218,0.02601355992005834,-0.06553802585743071,0.10117790810705168,-0.003097681530069061,-0.07612791617629128,-0.06074654500459851,-0.08827156833975125,-0.05071112186334912,-0.2255623751154357,0.08946195993380907,0.18231655723244422
2064,8.379080800004886,0.10716456005880713,0.0256384458250484,-0.06578935128366753,0.10092020770978305,-0.003468446193597763,-0.07633977495457112,-0.06169237424332304,-0.08788840973975844,-0.049939949178522056,-0.22384966260961414,0.09249608649505091,0.18407009669856106
2065,8.383220600007917,0.1074781513273968,0.025350090699719333,-0.06602456210485375,0.10065854155430093,-0.00383757000513587,-0.07654837181867129,-0.06263095773764593,-0.08749251794087945,-0.04916141113301507,-0.22211998175417516,0.09551280002970336,0.1858159553869829
2066,8.386742000002414,0.1074781513273968,0.025350090699719333,-0.06602456210485375,0.10039294028820499,-0.004204999532903489,-0.07675367582276653,-0.06356222484001849,-0.08708396766961149,-0.04837554034645317,-0.22037368474900693,0.09851149292248776,0.1875540310853421
2067,8.390459500005818,0.1074781513273968,0.025350090699719333,-0.06602456210485375,0.1001234348531437,-0.004570681666126383,-0.07695565615951404,-0.06448610638871707,-0.08666283620146967,-0.04758236986739304,-0.21861112545195424,0.1014915601874531,0.18928422251206753
2068,8.394056200006162,0.10808368184146029,0.025072807394256033,-0.06613759265669203,0.09985005647854536,-0.004934563625727216,-0.0771542821618698,-0.0654025347145882,-0.08622920334952025,-0.04678193316937076,-0.2168326592923475,0.10445239958295228,0.1910064292977111
2069,8.40021269999852,0.10881398302452555,0.024116509552083106,-0.06709297302819908,0.09957283667532148,-0.005296592974966337,-0.07734952330488884,-0.0663114436474311,-0.08578315145243424,-0.04597426414702856,-0.2150386431843618,0.10739341172586896,0.19272055196564075
2070,8.404299900008482,0.10918538981601145,0.023763719610601353,-0.06737325943570337,0.09929180722954416,-0.0056567176300301135,-0.07754134920750957,-0.06721276852201732,-0.08532476536206472,-0.045159397112323196,-0.2132294354402286,0.11031400020507495,0.1944264919121089
2071,8.407752500002971,0.10918538981601145,0.023763719610601353,-0.06737325943570337,0.09900700019609862,-0.006014885870564824,-0.07772972963432204,-0.06810644618374659,-0.08485413243055154,-0.04433736679081866,-0.21140539568332387,0.1132135716940991,0.19612415138570655
2072,8.411182700001518,0.10918538981601145,0.023763719610601353,-0.06737325943570337,0.098718447892313,-0.006371046350154149,-0.0779146344973202,-0.06899241499393825,-0.08437134249695707,-0.043508208318065636,-0.20956688476115615,0.1160915360629885,0.19781343346621208
2073,8.416037500006496,0.11013856214930764,0.022807698579899845,-0.0681574896693736,0.09842618289156728,-0.006725148106738277,-0.07809603385763844,-0.06987061483475837,-0.0838764878734364,-0.04267195723607028,-0.20771426465827753,0.1189473064893438,0.19949424204284416
2074,8.419506900012493,0.11013856214930764,0.022807698579899845,-0.0681574896693736,0.09813023801688289,-0.007077140572972692,-0.07827389792727271,-0.0707409871137817,-0.08336966333094616,-0.041828649489854645,-0.2058478984091396,0.12178029956851043,0.2011664817919285
2075,8.422997500005295,0.11037916234299948,0.022502585216676828,-0.06852158157495342,0.09783064633449501,-0.007426973586524681,-0.07844819707078679,-0.07160347476818854,-0.08285096608449606,-0.040978321424111584,-0.2039681500109173,0.12458993542290832,0.20283005815398888
2076,8.429482500010636,0.11071481092556129,0.022198497693217183,-0.06883963714394466,0.09752744114740888,-0.007774597400305677,-0.07861890180700438,-0.07245802226859638,-0.08232049577794698,-0.04012100977995643,-0.20207538433632347,0.12737563781048317,0.20448487731027362
2077,8.433573300004355,0.11139197544478578,0.02192296524265757,-0.06884254242601022,0.09722065598894186,-0.008119962692637542,-0.07878598281068762,-0.07330457562252621,-0.08177835446835967,-0.039256751691778086,-0.20016996704643644,0.1301368342322622,0.20613084615872887
2078,8.437048899999354,0.11139197544478578,0.02192296524265757,-0.06884254242601022,0.09691032461625235,-0.00846302057735097,-0.07894941091420306,-0.07414308237750411,-0.08122464660989834,-0.03838558468419214,-0.1982522645035634,0.1328729560389986,0.20776787228942958
2079,8.441222200010088,0.11195869634679294,0.021341272109697204,-0.06951263924197641,0.09659648100385719,-0.008803722613814124,-0.07910915710917568,-0.07497349162379788,-0.08065947903729272,-0.037507546669098474,-0.1963226436841624,0.13558343853688823,0.20939586395947982
2080,8.445537800012971,0.11233390188256928,0.02073144708892609,-0.07047266380108498,0.09627915933713928,-0.009142020816889657,-0.0792651925481305,-0.07579575399678908,-0.08008296094886246,-0.036622675942845614,-0.1943814720918455,0.13826772109234262,0.21101473006739435
2081,8.449929800000973,0.11258649588445181,0.020437373195139948,-0.07084112929579447,0.09595839400584641,-0.009477867666818367,-0.0794174885461221,-0.07660982167898121,-0.07949520388910827,-0.035731011183504066,-0.19242911767048557,0.14092524723580258,0.2126243801269737
2082,8.454197200000635,0.11289864917552837,0.020145494355018983,-0.07124943231235854,0.09563421959758305,-0.009811216119027697,-0.07956601658235277,-0.0774156484016443,-0.07889632173087391,-0.03483259144825073,-0.19046594871744923,0.14355546476457628,0.2142247242406852
2083,8.458251800009748,0.11321887684129266,0.01988982667508897,-0.07159772398481205,0.09530667089129635,-0.010142019613863308,-0.0797107483017794,-0.07821318944609643,-0.07828643065708299,-0.033927456170866586,-0.18849233379697697,0.14615782584468803,0.21581567307256372
2084,8.462580800012802,0.11356406074006047,0.019563307576249564,-0.07201470780463737,0.09497578285075754,-0.010470232086241963,-0.07985165551670978,-0.07900240164462281,-0.07766564914205537,-0.033015645159349585,-0.18650864165373263,0.14873178711172313,0.21739713782064526
2085,8.466696200004662,0.11387126577366129,0.019343348721327175,-0.07243175374728492,0.09464159061804009,-0.01079580797522399,-0.07998871020838846,-0.0797832433810335,-0.07703409793240758,-0.032097198593644745,-0.18451524112654444,0.15127680977065475,0.21896903018894645
2086,8.470784300006926,0.11419814839683352,0.01910437652040469,-0.0728621799062982,0.09430412950699626,-0.011118702233503636,-0.08012188452857291,-0.08055567459086034,-0.07639190002754163,-0.031172157023493206,-0.18251250106235864,0.15379235969463925,0.22053126235900472
2087,8.47484809999878,0.1145607393596926,0.018806144285666196,-0.07331221652748934,0.09396343499673364,-0.01143887033681561,-0.08025115080109999,-0.08131965676119397,-0.0757391806597269,-0.030240561366402192,-0.1805007902304269,0.156277907522768,0.2220837469609941
2088,8.479011100003845,0.11487074315459617,0.01854523943896411,-0.07377394768147545,0.09361954272509342,-0.01175626829325617,-0.08037648152344327,-0.08207515293016183,-0.07507606727377898,-0.029302452905737814,-0.1784804772367491,0.15873292875676234,0.22362639704443035
2089,8.482569700005115,0.11487074315459617,0.01854523943896411,-0.07377394768147545,0.09327248848213253,-0.0120708526525172,-0.0804978493682617,-0.08282212768604814,-0.07440268950634046,-0.02835787328894234,-0.17645193043879243,0.16115690385660056,0.2251591260484804
2090,8.486795900011202,0.11554301443317509,0.01804268651356944,-0.07472247328882872,0.09292230820361135,-0.01238258051503166,-0.0806152271849399,-0.08356054716605724,-0.07371917916476821,-0.027406864525877647,-0.17441551786050868,0.16354931833506556,0.22668184777189163
2091,8.491055700011202,0.11587312282490453,0.017823939826768203,-0.0751894166932237,0.09256903796448822,-0.01269140954102878,-0.08072858800112136,-0.08429037905472163,-0.07302567020563154,-0.026449468987296384,-0.17237160710767177,0.1659096628512033,0.22819447634255816
2092,8.494596000004094,0.11587312282490453,0.017823939826768203,-0.0751894166932237,0.09221271397242169,-0.01299729795949738,-0.08083790502423414,-0.08501159258195584,-0.07232229871282624,-0.02548572940344253,-0.17032056528355738,0.1682374333026812,0.22969692618674037
2093,8.497995199999423,0.11587312282490453,0.017823939826768203,-0.0751894166932237,0.09185337256128209,-0.013300204577055745,-0.08094315164300986,-0.08572415852075722,-0.07160920287530907,-0.02451568886278278,-0.16826275890498615,0.17053213091703717,0.23118911199795278
2094,8.502068600006169,0.11654009958293352,0.017614181887255716,-0.07547503031097229,0.09149105018467416,-0.013600088786726491,-0.0810443014289966,-0.0864280491845549,-0.07088652296445806,-0.023539390810870225,-0.16619855381875143,0.17279326234180933,0.23267094870553715
2095,8.506103500010795,0.11694929083893328,0.017233967556228365,-0.07673026789238899,0.09112578340947182,-0.013896910576614963,-0.08114132813806602,-0.0871232384242086,-0.07015440131106279,-0.022556879049341765,-0.16412831511845252,0.17502033973353895,0.23414235144293807
2096,8.51013850000163,0.11725856838016234,0.017005482757465135,-0.07727000813011603,0.09075760890936696,-0.014190630538489688,-0.08123420571191509,-0.08780970162465941,-0.06941298228194938,-0.021568197735050566,-0.1620524070617537,0.17721288084563755,0.2356032355156984
2097,8.514762600010727,0.11759914842737917,0.01681253265611238,-0.07777432774220859,0.0903865634584337,-0.01448120987626348,-0.08132290827956323,-0.0884874157012344,-0.06866241225624503,-0.020573391379334848,-0.1599711929880904,0.17937040911511032,0.23705351636919167
2098,8.51867360000324,0.11794516812349386,0.01660947715527541,-0.07831400875644505,0.09001268392470954,-0.014768610414373627,-0.08140741015884519,-0.08915635909560678,-0.06790283960128667,-0.019572504847424094,-0.15788503523684302,0.1814924537481273,0.23849310955611008
2099,8.521991000001435,0.11794516812349386,0.01660947715527541,-0.07831400875644505,0.08963600726379461,-0.015052794606059622,-0.0814876858579003,-0.08981651177141341,-0.06713441464817872,-0.018565583357983636,-0.1557942950659975,0.18357854980443403,0.23992193070372506
2100,8.525296700012404,0.11856805771581184,0.01648336664769627,-0.07862944511764494,0.08925657051247048,-0.01533372554153711,-0.08156371007665837,-0.09046785520953195,-0.06635728966700483,-0.017552672482798588,-0.15369933257131155,0.18562823828059255,0.24133989548094137
2101,8.52921680000145,0.11903146250136197,0.01611771269093103,-0.07986089342390777,0.08887441078233967,-0.015611366956066602,-0.08163545770832305,-0.09111037240301989,-0.06557161884169778,-0.01653381814659793,-0.15160050660600533,0.18764106619204565,0.24274691956516325
2102,8.533293900007266,0.11935081988791893,0.015968013755597858,-0.08045233093380101,0.08848956525348721,-0.015885683237915664,-0.08170290384085302,-0.09174404785171839,-0.0647775582445728,-0.015509066627019601,-0.14949817470099647,0.1896165866539964,0.2441429186089916
2103,8.537402200003271,0.11967874866924079,0.015846041491827022,-0.080965694203228,0.08810207116816528,-0.016156639436213274,-0.08176602375844141,-0.09236886755652336,-0.06397526581052904,-0.014478464554717317,-0.14739269298569732,0.19155435896109638,0.2455278082067702
2104,8.541528200003086,0.11999926045019313,0.015677479401222605,-0.08147547916794931,0.08771196582450212,-0.016424201268695003,-0.08182479294299369,-0.09298481901332606,-0.06316490131092396,-0.01344205891360989,-0.14528441610939405,0.1934539486659357,0.24690150386099938
2105,8.546762199999648,0.12035933692669676,0.015520006018290417,-0.08203912475101865,0.08731928657023608,-0.016688335129337626,-0.08187918707560446,-0.09359189120662484,-0.06234662632712598,-0.01239989704127365,-0.1431736971632259,0.19531492765632855,0.24826392094863498
2106,8.550170500006061,0.12067738241799295,0.015406934837001141,-0.08257600439526916,0.08692407079647593,-0.01694900809588192,-0.08192918203803426,-0.09419007460281094,-0.06152060422374964,-0.011352026629478483,-0.14106088760278268,0.1971368742313884,0.24961497468729238
2107,8.554204400003073,0.12100113219762472,0.01533933014025413,-0.08308757772527471,0.08652635593148882,-0.017206187937242406,-0.08197475391418711,-0.09477936114313079,-0.06068700012157883,-0.010298495724868082,-0.13894633717133878,0.19891937317638822,0.250954580101375
2108,8.55834090001008,0.12134844438618628,0.015254793952102089,-0.08365228303876746,0.08612617943451678,-0.017459843120802787,-0.08201587899158928,-0.09535974423632776,-0.05984598087018286,-0.009239352729784718,-0.13683039382374143,0.2006620158364008,0.2522826519881471
2109,8.562413600011496,0.12174361458240499,0.015158810746439003,-0.08421716595040064,0.08572357878962346,-0.017709942819595776,-0.08205253376287035,-0.09593121875096632,-0.05899771502023118,-0.008174646403238835,-0.13471340365097187,0.20236440018871568,0.2535991048837724
2110,8.56654920001165,0.12205196601556334,0.015082431786380714,-0.08472866262599643,0.08531859149957197,-0.017956456919366114,-0.08208469492724756,-0.09649378100744174,-0.058142372795511724,-0.007104425862023577,-0.132595710805396,0.20402613091402846,0.254903853029339
2111,8.57060679999995,0.12238445820364574,0.015019239114592194,-0.08529055124995917,0.08491125507973532,-0.01819935602551546,-0.08211233939201466,-0.09704742876967817,-0.057280126064658314,-0.006028740581974359,-0.13047765742672174,0.20564681946639884,0.25619681033689035
2112,8.575058100002934,0.12273754431428537,0.014966310858477685,-0.08581256144693315,0.08450160705204084,-0.018438611469928107,-0.08213544427403628,-0.09759216123651789,-0.056411148312592,-0.004947640399373515,-0.12835958356868038,0.2072260841419736,0.2574778903554831
2113,8.579321199998958,0.12306656678561671,0.014899194365541615,-0.08631769181505553,0.08408968493894979,-0.01867419531767636,-0.08215398690124809,-0.0981279790328052,-0.05553561461168167,-0.003861175512499891,-0.12624182712644885,0.2087635501464705,0.2587470062372943
2114,8.58318230000441,0.12349038506356423,0.014874821835609894,-0.08686534631506287,0.08367552625747403,-0.018906080373604407,-0.0821679448141634,-0.09865488420016773,-0.054653701592628695,-0.002769396483323235,-0.12412472376482847,0.2102588496614198,0.2600040707037996
2115,8.587560600004508,0.12386070760642512,0.014800000405945363,-0.08739598020529636,0.0832591685132306,-0.019134240188789564,-0.0821772957673867,-0.09917288018749822,-0.053765587415080855,-0.001672354239343116,-0.1220086068471969,0.21171162190916046,0.2612489960120437
2116,8.591619099999662,0.12415571576522302,0.01479800459187525,-0.08790123543267495,0.08284064919453592,-0.01935864906687974,-0.08218201773113537,-0.09968197184113942,-0.052871451737980704,-0.0005701000755720307,-0.11989380736524985,0.21312151321658834,0.26248169392102466
2117,8.595831500002532,0.12446906284244708,0.014736538154082499,-0.0884764736837089,0.08242000576654065,-0.019579282070306177,-0.08218208889276996,-0.10018216539477526,-0.05197147568965351,0.0005373143433377405,-0.11778065386954788,0.21448817707765494,0.26370207565821296
2118,8.599937899998622,0.12486150899956958,0.014701062194034394,-0.0890084788365086,0.08199727566540702,-0.01979611502637042,-0.08217748765833338,-0.10067346845903141,-0.05106584183763982,0.0016498369808240366,-0.11566947240088366,0.21581127421461277,0.2649100518862252
2119,8.605800300007104,0.12520840000114666,0.014670493795259377,-0.08950422001278119,0.08157249629252934,-0.020009124533204328,-0.08216819265409964,-0.10115589001078912,-0.050154734158277564,0.002767415426002089,-0.11356058642248507,0.2170904726380059,0.26610553266967296
2120,8.609246200008783,0.12555990775142228,0.01462916820004127,-0.09004220617394423,0.08114570500879997,-0.020218287965602138,-0.0821541827281323,-0.10162944038221594,-0.04923833800603891,0.0038899968911098558,-0.11145431675306904,0.21832544770540388,0.2672884274422089
2121,8.61270300000615,0.12592748930280134,0.014594709860675875,-0.09059901481105548,0.08071693912892179,-0.02042358348072358,-0.08213543695185366,-0.10209413124951668,-0.048316840082626954,0.005017528208812202,-0.10935098150076096,0.21951588217887696,0.26845864497378974
2122,8.616727500004345,0.1262819020764035,0.014592565040451927,-0.09107754996006723,0.0802862359157688,-0.02062499002366711,-0.08211193462162525,-0.10254997562140818,-0.04739042840583758,0.006149955829364794,-0.1072508959978942,0.22066146628121153,0.2696160933381779
2123,8.620882700008224,0.12660867284077787,0.014628845783697832,-0.0915364062736796,0.07985363257479622,-0.02082248733291236,-0.08208365526034023,-0.10299698782732143,-0.0464592922781915,0.007287225817638659,-0.10515437273670405,0.22176189775086508,0.2707606798807005
2124,8.624933900005999,0.12696548947072006,0.014595967547679264,-0.09205775032338248,0.07941916624850119,-0.021016055945631055,-0.08205057861902808,-0.10343518350533461,-0.045523622255341366,0.008429283850006497,-0.10306172130593061,0.22281688189565899,0.27189231118628815
2125,8.629081200007931,0.12735139327801775,0.014551530975210055,-0.09260574606619501,0.0789828740109353,-0.021205677202865435,-0.08201268467847216,-0.10386457958984092,-0.044583610114259084,0.009576075211091878,-0.1009732483283444,0.22382613164520865,0.27301089304781284
2126,8.63261010000133,0.12735139327801775,0.014551530975210055,-0.09260574606619501,0.07854479286227,-0.021391333254573378,-0.08196995365084052,-0.10428519429895486,-0.04363944882120841,0.010727544790382572,-0.09888925739920876,0.2247893676020913,0.2741163304347466
2127,8.63633550000668,0.12735139327801775,0.014551530975210055,-0.09260574606619501,0.0781049597234162,-0.021573007064539323,-0.08192236598133072,-0.10469704712166147,-0.04269133249950796,0.011883637078709331,-0.09681004902569186,0.2257063180917506,0.27520852746216085
2128,8.641348700009985,0.12846590576002564,0.014635156609573548,-0.09395230039229258,0.07766341143069903,-0.02175068241515021,-0.08186990234982892,-0.10510015880471266,-0.04173945639708974,0.0130442961645916,-0.09473592056724155,0.2265767192111375,0.27628738736008746
2129,8.644784300005995,0.12846590576002564,0.014635156609573548,-0.09395230039229258,0.07722018473058884,-0.021924343912035564,-0.08181254367258387,-0.10549455133927431,-0.040784016853858504,0.014209465730451665,-0.09266716617693582,0.22740031487608708,0.2773528124432605
2130,8.648312800010899,0.12846590576002564,0.014635156609573548,-0.09395230039229258,0.07677531627448983,-0.02209397698857104,-0.08175027110389668,-0.10588024794732841,-0.03982521126885728,0.015379089048698889,-0.09060407674382165,0.22817685686743075,0.27840470408126183
2131,8.65187890001107,0.12904481294124837,0.014606257501097786,-0.09424835351394527,0.07632884261358695,-0.022259567910244683,-0.08168306603782735,-0.10625727306783438,-0.03886323806724396,0.016553108977685676,-0.08854693983625404,0.2289061048758445,0.2794429626690896
2132,8.655964000005042,0.1295828282788173,0.014752443927019633,-0.09526889076164716,0.07588080019375165,-0.02242110377888525,-0.08161091010991818,-0.10662565234265342,-0.0378982966670841,0.017731467957537023,-0.08649603964624732,0.22958782654543275,0.28046748759816925
2133,8.660063100003754,0.12989697838013534,0.014782119335964922,-0.09569654623646441,0.07543122535050746,-0.022578572536751766,-0.08153378519893535,-0.10698541260224048,-0.036930587445964926,0.018914108005855544,-0.08445165693484971,0.23022179751604877,0.2814781772278293
2134,8.664267600004678,0.13023099174645367,0.01481943377376606,-0.0961076291967513,0.07498015430405605,-0.022731962970483653,-0.08145167342862913,-0.10733658185110839,-0.035960311707435806,0.020100970713303884,-0.08241406897855248,0.23080780146435245,0.2824749288572605
2135,8.667793900007382,0.13056008831079924,0.014898442806670603,-0.09640605369444871,0.07452762315436542,-0.02288126471491075,-0.08136455716951302,-0.10767918925306896,-0.03498767164728057,0.021291997239066638,-0.08038354951674426,0.23134563014360723,0.28345763869798096
2136,8.671392500007642,0.13088662947192628,0.014957210546201324,-0.09678474919671494,0.07407366787632129,-0.023026468256722554,-0.08127241904066194,-0.1080132651162561,-0.0340128703196268,0.02248712830619399,-0.0783603687002213,0.231835083422217,0.2844262018468273
2137,8.674901900012628,0.13122702923505628,0.015072559365470303,-0.09716252997079475,0.07361832431494252,-0.023167564937995936,-0.0811752419115305,-0.10833884087793567,-0.03303611160289706,0.02368630419682928,-0.07634479304076461,0.23227596932100625,0.2853805122594922
2138,8.679183200001717,0.13155464078407478,0.015103404294322668,-0.09757042353502463,0.07316162818066106,-0.0233045469595806,-0.08107300890379196,-0.10865594908910682,-0.0320576001656071,0.024889464747322922,-0.07433708536179424,0.23266810404924482,0.286320462724629
2139,8.682636700003059,0.13155464078407478,0.015103404294322668,-0.09757042353502463,0.0727036150446672,-0.02343740738434162,-0.08096570339319888,-0.10896462339889891,-0.03107754143201597,0.02609654934323509,-0.07233750475011046,0.23301131203941816,0.2872459448385455
2140,8.686083600012353,0.13155464078407478,0.015103404294322668,-0.09757042353502463,0.0722443203343212,-0.023566140140258506,-0.0808533090114657,-0.10926489853876932,-0.03009614154763296,0.02730749691422974,-0.07034630650873093,0.23330542598074394,0.28815684898050525
2141,8.690270500010229,0.1321025473392999,0.01515701823402623,-0.09772204563170162,0.07178377932863181,-0.02369074002338012,-0.0807358096481739,-0.10955681030650645,-0.029113607344586644,0.028522245928862437,-0.06836374211083286,0.23355028685143756,0.28905306428865746
2142,8.69365810000454,0.1324383747327469,0.015307734828909644,-0.09854874267989057,0.07132202715380266,-0.023811202700634814,-0.08061318945269973,-0.10984039555004267,-0.028130146306860927,0.02974073438926461,-0.066390059154808,0.233745743949729,0.28993447863661337
2143,8.697879600003944,0.1324383747327469,0.015307734828909644,-0.09854874267989057,0.07085909877884751,-0.02392752471249514,-0.08048543283616519,-0.11011569215108176,-0.027145966535403368,0.030962899825727037,-0.06442550132043903,0.233891654923633,0.2908009786106914
2144,8.70214570000826,0.13288457588037839,0.015349730268159834,-0.0988496299352068,0.07039502901127476,-0.024039703475496554,-0.08035252447341241,-0.11038273900854535,-0.02616127671311082,0.03218867929118534,-0.06247030832620552,0.23398788579947455,0.29165244948785013
2145,8.706285300009768,0.1332938943681344,0.015436782298255462,-0.09965294701488288,0.06992985249284177,-0.024147737284609682,-0.0802144493050016,-0.11064157602184345,-0.025176286069697473,0.0334180093556104,-0.060524715887727384,0.2340343110091712,0.29248877521433003
2146,8.710555300000124,0.1335448663309488,0.015492328758677648,-0.09999518490201575,0.06946360369538003,-0.024251625315465784,-0.08007119253923327,-0.11089224407397358,-0.024191204346450366,0.03465082610030655,-0.05858895567735348,0.2340308134162751,0.29330983838502317
2147,8.714582700005849,0.13384751979055734,0.015515564790003291,-0.10030639854427398,0.06899631691669189,-0.024351367626434948,-0.07992273965419541,-0.11113478501445351,-0.023206241760877502,0.035887065112120614,-0.05666325528490301,0.2339772843407764,0.2941155202235923
2148,8.718632200005231,0.13411935672989256,0.015494098233303211,-0.10067866946149565,0.06852802627651974,-0.024446965160556652,-0.07976907639983577,-0.11136924164209205,-0.02222160897125342,0.03712666147756516,-0.054747838179566695,0.23387362358267055,0.2949057005633573
2149,8.723634400012088,0.13433289904407475,0.015517999058450093,-0.10101597511634595,0.06805876571258818,-0.02453841974732229,-0.07961018880005948,-0.11159565768760214,-0.021237517041066984,0.03836954977685922,-0.05284292367297445,0.23371973944429408,0.29568025782896884
2150,8.728318100009346,0.13456273316184958,0.01549599799697484,-0.10136575519890824,0.06758856897671908,-0.024625734104309138,-0.07944606315485195,-0.11181407779606133,-0.020254177403376285,0.03961566407788977,-0.05094872688343582,0.23351554875142885,0.2964390690188859
2151,8.73303410000517,0.13488006411921913,0.015422362255376628,-0.10157468731915098,0.06711746963102033,-0.024708911838665353,-0.07927668604242723,-0.11202454750922494,-0.01927180182507558,0.04086493793009766,-0.049065458701359324,0.23326097687318004,0.29718200968867603
2152,8.737445500009926,0.13521740810668104,0.015333301816327782,-0.10226181519936806,0.06664550104414871,-0.024787957448445648,-0.07910204432140215,-0.11222711324769748,-0.018290602371079233,0.04211730435829155,-0.04719332575585647,0.23295595774062974,0.29790895393515615
2153,8.74243570001272,0.13540050870433593,0.015276488539011104,-0.10258772952547579,0.06617269638764793,-0.024862876323797294,-0.07892212513299654,-0.11242182229296699,-0.017310791368427596,0.04337269585639359,-0.04533253038253579,0.23260043386426948,0.29861977438139203
2154,8.746122299999115,0.13540050870433593,0.015276488539011104,-0.10258772952547579,0.06569908863236253,-0.02493367474799616,-0.07873691590325971,-0.11260872276930671,-0.01633258137031975,0.04463104438112048,-0.043483270592492115,0.23219435635021388,0.2993143421625765
2155,8.749981200002367,0.13574070175450142,0.015204109318515553,-0.10278944681572175,0.0652247105449287,-0.025000359898332457,-0.07854640434532383,-0.11278786362554907,-0.015356185120077978,0.04589228134560363,-0.04164574004249589,0.2317376849151982,0.29999252691280365
2156,8.754232400009641,0.13601350015821112,0.015074926094177297,-0.10345151423441187,0.06474959468434265,-0.02506293984684583,-0.07835057846168399,-0.11295929461673683,-0.014381815515048864,0.04715633761295256,-0.03982012800638698,0.23123038790036315,0.30065419675275584
2157,8.758244200012996,0.136186212978259,0.014973214289210944,-0.10371109964208838,0.06427377339860663,-0.025121423560909593,-0.07814942654650524,-0.11312306628565627,-0.013409685570445971,0.048423143489765445,-0.038006619347677066,0.23067244228382966,0.30129921827832057
2158,8.762316300009843,0.13635520081298946,0.014894448306863386,-0.10397362511580335,0.06379727882145377,-0.025175820903663836,-0.07794293718795688,-0.11327922994425718,-0.012440008383139075,0.0496926287195909,-0.036205394493364636,0.23006383369206646,0.30192745655015113
2159,8.76681310001004,0.1365178810083407,0.014822457382209256,-0.10422557813560285,0.06332014286915134,-0.02522614263429712,-0.0777310992705738,-0.11342783765496485,-0.01147299709539477,0.0509647224763451,-0.03441662940896612,0.22940455641005375,0.3025387750841884
2160,8.770841700010351,0.13668338843032715,0.01476197438790738,-0.10443014750766322,0.06284239723738286,-0.02527240040817667,-0.07751390197764498,-0.11356894221188922,-0.010508864858573285,0.052239353357688055,-0.03264049557476653,0.22869461339024538,0.30313303584315887
2161,8.775060500003747,0.13687307074691565,0.014712939591544199,-0.10465652699643309,0.06236407339820918,-0.025314606776826815,-0.07729133479362958,-0.11370259712193699,-0.00954782479678638,0.05351644937836324,-0.0308771599632926,0.2279340162603326,0.3037100992290612
2162,8.779019900001003,0.13709223976598442,0.01458785937974868,-0.10488780181608448,0.061885202597109695,-0.025352775187755514,-0.07706338750660081,-0.11382885658583174,-0.008590089970521185,0.05479593796350463,-0.02912678501801146,0.2271227853298124,0.3042698240766565
2163,8.78315940000175,0.13722714272732287,0.014486381317926508,-0.10510691530878984,0.061405815850103324,-0.025386919984128873,-0.0768300502107183,-0.11394777547904718,-0.007635873340234814,0.05607774594191553,-0.0273895286332573,0.2262609495953638,0.30481206764797525
2164,8.787798500008648,0.13739366780601098,0.014411103950467352,-0.10533452888436162,0.06092594394094993,-0.025417056404293415,-0.07659131330872988,-0.1140594093326585,-0.00668538772992459,0.057361799539323584,-0.02566554413538809,0.22534854674503663,0.30533668562785626
2165,8.791631900006905,0.1375286944589707,0.014333818507305064,-0.10550953905614345,0.06044561741843237,-0.025443200581146137,-0.07634716751450253,-0.11416381431411628,-0.005738845790678663,0.05864802437161624,-0.023954980265174033,0.2243856231612548,0.30584353212053056
2166,8.795897800009698,0.137696410771117,0.014266669326339652,-0.10571220067829244,0.05996486659371942,-0.025465369541352336,-0.07609760385558267,-0.11426104720794791,-0.004796459964211879,0.0599363454380615,-0.022257981161419423,0.2233722339226368,0.3063324596472667
2167,8.800005299999611,0.1378960096234692,0.014171458045081813,-0.10590987447623415,0.05948372153780995,-0.025483581204411115,-0.07584261367578574,-0.11435116539639127,-0.003858442446391646,0.06122668711451873,-0.020574686345819233,0.22230844280463738,0.30680331914509223
2168,8.804320800001733,0.13809749849494524,0.014059474723069787,-0.10607924031008073,0.05900221207905841,-0.025497854381568513,-0.075582188637815,-0.11443422683996518,-0.0029250051507586426,0.06251897314664394,-0.018905230709051368,0.22119432227901292,0.30725595996660376
2169,8.808459600011702,0.13824986410304477,0.013981187609486048,-0.106264704143708,0.05852036780078193,-0.02550820877457817,-0.07531632072590973,-0.11451029005798159,-0.0019963596720471255,0.06381312664309434,-0.017249744498105266,0.22002995351211435,0.3076902298808781
2170,8.812491500008036,0.1383805132036865,0.013904325284670437,-0.10643865440336353,0.05803821803894944,-0.025514664974309518,-0.07504500224852259,-0.11457941410900477,-0.0010727172497096227,0.0651090700687371,-0.015608353304847186,0.21881542636201134,0.3081059750754975
2171,8.816712100000586,0.13851786715038605,0.013795348312473976,-0.10660872933580424,0.057555791879952904,-0.02551724445920366,-0.0747682258410267,-0.11464165857126239,-0.0001542887314507985,0.06640672523786721,-0.013981178055822188,0.2175508393744506,0.30850304015970215
2172,8.820913200004725,0.13865216449712053,0.013678361297634183,-0.10677721358497326,0.05707311815846086,-0.02551596959357686,-0.07448598446845234,-0.11469708352301393,0.0007587154632247462,0.0677060133074394,-0.012368335003292593,0.21623629977765127,0.3088812681686814
2173,8.824943500003428,0.1387758534867103,0.013579818034478627,-0.10692950475395079,0.056590225455354644,-0.025510863625771728,-0.0741982714282532,-0.11474574952288097,0.0016660853794459726,0.06900685477031941,-0.010769935717512377,0.21487192347594083,0.3092405005690146
2174,8.828996100011864,0.13885278625874387,0.013474336430151895,-0.10707708219910858,0.056107142095746944,-0.025501950686156134,-0.07390508035310192,-0.11478771759014489,0.002567611563385442,0.07030916944855947,-0.009186087080236672,0.21345783504223528,0.3095805772652748
2175,8.833345100007136,0.13898112822923447,0.013373417294811483,-0.1072174865697529,0.05562389614708286,-0.02548925578496988,-0.07360640521371468,-0.11482304918501685,0.003463085098641145,0.07161287648670302,-0.007616891279465263,0.21199416770936672,0.30990133660780617
2176,8.837443900003564,0.13906617233984114,0.013297387524334866,-0.10733208224247166,0.05514051541732371,-0.025472804810019244,-0.0733022403217054,-0.11485180618888528,0.004352297642585383,0.07291789434512379,-0.006062445805418685,0.21048106336026143,0.3102026154016845
2177,8.841478400005144,0.13915861312760797,0.013212542653670258,-0.10745955112745466,0.05465702745321361,-0.025452624524219505,-0.07299258033246891,-0.1148740508845467,0.005235041462675964,0.07422414079340445,-0.004522843447745238,0.2089186725169707,0.3104842489168732
2178,8.845935200006352,0.13927966162473643,0.013131643270248954,-0.10761017358182749,0.05417345953862859,-0.025428742562985506,-0.07267742024809344,-0.11488984593642462,0.006111109472724977,0.07553153290375983,-0.002998172293956884,0.20730715432855798,0.310746070899584
2179,8.850291900002048,0.13936079451399805,0.01303945272158361,-0.10775995136020024,0.05368983869300819,-0.025401187431470514,-0.07235675542030202,-0.1148992543707815,0.006980295269120438,0.07683998704451062,-0.0014885157290917804,0.20564667655784716,0.3109879135848515
2180,8.854114100002334,0.13944093783666017,0.012946401857029466,-0.1078653088204465,0.05320619166986968,-0.025369988501653628,-0.07203058155342282,-0.11490233955592878,0.007842393166996052,0.07814941887361285,6.047563399135955e-06,0.20393741556703326,0.311209607710333
2181,8.85828090000723,0.13957306652323506,0.012833429855116428,-0.10796719425757777,0.052722544955405265,-0.02533517600927587,-0.07169889470738769,-0.11489916518244019,0.008697198236344421,0.0794597433322486,0.0014854435995443683,0.2021795563021584,0.3114109825313418
2182,8.862287399999332,0.1396545365812792,0.01274664798407123,-0.10806335027891534,0.05223892476716195,-0.025296781050625362,-0.07136169130075895,-0.11488979524337281,0.009544506338068972,0.08077087463848309,0.002949603091526022,0.20037329227645592,0.31159186583712234
2183,8.866389000002528,0.13972029602621128,0.012658374509899522,-0.10814983982748635,0.051755357052804145,-0.025254835579171735,-0.07101896811378419,-0.11487429401450133,0.010384114159969907,0.0820827262809936,0.004398461443139306,0.19851882555256628,0.31175208396837334
2184,8.869951200002106,0.13972029602621128,0.012658374509899522,-0.10814983982748635,0.05127186748895891,-0.025209372402049877,-0.0706707222914785,-0.11485272603457122,0.011215819252659472,0.08339521101287566,0.005831958744041056,0.19661636672362795,0.31189146183602656
2185,8.873579200007953,0.13972029602621128,0.012658374509899522,-0.10814983982748635,0.05078848148014388,-0.025160425176393348,-0.0703169513467333,-0.11482515608557625,0.012039420065401858,0.08470824084553216,0.007250039762791246,0.1946661348932464,0.31200982294128804
2186,8.876997200000915,0.13989849626692658,0.012595816510471043,-0.10826277831229769,0.05030522415777785,-0.02510802840551765,-0.06995765316345151,-0.11479164917306547,0.012854715981873053,0.08602172704265029,0.008652653938691711,0.19266835765434373,0.31210698939694903
2187,8.881133000002592,0.1399216551036992,0.012370019720585762,-0.10843091293385945,0.049822120379273825,-0.025052217434953682,-0.0695928259997087,-0.11475227050648495,0.013661507355835918,0.08733558011427131,0.01003975537242659,0.1906232710668919,0.31218278194997157
2188,8.885258900001645,0.1399656764726103,0.012236555249130504,-0.10854413271492241,0.049339194727214625,-0.024993028448331643,-0.06922246849094023,-0.11470708547955967,0.014459595546725776,0.08864970981095842,0.011411302815509266,0.18853111963453295,0.3122370200053534
2189,8.889198600008967,0.14002792620939236,0.01212573061598517,-0.10862324317369487,0.048856471508610416,-0.024930498463115736,-0.0688465796531539,-0.11465615965072076,0.01524878295514184,0.08996402511806821,0.012767259658540848,0.1863921562800882,0.31226952165127597
2190,8.893325900004129,0.14009030104342654,0.012009551108952582,-0.10869125828116,0.04837397475423801,-0.02486466532619001,-0.06846515888616772,-0.11459955872358389,0.01602887305823968,0.09127843425013149,0.014107593918285541,0.1842066423199584,0.31228010368553805
2191,8.896687500004191,0.1401438243371866,0.01185615100640052,-0.10879044190736206,0.04789172821806167,-0.024795567709295713,-0.06807820597687264,-0.11453734852748336,0.016799670445020096,0.09259284464534859,0.015432278223568435,0.18197484743741707,0.3122685816432777
2192,8.900118200006546,0.14021270325023477,0.01171920189877065,-0.10886060277716364,0.047409755376735266,-0.024723245104320554,-0.06768572110251946,-0.11446959499806647,0.01756098085150971,0.09390716296020467,0.016741289800001544,0.1796970496548002,0.31223476982598386
2193,8.904088700001012,0.14031774884964512,0.011562036608962285,-0.10893725354620781,0.04692807942918554,-0.024647737818440433,-0.06728770483402938,-0.1143963641579529,0.018312611195828728,0.09522129506421091,0.018034610453544177,0.17737353530459424,0.3121784813318012
2194,8.908199900004547,0.14038289212674795,0.01143446386643393,-0.10900730993910161,0.046446723296276304,-0.0245690869691139,-0.06688415813932815,-0.11431772209746455,0.019054369613141244,0.0965351460347773,0.019312226552903933,0.175004598999425,0.31209952808712965
2195,8.91250000000582,0.1404730219341772,0.011283964894509415,-0.10905530379985737,0.045965709620553505,-0.02448733447892963,-0.06647508238670297,-0.11423373495543081,0.019786065490483402,0.09784862015222275,0.02057412901078484,0.17259054360095036,0.31199772087952116
2196,8.916809200003627,0.14053657032226002,0.011157181941687126,-0.10909659293808537,0.0454850607660707,-0.02440252307030748,-0.06606047934818202,-0.11414446890007417,0.020507509501464887,0.09916162089492857,0.02182031326398956,0.17013168018765837,0.31187286939187514
2197,8.920236200006912,0.14053657032226002,0.011157181941687126,-0.10909659293808537,0.045004798818294736,-0.024314696260053607,-0.06564035120293567,-0.11404999010998154,0.02121851364083927,0.10047405093464065,0.02305077925238279,0.1676283280215742,0.3117247822379334
2198,8.923930600009044,0.14053657032226002,0.011157181941687126,-0.10909659293808537,0.04452494558409131,-0.024223898353770142,-0.06521470054069844,-0.11395036475516675,0.021918891258938592,0.10178581213192618,0.024265531396723085,0.1650808145138788,0.3115532669990731
2199,8.929023700009566,0.14074403181346873,0.010747536942310544,-0.10923299937333944,0.044045522591790266,-0.02413017444011989,-0.06478353036521098,-0.11384565897822839,0.02260845709596752,0.10309680553179063,0.025464578575370777,0.16248947518944037,0.3113581302623969
