,time,x,y,z,vx,vy,vz,ax,ay,az,jx,jy,jz
2262,9.85251270000299,-0.03292952286156913,-0.018346433391775205,0.014487839202729526,0.0024241524947923644,-0.004328649164773342,0.005295725638242726,0.026253308413970076,0.053918958954870616,-0.006621842292611754,0.04449585497631551,0.16412770317107092,-0.060076548115833524
2263,9.856454799999485,-0.032934603897241566,-0.018357130202505623,0.014501342237705477,0.002539370126879769,-0.004091335313354364,0.005266214541665947,0.026446944764069055,0.054637892194302436,-0.006887125094273369,0.04407050662348943,0.16468055527599626,-0.061282220931575704
2264,9.860626300011065,-0.03293402788368889,-0.01837562961023587,0.014509590962014794,0.0026554304200926784,-0.0038508724198828424,0.005235532057226433,0.02663870886472342,0.055359198024178435,-0.007157689204850838,0.04363949718220162,0.1652122945907469,-0.062491790893840826
2265,9.864608800009592,-0.032945405731693585,-0.01839252679433033,0.014513718694260526,0.002772325135694623,-0.0036072503028866366,0.005203655052951588,0.026828576087263533,0.056082783566995684,-0.007433551292330492,0.043202883929041834,0.16572267991084014,-0.06370507817375394
2266,9.868987300011211,-0.032945344945919705,-0.01841716861179629,0.014522223907675422,0.002890045927761197,-0.0033604591892985028,0.005170560325681793,0.027016522055778387,0.05680855489601753,-0.007714727234931877,0.04276072520267175,0.16621147302873818,-0.06492190150057965
2267,9.87311810000392,-0.03294090474379323,-0.018435517591543996,0.014531722425559664,0.0030085843442924356,-0.0031104897190243996,0.00513622460453778,0.027202522651753876,0.057536417048541205,-0.008001232114838549,0.042313080398623346,0.16667843879022898,-0.06614207818379773
2268,9.877286200004164,-0.03294586153599867,-0.018513479720678877,0.014536857416925897,0.003127931828345483,-0.0028573329494535602,0.005100624554415213,0.027386554018687732,0.058266274039412945,-0.008293080212026176,0.041860009963882415,0.1671233451504868,-0.06736542413546276
2269,9.881666300003417,-0.032946943596255863,-0.018539991549776178,0.014543540417038505,0.0032480797191874306,-0.002600980359909271,0.005063736779506049,0.02756859256668025,0.05899802887478929,-0.008590284998189143,0.04140157539125563,0.1675459632297992,-0.06859175389284508
2270,9.885531700012509,-0.03295053163839904,-0.018582081299604383,0.014559497625616992,0.0033690192534682295,-0.002341423856039286,0.005025537826846241,0.027748614976999875,0.05973158356614307,-0.008892859130766824,0.04093783921351976,0.16794606736894713,-0.06982088064135078
2271,9.889911600010237,-0.032951717756635114,-0.018609385931874504,0.014578559612870558,0.0034907415664135587,-0.0020786557741448034,0.004986004189889363,0.027926598206622532,0.06046683914451241,-0.00920081444707065,0.04046886499735161,0.16832343518422485,-0.0710526162377179
2272,9.894159000003128,-0.03295403148849477,-0.01862689386390191,0.014590707346826621,0.003613237693037557,-0.0018126688854469227,0.0049451123121057,0.02810251949274375,0.06120369567499108,-0.009514161958513186,0.03999471733703735,0.1686778476220869,-0.07228677123348606
2273,9.898003300011624,-0.03295937714861446,-0.01866575923621932,0.014600804983491431,0.003736498569375295,-0.0015434564002895135,0.004902838590606359,0.02827635635726259,0.06194205227145779,-0.009832911844940426,0.03951546184796006,0.16900908901340891,-0.07352315489873652
2274,9.90239780000411,-0.032967155823340526,-0.01868957621632653,0.014618477967112041,0.003860515033734892,-0.0012710119722774578,0.004859159379791975,0.028448086611236427,0.06268180711154317,-0.010157073449068436,0.03903116515986425,0.16931694712735043,-0.0747615752460994
2275,9.905722200011953,-0.032967155823340526,-0.01868957621632653,0.014618477967112041,0.003985277827969151,-0.0009953297023492292,0.004814050995025522,0.028617688359305622,0.06342285745183238,-0.010486655271025507,0.03854189490989601,0.16960121322480726,-0.07600183905502463
2276,9.90934160001052,-0.032967155823340526,-0.01868957621632653,0.014618477967112041,0.004110777598766579,-0.000716404142782768,0.004767489716328735,0.028785140004087155,0.06416509964330129,-0.01082166496300097,0.038047719735417755,0.16986168211144026,-0.0772437518963138
2277,9.915104100000462,-0.03297909975542336,-0.01882510201756385,0.014662944622176793,0.004237004898961667,-0.0004342303011336187,0.004719451792101675,0.028950420250536246,0.06490842914698386,-0.011162109324001824,0.037548709266596626,0.1700981521902676,-0.07848711815691022
2278,9.918883000005737,-0.03297958019074035,-0.018854431315509672,0.014683885384324722,0.004363950188864316,-0.00014880364410430405,0.004669913442864976,0.02911350811027477,0.06565274054986871,-0.01150799429471827,0.03704493411876554,0.17031042551380754,-0.07973174106494413
2279,9.923095300007844,-0.032981887280454175,-0.018892916815399945,0.014695676371681609,0.004491603837608253,0.0001398798986560852,0.004618850865024295,0.029274382905885507,0.06639792758102334,-0.011859324952499223,0.03653646588455575,0.17049830783575923,-0.08097742271503003
2280,9.929121400011354,-0.03298139021630885,-0.018923551119924525,0.014713007853352039,0.004619956124518277,0.0004318239308230936,0.004566240234656502,0.029433024275171114,0.06714388312794388,-0.012216105506438913,0.036023377125799984,0.1706616086622086,-0.08222396409381261
2281,9.93546230001084,-0.03300570804460596,-0.018962162276195522,0.014722070739185654,0.004748997240496182,0.0007270315857398984,0.004512057711317094,0.029589412175376858,0.06789049925312825,-0.01257833929257573,0.03550574136520522,0.17080014130234694,-0.08347116510575767
2282,9.938912500001608,-0.03300570804460596,-0.018962162276195522,0.014722070739185654,0.004878717289425185,0.001025505522833095,0.004456279441868372,0.029743526887375957,0.0686376672108708,-0.012946028769204363,0.03498363307779427,0.17091372291869011,-0.08471882459918469
2283,9.94411980001314,-0.032996488152254484,-0.018966157500850456,0.014738973625550995,0.005009106289592726,0.0013272479241022597,0.004398881564327855,0.02989534901981656,0.0693852774642768,-0.013319175512302302,0.034457127682115216,0.17100217457678574,-0.0859667403925371
2284,9.94740480001201,-0.032996488152254484,-0.018966157500850456,0.014738973625550995,0.005140154175131448,0.0016322604906842657,0.004339840211736429,0.030044859513229407,0.07013321970249345,-0.013697780211071741,0.03392630153121815,0.1710653212943951,-0.08721470930088693
2285,9.95427230000496,-0.03300549397189783,-0.018995847542229292,0.014745882687355771,0.005271850797478211,0.001940544439493327,0.00427913151604576,0.030192039644095243,0.07088138285815532,-0.014081842663597948,0.033391231903398357,0.17110299209013696,-0.08846252716267017
2286,9.957820000010544,-0.03300549397189783,-0.018995847542229292,0.014745882687355771,0.005404185926850938,0.002252100499937727,0.004216731612024466,0.03033687102887093,0.0716296551250418,-0.014471361772625146,0.03285199699270527,0.17111502003158055,-0.08970998886664994
2287,9.961147400012123,-0.033033883581268346,-0.01903651443201316,0.014775138431489152,0.005537149253743105,0.002566928910714183,0.004152616641182558,0.03047933562797334,0.07237792397594434,-0.014866335541450981,0.032308675899216585,0.17110124228277512,-0.09095688837910394
2288,9.965365300013218,-0.033063053559195185,-0.019162590962345124,0.014766914462028689,0.005670730390435724,0.002885029416680785,0.004086762755713622,0.030619415749719908,0.07312607618074073,-0.015266761069940595,0.031761348619077145,0.17106150015120275,-0.09220301877123241
2289,9.969177700011642,-0.033095467419747324,-0.01922759774832467,0.014765108418343241,0.005804918872526595,0.0032064012658094376,0.004019146122454222,0.030757094054224908,0.07387399782467394,-0.015672634550661372,0.031210096034301846,0.1709956391341423,-0.09344817224678337
2290,9.97315270001127,-0.033112964763197285,-0.01924631729124987,0.014766117541067554,0.00593970416047665,0.0035310432062187224,0.003949742926859987,0.030892353557250302,0.07462157432683265,-0.01608395126513932,0.0306549999023421,0.17090350896443285,-0.09469214016989166
2291,9.977374300011434,-0.03312328081208482,-0.01926680482370765,0.014774349710350831,0.006075075641173174,0.003858953483288087,0.0038785293769978413,0.03102517763401015,0.07536869045883043,-0.016500705580238,0.030096142845415147,0.1707849636556239,-0.09593471309312836
2292,9.98144350000075,-0.03314662440608301,-0.019292031136409288,0.014790632519123874,0.0062110226295097,0.004190129836854273,0.0038054817075538166,0.031155550022927535,0.07611523036368044,-0.01692289094466095,0.029533608339596094,0.17063986154650043,-0.09717568078575693
2293,9.985627200003364,-0.03315758803586336,-0.019314085319095082,0.014807092541870077,0.006347534369982345,0.004524569498490872,0.003730576183855902,0.031283454829342895,0.07686107757486246,-0.017350499885578435,0.028967480703672256,0.17046806534497014,-0.09841483226219254
2294,9.989616200007733,-0.03318672801487917,-0.019335009436478836,0.014834001582740786,0.006484600038302367,0.004862269188871894,0.003653789105911357,0.031408876529172854,0.07760611503557965,-0.01778352400537949,0.028397845087759613,0.17026944217130152,-0.09965195581066091
2295,9.993994800010114,-0.03320028917324437,-0.019352014706628597,0.014857426729682946,0.006622208743024671,0.005203225115220231,0.003575096812457952,0.03153179997251865,0.0783502251182023,-0.018221953978550035,0.02782478746168121,0.17004386360070062,-0.10088683902205334
2296,9.998203900002409,-0.03320028917324437,-0.019352014706628597,0.014857426729682946,0.006760349527192057,0.005547432968841853,0.0034944756850285807,0.031652210387222934,0.07909328964389568,-0.018665779548677954,0.027248394603107427,0.16979120570521394,-0.1021192688189742
2297,10.002284300004249,-0.03321070678814742,-0.019383737151420805,0.014884710064365958,0.006899011369994952,0.005894887922746589,0.0034119021520286914,0.03177009338237391,0.07983518990242908,-0.019114989525585983,0.026668754085458,0.16951134909494553,-0.10334903148497715
2298,10.005710700002965,-0.03321070678814742,-0.019383737151420805,0.014884710064365958,0.00703818318844644,0.006245584629356342,0.003327352692825975,0.03188543495175572,0.08057580667216249,-0.019569571782593262,0.026085954265565897,0.1692041789585757,-0.10457591269398665
2299,10.009780700012923,-0.03321070678814742,-0.019383737151420805,0.014884710064365958,0.0071778538390723425,0.0065995172183015835,0.003240803841851752,0.03199822147724407,0.08131502024020773,-0.020029513253906322,0.025500084271103157,0.1688695851031695,-0.10579969753990123
2300,10.014325000011011,-0.03323743672891037,-0.019441593322954788,0.0149171236917633,0.007318012119616121,0.006956679294306926,0.003152232192713473,0.03210843973214586,0.08205271042276056,-0.02049479993214023,0.024911233987768892,0.16850746199326358,-0.10702017056637449
2301,10.01890030001232,-0.033286524614428575,-0.019502637842131992,0.014956602330231893,0.007458646770758396,0.007317063935166576,0.003061614402317783,0.03221607688448194,0.08278875658560042,-0.020965416865970664,0.024319494046239648,0.16811770878921972,-0.10823711579676935
2302,10.02298230001179,-0.0333041239653156,-0.01952137557496188,0.014968431170067305,0.007599746477850872,0.00768066368981041,0.0029689271950035794,0.03232112050021188,0.08352303766475418,-0.02144134815791775,0.023724955808882623,0.16770022938483287,-0.10945031676428227
2303,10.027352700009942,-0.03331183975979551,-0.01953194855011813,0.014971141441451261,0.00774129987266442,0.008047470576461433,0.002874147366684477,0.03242355854639983,0.08425543218732054,-0.021922576962262453,0.02312771135623218,0.16725493244418213,-0.11065955654223393
2304,10.032625800013191,-0.03331183975979551,-0.01953194855011813,0.014971141441451261,0.00788329553515105,0.008417476080885335,0.002777251789000113,0.03252337939432052,0.08498581829245143,-0.02240908548309627,0.02252785347323025,0.1667817314377124,-0.11186461777452301
2305,10.03622940000787,-0.033326144413872445,-0.019554690584810484,0.014968605703829687,0.008025721995219517,0.008790671154732855,0.0026782174134757017,0.03262057182250417,0.08571407375248676,-0.02290085497250498,0.021925475635231128,0.1662805446775357,-0.11306528270623896
2306,10.040586500006611,-0.03334807294558972,-0.019579660528539208,0.014963519733152998,0.008168567734524275,0.009167046213975684,0.002577021275689257,0.032715125019719384,0.08644007599423933,-0.023397865728887152,0.021320671993771415,0.16575129535193978,-0.11426133321443052
2307,10.044231200008651,-0.03335719117502581,-0.019601162545611076,0.014970064425466337,0.008311821188267485,0.009546591137436637,0.0024736404994458888,0.03280702858789279,0.08716370212042662,-0.023900097095408128,0.02071353736210583,0.1651939115590926,-0.11545255083902609
2308,10.048433300005854,-0.03336245436207904,-0.019624426165474777,0.014974753061574702,0.008455470747013772,0.009929295265414726,0.0023680523009585756,0.032896272544964675,0.08788482893124569,-0.024407527458590116,0.02010416720050972,0.164608326339931,-0.11663871681390203
2309,10.052365600000485,-0.03337216809580328,-0.019642357900483045,0.014983930157453283,0.008599504758517444,0.010315147398405788,0.0022602339930348297,0.032982847327679636,0.08860333294608858,-0.024920134247039174,0.019492657601349248,0.163994477710223,-0.11781961209809574
2310,10.058268799999496,-0.03337187573283079,-0.01965921364324573,0.014994501100958808,0.008743911529561964,0.010704135795919266,0.002150162989268656,0.0330667437943112,0.08931909042539425,-0.02543789393030974,0.018879105273920126,0.1633523086917925,-0.11899501740715962
2311,10.062475400001858,-0.03337303519161113,-0.019686816611119786,0.014993705497773922,0.00888867932781133,0.01109624817539181,0.002037816808237198,0.033147953227319366,0.09003197739263377,-0.025960782017907198,0.018263607529055998,0.16268176734289647,-0.12016471324465242
2312,10.066883600011352,-0.033346398513464326,-0.019705826628539157,0.014996553645338223,0.009033796383673097,0.011491471711198246,0.0019231730777014688,0.03322646733594009,0.09074186965642483,-0.026488773058429102,0.01764626226350766,0.16198280678774443,-0.12132847993376385
2313,10.070807000010973,-0.03334305693778746,-0.01973268376019522,0.015000459823677936,0.009179250892172698,0.011889793033760528,0.0018062095388105643,0.03330227825870564,0.09144864283277192,-0.027021840638845628,0.017027167944094427,0.16125538524515126,-0.1224860976490686
2314,10.075246400010656,-0.03333886970346832,-0.019756489699669085,0.015011098817753945,0.009325031014838796,0.01229119822875522,0.0016869040503087465,0.03337537856589463,0.0921521723674281,-0.027559957383919836,0.01640642359162893,0.1604994660563121,-0.12363734644840574
2315,10.081499100007932,-0.03335215526695732,-0.019785476246855897,0.015023446339712539,0.009471124881599315,0.012695672836420037,0.0015652345927447853,0.033445761261911164,0.09285233355837455,-0.028103094955768303,0.015784128764616632,0.15971501771168936,-0.12478200630487947
2316,10.085629699999116,-0.03333457919228864,-0.019814538161349395,0.015036220512094363,0.009617520592687882,0.013103201850959948,0.001441179272682954,0.03351341978759222,0.09354900157841368,-0.028651224053562702,0.015160383542731562,0.158902013877001,-0.12591985713897783
2317,10.09013940001023,-0.03335345260143467,-0.0198267010512901,0.015029107042212077,0.009764206220560307,0.013513769720053314,0.0013147163269150537,0.03357834802244242,0.0942420514978727,-0.029204314413373015,0.014535288510069766,0.15806043341829965,-0.1270506788508047
2318,10.0944051000115,-0.033357690803853056,-0.019838610203414833,0.015031974639972825,0.009911169811820796,0.01392736034445858,0.0011858241266728422,0.033640540286795445,0.09493135830741302,-0.029762334808152754,0.013908944738182027,0.1571902604261315,-0.1281742513524216
2319,10.098170299999763,-0.03336966619629195,-0.019846523465726754,0.015035835982548866,0.010058399389157566,0.014343957077721951,0.0010544811818402446,0.03369999134390115,0.09561679694094173,-0.030325253047866707,0.01328145376888755,0.15629148423876477,-0.12929035460029545
2320,10.10439320000296,-0.03335121678386869,-0.019861031895144005,0.015035304111088898,0.010205882953287533,0.01476354272598653,0.0009206661451647269,0.03375669640193725,0.09629824229862069,-0.030893035979761715,0.01265291759687039,0.1553640994644777,-0.13039876862784883
2321,10.109189900002091,-0.03335121678386869,-0.019861031895144005,0.015035304111088898,0.010353608484909701,0.015186099547903278,0.0007843578164672139,0.0338106511159448,0.09697556926996889,-0.03146564948878097,0.012023438652060561,0.15440810600289637,-0.13149927357810867
2322,10.113439200009452,-0.03334372899239639,-0.01987611989534573,0.01505852660038305,0.010501563946666874,0.015611609254644214,0.0006455351468499282,0.03386185158968619,0.09764865275705346,-0.03204305849812224,0.011393119781801835,0.15342350906537103,-0.13259164973644852
2323,10.117364100005943,-0.03335809017203612,-0.019900177181879364,0.015091201004095639,0.010649737285115379,0.0160400530100182,0.0005041772429015177,0.033910294377424995,0.09831736769776572,-0.03262522696994025,0.010762064232808335,0.15241031919438233,-0.13367567756342047
2324,10.123264900001232,-0.033347379917023905,-0.019923498403182242,0.015132407810410801,0.010798116432702443,0.016471411430689666,0.00036026337089884033,0.033955976485626795,0.09898158908917777,-0.033212117906193744,0.01013037563291208,0.15136855228196683,-0.13475113772767316
2325,10.12674479999987,-0.033347379917023905,-0.019923498403182242,0.015132407810410801,0.010946689309750898,0.016905664586500585,0.00021377296100477794,0.03399889537458002,0.09964119201097507,-0.03380369334963741,0.009498157972603678,0.15029822958715267,-0.13581781113895197
2326,10.130782400010505,-0.033347379917023905,-0.019923498403182242,0.015132407810410801,0.011095443826450824,0.01734279200089602,6.468561146144657e-05,0.03403904895993614,0.10029605164896042,-0.0343999143849595,0.008865515586368534,0.14919937775239672,-0.1368754789811773
2327,10.134987500001444,-0.033333865939392034,-0.019938557186074336,0.015158271813590713,0.011244367884857788,0.017782772651453487,-8.701890722183306e-05,0.03407643561416815,0.10094604331862501,-0.035000741140064996,0.008232553133820996,0.14807202881901435,-0.13792392274559764
2328,10.139239100011764,-0.033261345967439515,-0.01998727206968589,0.015211730367754046,0.011393449380897307,0.01822558497051638,-0.00024136064808644243,0.03411105416794658,0.10159104248878213,-0.035606132787504796,0.007599375580639073,0.1469162202415916,-0.13896292426401358
2329,10.14360760001,-0.03325729748070754,-0.020007543693711355,0.015233270924484517,0.01154267620637524,0.018671206845931577,-0.0003983594835488862,0.03414290391143206,0.10223092480525882,-0.03621604754605126,0.006966088179302345,0.14573199490137143,-0.13999226574206985
2330,10.148095600001398,-0.03325159952182838,-0.020015390893274105,0.015253723015099883,0.011692036250993727,0.019119615621891697,-0.0005580351012323667,0.034171984595483366,0.10286556611464097,-0.036830442682420556,0.006332796449635823,0.14451940111860506,-0.14101172979261126
2331,10.15253870000015,-0.03321995730862112,-0.020051647583318562,0.015264120849895509,0.011841517404372304,0.019570788099882132,-0.0007204069998061521,0.0341982964327803,0.10349484248806776,-0.037449274513141645,0.005699606159162614,0.1432784926638611,-0.14202109946909805
2332,10.158547200000612,-0.033222862818096305,-0.02009555341375193,0.015273104419268229,0.01199110755807376,0.0200247005397331,-0.0008854944848333792,0.0342218400988604,0.10411863024507084,-0.03807249840657212,0.005066623303268332,0.14200932876828518,-0.14302015829907655
2333,10.16255620001175,-0.03321823985454508,-0.020093945525605904,0.015299485968120946,0.01214079460763433,0.02048132866077687,-0.0010533166646279348,0.03424261673306879,0.10473680597745381,-0.03870006878506102,0.004433954085180258,0.14071197413280226,-0.14400869031770136
2334,10.166517200006638,-0.033206333049825516,-0.020109511117968867,0.015301412201248872,0.01229056645459782,0.020940647643110207,-0.0012238924461210577,0.034260627939420356,0.10534924657320707,-0.03933193912725872,0.003801704895764372,0.1393864989362545,-0.1449864801013051
2335,10.170510900003135,-0.033188459060165175,-0.02012308336971841,0.01530716038211536,0.01244041100855328,0.02140263212896208,-0.0013972405307383087,0.034275875787373344,0.10595582924045406,-0.039968061970574294,0.003169982293143461,0.13803297884246532,-0.14595331280101143
2336,10.174206600000616,-0.03316714050605221,-0.020130656903230036,0.015322046077957698,0.012590316189175842,0.02186725622416671,-0.0015733794102875593,0.034288362812513434,0.10655643153142419,-0.04060838891378067,0.002538892982139636,0.13665149500622345,-0.14690897417638793
2337,10.177860800002236,-0.033138221128379275,-0.020146830911754014,0.015339175904560593,0.01274026992827033,0.022334493499742047,-0.0017523273628586426,0.03429809201714757,0.10715093136644765,-0.04125287061976779,0.0019085437935446568,0.1352421340781797,-0.14785325062913457
2338,10.18142649999936,-0.033108400591962205,-0.02014859125156345,0.015355006033609463,0.01289026017181721,0.022804316993573628,-0.001934102448735317,0.0343050668708071,0.10773920705796763,-0.041901456818443684,0.0012790416632215812,0.13380498820864947,-0.14878592923680303
2339,10.185736900006304,-0.03305749948570075,-0.020157395434132502,0.015364037262208523,0.0130402748820205,0.02327669921220397,-0.002118722506320195,0.0343092913106594,0.10832113733456478,-0.04255409630978362,0.0006504936110413228,0.1323401550503146,-0.14970679778654264
2340,10.189715100001196,-0.03301860548000788,-0.020160284741401538,0.015374598103673448,0.013190302039357196,0.023751612132727334,-0.0023062051480732806,0.03431076974182701,0.10889660136498941,-0.04321073696702749,2.3006719657796046e-05,0.1308477377598183,-0.1506156448088684
2341,10.19381080000312,-0.0329745099575395,-0.020162111920101315,0.015393923463434048,0.013340329644627792,0.02422902720478991,-0.0024965677564647635,0.03430950703761352,0.10946547878219665,-0.04387132574002558,-0.0006033118868745576,0.12932784499824718,-0.15151225961144776
2342,10.197943300008774,-0.03292822288953814,-0.020148660778522596,0.015419355258698288,0.01349034572100749,0.02470891535269538,-0.00268982747994272,0.03430550853963555,0.11002764970737983,-0.04453580865873278,-0.0012283550646369796,0.12778059093049352,-0.15239643231290115
2343,10.202280800003791,-0.03287271104527448,-0.020129426731637593,0.015437839946324892,0.013640338316097667,0.02519124697761574,-0.0028860012289163785,0.034298780057860176,0.11058299477399776,-0.04520413083685121,-0.0018520156715323627,0.12620609522349166,-0.15326795387661246
2344,10.207310800004052,-0.03282503840448959,-0.02011317744198573,0.015452152675181033,0.013790295503977151,0.025675991959907267,-0.003085105671755608,0.03428932787054725,0.11113139515179113,-0.04587623647562108,-0.0024741865891169078,0.1246044830433225,-0.1541266161445458
2345,10.212785600000643,-0.03282503840448959,-0.02011317744198573,0.015452152675181033,0.013940205387252916,0.026163119661531578,-0.0032871572308072763,0.03427715872409587,0.11167273257078379,-0.04655206886775985,-0.0030947607445733043,0.12297588505118152,-0.1549722118710654
2346,10.218057300007786,-0.032764311602044266,-0.020087670204420132,0.0154670391950621,0.014090056099109738,0.026652598928581527,-0.003492172078429135,0.03426227983279442,0.1122068893452639,-0.047231570401549745,-0.0037136311328211723,0.12132043739820489,-0.15580453475675493
2347,10.221684800009823,-0.032764311602044266,-0.020087670204420132,0.0154670391950621,0.014239835805358345,0.027144398093911816,-0.0037001661330418735,0.03424469887847379,0.11273374839773988,-0.0479146825650735,-0.0043306908387604195,0.11963828171914917,-0.15662337948223232
2348,10.227003600011813,-0.03255002263021306,-0.01985782161813489,0.015514828582750006,0.014389532706481712,0.02763848497987412,-0.003911155055199993,0.03422442401006296,0.11325319328286625,-0.048601345950598285,-0.004945833059643074,0.11792956512492007,-0.15742854174195609
2349,10.230633099999975,-0.03255002263021306,-0.01985782161813489,0.015514828582750006,0.014539135039679046,0.02813482690115668,-0.004125154243682148,0.03420146384304669,0.11376510821133395,-0.04929150025910764,-0.00555895112756906,0.11619444019394534,-0.15821981827801954
2350,10.235689400011324,-0.03247523873615592,-0.019792438473470928,0.015522593081435823,0.01468863108090703,0.028633390667728104,-0.004342178831601601,0.03417582745882463,0.1142693780737197,-0.04998508430498139,-0.006169938532101276,0.11443306496238784,-0.15899700691392907
2351,10.239912200006074,-0.032326519796746674,-0.01966771422835116,0.015546997796418119,0.014838009146917906,0.02913414258788513,-0.0045622436825374715,0.034147524403971334,0.11476588846428926,-0.05068203602082325,-0.006778688942995238,0.11264560291319495,-0.15975990658836337
2352,10.244121100011398,-0.03222520046563167,-0.019591738014465013,0.015566470019599989,0.014987257597294015,0.02963704847140389,-0.00478536338668741,0.03411656468939669,0.11525452570474963,-0.051382292462436044,-0.0073850962330384755,0.11083222296398089,-0.16050831738891
2353,10.248796800005948,-0.03215882830341309,-0.01952605656981475,0.015578015451515253,0.015136364836478398,0.030142073632794534,-0.005011552257042352,0.0340829587894064,0.11573517686794517,-0.05208578981394451,-0.007989054500994758,0.10899309945373858,-0.16124204058577635
2354,10.25231920000806,-0.03206907262752572,-0.0194698023784798,0.015593129289356234,0.015285319315801023,0.030649182894659073,-0.005240824325583987,0.03404671764066189,0.11620772980149219,-0.0527924633930654,-0.008590458094648163,0.10712841212837762,-0.161960878665471
2355,10.257286000007298,-0.03199080157104472,-0.019399195915852152,0.015597599723543827,0.015434109535500092,0.031158340591152175,-0.005473193339505619,0.03400785264103917,0.11667207315134734,-0.05350224765652485,-0.009189201633941874,0.10523834612508592,-0.16266463536445178
2356,10.260790800006362,-0.03192053937903885,-0.01933177817735187,0.01561400295597219,0.015582724046737977,0.03166951057154465,-0.005708672757457042,0.03396637564838629,0.11712809638530493,-0.05421507620562277,-0.009785180034206527,0.10332309195551329,-0.16335311570273695
2357,10.264843800003293,-0.03184949342106813,-0.01924139255803623,0.015622755989298364,0.01573115145361139,0.03218265620388913,-0.00594727574581409,0.03392229897917882,0.11757568981641853,-0.05493088179194404,-0.01037828852947284,0.10138284548777421,-0.1640261260174746
2358,10.269116400013443,-0.03177137944112541,-0.019157438438454626,0.015619098419658663,0.015879380415155357,0.03269774037878757,-0.006189015174973507,0.033875635407073286,0.11801474462634202,-0.05564959632321634,-0.010968422695863171,0.09941780792726813,-0.16468347399646677
2359,10.273173800000222,-0.031699990455621475,-0.01906871371562582,0.015616377060132764,0.01602739964734054,0.033214725513260115,-0.006433903615673735,0.03382639816135805,0.11844515288858547,-0.056371150869314456,-0.01155547847505666,0.09742818579631476,-0.16532496871164307
2360,10.278035499999532,-0.031636198416826244,-0.01898276822583611,0.015610291909481188,0.01617519792506354,0.03373357355471518,-0.006681953335342298,0.0337746009253013,0.11886680759168003,-0.057095475668410625,-0.012139352197822395,0.09541419091260259,-0.16595042065248047
2361,10.281623400005628,-0.031524539792071135,-0.018851336818210364,0.015597620032552637,0.01632276408412974,0.03425424598501992,-0.006933176294470407,0.03372025783439581,0.11927960266224699,-0.057822500133270456,-0.012719940607615034,0.093376040366449,-0.1665596417593657
2362,10.285622900002636,-0.03144273988134898,-0.018764354057104762,0.015574308239821186,0.016470087023228278,0.034776703824670706,-0.007187584143015386,0.03366338347450038,0.11968343298796572,-0.058552152857694224,-0.01329714088422719,0.09131395649687121,-0.16715244545689584
2363,10.289118300002883,-0.03144273988134898,-0.018764354057104762,0.015574308239821186,0.01661715570589849,0.03530090763706296,-0.007445188216831567,0.03360399287987765,0.12007819444043485,-0.05928436162310336,-0.013870850667492756,0.08922816686646708,-0.16772864668711268
2364,10.293485700007295,-0.031265467718554395,-0.018596118821660627,0.015547794492932586,0.016763959162487452,0.03582681753285988,-0.007705999534130278,0.03354210153112813,0.12046378389792214,-0.06001905340527181,-0.014440968081035324,0.0871189042351056,-0.16828806194266696
2365,10.298122100008186,-0.031155940910811877,-0.0184055763646373,0.015508155497083087,0.01691048649209813,0.03635439317445956,-0.007970028791969579,0.03347772535302018,0.12084009926799696,-0.06075615438120209,-0.015007391756055793,0.0849864065324267,-0.16883050929990917
2366,10.302147700000203,-0.031110330286022,-0.018292631119107786,0.015491093365819586,0.017056726864527805,0.03688359378056,-0.008237286362774335,0.03341088071221565,0.12120703951004001,-0.06149558993614547,-0.015570020855153176,0.08283091682915039,-0.1693558084519027
2367,10.306428500000038,-0.031012448431761194,-0.01822716283969711,0.015471686860835433,0.01720266952219635,0.03741437813082137,-0.008507782290887311,0.03334158441489126,0.12156450465762501,-0.0622372846707663,-0.016128755096172603,0.08065268330719585,-0.16986378074135608
2368,10.3099390000134,-0.031012448431761194,-0.01822716283969711,0.015471686860835433,0.01734830378206387,0.03794670457062492,-0.008781526289151938,0.033269853704255524,0.12191239584076702,-0.06298116240844984,-0.01668349477607433,0.07845195922861141,-0.17035424919346975
2369,10.31418400000257,-0.03088648306981229,-0.01810594704566183,0.015440456816322695,0.01749361903753738,0.03848053101592797,-0.009058527735527427,0.03319570625796141,0.12225061530803184,-0.06372714620275298,-0.01723414079481752,0.07622900290331584,-0.17082703854869455
2370,10.319974400001229,-0.030768535760334333,-0.01791608878175596,0.01534796026630763,0.01763860476036603,0.039015814958214524,-0.009338795669736907,0.03311916018541473,0.12257906644850211,-0.06447515834499745,-0.01778059467925248,0.07398407765565222,-0.1712819752953972
2371,10.325040399999123,-0.03068994621257127,-0.01781124936202096,0.015323951292246611,0.017783250502524404,0.039552513469540584,-0.009622338789949251,0.033040234024978306,0.12289765381359401,-0.06522512037200513,-0.01832275860701513,0.07171745178975529,-0.17171888770242974
2372,10.329132200000458,-0.030617933846418883,-0.0177067730177838,0.015280904280259116,0.01792754589808344,0.0400905832076735,-0.009909165449495275,0.03295894674107194,0.12320628313871952,-0.06597695307397504,-0.018860535430417213,0.069429398553734,-0.17213760585159973
2373,10.333342600002652,-0.03055765453385655,-0.0175678840169439,0.015230587578230752,0.018071480665068376,0.040629980421324485,-0.010199283653618888,0.032875317721167995,0.12350486136478875,-0.06673057650250147,-0.019393828700325688,0.06712019610267096,-0.1725379616700378
2374,10.340069199999562,-0.03044985756056517,-0.01744800131872023,0.01518668276952602,0.01821504460730324,0.04117066095547342,-0.010492701056263824,0.03278936677268264,0.12379329665954669,-0.06748590997873286,-0.019922542690024872,0.06479012746044048,-0.17291978896245794
2375,10.344000700002653,-0.03044985756056517,-0.01744800131872023,0.01518668276952602,0.018358227616241306,0.04171258025678523,-0.010789424956896606,0.03270111411976304,0.12407149843874012,-0.06824287210167033,-0.020446582419054858,0.06243948048034848,-0.173282923443307
2376,10.34830330000841,-0.030322443320120664,-0.017154409998907983,0.015062338258321983,0.018501019672780974,0.04225569337911722,-0.011089462297366435,0.03261058039997055,0.12433937738710953,-0.06900138075660601,-0.02096585367701967,0.06006854780459727,-0.17362720276879948
2377,10.352926899999147,-0.030211914480323877,-0.0169341305696719,0.014941183005082808,0.01864341084906664,0.04279995498911652,-0.011392819658802634,0.03251778666086007,0.12459684547920032,-0.06976135312370045,-0.021480263047358488,0.05767762682257829,-0.17395246656883329
2378,10.356444900011413,-0.030156140305821595,-0.016795665189683236,0.01488477324869008,0.01878539131027416,0.04334531937190701,-0.01169950325855027,0.032422754356455814,0.12484381599998844,-0.07052270568669852,-0.02198971793107318,0.055267019627996045,-0.17425855647878274
2379,10.360749700004815,-0.030110520210769442,-0.016707944843889,0.014827850235160598,0.01892695131638042,0.04389174043686483,-0.01200951894714454,0.03232550534362368,0.1250802035653155,-0.0712853542417835,-0.02249412657040524,0.052837032974827024,-0.17454531617116406
2380,10.365080700008548,-0.030051210280165327,-0.016582174830925826,0.014777845798338813,0.019068081223916518,0.04443917172348141,-0.012322872205324584,0.03222606187834066,0.12530592414212793,-0.07204921390656925,-0.02299339807245527,0.050387978232117825,-0.17481259138716926
2381,10.36901840000064,-0.029967425943657082,-0.016458383936796907,0.014711068827448465,0.019208771487704085,0.044987566407313447,-0.01263956814108729,0.03212444661186162,0.1255208950685158,-0.07281419912922944,-0.023487442432737926,0.04792017133762653,-0.17506022996806472
2382,10.373084900013056,-0.029915938387192482,-0.01635376920747956,0.01464112236247472,0.01934901266257428,0.04553687730601868,-0.012959611486781736,0.03202068258678352,0.12572503507354532,-0.07358022369776313,-0.023976170558665327,0.04543393275031199,-0.17528808188645106
2383,10.377226800002973,-0.029831214655552753,-0.016276863452664683,0.014570478527872868,0.019488795405068912,0.04608705688547691,-0.013283006596244842,0.031914793233007416,0.12591826429687997,-0.07434720074939637,-0.024459494292951772,0.04292958740167625,-0.17549599927737955
2384,10.3814115000132,-0.02974416048593142,-0.01616014956387724,0.014478013739696864,0.019628110475123382,0.0466380572659952,-0.01360975744197885,0.03180680236359869,0.12610050430818456,-0.07511504278011953,-0.024937326436932725,0.04040746464596539,-0.1756838364693209
2385,10.386293100003968,-0.029682564159786134,-0.016061225306437145,0.014400777080886377,0.019766948737730872,0.047189830228596415,-0.01393986761237121,0.031696734170546,0.1262716781263076,-0.07588366165435953,-0.025409580773791025,0.037867898209234606,-0.17585145001498195
2386,10.392694900001516,-0.0296125372258709,-0.01595705017119003,0.014304473211478406,0.01990530116458741,0.047742327221390206,-0.014273340308957385,0.03158461322041946,0.12643171023823696,-0.0766529686147864,-0.02587617209168321,0.03531122613728358,-0.17599869872196608
2387,10.3980489000096,-0.0296125372258709,-0.01595705017119003,0.014304473211478406,0.020043158835717383,0.04829549936602566,-0.014610178343727173,0.03147046444992848,0.12658052661782482,-0.07742287429225338,-0.026337016206758906,0.03273779074246821,-0.17612544368327243
2388,10.402349100011634,-0.02951270504872441,-0.01581142834663755,0.014212929303798121,0.02018051294107902,0.048849297464224534,-0.014950384136475063,0.0313543131613798,0.1267180547442772,-0.07819328871586946,-0.026792029986066213,0.030147938549395393,-0.17623154830763055
2389,10.406625900010113,-0.029397362146808152,-0.015457534999865713,0.01384825836847274,0.02031735478214952,0.04940367200439424,-0.015293959712195186,0.031236185018036308,0.12684422362040335,-0.07896412132320392,-0.027241131370335882,0.0275420202395077,-0.17631687834966622
2390,10.410814700007904,-0.029356631504088727,-0.015310592431587703,0.01371517406035399,0.02045367577348944,0.049958573168319496,-0.01564090669852144,0.031116106039377252,0.12695896379062074,-0.07973528097062157,-0.02768423939663708,0.024920390594565123,-0.17638130193989507
2391,10.416558700002495,-0.029311410302913392,-0.015200224058548943,0.013603944988066021,0.020589467444285893,0.05051395083793171,-0.015991226323213422,0.030994102596260373,0.1270622073587106,-0.08050667594374825,-0.02812127422089749,0.022283408439031708,-0.17642468961453936
2392,10.42095060000429,-0.029252817660916842,-0.015117945007217927,0.01348386422648249,0.0207247214398741,0.05106975460215492,-0.016344919411688683,0.03087020140598649,0.1271538880053194,-0.08127821396806571,-0.028552157140280438,0.01963143658137497,-0.17644691434516285
2393,10.425004600008831,-0.02917593679188845,-0.01503793878359045,0.013371306898783998,0.020859429523236883,0.05162593376382741,-0.016701986384601922,0.030744429527267098,0.12723394100520186,-0.08204980221963493,-0.028976810615411897,0.01696484175428646,-0.17644785156811865
2394,10.429129000011017,-0.029116003008561757,-0.014931553443616716,0.013255349603256694,0.020993583576481664,0.05218243734669787,-0.017062427255471677,0.030616814355095664,0.1273023032442006,-0.08282134733594643,-0.029395158292450034,0.014283994553832002,-0.17642737921380586
2395,10.43327870000212,-0.029047010244651023,-0.014760276157828003,0.013096274174299788,0.021127175602294542,0.05273921410249473,-0.017426241628355172,0.030487383615523223,0.12735891323595888,-0.08359275542689734,-0.029807125024990083,0.01158926937754048,-0.17638537773573065
2396,10.437426300006337,-0.02898084902080555,-0.014557064223568617,0.01295161838042171,0.02126019772537106,0.05329621251806756,-0.017793428695571788,0.03035616536033892,0.1274037111383613,-0.08436393208589436,-0.030212636895797042,0.008881044361440254,-0.17632173013936853
2397,10.441385600002832,-0.028898799217715126,-0.014440727078702314,0.012802055076214444,0.021392642193823263,0.05385338082259935,-0.01816398723547578,0.03022318796165633,0.1274366387696987,-0.08513478240108208,-0.03061162123835891,0.006159701316052685,-0.17623632201082223
2398,10.444946700008586,-0.028785166198112732,-0.014319736467069147,0.012647331020076643,0.021524501380562704,0.05441066699488864,-0.018537915610278774,0.030088480106406256,0.12745763962455273,-0.0859052109666957,-0.031004006658253234,0.0034256256613526903,-0.1761290415452713
2399,10.448272300011013,-0.028647736189722064,-0.014221536392486661,0.01246678417069485,0.02165576778465909,0.05496801877070038,-0.018915211763922583,0.029952070790736817,0.12746665888939585,-0.08667512189453713,-0.03138972305431977,0.0006792063607063829,-0.17599977957520993
2400,10.452237800011062,-0.028539513715452994,-0.014120398478904922,0.01231841198881781,0.02178643403267406,0.05552538365018471,-0.019295873220002823,0.02981398931432173,0.12746364345790312,-0.08744441882557327,-0.0317687016396322,-0.002079164146203636,-0.1758484295984691
2401,10.456663700009813,-0.028451620584671315,-0.014003343912305847,0.012177979947479005,0.021916492879969784,0.05608270890536237,-0.019679897079743755,0.02967426527457771,0.12744854194597005,-0.08821300494165596,-0.032140874962261534,-0.004849090011454519,-0.17567488780601767
2402,10.460659400006987,-0.028384423407529863,-0.013906700968736835,0.012051344463408397,0.022045937211991898,0.056639941587675165,-0.020067280020024898,0.02953292856079191,0.12742130470643281,-0.08898078297736248,-0.03250617692582391,-0.00763017204794978,-0.1754790531095386
2403,10.46505199999956,-0.028263418899536378,-0.013728614880349927,0.011938977071637161,0.022174760045526473,0.05719702853560018,-0.020458018291459837,0.029390009348160474,0.1273818838434872,-0.0897476552319559,-0.0328645428098051,-0.010422007799464771,-0.17526082716877567
2404,10.469031800006633,-0.028182976224527166,-0.013615598159852131,0.011786105989488595,0.02230295452993049,0.05775391638232628,-0.02085210771652759,0.029245538091739107,0.1273302332268022,-0.09051352358146425,-0.03321590928965434,-0.013224191611659213,-0.17502011441864732
2405,10.47308310000517,-0.028079819054552126,-0.013466840933458107,0.011626802031383807,0.02243051394833544,0.05831055156349168,-0.021249543687756976,0.029099545520306608,0.12726630850532444,-0.09127828949087739,-0.03356021445664017,-0.016036314704044593,-0.174756822096124
2406,10.477536100006546,-0.027978913262596033,-0.013354143957795718,0.011447101032717157,0.022557431718823566,0.05886688032498112,-0.021650321165964433,0.02895206263014246,0.1271900671207698,-0.09204185402646045,-0.03389739783746118,-0.01885796524289397,-0.17447086026686426
2407,10.481359900004463,-0.02788897411539417,-0.013284518346454693,0.011266984531105315,0.022683701395576402,0.05942284873078083,-0.02205443467854589,0.028803120678719776,0.1271014683207988,-0.09280411786818267,-0.03422740041360448,-0.021688728415081383,-0.17416214185160467
2408,10.48543550001341,-0.027758568391097978,-0.013175681840387633,0.01108914744325227,0.022809316669995194,0.05997840267088972,-0.022461878317823192,0.028652751178314707,0.12700047317187144,-0.09356498132226082,-0.03455016464044476,-0.024528186502837765,-0.1738305826523001
2409,10.489746700011892,-0.02765643736976615,-0.012993526209637243,0.01092968633801055,0.02293427137179291,0.06053348786928516,-0.022872645739445627,0.028500985889533398,0.12688704457177677,-0.0943243443338162,-0.03486563446607663,-0.027375918959409832,-0.17347610137801026
2410,10.493392400006996,-0.02765643736976615,-0.012993526209637243,0.01092968633801055,0.02305855947005756,0.061088049891941706,-0.023286730160847077,0.028347856814757644,0.12676114726183307,-0.09508210649964438,-0.03517375534987303,-0.030231502485608193,-0.17309861967052775
2411,10.498060600002646,-0.027494525293773525,-0.012903162481480953,0.010762520039580278,0.023182175074286614,0.06164203415490134,-0.023704124359759254,0.028193396191510463,0.12662274783875493,-0.09583816708109627,-0.03547447428076253,-0.033094511107230544,-0.17269806212974215
2412,10.50214790001337,-0.02725987864135991,-0.012711891114981668,0.010417782545399178,0.02330511243539231,0.06219538593239392,-0.024124820672781443,0.02803763648574281,0.1264718147661832,-0.09659242501706894,-0.03576773979521848,-0.03596451625334536,-0.1722743563387348
2413,10.506417299999155,-0.027109794455070432,-0.012541785080349163,0.010248914765244732,0.02342736594667743,0.06274805036500648,-0.024548810994007225,0.027880610385042703,0.12630831838587375,-0.09734477893710458,-0.03605350199495292,-0.03884108683542137,-0.17182743288859953
2414,10.510580500005744,-0.026996920631073035,-0.012386842122517458,0.010086699372715618,0.023548930144781207,0.06329997246789996,-0.02497608677370859,0.027722350791768016,0.126132230928541,-0.09809512717459641,-0.036331712564308366,-0.0417237893272877,-0.17135722540298454
2415,10.516331999999238,-0.026867094230960297,-0.012269350784871305,0.009935807401588219,0.023669799710595022,0.06385109713907174,-0.025406639017077917,0.02756289081610423,0.1259435265243514,-0.0988433677801002,-0.036602324787340566,-0.04461218784590933,-0.17086367056235027
2416,10.519989300009913,-0.02672117469862691,-0.01217633391862144,0.009755960964958017,0.023789969470147533,0.06440136916766237,-0.02584045828302832,0.027402263769048495,0.12574218121306371,-0.09958939853475021,-0.036865293564585504,-0.04750584423296229,-0.17034670812793848
2417,10.523568300006444,-0.0265927424989646,-0.01206344928697474,0.009570056161492889,0.02390943439545902,0.06495073324230502,-0.02627753468305268,0.02724050315532148,0.1255281729538123,-0.10033311696377839,-0.03712057542950389,-0.0504043181371926,-0.16980628096544814
2418,10.527458900003694,-0.02646314978713645,-0.011948417618664539,0.009380783067253505,0.0240281896053647,0.06549913395951625,-0.026717857880141825,0.02707764266620842,0.12530148163452898,-0.10107442035013571,-0.03736812856459628,-0.053307167097542706,-0.16924233506841327
2419,10.531430400005776,-0.02634308368907544,-0.011799633720781577,0.009217499402614546,0.024146230366306837,0.06604651583212655,-0.027161417087762346,0.02691371617233079,0.12506208908100064,-0.10181320574821437,-0.0376079128171822,-0.056213946627028874,-0.16865481958127784
2420,10.535612200008472,-0.026210393228459663,-0.011662488506919809,0.009049071642622402,0.024263552093095282,0.06659282329774921,-0.027608201068894393,0.02674875771635005,0.12480997906555909,-0.10254936999766923,-0.037839889714836594,-0.05912421029735295,-0.16804368682216303
2421,10.53988830000162,-0.02609837278768922,-0.01148736353632723,0.008885748076257409,0.024380150349636268,0.06713800072728555,-0.02805819813512987,0.026582801505605113,0.12454513731539993,-0.1032828097373373,-0.038064022480477196,-0.06203750982423119,-0.16740889230532258
2422,10.543847300010384,-0.025948796262671662,-0.011319331406914903,0.008710921359613783,0.02449602084962909,0.06768199243346518,-0.02851139614583147,0.026415881904685065,0.1242675515205269,-0.10401342141925407,-0.03828027604709598,-0.06495339515342281,-0.16675039476328177
2423,10.547900600009598,-0.025948796262671662,-0.011319331406914903,0.008710921359613783,0.024611159457230414,0.06822474267941968,-0.02896778250735293,0.026248033427938678,0.12397721134131899,-0.10474110132276479,-0.038488617072128355,-0.06787141454744071,-0.16606815616865542
2424,10.552132900003926,-0.02578750344729084,-0.011158534135122489,0.008556937168567733,0.02472556218768599,0.0687661956872885,-0.029427344172320853,0.026079290731922382,0.12367410841571724,-0.10546574556872973,-0.038689013951453695,-0.07079111467292627,-0.16536214175564
2425,10.556506100008846,-0.025525669208161152,-0.01091033288019753,0.00827207151841139,0.024839225207929517,0.069306295646855,-0.029890067638978435,0.025909688607788358,0.12335823636602927,-0.10618725013382227,-0.03888143683302097,-0.07371204068867004,-0.16463232004117367
2426,10.560848100009023,-0.025370211313493103,-0.010721316136279628,0.008168170021168443,0.024952144837148384,0.06984498672421109,-0.030355938950591438,0.025739261973614366,0.12302959080534916,-0.10690551086491841,-0.039065857630093244,-0.07663373633425939,-0.16387866284575847
2427,10.564658800009056,-0.02524471307636734,-0.010568130247307227,0.008024742837685669,0.025064317547316008,0.07038221307044924,-0.030824943694916822,0.025568045866676933,0.12268816934358996,-0.10762042349357615,-0.03924225003410497,-0.07955574401933413,-0.16310114531393985
2428,10.568966900013038,-0.025097027570252735,-0.010328100602543164,0.007885695897980554,0.02517573996369042,0.07091791883038023,-0.03129706700373438,0.025396075435669515,0.12233397159312566,-0.10833188365060308,-0.03941058952712599,-0.0824776049134309,-0.16229974593443633
2429,10.573286600003485,-0.024962305488356373,-0.010154576090191028,0.0077440384189463645,0.025286408865278855,0.07145204815127532,-0.03177229355244158,0.025223385932867153,0.12196699917404022,-0.10903978688071067,-0.039570853393926436,-0.08539885903639732,-0.1614744465599133
2430,10.57727930000692,-0.024849773511106715,-0.009984677005765793,0.007583913217754932,0.025396321185268085,0.07198454519163067,-0.032250607559712006,0.02505001270623915,0.12158725571898124,-0.10974402865725394,-0.039723020733636615,-0.08831904534935636,-0.16062523242639495
2431,10.582485200007795,-0.024719891502128076,-0.009737094245212788,0.007445928175923213,0.025505474011420406,0.07251535412995264,-0.03273199278721779,0.024875991191511414,0.12119474687761603,-0.11044450439705529,-0.03986707247099634,-0.09123770184620072,-0.15975209217230893
2432,10.585916500000168,-0.024581825486573214,-0.009495993921290413,0.0072685617898157915,0.025613864586435105,0.07304441917356169,-0.03321643253941631,0.024701356904180214,0.12078948032068741,-0.11114110947531104,-0.040002991367188115,-0.09415436564559705,-0.15885501785715853
2433,10.590109299999312,-0.024480287650309993,-0.009302142168785601,0.007112024929170473,0.02572149030827523,0.07357168456741342,-0.03370390966340146,0.02452614543147921,0.12037146574366768,-0.11183373924057867,-0.040130762030248714,-0.09706857308347876,-0.15793400497981627
2434,10.596120200003496,-0.024338448170105546,-0.009118692720668425,0.00697312655554337,0.02582834873045946,0.07409709460293468,-0.03419440654882001,0.024350392424301582,0.1199407148700085,-0.11252228902984314,-0.040250370925053715,-0.09997985980600659,-0.15698905249643338
2435,10.599942000000738,-0.02426237822217071,-0.008764562366948649,0.0068503275677110256,0.025934437562318974,0.0746205936268733,-0.034687905127853275,0.02417413358907903,0.11949724145398448,-0.11320665418366056,-0.04036180638286938,-0.1028877608629755,-0.1560201628379593
2436,10.60414340000716,-0.02413888272656906,-0.008554613983086792,0.006738796672304635,0.0260397546692193,0.07514212605015992,-0.035184386875264866,0.02399740467961944,0.11904106128312845,-0.11388673006137726,-0.040465058610466655,-0.10579181080164585,-0.15502734192726544
2437,10.608523800008696,-0.02395939217454434,-0.008465792440302215,0.006577246509539136,0.02614429807274695,0.07566163635677989,-0.03568383280851452,0.023820241488905197,0.11857219218025665,-0.11456241205642267,-0.04056011969879204,-0.10869154376097696,-0.15401059919586726
2438,10.612361999999848,-0.02381617715110058,-0.008192701356796197,0.006451477664180321,0.026248065950860686,0.07617906911265379,-0.03618622348793841,0.023642679840854077,0.11809065400508183,-0.115233595611674,-0.04064698363119033,-0.11158649356624162,-0.15296994760023952
2439,10.616812600012054,-0.023681245091114238,-0.007940104744846722,0.006329061490513722,0.026351056638007093,0.0766943689745248,-0.03669153901699618,0.023464755582044677,0.1175964686554132,-0.11590017623489046,-0.04072564629117421,-0.11447619382399926,-0.15190540363771887
2440,10.620728699999743,-0.023563411998166243,-0.007691276825892716,0.006206803501943669,0.026453268625200282,0.07720748069885125,-0.03719975904258507,0.023286504573408244,0.11708966006794166,-0.11656204951421568,-0.04079610546973593,-0.11736017801740596,-0.1508169873619882
2441,10.624231500012684,-0.023563411998166243,-0.007691276825892716,0.006206803501943669,0.026554700560065574,0.07771834915070293,-0.03771086275542159,0.02310796268188906,0.11657025421860835,-0.11721911113374608,-0.04085836087219654,-0.12023797960183866,-0.14970472239813787
2442,10.627550200006226,-0.023377019222021785,-0.007413609297714061,0.006068754382132698,0.02665535124684695,0.0782269193126591,-0.038224828890491135,0.02292916577207542,0.11603827912255539,-0.11787125688916339,-0.04091241412458832,-0.12310913210081127,-0.14856863595729713
2443,10.631339200001094,-0.023377019222021785,-0.007413609297714061,0.006068754382132698,0.026755219646378094,0.07873313629370658,-0.038741635727566136,0.022750149697803305,0.11549376483365736,-0.11851838270342914,-0.040958268779565855,-0.1259731692021599,-0.1474087588508294
2444,10.635302900001989,-0.02315836090074949,-0.006898801543526733,0.005796791982252115,0.026854304876016942,0.07923694533813604,-0.0392612610917927,0.02257095029373485,0.11493674344363268,-0.11916038464253996,-0.04099593032184139,-0.12882962485447386,-0.1462251255040855
2445,10.639656600003946,-0.02287690868654402,-0.006356405296359136,0.005478863866953392,0.02695260620954357,0.07973829183443457,-0.03978368235434587,0.022391603366913627,0.11436724908073402,-0.11979715893134159,-0.04102540617314026,-0.13167803336374936,-0.14501777396970925
2446,10.644317199999932,-0.022722406894700228,-0.005972603564324236,0.005271556768123319,0.027050123077021305,0.08023712132417321,-0.040308876433153756,0.022212144688298973,0.11378531790801746,-0.12042860196939957,-0.04104670569667232,-0.1345179294902421,-0.1437867459404895
2447,10.648387400011416,-0.022572231090245923,-0.005665062828587563,0.00507916721563081,0.027146855064621028,0.08073337951088745,-0.040836819793690644,0.0220326099842814,0.11319098812119005,-0.1210546103469243,-0.04105984020111557,-0.13734884854549473,-0.14253208676175377
2448,10.652961400002823,-0.022447144327120888,-0.005372021830923162,0.004945035733525504,0.027242801914408685,0.08122701226894911,-0.04136748844983968,0.021853034928181237,0.11258429994603507,-0.12167508086074841,-0.04106482294410826,-0.1401703264895151,-0.14125384544329664
2449,10.656635600011214,-0.022291504164051144,-0.005064518699258072,0.004809124215512781,0.02733796352409601,0.08171796565242807,-0.0419008579648253,0.02167345513173251,0.11196529563541405,-0.12228991053035447,-0.041061669135245844,-0.1429819000280816,-0.13995207467083706
2450,10.660702600012884,-0.02221801210744009,-0.0047321925495814625,0.004637118066900927,0.02743233994675452,0.0822061859039419,-0.04243690345221587,0.021493906136554306,0.11133401946584454,-0.12289899661395083,-0.041050395938579384,-0.14578310671015185,-0.13862683081699834
2451,10.664911600004416,-0.02208088462310807,-0.004315163518503595,0.004523464324446275,0.027525931390492583,0.08269161946349159,-0.042975599576996676,0.021314423405611682,0.11069051773365211,-0.12350223662459403,-0.04103102247461202,-0.14857348502535175,-0.13727817395180492
2452,10.669395100005204,-0.02208088462310807,-0.004315163518503595,0.004523464324446275,0.027618738218095722,0.08317421297728171,-0.04351692055671362,0.021135042314668392,0.11003483875069593,-0.12409952834635556,-0.04100356982179039,-0.1513525745015201,-0.13590616785268983
2453,10.673263000004226,-0.021895543507837307,-0.003979293677612579,0.004373512292995334,0.02771076094663013,0.08365391330652301,-0.04406084016268751,0.020955798143733752,0.10936703283966724,-0.12469076985053061,-0.040968061017488004,-0.1541199158022846,-0.13451088001400674
2454,10.677231699999538,-0.021626737838121673,-0.003254086475666898,0.004088410330102259,0.027802000247009385,0.08413066753621544,-0.0446073317212995,0.02077672606850592,0.10868715232896099,-0.12527585951188738,-0.04092452105847764,-0.15687505082464442,-0.13309238165604106
2455,10.681321200012462,-0.021448515019944027,-0.0028300148436732134,0.003993280068872488,0.027892456943524428,0.0846044229839095,-0.04515636811534759,0.020597861151813883,0.1079952515471213,-0.1258546960249551,-0.04087297690089003,-0.15961752279653474,-0.13165074773351373
2456,10.685615200010943,-0.021421290007573097,-0.0024376941034739805,0.0038435022673481397,0.02798213201333672,0.08507512720844412,-0.045707921785474594,0.020419238335060458,0.10729138681686119,-0.12642717842034826,-0.04081345745965618,-0.16234687637434936,-0.1301860569435724
2457,10.689851400005864,-0.0212597669492922,-0.0020339951696762004,0.0037078778340561367,0.028071026585934654,0.08554272801865935,-0.046261964731667375,0.020240892429668426,0.10657561644865668,-0.12699320608112405,-0.04074599360743102,-0.1650626577403974,-0.12869839173326358
2458,10.694211100009852,-0.021099773933414157,-0.0016400318126472174,0.0035834062327088204,0.028159141942553152,0.0860071734820816,-0.046818468514827696,0.020062858108532054,0.10584800073391452,-0.1275526787591709,-0.04067061817299609,-0.16776441470026957,-0.1271878383064793
2459,10.698272500012536,-0.020971682593053882,-0.001247187913399599,0.0034902632895879243,0.028246479515556415,0.08646841193357963,-0.04737740425841483,0.019885169897476122,0.10510860193771415,-0.12810549659162426,-0.04058736593913897,-0.1704516967800888,-0.12565448663037354
2460,10.702302100005909,-0.020793020281718786,-0.0007591034687196653,0.003442085810027028,0.02833304088778383,0.08692639198398915,-0.04793874265016001,0.019707862166724675,0.10435748429112403,-0.12865156011730863,-0.04049627364000755,-0.17312405532362068,-0.12409843044124155
2461,10.708785400012856,-0.020793020281718786,-0.0007591034687196653,0.003442085810027028,0.02841882779185919,0.08738106252870473,-0.048502453943852955,0.0195309691223819,0.10359471398309292,-0.1291907702932029,-0.04039737995793707,-0.17578104358921703,-0.1225197672498569
2462,10.71274760000233,-0.02062519264452743,-0.000387053560094151,0.0033488295316399814,0.028503842109463363,0.08783237275623713,-0.04906850796120064,0.01935452479792738,0.1028203591519166,-0.1297230285109269,-0.04029072551974842,-0.1784222168465682,-0.12091859834625995
2463,10.717259700002614,-0.02040099998576223,0.0004836836568115078,0.0031232406615002524,0.028588085870570455,0.08828027215673373,-0.04963687409375833,0.019178563045728125,0.1020344898762806,-0.1302482366132467,-0.040176352892516386,-0.18104713247323767,-0.11929502880399191
2464,10.721138600012637,-0.02028907695047305,0.0009138825438131168,0.003017137821951667,0.02867156125264756,0.08872471053046048,-0.05020752130493286,0.01900311752856963,0.1012371781658798,-0.13076629691059566,-0.040054306578806244,-0.18365535005095426,-0.11764916748376865
2465,10.72497400001157,-0.02012926879736665,0.0013378221048302877,0.00290991060470675,0.028754270579818185,0.08916563799624354,-0.05078041813205819,0.01882822171120827,0.10042849795161635,-0.1312771121976092,-0.039924633011377574,-0.18624643146163664,-0.11598112703658893
2466,10.729083700003684,-0.020027130223148604,0.0018051707210803556,0.0027991637577207467,0.028836216321989273,0.08960300499986881,-0.051355532688543336,0.018653908851947423,0.09960852507537704,-0.13178058576967086,-0.039787380547354374,-0.1888199409831242,-0.1142910239062709
2467,10.733115100010764,-0.019822626579385563,0.0022110755506125654,0.0026626994734686225,0.02891740109394183,0.09003676232243737,-0.05193283266609261,0.01848021199423955,0.0987773372793914,-0.132276621439467,-0.03964259946186048,-0.19137544538458953,-0.11257897833141162
2468,10.73663120000856,-0.019666432871676087,0.002679969091853777,0.0024998358256980635,0.02899782765438514,0.0904668610886747,-0.052512285336998005,0.01830716395831642,0.09793501419517174,-0.132765123553547,-0.039490341941119805,-0.1939125140216058,-0.11084511434676379
2469,10.7409112000023,-0.019539734686085282,0.003020461019897119,0.0023850702479046968,0.02907749890497493,0.09089325277519163,-0.05309385755650381,0.01813479733284985,0.09708163733203698,-0.13324599700888615,-0.03933066207502113,-0.19643071893084274,-0.10908955978402353
2470,10.744624900005874,-0.019428285104718238,0.003478384078880883,0.0022779769580507196,0.02915641788929555,0.09131588921869511,-0.05367751576524369,0.01796314446664522,0.09621729006522252,-0.13371914726944995,-0.03916361584914735,-0.1989296349243639,-0.10731244627202412
2471,10.748821100001804,-0.019250175480041112,0.0038765732010781324,0.0021307688919110666,0.029234587791806398,0.09173472262414711,-0.054263225991750444,0.017792237460369995,0.09534205762357778,-0.13418448038275613,-0.03898926113626892,-0.20140883968350015,-0.10551390923633076
2472,10.752754100001766,-0.01902673470635709,0.004274577075678858,0.001952010088965536,0.02931201193675268,0.09214970557286944,-0.05485095385503829,0.01762210815831949,0.09445602707685373,-0.13464190299643164,-0.03880765768730165,-0.20386791385227263,-0.10369408789822995
2473,10.75659760000417,-0.018920600980549564,0.00475641048220414,0.0018247276685627535,0.029388693787040697,0.0925607910305924,-0.05544066456725752,0.017452788140222077,0.09355928732258235,-0.1350913223747616,-0.03861886712172927,-0.20630644113033983,-0.10185312527310779
2474,10.760582000002614,-0.01875679763580457,0.005093041503285156,0.0016957445405543891,0.029464636943077695,0.09296793235544504,-0.056032322936421415,0.01728430871308615,0.09265192907255042,-0.13553264641522805,-0.038422952917491135,-0.20872400836544244,-0.09999116816821184
2475,10.766196200012928,-0.01852319959728366,0.00560523811794534,0.0015047690848767035,0.029539845141576586,0.09337108330588557,-0.056625893369205586,0.017116700903091128,0.09173404483886967,-0.1359657836650357,-0.03821998040033569,-0.211120205645321,-0.09810836717979136
2476,10.76995810000517,-0.018326285544361207,0.006062391508123195,0.0013153891539399146,0.02961432225432562,0.09377019804856974,-0.05722133987381958,0.016949995447524787,0.09080572891964588,-0.13639064333762188,-0.038010016732640595,-0.21349462638908123,-0.09620487668961074
2477,10.7733212000021,-0.01814914498213998,0.0064892784319587875,0.0011325021373860698,0.02968807228692321,0.0941652311661559,-0.0578186260629507,0.016784222786769307,0.08986707738424926,-0.1368071353291489,-0.0377931309017007,-0.21584686743798276,-0.09428085486083063
2478,10.777393100011976,-0.017918446132828867,0.006900916804496422,0.0008809753894676773,0.02976109937747804,0.09455613766504418,-0.05841771515678008,0.016619413056338385,0.08891818805818888,-0.13721517023497673,-0.03756939370748495,-0.21817652914562624,-0.09233646363325161
2479,10.781700100007583,-0.01772082624399032,0.007301263331870274,0.0006854378208860392,0.029833407795274762,0.09494287298304824,-0.05901856998607052,0.016455596078967707,0.08795916050759338,-0.1376146593661128,-0.03733887774986402,-0.2204832154675136,-0.09037186871791501
2480,10.785625000004076,-0.017551373661150976,0.007665021996466585,0.0005102606463321877,0.029905001939405297,0.09532539299699802,-0.05962115299532571,0.016292801356761172,0.08699009602330081,-0.13800551476563655,-0.03710165741531051,-0.2227665340499562,-0.08838723959105566
2481,10.789952400009495,-0.017410940846960522,0.008173442882307824,0.000314162363053325,0.02997588633736608,0.09570365403027202,-0.06022542624602076,0.016131058063395185,0.08601109760456027,-0.13838764922509622,-0.03685780886307349,-0.22502609631830423,-0.08638274948740168
2482,10.79387060001318,-0.017170519928013685,0.008689132237899886,0.00010506522482460088,0.030046065643621396,0.09607761286025651,-0.06083135141990389,0.015970395036383287,0.0850222699423483,-0.13876097630087472,-0.03660741001082923,-0.22726151756447233,-0.08435857539281674
2483,10.798382700013462,-0.01694019618103212,0.009126438365042493,-0.00019273140293485586,0.030115544638132978,0.09644722672573036,-0.06143888982236935,0.01581084076940351,0.08402371940230285,-0.13912541033052298,-0.036350540519810404,-0.22947241703373605,-0.08231489803627971
2484,10.802468699999736,-0.016736147571715182,0.009487752380223952,-0.00044096765336997445,0.030184328224856068,0.09681245333417356,-0.06204800238590137,0.015652423404690682,0.08301555400727767,-0.13948086644905824,-0.03608728177941595,-0.23165841801077383,-0.08025190188119755
2485,10.806811400005245,-0.016736147571715182,0.009487752380223952,-0.00044096765336997445,0.030252421430202146,0.09717325086899778,-0.06265864967358926,0.015495170725496051,0.08199788341952001,-0.1398272606052252,-0.03581771689130431,-0.23381914790493086,-0.07816977511604625
2486,10.810910600004718,-0.01647714312996397,0.01000443660044526,-0.0007168907439619558,0.03031982940146847,0.09752957799669763,-0.06327079188271363,0.015339110148616462,0.08097081892247562,-0.14016450957771664,-0.03554193065297262,-0.23595423833467985,-0.07606870964433554
2487,10.814719500005594,-0.01610980990086181,0.010778477549043826,-0.0012520566833237072,0.030386557405234653,0.09788139387392086,-0.06388438884840404,0.01518426871699541,0.07993447340222411,-0.1404925309913504,-0.035260009540824505,-0.2380633252112537,-0.07394890107389239
2488,10.819009300001198,-0.015984214845832487,0.011277028501624348,-0.001474276612035991,0.03045261082572665,0.09822865815445576,-0.06449940004736816,0.0150306730923983,0.07888896132854839,-0.1408112433332005,-0.034972041692729654,-0.24014604882142584,-0.071810548705459
2489,10.822938800003612,-0.015758030316567983,0.011717313390083252,-0.0016794721346065841,0.030517995163148424,0.09857133099613377,-0.06511578460169211,0.014878349548164208,0.07783439873564216,-0.14112056596868017,-0.03467811689007856,-0.24220205390941352,-0.06965385552060036
2490,10.827080000002752,-0.015758030316567983,0.011717313390083252,-0.0016794721346065841,0.030582716031981542,0.0989093730676459,-0.06573350128271173,0.0147273239620364,0.07677090320245916,-0.14142041915757397,-0.03437832653933593,-0.24423098975787907,-0.06747902816891707
2491,10.83156570000574,-0.015521887447175883,0.012185081371903338,-0.001974466930589877,0.030646779159253002,0.09924274555527181,-0.06635250851495425,0.014577621809073871,0.07569859383270869,-0.1417107240700165,-0.034072763653096166,-0.24623251026800513,-0.06528627695455905
2492,10.835495500010438,-0.015123373370295361,0.013054188079218767,-0.0025246726953144123,0.03071019038277165,0.09957141016951979,-0.06697276438015035,0.014429268154646107,0.07461759123450117,-0.1419914028024143,-0.033761522830644944,-0.2482062740386206,-0.06307581582203556
2493,10.839316500001589,-0.015123373370295361,0.013054188079218767,-0.0025246726953144123,0.030772955649333595,0.09989532915167591,-0.06759422662131674,0.014282287647513351,0.0735280174996481,-0.1422623783933078,-0.03344470023803076,-0.250151944444353,-0.060847862341317796
2494,10.84351880000031,-0.014860008143588357,0.013446537315465162,-0.0028059521708779346,0.030835081012896892,0.10021446528026075,-0.0682168526469089,0.014136704512994437,0.07242999618262032,-0.14252357483917,-0.03312239358765064,-0.2520691897127833,-0.05860263769223039
2495,10.848031600005925,-0.0146915451183446,0.01455064501931076,-0.0032397643705215817,0.030896572632725758,0.10052878187739242,-0.06884059953504357,0.013992542546224352,0.07132365227916945,-0.1427749171101379,-0.032794702117354135,-0.2539576830005805,-0.0563403666481281
2496,10.852438000001712,-0.014465242794276835,0.015010900734005595,-0.0035696344646780186,0.03095743677150464,0.10083824281505516,-0.0694654240377904,0.013849825105503583,0.07020911220461754,-0.1430163311656746,-0.032461726569070135,-0.25581710246859324,-0.05406127755885397
2497,10.856284600013169,-0.014323580598295183,0.015546656413373626,-0.0038650590560146076,0.031017679793422608,0.10114281252127157,-0.07009128258553207,0.013708575105741324,0.06908650377181966,-0.1432477439701584,-0.0321235691669609,-0.25764713135587414,-0.05176560233297533
2498,10.860653300012928,-0.014071326025505778,0.01601304623767496,-0.004198086678550609,0.03107730816222825,0.10144245598617667,-0.0707181312913928,0.013568815011994683,0.06795595616880463,-0.14346908350839607,-0.031780333595108075,-0.25944745805261527,-0.04945357641929454
2499,10.86497650000092,-0.013964239921395212,0.016552180877165087,-0.004492657370615468,0.031136328439255602,0.10173713876799258,-0.07134592595573437,0.013430566833106002,0.06681759993609822,-0.1436802788010572,-0.03143212497473575,-0.2612177761719714,-0.04712543878763103
2500,10.869077700001071,-0.013841562337627398,0.017126203987318192,-0.004765955616918409,0.03119474728142151,0.10202682699890263,-0.07197462207071939,0.013293852115440322,0.06567156694373338,-0.14388125992002615,-0.031079049840975523,-0.2629577846207479,-0.04478143190887158
2501,10.873523500005833,-0.013578323238346386,0.017557700221453722,-0.0051950434821581995,0.03125257143919474,0.10231148739082363,-0.07260417482494141,0.013158691936724984,0.06451799036795244,-0.14407195800366807,-0.030721216119178787,-0.26466718766893177,-0.042421801734286016
2502,10.87718510000559,-0.013386803955860874,0.017967041170886957,-0.005540284806489259,0.03130980775453736,0.10259108724107482,-0.07323453910812168,0.01302510689999338,0.06335700466760576,-0.1442523052720058,-0.030358733100781812,-0.2663456950180425,-0.04004679767410567
2503,10.88171539999894,-0.01311349723965782,0.01849689653057238,-0.005987286174983522,0.03136646315881883,0.1028655944379418,-0.07386566951587241,0.012893117127634818,0.062188745560252424,-0.14442223504180415,-0.029991711418729264,-0.2679930218682813,-0.0376566725753619
2504,10.88557800000126,-0.012898280618192027,0.01896841403807773,-0.006259891935314081,0.031422544670703496,0.1031349774661334,-0.07449752035452652,0.01276274225555244,0.06101334999796843,-0.1445816817415585,-0.029620263022461995,-0.269608888984456,-0.03525168269898211
2505,10.889778800003114,-0.012745750848988076,0.01937275291540136,-0.006549299927134595,0.03147805939401179,0.10339920541213032,-0.07513004564603325,0.012634001427431091,0.059830956142867674,-0.14473058092638402,-0.02924450115247518,-0.27119302276066276,-0.03283208769614072
2506,10.894061900005909,-0.012485270217053451,0.019986108675092012,-0.006878040981144796,0.03153301451555582,0.10365824796942383,-0.07576319913291925,0.012506913289116997,0.058641703342341624,-0.144868869292803,-0.028864540314453062,-0.2727451552837033,-0.030398150583862776
2507,10.89801570000418,-0.012287637409360437,0.020529091201131066,-0.007194669355812876,0.03158741730294988,0.10391207544364328,-0.07639693428331494,0.012381495983111107,0.05744573210402347,-0.14499648469342732,-0.028480496252986636,-0.2742650243952187,-0.027950137719877987
2508,10.90421750000678,-0.011990759703496036,0.02097085274001721,-0.007599126976369669,0.03164127510239655,0.1041606587575716,-0.07703120429604572,0.01225776714317798,0.056243184070482226,-0.14511336615153242,-0.028092485924880645,-0.2757523737525185,-0.025488318776723206
2509,10.912724699999671,-0.011681644155431466,0.022025726652179018,-0.00825348677253241,0.03169459533644873,0.10440396945604724,-0.07766596210578718,0.012135743889072034,0.055034201993652325,-0.14521945387551888,-0.02770062747205644,-0.27720695288808384,-0.023012966715091652
2510,10.917727600011858,-0.011391015619423506,0.022580240521035157,-0.008708656606420026,0.031747385501748174,0.10464197971075198,-0.07830116038828408,0.012015442821382978,0.053818929709004745,-0.14531468927325839,-0.027305040194057325,-0.27862851726772586,-0.02052435775642725
2511,10.925970600001165,-0.01089552375222423,0.023580959426415013,-0.00944027186487897,0.031799653166741104,0.10487466232488381,-0.07893675156563257,0.011896880016502073,0.052597512109465706,-0.14539901496632046,-0.026905844520163317,-0.2800168283473797,-0.018022771354762716
2512,10.93209570000181,-0.01060342642935172,0.024665031276979006,-0.009998474481086053,0.0318514059693712,0.10510199073771374,-0.07957268781162445,0.01178007102171096,0.0513700951190887,-0.14547237480407726,-0.026503161981122358,-0.28137165362851674,-0.015508490167800147
2513,10.93672690000676,-0.010380973275926625,0.02524183767777584,-0.010302306896373143,0.03190265161475072,0.1053239390290265,-0.08020892105715285,0.011665030850394774,0.05013682566648558,-0.14553471387768271,-0.02609711518050524,-0.28269276671215826,-0.012981800027232985
2514,10.940586000011535,-0.010083761472015406,0.025680069406806602,-0.010627627344761742,0.031953397872810124,0.10554048192344416,-0.08084540299567851,0.011551773977381182,0.04889785165802282,-0.1455859785339228,-0.025687827765691715,-0.2839799473514732,-0.010442989908308364
2515,10.9444882000098,-0.009854474014113506,0.026300554075832476,-0.011064583869297599,0.03200365257592681,0.10575159479463189,-0.08148208508875615,0.01144031433440702,0.04765332195078941,-0.1456261163889329,-0.025275424398495214,-0.2852329815029435,-0.007892351898629166
2516,10.95246380000026,-0.009489104145364633,0.02743712871891544,-0.011627630581147831,0.0320534236165334,0.10595725366938458,-0.08211891857162044,0.011330665305714057,0.046403386325342424,-0.14565507634177852,-0.024860030725433836,-0.2864516613760784,-0.005330181166195164
2517,10.956807700000354,-0.009489104145364633,0.02743712871891544,-0.011627630581147831,0.0321027189447064,0.10615743523159396,-0.08275585445883074,0.011222839723775418,0.04514819545823692,-0.14567280858789544,-0.024441773347655404,-0.28763578548165947,-0.002756775926682938
2518,10.96056760000647,-0.009117151415197604,0.02789077138022063,-0.0120520466586487,0.032151546565735746,0.10635211682609476,-0.08339284354997452,0.011116849865154176,0.04388790089434636,-0.1456792646323867,-0.024020779790524603,-0.28878515867850146,-0.00017243740996440685
2519,10.964045000000624,-0.009117151415197604,0.02789077138022063,-0.0120520466586487,0.03219991453767594,0.10654127646238908,-0.08402983643542895,0.011012707446495679,0.04262265501898037,-0.14567439730317325,-0.0235971784728801,-0.28989959221871403,0.0024225301741360064
2520,10.968865400005598,-0.008669417624829909,0.02894046279454498,-0.012623003525190551,0.032247830968879586,0.10672489281824839,-0.08466678350217954,0.01091042362065511,0.04135261102980671,-0.1456581607639958,-0.023171098675969913,-0.2909789037914482,0.005027819670845349
2521,10.973067200000514,-0.008369090837510683,0.030190475185938776,-0.013271079537080496,0.03229530401551395,0.10690294524319283,-0.08530363493969495,0.010810008972961683,0.04007792290858423,-0.14563051052726514,-0.02274267051207349,-0.292022917565113,0.007643121016206826
2522,10.977450800011866,-0.00803266233758728,0.030638936831388245,-0.013742697380997527,0.03234234187906128,0.10707541376184668,-0.0859403407458576,0.01071147351762092,0.03879874539271352,-0.14559140346675692,-0.022312024892818954,-0.29303146422804727,0.010268121273604588
2523,10.981402900011744,-0.007847124391039847,0.0312804962068066,-0.014084033747434915,0.03238895280380349,0.10724227907716934,-0.08657685073294985,0.010614826694256334,0.037515233946612,-0.1455407978301475,-0.021879293497204067,-0.29400438102763315,0.012902504671047796
2524,10.985658300007344,-0.007643308697529711,0.03184718743345063,-0.014293108893824184,0.03243514507429193,0.10740352257356116,-0.08721311453369512,0.01052007736459187,0.036227544732920516,-0.14547865325138734,-0.021444608739329577,-0.29494151180783723,0.015545952639212943
2525,10.991676200006625,-0.007433070603195448,0.03250097989959593,-0.014570012235964993,0.03248092701280276,0.1075591263198434,-0.08784908160735305,0.01042723380927632,0.034935834583548445,-0.14540493076290778,-0.02100810373585366,-0.29584270704516524,0.01819814385024325
2526,10.99506570000085,-0.007433070603195448,0.03250097989959593,-0.014570012235964993,0.0325263069767785,0.10770907307211142,-0.08848470124586766,0.010336303724851007,0.03364026097056453,-0.1453195928076588,-0.02056991227317638,-0.29670782388301753,0.020858754257303675
2527,10.998677000010504,-0.0071925650775302085,0.03314318508650239,-0.014970657629880958,0.032571293356256706,0.10785334627646063,-0.08911992258006786,0.010247294220861914,0.03234098197694068,-0.14522260325097378,-0.0201301687743631,-0.29753672616443066,0.02352745713488985
2528,11.002242600006866,-0.006690877120054552,0.03426442855447224,-0.015746249338689663,0.03261589457128613,0.10799193007158465,-0.08975469458591907,0.01016021181711743,0.031038156267155982,-0.14511392739225815,-0.019689008265816002,-0.29832928446319346,0.026203923119889054
2529,11.007474700003511,-0.006690877120054552,0.03426442855447224,-0.015746249338689663,0.032660119069331084,0.10812480929124457,-0.09038896609082483,0.01007506244109276,0.029731943057667895,-0.1449935319764977,-0.019246566343702975,-0.2990853761133262,0.02888782025339109
2530,11.011301900012768,-0.0063436128588532,0.03485138549329919,-0.01618620908420082,0.032703975322664565,0.10825196946660978,-0.09102268577997794,0.009991851425482109,0.028422502087257676,-0.14486138520558303,-0.01880297914015316,-0.2998048852369118,0.03157881402324679
2531,11.014953900012188,-0.005959928898923608,0.03604228045718434,-0.01662015869538904,0.032747471825750954,0.10837339682846954,-0.09165580220276019,0.009910583505899673,0.027109993587257446,-0.14471745674944608,-0.018358383289228654,-0.3004877027702677,0.03427656740737154
2532,11.019235700005083,-0.005728192705912477,0.03674766653489626,-0.016931604240590356,0.03279061709261895,0.10848907830931497,-0.09228826377918997,0.009831262818730474,0.025794578251666284,-0.1445617177570042,-0.01791291589268179,-0.3011337264884481,0.036980740917791174
2533,11.02318090001063,-0.005520342186263535,0.037298293615459076,-0.017274971788885072,0.032833419654225475,0.10859900154529081,-0.09292001880641605,0.009753892899131969,0.024476417207162853,-0.1443941408669085,-0.017466714485507618,-0.30174286102806713,0.039690992645427116
2534,11.029136000011931,-0.005260786356935393,0.0378725425945884,-0.017570612483591746,0.032875888055811174,0.10870315487801657,-0.09355101546525682,0.00967847667918738,0.023155671983022114,-0.14421470021809446,-0.01701991700130107,-0.302315017908434,0.04240697830561766
2535,11.033497700002044,-0.005260786356935393,0.0378725425945884,-0.017570612483591746,0.03291803085424824,0.10880152735627621,-0.09418120182678412,0.009605016486211666,0.0218325044809435,-0.14402337146013125,-0.016572661737428537,-0.3028501155509915,0.045128351284371856
2536,11.037459600003784,-0.005098166808513303,0.0384900469285071,-0.017831883778858196,0.03295985661538126,0.10889410873757611,-0.09481052585895107,0.009533514041210887,0.020507076944798003,-0.14382013176336686,-0.016125087320023594,-0.30334807929704904,0.04785476268535228
2537,11.041653500011307,-0.004664042145090163,0.03972475315376142,-0.01854784677942961,0.03300137391136144,0.1089808894895719,-0.09543893543326279,0.009463970457495738,0.01917955193030188,-0.14360495982886617,-0.01567733266881671,-0.3038088414238029,0.050585861377582905
2538,11.04568310000468,-0.004392153440792906,0.04027226378275012,-0.018921748149581197,0.03304259131797495,0.10906186079136379,-0.09606637833148923,0.009396386239449953,0.017850092274624446,-0.14337783589813832,-0.015229536961808825,-0.3042323411586362,0.05332129404387784
2539,11.050148500013163,-0.0041958170241166775,0.040911607174944555,-0.019293683036086653,0.033083517411966065,0.10913701453466063,-0.09669280225241925,0.009330761281454276,0.016518861065937546,-0.14313874176264982,-0.014781839599798695,-0.30461852469169093,0.05606070522998626
2540,11.054074600004242,-0.003981165249450082,0.04146316856294659,-0.019654095333148693,0.03312416076835588,0.10920634332481154,-0.09731815481865518,0.009267094866966632,0.01518602161291437,-0.1428876607731202,-0.014334380170774015,-0.30496734518670415,0.058803737394448746
2541,11.057361400002264,-0.003981165249450082,0.04146316856294659,-0.019654095333148693,0.033164529957757365,0.10926984048170514,-0.09794238358344677,0.00920538566775907,0.013851737414185354,-0.1426245778485964,-0.013887298414176526,-0.3052787627901022,0.06155003095916017
2542,11.060968300007517,-0.003775010301481973,0.04205906878709758,-0.01994248825174573,0.0332046335436876,0.10932750004053603,-0.09856543603756339,0.009145631743312075,0.012516172127758893,-0.14234947948530222,-0.013440734185051172,-0.3055527446383491,0.06429922436063408
2543,11.0648407000117,-0.0033973446130705276,0.04331112301554005,-0.020617991741338323,0.033244480079877785,0.10937931675243842,-0.0991872596162033,0.009087830540366722,0.011179489540414537,-0.14206235376526058,-0.012994827418089541,-0.3057892648635437,0.06705095410196332
2544,11.069648100004995,-0.0031933044438931177,0.04386995436806741,-0.020981099209584048,0.033284078107582014,0.1094252860849872,-0.099807801705939,0.009031978892635174,0.009841853537076397,-0.1417631903646839,-0.012549718091577872,-0.30598830459725895,0.06980485480547105
2545,11.073080600006506,-0.002940801051415729,0.04449773412796623,-0.02136994182184442,0.033323436152885515,0.10946540422256576,-0.10042700965169762,0.008978073020669981,0.008503428070174499,-0.141451980562129,-0.012105546191259938,-0.3061498519726189,0.0725605592660461
2546,11.077290900007938,-0.00269716565923513,0.04509109520022484,-0.021680809883990203,0.03336256272401313,0.10949966806660051,-0.10104483076377513,0.00892610853189254,0.0071643771290018496,-0.14112871724641313,-0.011662451674125142,-0.3062739021246095,0.07531769850515653
2547,11.081549900001846,-0.0026070348062611215,0.04574113342992116,-0.022030871302512838,0.033401466308638904,0.10952807523566148,-0.10166121232488322,0.008876080420781095,0.005824864709074983,-0.1407933949242885,-0.011220574432132166,-0.3063604571886216,0.07807590182553485
2548,11.085579800012056,-0.0024260415362581276,0.046387574130901985,-0.022305866311174084,0.033440155371197176,0.10955062406542933,-0.10227610159722797,0.008827983069218495,0.004485054781505771,-0.1404460097278721,-0.010780054255878564,-0.3064095262972242,0.08083479686652881
2549,11.090145599999232,-0.002254333893381821,0.04707397860593648,-0.02260843682016187,0.03347863835019598,0.10956731360852877,-0.10288944582961962,0.008781810246999913,0.003145111262392302,-0.1400865594218281,-0.010341030798226746,-0.3064211255751663,0.0835940096601109
2550,11.093952100010938,-0.00202592627115279,0.04771342002365311,-0.022968973757245412,0.033516923655533486,0.10957814363422826,-0.10350119226461234,0.008737555112500723,0.0018051979822365691,-0.13971504341030036,-0.009903643537896798,-0.3063952781326063,0.08635316468753935
2551,11.09751690000121,-0.00202592627115279,0.04771342002365311,-0.022968973757245412,0.03355501966581822,0.10958311462800613,-0.10411128814567275,0.008695210213504693,0.0004654786553967713,-0.13933146274359273,-0.009468031743036575,-0.3063320140565667,0.08911188493666347
2552,11.10194570000749,-0.0018813067874201516,0.04841066540047982,-0.023245278211127256,0.03359293472569374,0.10958222779098323,-0.10471968072437633,0.008654767488192624,-0.0008738831504180025,-0.1389358201245939,-0.009034334434779526,-0.3062313704006164,0.09186979195986555
2553,11.106268300005468,-0.0015468541505519406,0.04983095492712861,-0.023895035843430203,0.033630677143168385,0.10957548503922221,-0.10532631726763043,0.008616218266291501,-0.0022127240446029373,-0.13852811991494404,-0.008602690350800699,-0.30609339117278284,0.0946265059326321
2554,11.10980190000555,-0.0015468541505519406,0.04983095492712861,-0.023895035843430203,0.03366825518695081,0.10956288900289382,-0.10593114506492263,0.008579553270384179,-0.003550880844054746,-0.1381083681409405,-0.008173237908881458,-0.30591812732169604,0.09738164571274607
2555,11.113204200009932,-0.0015468541505519406,0.04983095492712861,-0.023895035843430203,0.033705677083791866,0.10954444302531025,-0.10653411143559353,0.008544762617379555,-0.00488819060350327,-0.1376765724991806,-0.0077461151704934636,-0.30570563672096746,0.10013482890009237
2556,11.1167967000074,-0.001428203775517521,0.05047475668208774,-0.024218036274059034,0.033742951015833564,0.10952015116182563,-0.10713516373613317,0.00851183582014317,-0.006224490645769691,-0.13723274236193903,-0.007321459804412414,-0.3054559841518042,0.1028856718970682
2557,11.120857200003227,-0.0010544771461468364,0.05191452524535262,-0.024919085125004854,0.033780085117965715,0.10949001817860447,-0.10773424936750017,0.008480761789288077,-0.007559618591943664,-0.13677688878227665,-0.006899409050371976,-0.3051692412838599,0.10563378996959029
2558,11.125014600009308,-0.0009228159392937669,0.05256096057554475,-0.025202424419144647,0.03381708747519072,0.10945404955125838,-0.10833131578246277,0.008451528835125786,-0.008893412391471671,-0.13630902449887902,-0.006480099682768376,-0.3048454866543252,0.10837879730869009
2559,11.129036500002258,-0.0007564340358877711,0.05324077149814594,-0.025509033347707842,0.03385396611999744,0.10941225146335114,-0.1089263104929605,0.008424124669776949,-0.010225710352148927,-0.13582916394062144,-0.006063667974426139,-0.30448480564526303,0.11112030709268715
2560,11.133242000010796,-0.0005785504171106575,0.053950676549627645,-0.025842220495319264,0.033890729029744625,0.10936463080477249,-0.10951918107748568,0.008398536409441505,-0.011556351170007181,-0.13533732323085784,-0.005650249660435425,-0.30408729045919525,0.11385793154993155
2561,11.13769940000202,-0.0004542652363297908,0.054679886985749174,-0.02614757146216196,0.03392738412405468,0.10931119516998086,-0.11010987518848367,0.008374750576827935,-0.012885173959090819,-0.13483352019143163,-0.0052399799020714085,-0.30365304009294863,0.11659128202210522
2562,11.141641599999277,-0.00034923828708993655,0.05533535860835381,-0.02644659222598781,0.03396393926221848,0.10925195285611577,-0.11069834055977076,0.00835275310374126,-0.014212018281113669,-0.13431777434640704,-0.004832993250806105,-0.30318216030976813,0.11931996902807303
2563,11.146000799999456,-0.00017347520398853258,0.056020003759044,-0.026767685372706754,0.03400040224061177,0.10918691286098071,-0.11128452501396788,0.008332529333829337,-0.015536724174988994,-0.13379010692551865,-0.004429423612423063,-0.30267476360970286,0.12204360232827399
2564,11.150105700013228,-0.00017347520398853258,0.056020003759044,-0.026767685372706754,0.034036780790123934,0.10911608488089745,-0.11186837646994904,0.008314064025487013,-0.016859132186225076,-0.1332505408673369,-0.004029404211245282,-0.30213096919827337,0.12476179098964306
2565,11.15353030001279,-0.00017347520398853258,0.056020003759044,-0.026767685372706754,0.03407308257359981,0.10903947930843266,-0.11244984295030323,0.008297341354917654,-0.018179083396178887,-0.13269910082214795,-0.0036330675544866743,-0.30155090295342885,0.1274741434510524
2566,11.157029400012108,-4.932224742701242e-05,0.05674874096166495,-0.02707234883517911,0.03410931518329532,0.10895710722999781,-0.11302887258880788,0.00828234491935143,-0.019496419451160325,-0.1321358131545461,-0.003240545396737339,-0.30093469739080375,0.13018026758926232
2567,11.16058750000957,-4.932224742701242e-05,0.05674874096166495,-0.02707234883517911,0.03414548613834746,0.1088689804233227,-0.1136054136379131,0.008269057740419713,-0.020810982591379503,-0.13156070594573627,-0.0028519687045928544,-0.30028249162728327,0.13287977078537125
2568,11.164867600004072,0.0002218681629729348,0.058781741581082625,-0.02795222932123779,0.03418160288225947,0.10877511135480311,-0.11417941447623571,0.008257462267684895,-0.02212261567972975,-0.1309738089955456,-0.0024674676214377924,-0.29959443134288777,0.13557225999175404
2569,11.169042300010917,0.0005225288439214801,0.060193996454476636,-0.028689633292874966,0.034217672780401776,0.10867551317672287,-0.11475082361606218,0.00824754038232487,-0.02343116223039909,-0.1303751538241421,-0.0020871714323935785,-0.2988706687409841,0.13825734179947674
2570,11.173264500001096,0.0005929321764718844,0.06086716195368039,-0.029032282296193965,0.03425370311752964,0.10857019972435136,-0.11531958971085923,0.008239273400971381,-0.02473646643730299,-0.12976477367345826,-0.001711208529440775,-0.29811136250683457,0.14093462250617517
2571,11.176645700004885,0.0005929321764718844,0.06086716195368039,-0.029032282296193965,0.03428970109531818,0.1084591855129166,-0.11588566156279105,0.008232642079701454,-0.02603837320233126,-0.1291427035083163,-0.0013397063767258174,-0.2973166777644957,0.143603708184386
2572,11.180115200011642,0.0005929321764718844,0.06086716195368039,-0.029032282296193965,0.03432567382991544,0.1083424857344551,-0.11644898813024158,0.008227626618181086,-0.027336728163401866,-0.12850898001725408,-0.0009727914760621737,-0.29648678603207984,0.14626420475031768
2573,11.18457870000566,0.0007756582551225622,0.06158182840728312,-0.02933950012122166,0.03436162834951422,0.10822011625453949,-0.11700951853534089,0.008224206663960317,-0.028631377722314652,-0.12786364161304917,-0.0006105893326358248,-0.29562186517538963,0.14891571803304826
2574,11.189994600004866,0.001017343202940978,0.06362369971820035,-0.030419600058584698,0.03439757159194333,0.10809209360888412,-0.11756720207149439,0.008222361316918817,-0.029922169072397826,-0.12720672843293962,-0.0002532244209248992,-0.2947220993599395,0.15155785384413756
2575,11.19475510000484,0.0010659710964886948,0.06433777840236313,-0.030749049376652807,0.03443351040227913,0.1079584349998299,-0.11812198821091391,0.008222069133861006,-0.031208950225940196,-0.1265382823385396,9.917984915677846e-05,-0.29378767900137664,0.154190218047641
2576,11.1983506000106,0.001193014135811808,0.0650994179798885,-0.031088628581906717,0.03446945153047778,0.10781915829270904,-0.11867382661214934,0.008223308133259695,-0.032491570041402226,-0.12585834691544748,0.00044650116588253863,-0.292818800714317,0.15681241663051293
2577,11.201919200000702,0.001193014135811808,0.0650994179798885,-0.031088628581906717,0.03450540162902919,0.10767428201209016,-0.11922266712761902,0.008226055800147224,-0.03376987825039882,-0.12516696747254466,0.0007886183490925117,-0.2918156672596103,0.15942405577338684
2578,11.206039100012276,0.0012761273988687039,0.06569760631848424,-0.03134449981655517,0.034541367250633254,0.10752382533790505,-0.11976845981113755,0.008230289091153012,-0.03504372548444718,-0.12446419104098347,0.0011254113833205348,-0.29077848749005214,0.16202474192171928
2579,11.210263400003896,0.0013932917564425298,0.06716349332521615,-0.0321923723237924,0.03457735484589895,0.10736780810145818,-0.12031115492544041,0.008235984439686367,-0.036312963301473,-0.12375006637286283,0.0014567614506588791,-0.28970747629455845,0.16461408185728396
2580,11.21454870000889,0.0014973752367898757,0.06781731775048243,-0.032521155730715796,0.03461337076106683,0.10720625078132018,-0.12085070294970347,0.00824311776126334,-0.03757744421206873,-0.12302464393959033,0.0017825509633514415,-0.2886028545408186,0.16719168277000254
2581,11.218906400012202,0.0015916780945324225,0.06852885915576855,-0.03287874779877327,0.03464942123575548,0.10703917449910638,-0.12138705458705672,0.008251664458976427,-0.03883702170549734,-0.12228797592992972,0.002102663596106135,-0.28746484901644437,0.16975715233009878
2582,11.223131999999168,0.0016043779549621765,0.0692778380065738,-0.03332685618406287,0.034685512400732456,0.10686660101514178,-0.12192016077209063,0.00826159942910587,-0.040091550275435074,-0.12154011624773207,0.002416984318117309,-0.28629369236863156,0.17231009876056108
2583,11.227453700004844,0.0017015704975559952,0.06992113228450908,-0.03368615974947055,0.03472165027571022,0.10668855272401356,-0.12244997267835388,0.008272897066871239,-0.04134088544544654,-0.12078112050934911,0.0027253994247891183,-0.2850896230423528,0.17485013090989934
2584,11.232095500003195,0.0017015704975559952,0.06992113228450908,-0.03368615974947055,0.034757840767167765,0.10650505265001298,-0.12297644172584067,0.008285531272321942,-0.04258488379418553,-0.12001104604072795,0.003027796569150879,-0.2838528852171014,0.17737685832518071
2585,11.237104500003625,0.0017015704975559952,0.06992113228450908,-0.03368615974947055,0.03479408966619846,0.10631612444246752,-0.12349951958846665,0.008299475456365259,-0.04382340298031539,-0.11922995187418563,0.0033240647929555158,-0.2825837287422048,0.17988989132532932
2586,11.24131730000954,0.0017999020303145449,0.07067281297519692,-0.0340133375402182,0.03483040264638464,0.10612179237096453,-0.12401915820153182,0.00831470254693046,-0.04505630176714308,-0.11843789874486214,0.0036140945574523226,-0.2812824090707279,0.18238884107467504
2587,11.244834700002684,0.001937335159229388,0.07276947846845523,-0.03521286605153711,0.03486678526169959,0.10592208132046753,-0.12453530976916871,0.008331184995267582,-0.04628344004696081,-0.11763494908685121,0.0038977777738253634,-0.27994918719198464,0.18487331965673606
2588,11.248512800011667,0.001972823180462768,0.07346280471817117,-0.03559038564090215,0.034903242944437404,0.10571701678632649,-0.12504792677177415,0.008348894782379372,-0.04750467886508939,-0.11682116702900781,0.004175007833288975,-0.2785843295626775,0.1873429401482199
2589,11.25218660000246,0.0020347671112557085,0.0741476588711317,-0.03600457355501116,0.034939781003171376,0.10550662486918336,-0.1255569619734231,0.008367803425584868,-0.048719880443617344,-0.11599661839043145,0.004445679636831929,-0.27718810803668525,0.1897973166932273
2590,11.256563300004927,0.002069008351949709,0.07483425210357415,-0.036404619857677754,0.034976404620741454,0.10529093226977378,-0.12606236842926322,0.008387881985213107,-0.04992890820482997,-0.11516137067562356,0.0047096896246019305,-0.2757607997935212,0.19223606457764256
2591,11.260846100005438,0.0020827095173342734,0.07550388465161768,-0.03679673230213794,0.035013118852271284,0.10506996628362647,-0.12656409949288863,0.008409101071425356,-0.05113162679432272,-0.11431549306931875,0.00496693580492221,-0.27430268726548135,0.19465880030369395
2592,11.264541800002917,0.0020827095173342734,0.07550388465161768,-0.03679673230213794,0.0350499286232153,0.10484375479566192,-0.1270621088236927,0.008431430851164181,-0.05232790210379327,-0.11345905643098952,0.005217317782932138,-0.27281405806350567,0.19706514166466832
2593,11.268980799999554,0.0021303184731614345,0.076214878661727,-0.037158079937349715,0.03508683872743641,0.10461232627469211,-0.12755635039419844,0.008454841055227636,-0.05351760129350703,-0.11259213328902354,0.0054607367888439015,-0.2712952049017735,0.1994547078197634
2594,11.273022200010018,0.002208371326833881,0.07751935751914328,-0.03804127139733929,0.03512385382531466,0.10437570976782252,-0.12804677849736418,0.008479300985466806,-0.05470059281443072,-0.11171479783457232,0.00569709570580742,-0.2697464255210553,0.20182711936906172
2595,11.277456100011475,0.002228712867405144,0.07818591466438973,-0.03851977760951425,0.03516097844188716,0.10413393489475742,-0.12853334775386324,0.008504779522104995,-0.05587674643002901,-0.11082712591507121,0.0059262990973758456,-0.26816802261084344,0.20418199842860874
2596,11.281588400001056,0.0022376043658070663,0.07888919353162924,-0.03898454169049161,0.03519821696502017,0.1038870318420094,-0.12901601311933567,0.008531245131176772,-0.05704593323771918,-0.10992919502742998,0.006148253234564077,-0.2665603037302839,0.20651896870557815
2597,11.285629300007711,0.0023182282310863387,0.07943742460859768,-0.039423401715896096,0.03523557364361383,0.10363503135701509,-0.1294947298916101,0.008558665872085047,-0.05820802568997874,-0.10902108431089348,0.006362866122492912,-0.2649235812279336,0.2088376555735082
2598,11.290183800010707,0.0023365050121225356,0.08014818416821119,-0.03993072185195026,0.03527305258584,0.10337796474215814,-0.12996945371789392,0.008587009405274305,-0.059362897615101266,-0.10810287453957186,0.00657004752661152,-0.26325817216036584,0.2111376861475922
2599,11.294020200002706,0.002311299927667345,0.08078376466248093,-0.04041876395452349,0.035310657757413814,0.10311586384870199,-0.13044014060193057,0.008616243000018115,-0.060510424237595395,-0.10717464811464013,0.006769708998491098,-0.26156439820965044,0.21341868936000644
2600,11.298654000012904,0.0023567484533316653,0.08143817160695199,-0.040881922649368456,0.03534839297989945,0.1028487610706341,-0.13090674691112322,0.00864633354231895,-0.06165048219822223,-0.10623648905620725,0.006961763901182664,-0.2598425855997346,0.21568029603525804
2601,11.302443400010816,0.002389558802884158,0.08215652334558526,-0.04134370006805596,0.035386261929050936,0.10257668933842364,-0.13136922938362397,0.008677247542918397,-0.06278294957366677,-0.10528848299485488,0.007146127434132103,-0.25809306501174967,0.2179221389655366
2602,11.306853400004911,0.0023892983620021186,0.08270587868277003,-0.041809129475885845,0.035424268133188185,0.10229968211269395,-0.13182754513538694,0.00870895114541578,-0.06390770589583865,-0.10433071716284563,0.007322716657645712,-0.2563161714982705,0.22014385298605174
2603,11.3110871000099,0.002364586326845081,0.08347275122918293,-0.04232745396056336,0.03546241497160904,0.10201777337781205,-0.13228165166718397,0.008741410134493213,-0.0650246321707979,-0.10336328038500112,0.0074914505168996864,-0.25451224439655534,0.22234507505033876
2604,11.314739600013128,0.0023535649067212465,0.08403854243479122,-0.04284705059945262,0.03550070567303783,0.10173099763539648,-0.13273150687158136,0.008774589944245076,-0.06613361089730144,-0.10238626306925003,0.007652249865487099,-0.25268162724079357,0.22452544430551524
2605,11.319078400003493,0.002436190866860787,0.08462052495877934,-0.04341803290352142,0.03553914331411117,0.10143938989774554,-0.13317706903987692,0.008808455666609824,-0.06723452608496562,-0.10139975719684645,0.007805037488496082,-0.25082466767339084,0.2266846021674714
2606,11.324324300003354,0.002433403631710349,0.08529513881022929,-0.043959126535160965,0.03557773081790164,0.10114298568118753,-0.13361829686899512,0.00884297205990206,-0.06832726327204079,-0.10040385631225875,0.00794973812511309,-0.24894171735531842,0.22882219239597773
2607,11.328310800003235,0.002446295349200639,0.08582758220889061,-0.044500504639424086,0.03561647095247942,0.10084182099935432,-0.13405514946833785,0.008878103557442727,-0.06941170954279388,-0.09939865551272956,0.008086278490745268,-0.2470331318755528,0.23093786116969223
2608,11.332396100013284,0.002526040606708139,0.08644279355478268,-0.04510905514943461,0.03565536632951215,0.10053593235638007,-0.13448758636658892,0.008913814276285242,-0.07048775354449552,-0.09838425143750773,0.008214587298656132,-0.24509927065963472,0.23303125716104894
2609,11.335810300006417,0.002526040606708139,0.08644279355478268,-0.04510905514943461,0.035694419402903174,0.1002253567400262,-0.13491556751846967,0.008950068026035363,-0.07155528550400833,-0.09736074225675258,0.008334595281108918,-0.24314049687737538,0.23510203161101004
2610,11.34003630001098,0.002464429159079924,0.0870152931173289,-0.04562622962351359,0.03573363246746871,0.09991013161473423,-0.13533905331144375,0.00898682831776267,-0.07261419724397258,-0.09632822766011143,0.008446235210012098,-0.2411571773497385,0.23714983840366333
2611,11.34389519999968,0.002537214206898757,0.08829861468216282,-0.04677857440392773,0.03577300765765401,0.09959029491460837,-0.1357580045723702,0.009024058373001392,-0.07366438219858593,-0.09528680884497108,0.0085494419170617,-0.23914968245492763,0.2391743341406464
2612,11.348053300011088,0.002536376865236306,0.08884241076425688,-0.04738742392350694,0.03581254694628908,0.09926588503632958,-0.13617238257410408,0.009061721132838391,-0.07470573542897395,-0.09423658850438414,0.00864415231337522,-0.23711838603370944,0.2411751782153792
2613,11.352440900009242,0.0026340188261603373,0.08941918508984967,-0.04805425854139968,0.03585225214338406,0.09893694083200336,-0.1365821490420427,0.009099779267086027,-0.07573815363814851,-0.0931776708146713,0.00873030540861212,-0.23506366529400388,0.24315203288708553
2614,11.35777919999964,0.0026340188261603373,0.08941918508984967,-0.04805425854139968,0.03589212489496467,0.0986035016019434,-0.13698726616061602,0.009138195183537638,-0.07676153518555058,-0.09211016142270083,0.008807842329576017,-0.2329859007147722,0.24510456335458503
2615,11.361444599999231,0.0026421519276600917,0.08994892214906929,-0.048685198561122446,0.035932166681948284,0.09826560708739299,-0.1373876965797196,0.009176931037303245,-0.07777578010117446,-0.09103416743284662,0.00887670633829383,-0.2308854759492327,0.2470324378298373
2616,11.366273999999976,0.0026924104381944656,0.091036094100744,-0.04999493237060897,0.035972378819060895,0.0979232974631857,-0.13778340342108883,0.009215948740223188,-0.0787807900992701,-0.08994979739362598,0.008936842849567311,-0.22876277772743359,0.24893532761121848
2617,11.373070900008315,0.0026969001556759937,0.09152479746180621,-0.0505975874213859,0.03601276245379503,0.0975766133303472,-0.13817435028461258,0.00925520997035733,-0.07977646859162073,-0.08885716128401805,0.008988199447992559,-0.22661819575821385,0.25081290715651045
2618,11.377307200003996,0.002762624242756532,0.09259862427864687,-0.05209606096730523,0.03605331856540911,0.09722559570863995,-0.13856050125458505,0.009294676181547437,-0.08076272070039323,-0.08775637049946415,0.00903072590444335,-0.22445212263058298,0.25266485415558354
2619,11.381575500010513,0.002863437463334276,0.09309222424620628,-0.052810075731147016,0.03609404796396831,0.09687028602905258,-0.1389418209058945,0.009334308613050403,-0.0817394532705586,-0.08664753783755115,0.009064374192014248,-0.2222649537145506,0.25449084960275387
2620,11.38561500000651,0.002863437463334276,0.09309222424620628,-0.052810075731147016,0.0361349512894276,0.0965107261262354,-0.13931827431014784,0.00937406829923991,-0.08270657488188016,-0.08553077748337905,0.00908909850141961,-0.22005708706143642,0.256290577868796
2621,11.389885399999912,0.0029769835138531466,0.09355690439508153,-0.053500187109846664,0.036176029010757234,0.09614695823088447,-0.13968982704172955,0.009413916079374132,-0.08366399586046624,-0.08440620499461478,0.009104855255844731,-0.21782892330369388,0.2580637267725921
2622,11.398474300003729,0.003181347239166525,0.09507639186141098,-0.0558180255685922,0.036217281425111415,0.09577902496207594,-0.140056445183793,0.009453812607426993,-0.08461162828988533,-0.08327393728623386,0.009111603125245608,-0.2155808655542791,0.2598099876523989
2623,11.40345030000026,0.003273815322461672,0.09551415044059954,-0.05659328019982238,0.03625870865704035,0.0954069693195529,-0.14041809533418376,0.009493718361980489,-0.08554938602184131,-0.0821340926149519,0.009109303040093901,-0.2133133193055959,0.26152905543671473
2624,11.40729950000241,0.003341795849151156,0.09601551067574297,-0.0573664854688919,0.036300310657745985,0.09503083467596707,-0.14077474461129294,0.009533593656175659,-0.08647718468640742,-0.08098679056334783,0.009097918204563876,-0.21102669232804916,0.26322062871472673
2625,11.410670500001288,0.003341795849151156,0.09601551067574297,-0.0573664854688919,0.03634208720438144,0.09465066476907683,-0.14112636065983994,0.009573398647719762,-0.08739494170181701,-0.07983215202368049,0.009077414109158249,-0.20872139456823768,0.2648844098063185
2626,11.415136399999028,0.00343276024143125,0.09651107561077805,-0.0581871885099825,0.036384037899394886,0.09426650369390406,-0.14147291165658296,0.009613093348947152,-0.08830257628380991,-0.0786702991814005,0.009047758542769993,-0.2063978380468182,0.26652010483161953
2627,11.419741100005922,0.0035415974415587766,0.09737440191211322,-0.05974138275422303,0.0364261621699178,0.09387839589485135,-0.14181436631595645,0.009652637636931286,-0.08920000945453264,-0.07750135549835933,0.009008921604177399,-0.20405643675607205,0.26812742378007703
2628,11.423869000005652,0.0035415974415587766,0.09737440191211322,-0.05974138275422303,0.036468459267197814,0.09348638615778128,-0.142150693895634,0.009691991263645316,-0.09008716405099143,-0.07632544569571774,0.00896087571296978,-0.20169760655720737,0.2697060805790308
2629,11.427406900009371,0.00365472034945452,0.09789594099233045,-0.060523801812339614,0.03651092826607617,0.09309051960205943,-0.14248186420201572,0.009731113866168721,-0.09096396473305693,-0.07514269573655633,0.008903595619901467,-0.1993217650774292,0.27125579316177334
2630,11.431240600009914,0.00365472034945452,0.09789594099233045,-0.060523801812339614,0.03655356806451,0.0926908416725633,-0.14280784759563855,0.009769964976937452,-0.0918303379910197,-0.07395323280819038,0.008837058416671845,-0.1969293316068096,0.27277628353507544
2631,11.43624500000442,0.00365472034945452,0.09789594099233045,-0.060523801812339614,0.0365963773831396,0.0922873981316594,-0.14312861499650814,0.009808504034035073,-0.09268621215269522,-0.0727571853041911,0.008761243545129369,-0.19452072699499004,0.2742672778461589
2632,11.439904200000456,0.003908207658951118,0.09874596069176021,-0.062121196389199614,0.03663935476490089,0.09188023505115027,-0.14344413788935084,0.009846690391522384,-0.09353151739007766,-0.07155468280611588,0.008676132805897654,-0.1920963735477498,0.27572850644909824
2633,11.444364400013,0.004252878908553789,0.1000367961129981,-0.06464756767938264,0.03668249857468313,0.09146939880419347,-0.1437543883287846,0.009884483329802999,-0.09436618572554173,-0.07034585606495011,0.008581710366421873,-0.1896566949234724,0.2771597039706309
2634,11.4486762000015,0.004360489894873115,0.10044037198114236,-0.06549597243867972,0.036725806999031975,0.09105493605719418,-0.14405933894440584,0.009921842066022287,-0.0951901510375928,-0.06913083698226329,0.008477962768433928,-0.18720211602954262,0.2785606093753557
2635,11.45226660001208,0.004463080739675926,0.10078545094918949,-0.06630805357463555,0.03676927804589781,0.09063689376167408,-0.14435896294579031,0.009958725764497123,-0.09600334906616506,-0.06790975859108167,0.008364878934834969,-0.1847330629187067,0.2799309660303005
2636,11.456555800003116,0.004654738900847833,0.10117557753272838,-0.06714205346901066,0.03681290954442957,0.09021531914611829,-0.14465323412740666,0.00999509354717378,-0.09680571741746716,-0.06668275503648098,0.008242450175994004,-0.18224996268542953,0.2812705217688392
2637,11.460692400010885,0.00474174411109548,0.10157880508916232,-0.0679149205130636,0.03685669914481429,0.08979025970780301,-0.14494212687344113,0.010030904504111357,-0.09759719556837511,-0.06544996155590162,0.00811067019546153,-0.1797532433622825,0.28257902895393877
2638,11.46508900000481,0.0048316482936572105,0.10201160416117491,-0.06872426571349494,0.03690064431816259,0.0893617632046057,-0.14522561616253146,0.010066117703988162,-0.09837772487037223,-0.06421151445918961,0.007969535095097272,-0.17724333381639493,0.28385624454071656
2639,11.46894850001263,0.004991712079880342,0.1022763637762127,-0.06960039757063993,0.03694474235643999,0.08892987764679944,-0.14550367757240973,0.01010069220462849,-0.09914724855303617,-0.06296755110836605,0.007819043379611295,-0.17472066364600297,0.28510193013828944
2640,11.473036200011848,0.005152928540403611,0.1025952180898176,-0.07034947745756064,0.03698899037244457,0.0884946512888331,-0.14577628728445358,0.010134587063547166,-0.0999057117270731,-0.061718209897127944,0.007659195960517827,-0.17218566307712851,0.2863158520708959
2641,11.477111800006242,0.005300816996984591,0.10285820851493047,-0.07113334166987301,0.03703338529983085,0.08805613262109983,-0.14604342208814522,0.010167761348509313,-0.10065306138689982,-0.06046363023008381,0.0074899961595013016,-0.1696387628604205,0.2874977814382726
2642,11.481187500001395,0.005406966162991395,0.10323577828073553,-0.07187591244203906,0.03707792389318,0.08761437036169577,-0.1463050593854375,0.010200174148102656,-0.10138924641277407,-0.05920395250172718,0.007311449711194319,-0.16708039416819145,0.28864749417526636
2643,11.48534890000883,0.005468889533826435,0.10369229402811472,-0.07256454491413189,0.037122602728116134,0.08716941344817122,-0.14656117719502504,0.0102317845823198,-0.10211421757247469,-0.05793931807515172,0.007123564765367358,-0.16451098849168075,0.28976477111066284
2644,11.489415500007452,0.005645708933041202,0.10386754891115632,-0.07352068454461069,0.03716741820146894,0.0867213110292763,-0.146811754156519,0.010262551813147846,-0.10282792752253242,-0.05666986926051149,0.006926351888530271,-0.16193097753857735,0.29084939802521526
2645,11.49291150001227,0.005645708933041202,0.10386754891115632,-0.07352068454461069,0.03721236653148269,0.08627011245670259,-0.14705676953452487,0.010292435055162715,-0.10353033080901274,-0.05539574929323007,0.00671982406494571,-0.15934079313083346,0.291901165708855
2646,11.496581200000946,0.005645708933041202,0.10386754891115632,-0.07352068454461069,0.03725744375807169,0.08581586727682294,-0.1472962032226226,0.010321393586125579,-0.10422138386785151,-0.054117102311962414,0.006503996697054811,-0.1567408671028011,0.2929198700170663
2647,11.50013190000027,0.005645708933041202,0.10386754891115632,-0.07352068454461069,0.03730264574312241,0.08535862522243107,-0.14753003574724893,0.010349386757578776,-0.1049010450247452,-0.052834073336312785,0.006278887605315598,-0.15413163119972384,0.2939053119264066
2648,11.504394900010084,0.005855635963123499,0.10412212905472358,-0.07431373840980457,0.03734796817084228,0.08489843620448291,-0.14775824827148035,0.010376374005438694,-0.10556927449459669,-0.05154680824431256,0.006044517027454769,-0.15151351697661564,0.29485729758915386
2649,11.508406000008108,0.006379825374550676,0.1048270912734103,-0.0766143602006018,0.0373934065481551,0.08443535030384201,-0.14798082259871534,0.01040231486058292,-0.10622603438051811,-0.05025545374966161,0.005800907617133616,-0.14888695569755803,0.29577563838706356
2650,11.51237170000968,0.006379825374550676,0.1048270912734103,-0.0766143602006018,0.037438956205143044,0.08396941776303042,-0.14819774117625478,0.010427168959429125,-0.10687128867239204,-0.04896015737873714,0.005548084442029053,-0.14625237823544637,0.2966601509842176
2651,11.518357300010392,0.006666736024316832,0.10564596130593136,-0.07890381537352445,0.03748461229553515,0.08350068897798728,-0.14840898709877906,0.010450896054503082,-0.10750500324499294,-0.04766106744737422,0.0052860749813308265,-0.1436102149722159,0.2975106573789487
2652,11.521790700004203,0.006666736024316832,0.10564596130593136,-0.07890381537352445,0.03753036979724247,0.08302921448983654,-0.148614544111722,0.010473456024993262,-0.10812714585567136,-0.046358333037422324,0.005014909122656141,-0.14096089569957884,0.2983269849548252
2653,11.525287900003605,0.006880716693722284,0.10590921575981606,-0.07966253957122281,0.03757622351293964,0.08255504497666537,-0.14881439661454082,0.010494808887289403,-0.10873768614160306,-0.045052103973082167,0.004734619158383056,-0.13830484952030303,0.29910896653068025
2654,11.529217800009064,0.007066086530370271,0.10610461359644308,-0.08038840106037111,0.03762216807069294,0.08207823124531505,-0.14900852966388134,0.010514914805502523,-0.1093365956166054,-0.04374253079702699,0.004445239781404146,-0.1356425047500625,0.299856440409668
2655,11.53362260000722,0.007196525931546562,0.10633448787700608,-0.08119300574522723,0.0376681979246343,0.08159882422318639,-0.14919692897663792,0.010533734101963801,-0.10992384766752347,-0.042429764746312444,0.00414680808030207,-0.1329742888198895,0.30056925042733024
2656,11.537258800002746,0.007378853016585796,0.10648361374592491,-0.0819611472423662,0.03771430735568115,0.08111687495006173,-0.1493795809329074,0.010551227267699827,-0.11049941755018879,-0.04111395772807951,0.0038393635339488133,-0.13030062817925747,0.301247245998658
2657,11.540717399999266,0.007378853016585796,0.10648361374592491,-0.0819611472423662,0.03776049047230216,0.08063243456994494,-0.14955647257883697,0.010567354972881667,-0.11106328238495361,-0.03979526229505501,0.003522948005530555,-0.12762194819982495,0.3018902821641318
2658,11.543903800004044,0.007378853016585796,0.10648361374592491,-0.0819611472423662,0.03780674121132869,0.08014555432292142,-0.14972759162936475,0.010582078077245191,-0.11161542115180367,-0.03847383162085431,0.0031976057360001784,-0.12493867307986996,0.30249821963472284
2659,11.548840500006918,0.007476468304302295,0.10675987193090175,-0.08273027745835543,0.0378530533388117,0.07965628553704018,-0.14989292647085242,0.010595357640480231,-0.11215581468505235,-0.037149819475090926,0.002863383336959656,-0.12225122574944397,0.30307092483584047
2660,11.55226580001181,0.007476468304302295,0.10675987193090175,-0.08273027745835543,0.03789942045092428,0.07916467962022045,-0.1500524661636089,0.010607154932586085,-0.1126844456676188,-0.03582338019829762,0.0025203297829746335,-0.11956002777627468,0.30360826995021056
2661,11.55632940000214,0.008104612330993405,0.10704651165875648,-0.08506312931582677,0.03794583597490932,0.07867078805218408,-0.15020620044430438,0.010617431444190925,-0.1132012986248933,-0.03449466867666359,0.002168496403323666,-0.11686549927244534,0.3041101329596705
2662,11.560662600008072,0.008472620106096018,0.10742257485167588,-0.0865248364752245,0.03799229317007236,0.0781746623764154,-0.15035411972827442,0.010626148896832601,-0.11370635991819376,-0.033163840316592454,0.0018079368731846908,-0.1141680588018788,0.3045763976858632
2663,11.567181100006565,0.008697775444259957,0.10751218216415648,-0.08722080330693127,0.03803878512881952,0.07767635419214958,-0.15049621511171293,0.010633269253198416,-0.11419961773781644,-0.031831051019085996,0.0014387072042614502,-0.11146812328865333,0.305006953829813
2664,11.571413400000893,0.008886343364374698,0.10766380173663449,-0.08795453697804101,0.03808530477774012,0.07717591514639105,-0.1506324783737542,0.010638754727321424,-0.11468106209568428,-0.03049645715395881,0.0010608657348526993,-0.10876610792617733,0.3054016970103676
2665,11.57725180000125,0.009217776237815977,0.10780676460891964,-0.08946966622621069,0.0381318448787337,0.07667339692596357,-0.15076290197844244,0.010642567794730804,-0.11515068481759665,-0.029160215533888627,0.0006744731193671768,-0.10606242608724949,0.30576052880149046
2666,11.580714300012914,0.009217776237815977,0.10780676460891964,-0.08946966622621069,0.03817839803018108,0.07616885124959341,-0.15088747907658726,0.010644671202553902,-0.11560847953508445,-0.027822483388307395,0.0002795923172874211,-0.10335748923503056,0.3060833567683898
2667,11.584230799999204,0.009217776237815977,0.10780676460891964,-0.08946966622621069,0.03822495666815944,0.07566232986002765,-0.15100620350750463,0.010645027979567633,-0.11605444167687522,-0.026483418337138145,-0.00012371141841435488,-0.10065170683495323,0.30637009450247066
2668,11.58872300000803,0.00938112271452829,0.10780205911093087,-0.09029333964920667,0.03827151306770097,0.07515388451618943,-0.15111906980064224,0.010643601446196898,-0.1164885684599719,-0.02514317836438281,-0.0005353705534049989,-0.09794548626759574,0.3066206616550962
2669,11.592128400006914,0.00938112271452829,0.10780205911093087,-0.09029333964920667,0.038318059344094796,0.07464356698537192,-0.15122607317708886,0.01064035522445765,-0.11691085888034974,-0.023801921791566226,-0.0009553152846603131,-0.0952392327425451,0.30683498397014497
2670,11.595719200005988,0.009689432595657724,0.10792843451821316,-0.09181905252515812,0.03836458745423226,0.07413142903547248,-0.15132720955096746,0.010635253247842246,-0.11732131370327636,-0.022459807251041592,-0.001383473553672546,-0.09253334921327469,0.3070129933153495
2671,11.599166500003776,0.009689432595657724,0.10792843451821316,-0.09181905252515812,0.038411089197995386,0.07361752242726886,-0.15142247553071228,0.010628259771144751,-0.11771993545325928,-0.021116993659162732,-0.0018197710601918027,-0.08982823629306105,0.3071546277124036
2672,11.602581400002236,0.010114416812958401,0.10807008589189135,-0.09330238025306008,0.03845755621968813,0.0731018989067392,-0.15151186842022926,0.010619339380223894,-0.11810672840362559,-0.01977364018932843,-0.0022641312764975835,-0.08712429217196371,0.3072598313658257
2673,11.60632630001055,0.010476632010496985,0.10798540502393435,-0.09482956160876385,0.03850398000951021,0.07258461019742754,-0.15159538621993937,0.01060845700170139,-0.11848169856573806,-0.018429906244904218,-0.0027164754621965535,-0.08442191253489097,0.3073285546905659
2674,11.610639100006663,0.010688608761574375,0.10794880210283925,-0.0954890667656966,0.038550351905073256,0.07206570799285672,-0.15167302762770402,0.01059557791259337,-0.11884485367785218,-0.017085951432027152,-0.003176722679542545,-0.08172149048077483,0.3073607543383448
2675,11.614942900007009,0.010898270349201732,0.10797738546097056,-0.0963084049475473,0.038596663092959005,0.07154524394899021,-0.15174479203963243,0.010580667749872569,-0.11919620319361877,-0.015741935532299228,-0.0036447898092746857,-0.07902341644287808,0.3073563932227099
2676,11.619004500011217,0.010986802951015852,0.10800942121363455,-0.09699802357636837,0.038642904610319204,0.07102326967674485,-0.15181067955077038,0.010563692519958994,-0.1195357582702366,-0.01439801847537514,-0.004120591566969442,-0.07632807811025556,0.30731544054279775
2677,11.622430900009933,0.010986802951015852,0.10800942121363455,-0.09699802357636837,0.038689067346516955,0.07049983673455588,-0.1518706909556693,0.010544618608136807,-0.11986353175625976,-0.013054360311449976,-0.004604040519902269,-0.07363586035039152,0.30723787180578943
2678,11.627051400006168,0.011242657972409548,0.10806277444961342,-0.09778709722220005,0.03873514204480912,0.06997499662099588,-0.1519248277488355,0.010523412787895245,-0.12017953817906564,-0.011711121183652569,-0.005095047104414496,-0.07094714513303431,0.30712366884804904
2679,11.631437100004405,0.011546033435846356,0.1080366047650509,-0.09913876787662315,0.03878111930406948,0.06944880076744887,-0.15197309212505852,0.01050004223019137,-0.12048379373198972,-0.010368461300350289,-0.005593519643780913,-0.06826231145524939,0.3069728198549344
2680,11.635432300012326,0.011546033435846356,0.1080366047650509,-0.09913876787662315,0.038826989580552446,0.06892130053084096,-0.15201548697961795,0.010474474512632498,-0.12077631626113226,-0.009026540907371084,-0.006099364366573479,-0.0655817352677102,0.306785319379269
2681,11.63963770000555,0.011706882631467661,0.1080992081769944,-0.09985413030775625,0.03887274318969671,0.06839254718642886,-0.15205201590836906,0.010446677628576158,-0.12105712525184226,-0.00768552026014862,-0.006612485425516445,-0.0629057894022467,0.3065611683584653
2682,11.643779900012303,0.012069475701500364,0.10800624471559167,-0.10115726840016222,0.03891837030796828,0.06786259192064788,-0.1520826832077062,0.01041661999614548,-0.12132624181488438,-0.0063455595957964015,-0.007132784916828078,-0.06023484350067099,0.3063003741302901
2683,11.64801270001044,0.012266603737922648,0.10796033606342573,-0.1018073024264743,0.03896386097474236,0.06733148582402,-0.1521074938744045,0.01038427046715791,-0.12158368867229448,-0.005006819105116865,-0.007660162900044125,-0.05756926394489887,0.30600295044726206
2684,11.652314999999362,0.012446786317609934,0.1079667389316029,-0.10241458841169326,0.039009205094223745,0.06679927988412378,-0.1521264536053399,0.010349598335965176,-0.1218294901429299,-0.0036694589045514073,-0.008194517418318052,-0.054909413788385264,0.30566891748967195
2685,11.656302900009903,0.012634090761544679,0.10801170026554739,-0.1030492614932246,0.03905439243740528,0.0662660249786276,-0.15213956879708815,0.010312573348202469,-0.12206367212772017,-0.002333639008077372,-0.008735744519193006,-0.05225565268889118,0.30529830187721463
2686,11.660526600011508,0.01274295614755299,0.10814971363229714,-0.1036746561537738,0.039099412644064156,0.06573177186838812,-0.1521468465454012,0.01027316570944481,-0.12228626209462372,-0.000999519299058037,-0.009283738275840342,-0.04960833684259934,0.30489113667922346
2687,11.663944300002186,0.01274295614755299,0.10814971363229714,-0.1036746561537738,0.039144255224795796,0.06519657119061498,-0.15214829464456128,0.010231346093768533,-0.12249728906329649,0.0003327404979483038,-0.009838390808759489,-0.04696781891959526,0.3044474614234999
2688,11.667441500001589,0.01274295614755299,0.10814971363229714,-0.1036746561537738,0.03918890956308502,0.06466047345210336,-0.15214392158661091,0.010187085652215934,-0.12269678358947829,0.0016629808454140386,-0.010399592307933896,-0.044334448000729734,0.30396732210372984
2689,11.670877600001404,0.012874304711061015,0.10823000429991582,-0.10433869936261596,0.03923336491741393,0.06412352902253521,-0.1521337365604595,0.010140356021161069,-0.12288477774910268,0.002991042421096575,-0.010967231055437673,-0.04170856951587818,0.3034507711854812
2690,11.675061000001731,0.013157848340459969,0.10817054476552311,-0.10555639825915922,0.039277610423406,0.06358578812785018,-0.15211774945086662,0.010091129330574766,-0.12306130512213728,0.004316766146315135,-0.011541193448487459,-0.0390905251836117,0.3028978676107744
2691,11.67873569999938,0.013157848340459969,0.10817054476552311,-0.10555639825915922,0.039321635096006134,0.06304730084368793,-0.15209597083730178,0.01003937821218693,-0.12322640077616023,0.0056399932142438105,-0.012121364022934011,-0.03648065295229401,0.3023086768012198
2692,11.685433999999075,0.013601371769935687,0.10822927089397924,-0.10741130354959472,0.039365427831696095,0.06250811708890283,-0.15206841199268045,0.00998507580754423,-0.12338010124967955,0.0069605651182146466,-0.012707625477187892,-0.03387928694261803,0.30168327065971473
2693,11.689732800005004,0.013760916944814083,0.10832632853199041,-0.10804263185613196,0.03940897741074473,0.06196828661915255,-0.15203508488197637,0.009928195775961383,-0.1235224445352016,0.008278323680024497,-0.013299858696573599,-0.03128675739159516,0.3010217275706947
2694,11.69392100001278,0.013897505499122118,0.10836307264731528,-0.1087163359423014,0.039452272499492416,0.06142785902056133,-0.15199600216071035,0.009868712302364161,-0.12365347006205583,0.009593111078239371,-0.013897942778106385,-0.02870339059800958,0.30032413239893074
2695,11.698014000008698,0.013982974748092463,0.10837093430233513,-0.10928486378487585,0.03949530165266938,0.060886883703459176,-0.15195117717331552,0.009806600105022331,-0.12377321867898165,0.010904769876489973,-0.014501755055685987,-0.026129508869349477,0.29959057648686666
2696,11.70222280001326,0.014150693466804401,0.10840004700513337,-0.10992119580082953,0.03953805331574766,0.060345409896197806,-0.15190062395137885,0.009741834443170692,-0.12388173263648382,0.012213143051752163,-0.015111171125701423,-0.023565430470226308,0.29882115765049005
2697,11.70663179999974,0.014356755155951065,0.10835878749352798,-0.11064191276226121,0.0395805158273262,0.0598034866390443,-0.15184435721175968,0.009674391124516455,-0.12397905556896364,0.013518074022606014,-0.01572606487304099,-0.021011469572292774,0.2980159801737341
2698,11.710195100007695,0.014356755155951065,0.10835878749352798,-0.11064191276226121,0.03962267742154835,0.059261162778153444,-0.15178239235458568,0.009604246512631252,-0.12406523247663358,0.014819406677467117,-0.01634630849750144,-0.018467936205669656,0.2971751548014062
2699,11.71504690000438,0.014530248978960762,0.1083686922041254,-0.1113830511442713,0.03966452623055129,0.058718486959619946,-0.15171474546112568,0.009531377534226063,-0.12414030970722116,0.016116985402783807,-0.01697177254059026,-0.015935136211891066,0.2962987987306389
2700,11.719369400001597,0.014841053245869158,0.10843678908498923,-0.11263328221173663,0.0397060502869466,0.058175507623611566,-0.1516414332915393,0.009455761686307391,-0.12420433493746862,0.01741065511119398,-0.017602325912715044,-0.013413371198376963,0.29538703560085977
