,time,x,y,z,vx,vy,vz,ax,ay,az,jx,jy,jz
1471,6.6545009999972535,-0.00765312736482429,0.01946699350388636,0.006667413096381989,-0.0012307756555020063,-0.016214222711102098,0.006681100818969655,0.06642472482060607,0.07271900982044215,-0.004100573690110782,0.16078755621850355,0.13518707580800937,-0.16837335939542994
1472,6.660586899990449,-0.007649124060844891,0.019409673437343913,0.0066525183492366505,-0.0009303238496735065,-0.01588567630137845,0.006660944597806925,0.06714600976423328,0.0733233563903556,-0.0048592582155460706,0.15985034352740618,0.13336590521744818,-0.1689133962640791
1473,6.664881799995783,-0.007646427020442799,0.019375850193591063,0.006651233031132345,-0.0006266375085133468,-0.015554430289848608,0.006637370012143559,0.06786301966878659,0.07391946018743915,-0.005620328942510336,0.15888876129201174,0.1315282459762371,-0.16943573265105258
1474,6.670787299997755,-0.007649646900010635,0.01932115885027455,0.006678646392384729,-0.0003197361225084493,-0.015220521966563417,0.006610366518005793,0.0685756449679649,0.07450724734155026,-0.006383706007433746,0.15790283720758586,0.12967433403505604,-0.16994025529462467
1475,6.674317599987262,-0.007649646900010635,0.01932115885027455,0.006678646392384729,-9.63967367437179e-06,-0.014883988950435462,0.006579923931730458,0.06928377623505852,0.0750866450677038,-0.007149309045138689,0.1568926026341136,0.12780440734194384,-0.17042685255534326
1476,6.678662899998017,-0.007649646900010635,0.01932115885027455,0.006678646392384729,0.0003036313651234029,-0.014544869184301394,0.0065460324321966025,0.06998730419940893,0.07565758167509694,-0.00791705719614162,0.1558580926181671,0.12591870582387357,-0.17089541443976966
1477,6.683325399993919,-0.007762846494598135,0.019260619340522398,0.006690983524427635,0.0006200560309209844,-0.014203200929945134,0.006508682563024026,0.07068611976295733,0.07621998657602595,-0.008686869114056715,0.15479934591425082,0.12401747136811753,-0.17134583262413602
1478,6.687897499999963,-0.007629108103960378,0.019249945578547124,0.006744577018216717,0.0009396128714807772,-0.01385902276308257,0.006467865234738244,0.0713801140168802,0.0767737902946942,-0.00945866297310105,0.15371640500560968,0.1221009478033955,-0.1717780004779145
1479,6.691434799999115,-0.007629108103960378,0.019249945578547124,0.006744577018216717,0.001262279946189737,-0.013512373568308284,0.0064235717269014395,0.07206917825830961,0.07731892447591067,-0.010232356475700971,0.15260931612448678,0.12016938088079941,-0.17219181308729234
1480,6.695750899991253,-0.007780660919411384,0.019213532539312524,0.006744671812557916,0.001588034827031543,-0.013163292534004858,0.006375793690208948,0.07275320400713553,0.07785532189367823,-0.011007866860199347,0.1514781292718172,0.1182230182544871,-0.17258716727854753
1481,6.700017999988631,-0.007632208980646367,0.019262907210124636,0.006786694340992151,0.0019168545996330374,-0.012811819147215277,0.006324523148550832,0.07343208302288803,0.0783829164596705,-0.011785110908663363,0.15032289823634404,0.11626210946213852,-0.17296396164131997
1482,6.70423160000064,-0.007624833392120691,0.01928602792588278,0.006805884502127225,0.0022487158643852787,-0.012457993188478941,0.00626975250103806,0.07410570732169668,0.07890164323159694,-0.012564004954792478,0.14914368061314373,0.11428690590516827,-0.1733220965517725
1483,6.708550399998785,-0.007619628058974135,0.019301563424739522,0.006823649491092588,0.0025835947376395404,-0.01210185472663181,0.006211474523992886,0.07477396919332419,0.07941143842145539,-0.01334446489192618,0.14794053782154806,0.11229766082868776,-0.1736614741956366
1484,6.712737599998945,-0.007616457602461402,0.019316881553679215,0.006828097613087785,0.0029214668529785924,-0.011743444113571196,0.006149682372902993,0.07543676121827189,0.07991223940367173,-0.014126406181151088,0.14671353512245056,0.11029462930121078,-0.1739819985911371
1485,6.71704009998939,-0.007614695150384427,0.019327961974637462,0.006838677039028015,0.0032623073625635893,-0.011382801978985764,0.006084369584338951,0.07609397628495468,0.08040398472312563,-0.014909743859506963,0.14546274163498313,0.10827806819409537,-0.1742835756117903
1486,6.721368499987875,-0.007610827479997069,0.019345829895660378,0.006834342275452383,0.0036060909385568674,-0.011019969225051279,0.006015530077834565,0.07674550760694263,0.0808866141030614,-0.01569439254829124,0.14418823035254946,0.10624823616071671,-0.17456611300907027
1487,6.725028799992288,-0.007610827479997069,0.019345829895660378,0.006834342275452383,0.003952791774620954,-0.010654987021092561,0.005943158157729685,0.0773912487402671,0.08136006845288313,-0.01648026646146162,0.14289007815820223,0.10420539361536404,-0.17482952043493816
1488,6.729283699998632,-0.007757361980048603,0.019322604725228752,0.006814849051668217,0.004302383587494076,-0.010287896798212142,0.005867248514975053,0.0780310936007889,0.08182428987583291,-0.01726727941413622,0.1415683658393518,0.1021498027118558,-0.17507370946422926
1489,6.733928599991486,-0.007600825394498232,0.01938924730827446,0.006847530688186739,0.004654839618642456,-0.009918740243886174,0.005787796228898732,0.07866493648162555,0.08227922167655136,-0.0180553448311908,0.14022317810179408,0.1000817273218668,-0.17529859361689173
1490,6.73814419998962,-0.00759881646035728,0.019399792399903484,0.00685495634747057,0.005010132635989692,-0.009547559296528129,0.00570479676893366,0.07929267207063473,0.08272480836851935,-0.018844375755952672,0.13885460358304508,0.09800143301296158,-0.17550408838007134
1491,6.742340400000103,-0.007595557858276134,0.019410130803443153,0.0068491075999183035,0.005368234935723453,-0.009174396140020817,0.005618245996305882,0.07991419546795102,0.08316099568138047,-0.019634284858990728,0.1374627348649705,0.0959091870263275,-0.17569011123003667
1492,6.74649409999256,-0.007586841452630232,0.019418838748576608,0.006852291654728685,0.005729118344179759,-0.00879929319821724,0.005528140165683041,0.08052940220357295,0.08358773056814259,-0.020424984447001113,0.13604766848569713,0.0938052582542023,-0.1758565816539389
1493,6.750569499999983,-0.0075891949854118455,0.019416693235598678,0.006856479910741756,0.006092754219805081,-0.008422293129410827,0.005434475926782715,0.08113818825499722,0.08400496121225798,-0.02121638647178786,0.13460950495079482,0.09168991721698969,-0.17600342117139872
1494,6.75480539999262,-0.007590435357984962,0.019422347076688412,0.006858383145601766,0.0064591134551964715,-0.008043438820775697,0.0053372503259402045,0.08174045006489675,0.08441263703458109,-0.022008402539337883,0.13314834874371606,0.08956343604005748,-0.17613055335591454
1495,6.758800600000541,-0.007583551210604855,0.019442431128898038,0.006889822426495595,0.006828166479219957,-0.00766277338277743,0.005236460807635319,0.08233608455883946,0.08481070870020306,-0.022800943918989725,0.13166430833548162,0.08742608843021228,-0.17623790385608623
1496,6.764325500000268,-0.007575637098311867,0.019432783981848868,0.006876851762640557,0.00719988325920739,-0.007280340143554914,0.005132105215977779,0.0829249891630446,0.08519912812516191,-0.0235939215526954,0.13015749619360042,0.08527814965184491,-0.17632540041664935
1497,6.767773699990357,-0.007594418389455265,0.019437133031593442,0.006893139726150453,0.0075742333032319704,-0.006896182643273783,0.005024181796150834,0.08350706182217352,0.08557784848302724,-0.024387246064374757,0.12862802879021143,0.08311989650274136,-0.1763929728993125
1498,6.772898299997905,-0.007594418389455265,0.019437133031593442,0.006893139726150453,0.007951185662462593,-0.006510344628451993,0.004912689195812667,0.08408220101715178,0.0859468242113586,-0.025180827769361598,0.12707602660943562,0.08095160728955324,-0.17644055330339103
1499,6.776217299993732,-0.007594418389455265,0.019437133031593442,0.006893139726150453,0.008330708933597136,-0.006122870046258129,0.004797626466455182,0.08465030578301883,0.08630601101803603,-0.025974576683940813,0.12550161415392613,0.07877356180292236,-0.17646807578623142
1500,6.780836499994621,-0.007751998256629656,0.01938184224052902,0.006895463952583657,0.008712771261374881,-0.005733803038782986,0.004678993064719764,0.08521127572680219,0.08665536588746202,-0.026768402534975706,0.12390491995060522,0.07658604129225399,-0.17647547668342012
1501,6.788530299992999,-0.007752812093739526,0.019371802902720746,0.006923233696679274,0.009097340341168188,-0.005343187937285009,0.004556788853669593,0.08576501104541273,0.08699484708663381,-0.027562214769624727,0.12228607655557726,0.07438932844013371,-0.176462694528771
1502,6.793945199999143,-0.007561933818153004,0.019431305473460912,0.006987256401470791,0.009484383421653591,-0.00495106925641014,0.0044310141040181114,0.0863114125435578,0.08732441417108544,-0.028355922565146817,0.12064522055820749,0.07218370733638294,-0.17642967007408594
1503,6.798084800000652,-0.007547943762695687,0.0194512670715593,0.007012817139552864,0.009873867307562402,-0.004557491688386641,0.004301669495313246,0.08685038165166867,0.08764402799069841,-0.02914943483879458,0.11898249258435586,0.0699694634517481,-0.17637634630868365
1504,6.802392699988559,-0.007538718564002475,0.01946613323265426,0.007044486337076258,0.010265758362510875,-0.004162500097195449,0.004168756117077028,0.08738182044383885,0.08795365069538011,-0.02994266025779437,0.11729803729875468,0.06774688361121933,-0.17630266847869047
1505,6.806420099994284,-0.007523597904673286,0.01948019230543894,0.007067680319304197,0.010660022511910013,-0.0037661395127166417,0.004032275469900237,0.0879056316557696,0.08825324574060933,-0.030735507249412285,0.11559200340651984,0.06551625596697382,-0.1762085841060867
1506,6.813218099996448,-0.007495181816673703,0.01948336026438836,0.007118454207265368,0.011056625245955168,-0.0033684551248525938,0.003892229466491745,0.08842171870271896,0.08854277789284802,-0.03152788401110512,0.11386454365378598,0.06327786997093918,-0.17609404300750173
1507,6.817302600000403,-0.007482526492687432,0.01949514790907407,0.0071426054227180244,0.011455531622695522,-0.0029694922776284144,0.0037486204326821976,0.08892998569745088,0.08882221323481808,-0.03231969852075535,0.11211581482745499,0.061032016346972605,-0.1759589973127518
1508,6.821257399991737,-0.007477398051152844,0.019509921472634886,0.0071627951422078805,0.011856706271183487,-0.002569296463270241,0.0036014511083817136,0.08943033746818012,0.0890915191706427,-0.033110858546989086,0.11034597775404809,0.05877898706265151,-0.17580340148311388
1509,6.825577299998258,-0.007462184035714689,0.019514873994479535,0.007187527062919363,0.012260113394704097,-0.0021679133162620014,0.003450724648491237,0.08992267957650947,0.08935066443085123,-0.033901271659575946,0.10855519729765242,0.05651907530067161,-0.17562721232932998
1510,6.829463999994914,-0.007438510864880907,0.01953055481190782,0.0072041477544184575,0.012665716774084372,-0.0017653886073812363,0.0032964446237671733,0.09040691833535584,0.08959961907724628,-0.03469084523990954,0.10674364235695294,0.05425257542984811,-0.17543038902933555
1511,6.8330583999922965,-0.007438510864880907,0.01953055481190782,0.0072041477544184575,0.013073479771082676,-0.001361768237714577,0.003138615021638952,0.0908829608268614,0.08983835450763215,-0.035479486491567375,0.10491148586134065,0.051979782975715746,-0.1752128931457053
1512,6.837495399988256,-0.007525273905707489,0.01947193626571202,0.007229530763460661,0.013483365331858026,-0.0009570982326534887,0.0029772402469791528,0.09135071492028618,0.09006684346040299,-0.03626710245094897,0.10305890476608888,0.049700994590723614,-0.17497468864280988
1513,6.841893199991318,-0.007406645079172096,0.019562986712615138,0.007297295706518707,0.013895335990519312,-0.0005514247358708939,0.0028123251228258537,0.09181008928987826,0.09028506001898953,-0.03705359999799099,0.1011860800465891,0.04741650802402137,-0.1747157419036776
1514,6.846705299991299,-0.007397558598702227,0.019574247301222328,0.0073202457392078,0.014309353872754418,-0.00014479400327929067,0.002643874891056859,0.09226099343271735,0.09049297961616301,-0.037838885866958195,0.09929319669163779,0.04512662209083312,-0.17443602174655468
1515,6.850942799996119,-0.007397558598702227,0.019574247301222328,0.0073202457392078,0.014725380699539155,0.0002627476030290142,0.0024718952130154794,0.09270333768652762,0.0906905790381949,-0.03862286665730898,0.09738044369576654,0.042831636641415566,-0.17413549944115783
1516,6.854744799988112,-0.007463170935885627,0.019505892187656526,0.0073613215611966765,0.015143377790925906,0.000671153620858936,0.0022963921700875356,0.09313703324745548,0.09087783642887172,-0.039405448844634094,0.09544801405060781,0.040531852529597054,-0.1738141487246136
1517,6.858879599996726,-0.007383264736951517,0.019621112770048032,0.007448044247383676,0.015563306069911784,0.0010803774940062775,0.0021173722642292645,0.09356199218780846,0.0910547312933635,-0.04018653879166727,0.09349610473528903,0.03822757158089423,-0.173471945817077
1518,6.863103699986823,-0.007337089842742742,0.01963404001566018,0.007502586715060856,0.015985126066386166,0.001490372578367401,0.0019348424184458253,0.09397812747375144,0.09122124450194458,-0.04096604275936641,0.09152491670584859,0.03591909656020355,-0.17310886943702442
1519,6.86884499998996,-0.007304081265273998,0.01959908309796262,0.007495944851164009,0.01640879792115744,0.0019010921480642692,0.0017488099772200987,0.09438535298295633,0.09137735829356586,-0.041743866918064136,0.089534654883667,0.03360673113906481,-0.17272490081621397
1520,6.872497499993187,-0.007304081265273998,0.01959908309796262,0.007495944851164009,0.016834281390058815,0.0023124894015842112,0.0015592827068914952,0.09478358352220104,0.09152305627927713,-0.042519917358686286,0.08752552814290704,0.03129077986249414,-0.1723200237143077
1521,6.876376199987135,-0.0074416376366736375,0.019563261203216654,0.007519902938872465,0.017261535848132975,0.002724517467933768,0.0013662687959844805,0.09517273484491337,0.09165832344549839,-0.04329410010403697,0.08549774929695635,0.028971548115384216,-0.17189422443314945
1522,6.881660799990641,-0.0073068006155787135,0.019637950456953927,0.007612277186337305,0.01769052029389542,0.0031371294128059684,0.0011697768554865353,0.09555272366865605,0.09178314615713899,-0.04406632112014821,0.08345153508386659,0.026649342088469335,-0.17144749183069283
1523,6.886109299986856,-0.007290737220481703,0.019637686077312266,0.007648744031350611,0.01812119335367616,0.0035502782447603834,0.0009698159190752659,0.09592346769254831,0.09189751216056372,-0.04483648632769291,0.08138710615078294,0.02432446874385331,-0.17097981733457357
1524,6.890291599993361,-0.007282619360341376,0.019631527277342055,0.00768321384160912,0.0185535132860395,0.003963916921415296,0.0007663954432943928,0.09628488561461931,0.09200141058640462,-0.04560450161345956,0.0793046870373587,0.021997235780098,-0.17049119495531972
1525,6.895798899990041,-0.007253043046007393,0.019617666275783492,0.007743174017717713,0.018987437986281545,0.004377998355651313,0.0005595253076783558,0.09663689714908917,0.09209483195221721,-0.04637027284188709,0.07720450615814962,0.019667951596870844,-0.1699816212991935
1526,6.900435499992454,-0.0072450364319998906,0.01962199171261973,0.007792810327365046,0.01942292499100528,0.004792475421825751,0.0003492158148252795,0.09697942304357353,0.09217776816497932,-0.04713370586665816,0.0750867957839835,0.017336925259149937,-0.16945109558065832
1527,6.904749900000752,-0.007225954344804689,0.019615491179935763,0.007841335837916116,0.019859931482772833,0.005207300961997147,0.00013547769041804438,0.09731238509620765,0.09225021252343153,-0.047894706542349307,0.07295179202230054,0.015004466460985202,-0.16889961963446434
1528,6.908254599999054,-0.007225954344804689,0.019615491179935763,0.007841335837916116,0.020298414294834647,0.005622427792159231,-8.167791680678037e-05,0.09763570617268524,0.09231215972025737,-0.0486531807361366,0.07079973479646076,0.012670885488814548,-0.16832719792734732
1529,6.911953599992557,-0.007225954344804689,0.019615491179935763,0.007841335837916116,0.020738329915935157,0.006037808708483641,-0.0003022394351423803,0.09794931022320776,0.09236360584410225,-0.04940903433955519,0.0686308678240143,0.010336493184333948,-0.16773383756933505
1530,6.916807299989159,-0.007225954344804689,0.019615491179935763,0.007841335837916116,0.02117963449519466,0.006453396493570688,-0.0005261948700477443,0.09825312229933983,0.09240454838143014,-0.050162173280311285,0.06644543859393126,0.008001600906920652,-0.16711954832465517
1531,6.921458099997835,-0.007160017270718202,0.019591401025278586,0.00800962052461886,0.02162228384706684,0.0068691439227074325,-0.0007535318043365393,0.09854706857076616,0.09243498621821693,-0.05091250353414462,0.06424369834278855,0.005666520495608911,-0.16648434262223846
1532,6.925448299996788,-0.007139240982013413,0.01959277972415733,0.008066005892108057,0.0220662334563715,0.0072850037701323355,-0.0009842373984190274,0.09883107634194516,0.09245491964147927,-0.05165993113673949,0.062025902029911185,0.0033315642306177996,-0.16582823556581217
1533,6.929683599999407,-0.007138321623397483,0.019584388157115943,0.008113851368462328,0.022511438483401962,0.0077009288153057605,-0.001218298390597234,0.09910507406865472,0.09246435034063764,-0.05240436219568253,0.059792308311465585,0.0009970447944309254,-0.16515124494357747
1534,6.933853899987298,-0.0071254502101307,0.01957594698490808,0.008159500349899953,0.022957853769106654,0.008116871849185608,-0.0014557010974135661,0.09936899137442509,0.09246328140871221,-0.053145702902465404,0.057543179513503066,-0.0013367247675720557,-0.16445339123746558
1535,6.93827909999527,-0.007115958787088316,0.019572789120899343,0.00820950753485194,0.023405433840344367,0.008532785680507363,-0.0016964314140530676,0.09962275906685414,0.09245171734335036,-0.05388385954453044,0.055278781603951534,-0.0036694310869319607,-0.16373469763196696
1536,6.9463713000004645,-0.0072499182063052595,0.01950934153817586,0.00824281203799153,0.023854132915212732,0.0089486231420678,-0.0019404748147994993,0.09986630915380092,0.0924296640476845,-0.054618738517357414,0.05299938416355406,-0.006000760512374274,-0.16299519002252763
1537,6.950646899989806,-0.007076816995448211,0.019544672629416383,0.008357001111081794,0.024303904908449383,0.009364337097011597,-0.0021878163535454125,0.10009957485945334,0.09239712883101814,-0.05535024633658939,0.050705260355753616,-0.008330399150520421,-0.16223489702350646
1538,6.954764199996134,-0.007058932748763959,0.019528815909773057,0.008400865296597882,0.024754703436905282,0.009779880445120166,-0.002438440664356383,0.10032249064026538,0.09235412040933844,-0.05607828965019553,0.04839668689552336,-0.010658032907045341,-0.16145384997568765
1539,6.958881399987149,-0.007081247801317751,0.019481473856904626,0.008459848191873535,0.025206481825089652,0.010195206129101932,-0.002692331962089563,0.10053499220075898,0.09230064890565391,-0.056802775250668916,0.04607394401714224,-0.012983347528280325,-0.16065208295334305
1540,6.963209999987157,-0.007084657980370706,0.019470309101952,0.008534644581240139,0.025659193110785957,0.010610267140883329,-0.0029494740430667,0.10073701650918586,0.0922367258501556,-0.057523610087256996,0.043737315440916025,-0.015306028643259894,-0.15982963277083886
1541,6.967167800001334,-0.007092045856440613,0.019441074154727334,0.008571455934080542,0.02611279005073839,0.011025016527899693,-0.0032098502858017553,0.1009285018130447,0.09216236418019992,-0.058240701278222916,0.04138708833884446,-0.017625761806211237,-0.15898653898878154
1542,6.971824199994444,-0.007093803085833295,0.01940736289629147,0.00859674342437851,0.026567225126408238,0.011439407399385282,-0.00347344365178328,0.10110938765444881,0.09207757824011148,-0.05895395612313583,0.03902355329923546,-0.019942232539484493,-0.15812284391969658
1543,6.975859499987564,-0.007104862228399305,0.01936141364511742,0.008619447647002605,0.02702245054979941,0.011853392932661681,-0.003740236686311668,0.1012796148853395,0.0919823837808043,-0.059663282115187934,0.036647004290267966,-0.022255126376921973,-0.1572385926332361
1544,6.98076890000084,-0.007111542592567133,0.01933201964186981,0.008624774585755874,0.02747841826935243,0.012266926379423804,-0.004010211519391409,0.10143912568254042,0.0918767979592198,-0.06036858695353618,0.034257738622505446,-0.024564128907664122,-0.15633383296090977
1545,6.9892766999983,-0.00732161790286774,0.019228064457158186,0.00864033267100894,0.027935079975906208,0.012679961072022707,-0.004283349866678439,0.10158786356264839,0.0917608393375803,-0.06106977855566703,0.031856056910362286,-0.026868925820389807,-0.15540861550033433
1546,6.996438299989677,-0.00717471795843075,0.01921858201579073,0.008729199732966555,0.02839238710872697,0.01309245042974447,-0.004559633030482733,0.10172577339675619,0.09163452788245618,-0.06176676506978231,0.029442263032525902,-0.02916920294798834,-0.15446299361899754
1547,7.000827799987746,-0.007194636391094994,0.019191282257397843,0.008762369155285069,0.028850290861603543,0.01350434796508438,-0.004839041900826224,0.10185280142500237,0.09149788496364539,-0.06245945488720404,0.027016664091337406,-0.031464646312660285,-0.15349702345753152
1548,7.004791100000148,-0.007207658710349449,0.019165095575413404,0.008786907183931679,0.029308742189008193,0.013915607290015649,-0.005121556956556133,0.10196889527094277,0.091350933352864,-0.0631477566547956,0.024579570371134212,-0.033754942171443904,-0.15251076393249108
1549,7.008145200001309,-0.007207658710349449,0.019165095575413404,0.008786907183931679,0.02976769181232233,0.014326182122251811,-0.0054071582665137785,0.10207400395573865,0.09119369722224617,-0.063831579287397,0.022131295295558528,-0.036039777062164005,-0.15150427673863312
1550,7.013256399994134,-0.007412861161567694,0.019078851737866505,0.008840575564539087,0.030227090226126206,0.014736026291502013,-0.005695825490758922,0.10216807791215704,0.09102620214265146,-0.0645108319802718,0.01967215538383603,-0.03831883784979984,-0.15047762635069245
1551,7.016821199998958,-0.007412861161567694,0.019078851737866505,0.008840575564539087,0.030686887704551795,0.015145093745718357,-0.005987537881849736,0.10225106899837831,0.09084847508177818,-0.06518542422156412,0.01720247020602935,-0.040591811773268045,-0.1494308800246493
1552,7.021208799997112,-0.0074724949240998675,0.019011511655428887,0.008897920335348761,0.031147034307698104,0.015553338557334552,-0.006282274286178431,0.10232293051160647,0.09066054440208146,-0.06585526580476347,0.014722562337271419,-0.042858386492616495,-0.1483641077984844
1553,7.025429199988139,-0.007227759634094223,0.01902986189316652,0.008981817465253191,0.03160747988810794,0.015960714929495055,-0.006580013145362587,0.10238361720147753,0.09046243985849417,-0.066520266841175,0.012232757310984096,-0.04511825013662495,-0.14727738249241762
1554,7.02880259999074,-0.007227759634094223,0.01902986189316652,0.008981817465253191,0.032068174097305314,0.016367177202273882,-0.006880732497692221,0.10243308528326153,0.09025419259594916,-0.06718033777239299,0.009733383571088161,-0.04737109135080778,-0.14617077970862627
1555,7.032309899994289,-0.007227759634094223,0.01902986189316652,0.008981817465253191,0.03252906639239252,0.016772679858882228,-0.007184409979632564,0.10247129245085362,0.09003583514670142,-0.0678353893827754,0.007224772423210983,-0.04961659934581383,-0.14504437783044047
1556,7.037242399994284,-0.007237348775864869,0.01900114510408951,0.008995703499565185,0.032990106042705795,0.01717717753186405,-0.007491022827382544,0.10249819788954954,0.08980740142744832,-0.06848533281191665,0.0047072579848986135,-0.051854463946218655,-0.14389825802101244
1557,7.041557799995644,-0.007230864328576992,0.01901142455746965,0.009001692837006341,0.03345124213652862,0.0175806250092787,-0.007800547878488941,0.10251376228860083,0.0895689267362461,-0.06913007956711646,0.0021811771348394762,-0.05408437563970352,-0.14273250422145667
1558,7.04620419999992,-0.0072702500520218614,0.019027610659327853,0.008996296867799587,0.033912423587861604,0.017982977240869676,-0.008112961573516193,0.10251794785354518,0.08932044774922099,-0.06976954153584211,-0.0003531305388927931,-0.05630602562661565,-0.14154720314845814
1559,7.050443499989342,-0.007241352904290551,0.019046685856679728,0.009023365785934712,0.03437359914324828,0.018384189344218628,-0.008428239957771812,0.10251071831830787,0.08906200251707348,-0.070403630998182,-0.0028953227915693483,-0.058519105869903616,-0.14034244429134565
1560,7.054830900000525,-0.007247265819736578,0.019070816795780217,0.009024953889599499,0.034834717388655644,0.01878421661088357,-0.00874635868308734,0.10249203895707033,0.08879363046137448,-0.071032260639288,-0.005445054775500596,-0.06072330914542218,-0.13911831990862775
1561,7.060393299994757,-0.0072589655676131215,0.019087574867087502,0.009025476892727969,0.03529572675640872,0.019183014512520528,-0.00906729300965483,0.10246187659590134,0.08851537237065153,-0.07165534356180461,-0.008001979094686286,-0.06291832909260044,-0.13787492502398863
1562,7.067269999999553,-0.007295706289075197,0.01913140361665779,0.00894110354267167,0.0357565755321782,0.019580538706987723,-0.00939101780791881,0.10242019962414597,0.08822727039626316,-0.07227279329828248,-0.01056574586041198,-0.06510386026546669,-0.13661235742174097
1563,7.072939099991345,-0.007314731257845805,0.019138743337713253,0.008932371626207468,0.036217211862020114,0.0199767450444313,-0.009717507560523664,0.10236697800556822,0.08792936804805974,-0.07288452382357333,-0.013136002747782234,-0.06727959818402313,-0.13533071764173207
1564,7.080134799994994,-0.007317550281859499,0.019146267715419416,0.008911731613942108,0.03667758375946632,0.020371589573351723,-0.010046736364316305,0.10230218328924268,0.0876217101898293,-0.073490449567204,-0.015712395053180436,-0.06944523938596318,-0.134030108973701
1565,7.084511699998984,-0.0075270707351503836,0.01908187507039592,0.00886841686597515,0.03713763911266491,0.020765028546649935,-0.010378677932404042,0.10222578862019141,0.0873043430345263,-0.07409048542572776,-0.01829456575264476,-0.07160048147872382,-0.13271063745108425
1566,7.092390899997554,-0.0075170405872175645,0.01909509347646757,0.008795478830658274,0.03759732569156916,0.0211570184276523,-0.010713305596267592,0.10213776874976206,0.08697731413928242,-0.07468454677504999,-0.02088215556114934,-0.07374502319186503,-0.1313724118442679
1567,7.096405599993886,-0.007346372237381867,0.019154412341246072,0.008701995336200266,0.03805659115517405,0.02154751589611327,-0.011050592307929121,0.1020381000457433,0.0866406724001976,-0.07527254948272656,-0.02347480299277923,-0.07587856442976865,-0.13001554365328294
1568,7.100429400001303,-0.007359291549467229,0.019157583306565824,0.008605297773656546,0.038515383058799126,0.02193647785419481,-0.011390510642175151,0.10192676050221341,0.08629446804690985,-0.07585440992023215,-0.026072144421787617,-0.07800080632464826,-0.128640147099942
1569,7.104736199995386,-0.007365989638273458,0.019165241326330525,0.00853598152369371,0.03897364886141636,0.02232386143242151,-0.011733032798834198,0.10180372974911728,0.08593875263694215,-0.07643004497519611,-0.028673814144523083,-0.08011145128986115,-0.12724633911941616
1570,7.1096487999893725,-0.007365939784028231,0.01917504749033211,0.008485464233240984,0.03943133593302191,0.022709623995610287,-0.012078130605109016,0.10166898906156806,0.08557357904982489,-0.07699937206360348,-0.031279444442214394,-0.08221020307351358,-0.12583423935125104
1571,7.113038799987407,-0.007372294958579234,0.01919815797561229,0.008442260736070371,0.039888391562050395,0.02309372314877376,-0.012425775517963294,0.10152252136886954,0.08519900148099246,-0.0775623091419583,-0.033888665644599775,-0.08429676681235006,-0.12440397012982131
1572,7.117283699990367,-0.007373062095858724,0.0192126107687858,0.008401419888683087,0.04034476296283038,0.023476116742996243,-0.01277593862656264,0.10136431126325535,0.0848150754354523,-0.07811877471940676,-0.036501106194387366,-0.08637084908591683,-0.12295565647422073
1573,7.121202099995571,-0.007375332713962827,0.019222154468532288,0.008351816864047248,0.04080039728307989,0.023856762881281444,-0.013128590654769663,0.10119434500834065,0.0844218577212251,-0.07866868786981798,-0.03911639271253321,-0.08843215797098969,-0.12148942607758689
1574,7.125799999994342,-0.0073646620896432235,0.01924320462583499,0.008273409103675787,0.041255241611440834,0.024235619924370847,-0.013483701963692925,0.10101261054728261,0.08401940644255508,-0.07921196824382004,-0.041734150064322795,-0.09048040309625609,-0.12000540929585995
1575,7.133904199989047,-0.007515267049582054,0.019177943813814095,0.008190726738760121,0.04170924298505078,0.02461264649653175,-0.013841242554289609,0.10081909751064526,0.08360778099288957,-0.0797485360807885,-0.04435400142624159,-0.09251529569724112,-0.11850373913597506
1576,7.13827099998889,-0.007340314429936675,0.019200655102093494,0.008068115468529077,0.04216234839715088,0.024987801491313973,-0.014201182070021679,0.10061379722396498,0.08318704204762609,-0.08027831222078485,-0.04697556835361932,-0.0945365486714668,-0.11698455124348911
1577,7.143446399990353,-0.007329297234161691,0.019200844964408614,0.008010113003561374,0.04261450480472862,0.025361044077274252,-0.014563489799565291,0.10039670271501354,0.08275725155662572,-0.08080121811644207,-0.04959847084903255,-0.09654387663383378,-0.11544798388964121
1578,7.147825899999589,-0.007329297234161691,0.019200844964408614,0.008010113003561374,0.043065659136193805,0.02573233370366725,-0.014928134679573204,0.10016780872075517,0.08231847273649193,-0.0813171758447946,-0.05222232743145014,-0.09853699597221494,-0.1138941779578473
1579,7.151960199989844,-0.0074855887952674696,0.019136301464719778,0.007971480482812618,0.04351575829908626,0.02610163010610211,-0.01529508529748993,0.09992711169399376,0.08187077006261406,-0.08182610811905033,-0.054846755206105526,-0.10051562490324899,-0.11232327692962885
1580,7.155600999991293,-0.00732811617440338,0.019217054916900258,0.007898149299967499,0.043964749187813824,0.026468893312163462,-0.015664309894419453,0.09967460980970663,0.08141420926097473,-0.08232793830030148,-0.05747136993507962,-0.10247948352832251,-0.1107354268699758
1581,7.159074999988661,-0.007312299874660145,0.019224160633379877,0.007850008994635678,0.04441257869141921,0.02683408364699587,-0.016035776368045238,0.09941030297106179,0.08094885729971989,-0.08282259040917198,-0.06009578610857728,-0.1044282938897282,-0.10913077641214455
1582,7.163335599994753,-0.007305474644963846,0.019226724224603614,0.007801077815225431,0.04485919370137412,0.02719716173885076,-0.016409452275602265,0.09913419281511496,0.08047478238049077,-0.08330998913739919,-0.06271961701688007,-0.10636178002698705,-0.10750947674189192
1583,7.167229200000293,-0.007291078488541758,0.019235268092302287,0.007762130837102438,0.04530454111939943,0.0275580885245947,-0.01678530483690082,0.09884628271818335,0.07999205392951654,-0.08379005985934723,-0.06534247482295803,-0.10827966803332148,-0.10587168158114628
1584,7.171587899996666,-0.007286261064979712,0.019239008233176914,0.007711770027275505,0.04574856786530992,0.027916825255178055,-0.017163300937401833,0.09854657780089356,0.07950074258846687,-0.08426272864344908,-0.06796397063572258,-0.11018168611226625,-0.10421754717111652
1585,7.175516399991466,-0.007304370831421661,0.019237094288116485,0.007666942195236546,0.04619122088488211,0.028273333501062835,-0.017543407131343447,0.0982350849329001,0.07900092020506408,-0.08472792226357538,-0.07058371458390254,-0.11206756463440391,-0.10254723225483944
1586,7.179714799989597,-0.0072898631624099645,0.019237416813837192,0.007613403444751648,0.04663244715774392,0.028627575157608595,-0.01792558964491857,0.09791181273727224,0.07849265982345342,-0.08518556821032695,-0.07320131589052421,-0.11393703619421083,-0.10086089805916693
1587,7.184019399996032,-0.00726936099430776,0.01920938559076653,0.007527885737736986,0.047072193705284676,0.02897951245041553,-0.018309814379502964,0.09757677159454628,0.07797603567433035,-0.08563559470224799,-0.07581638294797666,-0.11578983566700037,-0.0991587082761942
1588,7.188469699991401,-0.00726936099430776,0.01920938559076653,0.007527885737736986,0.04751040759858386,0.029329107940623766,-0.018696046914933498,0.09722997364644087,0.07745112316482403,-0.08607793069695688,-0.07842852339364276,-0.11762570026594901,-0.09744082904413098
1589,7.192339199988055,-0.00739838914563334,0.01913835128123148,0.007463799568215269,0.047947035966357174,0.029676324530167546,-0.019084252512836217,0.09687143279923245,0.0769179988681358,-0.08651250590219225,-0.08103734418607611,-0.11944436959919168,-0.09570742892761776
1590,7.196295899993856,-0.007184118242728415,0.019172804252645753,0.007347347295704476,0.048382026002918466,0.030021125466983094,-0.019474396120003897,0.09650116472678837,0.07637674051293226,-0.08693925078677242,-0.08364245168170367,-0.12124558572697158,-0.09395867889748957
1591,7.200631499988958,-0.007147825419190708,0.019136182800627,0.007231678032189599,0.04881532497615599,0.030363474350169135,-0.019866442371822644,0.09611918687325505,0.07582742697249206,-0.08735809659146551,-0.0862434517120339,-0.12302909321882986,-0.09219475230998955
1592,7.204734699989785,-0.007118711311459809,0.019090052483702453,0.007133917547871603,0.049246880235521616,0.03070333513509881,-0.02026035559574715,0.09572551845539869,0.07527013825360616,-0.0877689753397679,-0.08883994966134971,-0.1247946392108198,-0.090415824885435
1593,7.208742499991786,-0.007043901101409187,0.019059815610197667,0.00708026462740102,0.04967663922003133,0.031040672138482012,-0.0206560998148242,0.09532018046459603,0.07470495548523107,-0.08817181984858823,-0.09143155054486543,-0.12654197346273044,-0.08862207468633843
1594,7.212152599997353,-0.007043901101409187,0.019059815610197667,0.00708026462740102,0.050104549466275454,0.031375450043377044,-0.021053638751264,0.09490319566847309,0.07413196090689428,-0.08856656373883454,-0.09401785908732645,-0.12827084841530348,-0.08681368209498622
1595,7.216715999995358,-0.007206795343451313,0.018995554695331325,0.007009554894770249,0.05053055861643697,0.03170763390415052,-0.021452935830059045,0.09447458861218976,0.07355123785685166,-0.0889531414459015,-0.0965984798020299,-0.12998101924742825,-0.08499082979047817
1596,7.225014899988309,-0.006899293414074991,0.018976228218972224,0.0068821298901949645,0.050954614426316186,0.03203718915138437,-0.021853954182650116,0.09403438561936822,0.07296287075999597,-0.08933148823005556,-0.09917301707024426,-0.1316722439332984,-0.0831537027252316
1597,7.229461299997638,-0.007090115178295277,0.018909092985499858,0.006755526030249353,0.05137666477336005,0.03236408159672877,-0.02225665665063899,0.09358261479266357,0.07236694511551646,-0.0897015401867152,-0.10174107522100596,-0.13334428329951462,-0.08130248810095372
1598,7.234083499992266,-0.0067714057214783,0.01891010886753392,0.006654990978759468,0.05179665766469417,0.03268827743769958,-0.022661005789547543,0.09311930601397485,0.07176354748430967,-0.09006323425662414,-0.10430225861127103,-0.13499690108211682,-0.07943737534408682
1599,7.237353199991048,-0.0067714057214783,0.01891010886753392,0.006654990978759468,0.0522145412451556,0.033009743262419206,-0.023066963872622692,0.0926444909442949,0.07115276547614124,-0.09041650823591534,-0.10685617170639919,-0.13662986398352964,-0.0775585560807304
1600,7.241920599990408,-0.006971516746140797,0.018824517547339034,0.006550170880718805,0.05263026380532477,0.03332844605429998,-0.023474492894686814,0.09215820302319763,0.0705346877365592,-0.090761300786063,-0.10940241916094727,-0.13824294172940352,-0.07566622411104501
1601,7.246343499995419,-0.006604491517168928,0.018830250145345097,0.006480294820023179,0.05304377378955492,0.03364435319666891,-0.023883554576033264,0.09166047746796144,0.0699094039335585,-0.09109755144372086,-0.11194060589974804,-0.13983590712533414,-0.07376057538314278
1602,7.250622399995336,-0.006503066584317443,0.018772379559915207,0.006392021772394757,0.05345501980399726,0.03395743247733283,-0.024294110366366552,0.09115135127232783,0.06927700474399674,-0.09142520063044389,-0.11447033719925076,-0.1414085361134424,-0.0718418079664694
1603,7.255971799997496,-0.006386492450964304,0.018690839924690495,0.006288533720211551,0.053863950624620106,0.03426765209308263,-0.02470612144878668,0.09063086320489407,0.06863758183976128,-0.09174418966229125,-0.1169912187691004,-0.14296060782879655,-0.06991012202468264
1604,7.261333599992213,-0.0063202645206594755,0.018644689286186802,0.006219254963682359,0.05427051520522042,0.03457498065413568,-0.025119548743817072,0.09009905380713863,0.06799122787368829,-0.09205446075930815,-0.11950285683393198,-0.14449190465565778,-0.06796571978803254
1605,7.267943300001207,-0.006176746638791274,0.018551912799935222,0.006107370559757201,0.054674662685425854,0.0348793871885153,-0.025534352913475507,0.08955596539107863,0.0673380364652339,-0.0923559570548838,-0.12200485821535631,-0.1460022122835316,-0.06600880552524932
1606,7.272635299988906,-0.006119907981689348,0.01850225660907535,0.006046482816598382,0.055076342398685606,0.03518084114636635,-0.025950494365387454,0.08900164203655786,0.06667810218589747,-0.09264862260498347,-0.12449683041411352,-0.14749131976300733,-0.06403958551494457
1607,7.280303899999126,-0.005912391081953359,0.018473909539265695,0.005987959629225107,0.055475503880248134,0.03547931240420577,-0.026367933256941322,0.08843612958816487,0.06601152054439727,-0.09293240239725195,-0.12697838169237058,-0.14895901956136648,-0.06205826801653153
1608,7.284686599989072,-0.005842323551560148,0.018451898523386814,0.00596214562416357,0.05587209687512388,0.0357747712691068,-0.026786629499484963,0.08785947565178034,0.06533838797159876,-0.09320724235998623,-0.1294491211561389,-0.1504051076179409,-0.060065063240670444
1609,7.288368900000933,-0.005769578578227068,0.01844394761180172,0.005949880997578892,0.0562660713460313,0.0360671884828157,-0.027206542762562954,0.08727172959075369,0.06465880180519633,-0.09347308937097511,-0.13190865883778774,-0.1518293833992015,-0.05806018331924535
1610,7.292490099993301,-0.005706865395449741,0.018438428121829296,0.005944339489899158,0.05665737748132427,0.03635653522580009,-0.02762763247819407,0.08667294252170786,0.06397286027414885,-0.09372989126620328,-0.1343566057786285,-0.15323164995355798,-0.05604384227487887
1611,7.297435000000405,-0.0056297296931851135,0.018438612285924444,0.0059274239070257065,0.0570459657028992,0.036642783121228026,-0.028049857845188444,0.0860631673099719,0.06328066248287026,-0.09397759684841796,-0.13679257411154475,-0.1546117139658504,-0.05401625598999163
1612,7.301243599998997,-0.005556963327565949,0.01844072612259667,0.0059191274118731135,0.05743178667408025,0.036925904238876636,-0.028473177833503796,0.08544245856464056,0.06258230839517609,-0.09421615589555608,-0.13921617714364196,-0.15596938581151293,-0.051977642175413195
1613,7.305479699993157,-0.005489986627358357,0.018440892188010573,0.005912107895023373,0.05781479130748064,0.037205871098969265,-0.028897551188639996,0.08481087263326084,0.06187789881798707,-0.09444551916902989,-0.14162702943889213,-0.15730447961038982,-0.04992822033855216
1614,7.309079799990286,-0.005410837188370561,0.01843462803913773,0.005899208929830174,0.05819493077283855,0.03748265667593984,-0.029322936436071326,0.08416846759614605,0.061167535384790715,-0.0946656384218693,-0.14402474690074715,-0.15861681328018373,-0.047868211751132414
1615,7.312990799997351,-0.0053368687933494,0.018429965723069788,0.005896003479485468,0.05857215650482583,0.03775623440212343,-0.029749291885715748,0.08351530326031684,0.06045132053886207,-0.09487646640671961,-0.1464089468546954,-0.15990620858951615,-0.045797839416502964
1616,7.317361499997787,-0.005233621924533646,0.018441544234972206,0.005906017723938343,0.05894642021082806,0.038026578171371964,-0.030176575636440682,0.08285144115306974,0.059729357516245064,-0.09507795688369235,-0.14877924813073565,-0.1611724912105802,-0.04371732803652887
1617,7.322219399997266,-0.005145310295824532,0.018428217751573696,0.00589558684171091,0.05931767387869439,0.038293662342594056,-0.03060474558060444,0.08217694451517323,0.059001750328496166,-0.09527006462806666,-0.15113527114574216,-0.1624154907713648,-0.041626903978071214
1618,7.33009519999905,-0.005173371570667844,0.018375574765008822,0.005891412846748644,0.05968586978445542,0.038557461743217634,-0.031033759408632768,0.08149187829369134,0.05826860374519157,-0.09545274543783915,-0.15347663798569544,-0.16363504090742909,-0.03952679523906409
1619,7.335787899995921,-0.004886265371698917,0.01839983708733529,0.005859652036594265,0.06005096050000771,0.038817951672574395,-0.031463574613629905,0.08079630913443496,0.05753002327619995,-0.09562595614111953,-0.1558029724877516,-0.16483097931320587,-0.03741723141419682
1620,7.341807899996638,-0.004674484857977405,0.018401299274200943,0.005788662621695143,0.06041289890076287,0.03907510790520485,-0.0318941484960234,0.0800903053740416,0.05678611515372228,-0.09578965460336997,-0.15811390032212405,-0.16600314779281314,-0.035298443660209775
1621,7.346966799988877,-0.004547041850658412,0.018423521754193713,0.005756111578447817,0.06077163817325972,0.039328906694082934,-0.03232543816824222,0.0793739370316845,0.05603698631410051,-0.095943799734486,-0.16040904907375197,-0.1671513923103527,-0.033170664660812074
1622,7.350862199993571,-0.004435303106783807,0.018437863106562154,0.005733567765486081,0.0611271318227379,0.03957932477375907,-0.03275740055942744,0.0786472758004116,0.05528274437939696,-0.0960883514957172,-0.16268804832373004,-0.16827556303967503,-0.031034128591229927
1623,7.354802799993195,-0.004275475934492807,0.018466516148318166,0.005712012753600268,0.061479333680671454,0.039826339363420914,-0.033189992420174716,0.07791039503811605,0.05452349763874612,-0.09622327090642566,-0.16495052973047405,-0.16937551441359028,-0.028889071082394625
1624,7.363298199998098,-0.004358216782150785,0.018449543490453593,0.0056458017562506365,0.06182819791226082,0.04006992816987073,-0.03362317032730763,0.07716336975813932,0.0537593550294811,-0.09634852005068074,-0.16719612711059736,-0.17045110517250456,-0.026735729184779195
1625,7.367292599999928,-0.003878822326899461,0.018609667822779955,0.005612509856718128,0.06217367902388124,0.040310069390418715,-0.03405689068868128,0.07640627661950856,0.05299042611803697,-0.09646406208368878,-0.16942447651947265,-0.1715021984124601,-0.024574341331892968
1626,7.371495200000936,-0.0037143832408504415,0.01864154925186736,0.005555902440652372,0.06251573187048595,0.04054674171569116,-0.03449110974801521,0.07563919391680907,0.05221682108063345,-0.09656986123805585,-0.1716352163314544,-0.17252866163255845,-0.022405147303443503
1627,7.37557749998814,-0.0035455655910820484,0.01872783147087567,0.00549422184751507,0.06285431166296244,0.040779924332352536,-0.03492578358975499,0.0748622015696938,0.05143865068373942,-0.09666588282988253,-0.17382798731973673,-0.17353036678174652,-0.020228388188175555
1628,7.380789199989522,-0.003384030728759388,0.01880817603976566,0.005460404768966921,0.06318937397544026,0.04100959692574043,-0.03536086814396156,0.07407538111203146,0.05065602626432202,-0.0967520932646895,-0.17600243273582114,-0.17450719030494324,-0.018044306346396703
1629,7.38433059999079,-0.00322127187672449,0.018895515355421916,0.0054188849516151,0.06352087475254858,0.041235739682412405,-0.03579631919122786,0.07327881568069457,0.049869059709882806,-0.09682846004317186,-0.1781581983885692,-0.17545901318848528,-0.01585314537219948
1630,7.388233299992862,-0.0030541256150329937,0.019055854880931252,0.005373395059937669,0.06384877031662162,0.04145833329260381,-0.036232092367621954,0.07247259000398953,0.049077863438283735,-0.09689495176678074,-0.18029493272281347,-0.17638572100487,-0.013655150055389881
1631,7.392524999988382,-0.0028240779134751683,0.019180574828726756,0.0053087406040945905,0.06417301737484994,0.04167735895259548,-0.03666814316965595,0.07165679038973102,0.04828255037736583,-0.09695153814313097,-0.18241228689750105,-0.17728720395677464,-0.011450566343132438
1632,7.396453499997733,-0.002548255421621183,0.019327414612272765,0.005239999901639433,0.06449357302637601,0.04189279836699027,-0.037104426959279714,0.0708315047129629,0.047483233944363296,-0.09699818999123326,-0.1845099148633438,-0.1781633569203309,-0.009239641301321981
1633,7.404606500000227,-0.002509944217165363,0.01939563076372915,0.005145800758730456,0.06481039476933208,0.04210463375089774,-0.03754089896889874,0.06999682240332808,0.046680028025116234,-0.09703487924654983,-0.18658747343994986,-0.17901407948763326,-0.0070226230756925195
1634,7.409002000000328,-0.0018465409571998717,0.019812444893103433,0.005041864709655175,0.06512344050781882,0.042312847832025956,-0.03797751430641523,0.06915283443208964,0.04587304695308518,-0.0970615789658722,-0.1886446223924112,-0.17983927600845975,-0.004799760852673644
1635,7.412475099990843,-0.0018465409571998717,0.019812444893103433,0.005041864709655175,0.06543266855882308,0.042517423852679495,-0.038414227960291425,0.06829963329880541,0.045062405488170934,-0.09707826333201999,-0.19068102450732127,-0.18063885563118326,-0.0025713048200050846
1636,7.41719129998819,-0.0017708637790669415,0.01993485135754953,0.005000132486595496,0.06573803765907335,0.0427183455716626,-0.03885099480463445,0.06743731301765857,0.04424821879534311,-0.09708490765835971,-0.19269634566819652,-0.1814127323428517,-0.00033750612712013224
1637,7.423988299997291,-0.0009830815899607376,0.020481558472232906,0.004894180013512413,0.06603950697183146,0.04291559726608659,-0.039287769604301984,0.06656596910344674,0.04343060242308089,-0.09708148839314255,-0.1946902549302766,-0.18216082500841638,0.0019013831546913047
1638,7.430049199989298,-0.00032380457057473375,0.021074142798298067,0.004673143199429269,0.06633703609361909,0.04310916373308048,-0.039724507020028,0.06568569855723261,0.042609672281629776,-0.09706798312365984,-0.19666242459467828,-0.1828830574090869,0.004145110072329077
1639,7.4344921999872895,4.519499782924179e-05,0.021323580298057723,0.004621907201816205,0.06663058506087774,0.04329903029140359,-0.04016116161356788,0.06479659985165864,0.04178554462107806,-0.09704437058021459,-0.19861253028187753,-0.18357935827979233,0.006393420831127597
1640,7.437982299990836,0.00036329701195511165,0.021542439876384392,0.0045143207835109085,0.0669201143565612,0.04348518278295956,-0.040597687852862226,0.06389877291592894,0.040958336009256496,-0.09701063063990842,-0.20054025100449618,-0.1842496613457268,0.00864606083528795
1641,7.44218379999802,0.0007534834666050389,0.02182210648835226,0.004318938108502511,0.06720558491665958,0.043667607574210995,-0.04103404011721836,0.0629923191204611,0.04012816330946525,-0.096966744330243,-0.20244526923936845,-0.18489390535795858,0.010902774728486117
1642,7.446420499996748,0.0011060336194805426,0.022059285709660374,0.004129200163616773,0.06748695813665333,0.043846291557494206,-0.0414701727025084,0.06207734126121111,0.03929514365803219,-0.09691269383253556,-0.20432727099886314,-0.18551203412808218,0.013163306434645992
1643,7.4519200999930035,0.0015764857767373874,0.02237400617788021,0.003983909139198402,0.0677641958778955,0.04402122215223345,-0.04190603982638328,0.06115394354367435,0.03845939444170669,-0.09684846248514728,-0.20618594590143727,-0.18610399656189214,0.015427399198865852
1644,7.459418099999311,0.002360937037269765,0.02292072026127282,0.0036163216429879463,0.06803726047392131,0.04419238730605379,-0.04234159563350218,0.06022223156656633,0.03762103327489347,-0.09677403478652333,-0.20802098724139786,-0.18666974669205688,0.017694795628486866
1645,7.467348799997126,0.003258705046112576,0.02365403983339643,0.003395466126178726,0.06830611473668363,0.04435977549579203,-0.04277679420077618,0.059282312305186276,0.036780177976730485,-0.09668939639804375,-0.20983209205784692,-0.1872092437097721,0.019965237734292075
1646,7.471781499989447,0.003711013354532849,0.0239506288072965,0.0031250784456495306,0.0685707219627131,0.044523375728404965,-0.04321158954262557,0.05833429409446742,0.03593694654801542,-0.09659453414668409,-0.21161896120278612,-0.1877224519953739,0.022238466971824373
1647,7.475805299996864,0.004160622707875434,0.02434821907767019,0.002965478627010669,0.06883104593920092,0.04468317754177426,-0.043645935616249736,0.057378286611717684,0.03509145714798502,-0.09648943602748566,-0.2133812994083577,-0.18820934114789123,0.02451422428281184
1648,7.479964400001336,0.004584603627742283,0.024656721576031354,0.0028039735801277687,0.06908705095000314,0.04483917100540694,-0.044079786326908815,0.05641440085905467,0.03424382807095209,-0.09637409120583437,-0.21511881535319802,-0.18866988601351728,0.02679225013668877
1649,7.484057900001062,0.005088317858687083,0.024989208461029082,0.002656558614561883,0.06933870178156493,0.044991346721030834,-0.04451309553321614,0.05544274914553882,0.03339417772280501,-0.0962484900195476,-0.2168312217278803,-0.18910406671297933,0.02907228457220051
1650,7.488009099994088,0.005597896428699174,0.025376805707357727,0.0023724029753977426,0.06958596372876333,0.04513969582308422,-0.044945817052440364,0.0544634450690086,0.03254262459737463,-0.09611262398076872,-0.2185182352994258,-0.18951186866778724,0.031354067239080394
1651,7.4921983999956865,0.006037262558992215,0.025761150650467617,0.00216814081581738,0.0698288026006672,0.04528420997909926,-0.045377904665816544,0.053476603497622094,0.0316892872526735,-0.09596648577766868,-0.220179576974861,-0.1898932826253416,0.03363733743978702
1652,7.496530799995526,0.00654393817587508,0.02610526372217448,0.002018149068554979,0.07006718472621296,0.04542488138997849,-0.0458093121238654,0.05248234055110916,0.030834284287012594,-0.09581006927595477,-0.22181497186380023,-0.19024830468288326,0.03592183417128994
1653,7.500538299995242,0.007095272466406128,0.026435517056605986,0.0019032515705756504,0.07030107695979489,0.04556170279016401,-0.046239993151719866,0.051480773581738457,0.029977734315000747,-0.09564336952018591,-0.22342414934003108,-0.19057693631026373,0.03820729616689183
1654,7.5049873999960255,0.00762771732682818,0.026795522934992207,0.0017127080108733754,0.07053044668676893,0.04569466744769886,-0.046669901454458214,0.05047202115500392,0.02911975594343187,-0.09546638273489438,-0.22500684310208224,-0.19087918437151813,0.040493461938075126
1655,7.508923999994295,0.008144685301808792,0.027105646558771346,0.0015479102395708827,0.07075526182886883,0.04582376916417994,-0.04709899072244272,0.049456203030035104,0.028260467747065258,-0.09527910632551376,-0.22656279123275294,-0.19115506114522088,0.042780069816361246
1656,7.51750409998931,0.009328744692334957,0.02780853306469554,0.001156165906062964,0.07097549084953397,0.04594900227460209,-0.047527214636662964,0.04843344013973625,0.027399988244304382,-0.09508153887911334,-0.22809173625758516,-0.1914045843436052,0.04506685799517044
1657,7.521850999997696,0.00988672323766252,0.02811268595280838,0.0009753788733480185,0.07119110275914778,0.04607036164709253,-0.04795452687408299,0.0474038545706589,0.026538435872779924,-0.09487368016493941,-0.22959342520225742,-0.19162777713042797,0.04735356457167052
1658,7.527295399995637,0.010462858439172246,0.028411719080632482,0.000712605804019785,0.07140206712018561,0.04618784268253535,-0.04838088111299106,0.04636756954261284,0.025675928964842745,-0.09465553113476351,-0.23106760964888012,-0.19182466813756277,0.04963992758860253
1659,7.531531599990558,0.011030782795062626,0.02872208268318148,0.0005567581447019207,0.07160835405227144,0.04630144131408517,-0.04880623103835114,0.04532470938802039,0.02481258572297259,-0.09442709392303825,-0.23251404579117368,-0.1919952914803028,0.051925685076071475
1660,7.536069299996598,0.011636149455059154,0.029115076106758463,0.00033191562324827624,0.07180993423714224,0.04641115400656998,-0.04923053034715508,0.04427539953101906,0.023948524195108383,-0.09418837184686056,-0.23393249448850967,-0.19213968677135726,0.054210575093290136
1661,7.5427562999975635,0.012204054088873054,0.029332293000160593,0.00014505259650807634,0.07200677892351927,0.046516977755782646,-0.04965373275377465,0.04321976646631801,0.02308386224990608,-0.09393936940574255,-0.23532272131879634,-0.19225789913352404,0.056494335770264095
1662,7.546749000001,0.013396810833960434,0.02990132619996937,-0.0002685296026836521,0.0721988599318848,0.046618910087660725,-0.05007579199531258,0.04215793773781337,0.022218717551930025,-0.09368009228119024,-0.23668449663019106,-0.1923499792110235,0.058776705349406363
1663,7.55094509999617,0.013954272181718986,0.030182935606912206,-0.0004205975106007481,0.07238614965916315,0.04671694905735426,-0.050496661836951603,0.04109004191696804,0.021353207536783908,-0.0934105473360907,-0.23801759559162117,-0.1924159831794776,0.06105742222706969
1664,7.55510929999582,0.014530398292188792,0.030547018036241665,-0.0006066771703987716,0.07256862108330471,0.04681109324818133,-0.05091629607730051,0.04001620858096136,0.020487449386187406,-0.09313074261390755,-0.23932179824209635,-0.19245597275451873,0.06333622499498477
1665,7.559106000000611,0.015044218358589918,0.03079357216889159,-0.0008030218959048964,0.07274624776777189,0.046901341770470804,-0.05133464855373597,0.03893656829061423,0.01962156000300488,-0.09284068733768562,-0.24059688953879704,-0.19247001519901366,0.06561285248159289
1666,7.563612599988119,0.015672170953775454,0.03105489124800989,-0.0009643826385228285,0.07291900386592652,0.046987694260292194,-0.051751673147739416,0.03785125256809522,0.01875565598623244,-0.09254039190886458,-0.24184265940392324,-0.19245818332888798,0.06788704379326145
1667,7.567280399991432,0.015672170953775454,0.03105489124800989,-0.0009643826385228285,0.07308686412531748,0.047070150878072384,-0.052167323790228134,0.03676039387441343,0.017889853605949718,-0.09222986790590254,-0.2430589027702879,-0.1924205555175361,0.07015853835537131
1668,7.571443499997258,0.01622087039678043,0.03122157186164517,-0.0010516265554631832,0.07324980389186743,0.047148712307099314,-0.05258155446687956,0.03566412558670375,0.017024268778242837,-0.09190912808271029,-0.24424541962564095,-0.19235721569880387,0.07242707595326442
1669,7.577144700000645,0.017450392072695022,0.03197288886601683,-0.0015794261849691792,0.07340779911395756,0.04722337975191228,-0.052994319223447994,0.03456258197531007,0.016159017040105125,-0.0915781863668968,-0.2454020150557094,-0.1922682533685307,0.07469239677303995
1670,7.58116629999131,0.017450392072695022,0.03197288886601683,-0.0015794261849691792,0.07356082634640947,0.047294154936578556,-0.0534055721710729,0.033455898180672565,0.01529421352432239,-0.09123705785782693,-0.246528499285939,-0.19215376358463795,0.07695424144218774
1671,7.585824399997364,0.018065188504486674,0.03215971623992041,-0.0017106113674553594,0.07370886275436331,0.04736104010285614,-0.0538152674915779,0.03234421019002495,0.01442997293434941,-0.09088575882449185,-0.24762468772192334,-0.19201384696575013,0.07921235107004734
1672,7.589716499991482,0.019183778256368626,0.03270629189302235,-0.0019520168287194013,0.07385188611705175,0.0474240380082425,-0.05422335944275966,0.031227654813907824,0.013566409519184416,-0.09052430670319293,-0.24869040098850742,-0.1918486096883364,0.08146646728808131
1673,7.593957199991564,0.019812433697223526,0.03306053944429182,-0.0021251485342237125,0.07398987483146885,0.047483151923909346,-0.05462980236366542,0.030106369662504233,0.012703637048248473,-0.09015272009504076,-0.24972546496755202,-0.19165816348235962,0.08371633228995129
1674,7.597474599999259,0.019812433697223526,0.03306053944429182,-0.0021251485342237125,0.07412280791593288,0.04753838563252358,-0.05503455067985852,0.02898049312180352,0.011841768786276631,-0.08977101876327023,-0.25072971083434714,-0.19144262562542205,0.08596168887138614
1675,7.600848699992639,0.019812433697223526,0.03306053944429182,-0.0021251485342237125,0.07425066501354236,0.047589743425954234,-0.05543755890867087,0.027850164329599525,0.010980917468227809,-0.08937922363037311,-0.25170297509266404,-0.1912021189353965,0.0882022804698306
1676,7.604626199987251,0.019812433697223526,0.03306053944429182,-0.0021251485342237125,0.07437342639552422,0.0476372301028656,-0.055838781664441534,0.026715523151329364,0.010121195274220441,-0.08897735677504871,-0.25264509960843484,-0.19093677176153262,0.09043785120386338
1677,7.608224399999017,0.019812433697223526,0.03306053944429182,-0.0021251485342237125,0.07449107296447323,0.047680850966196335,-0.05623817366374056,0.02557671015575914,0.009262713804501051,-0.08856544142897416,-0.25355593164204726,-0.19064671797402843,0.09266814591237349
1678,7.6142722999939,0.020341270592628524,0.03337937278221965,-0.0022025094224829033,0.07460358625748137,0.04772061182052452,-0.0566356897305776,0.024433866590522973,0.008405584054452893,-0.08814350197339524,-0.2544353238792443,-0.19033209695205772,0.09489291019348424
1679,7.618910999997752,0.023271147590988275,0.03509483037465075,-0.00273496547365024,0.07471094844915631,0.04775651896931869,-0.05703128480159423,0.023287134357521586,0.0075499163896518805,-0.08771156393553921,-0.25528313446062056,-0.18999305357024543,0.09711189044321458
1680,7.623144999990473,0.023886486420254083,0.0354173136657298,-0.0028732308718302417,0.07481314235452849,0.04778857921207497,-0.05742491393123905,0.02213665598818692,0.006695820520977068,-0.08726965398485048,-0.25609922700970716,-0.18962973818358247,0.09932483389386665
1681,7.627171000000089,0.02444738447298983,0.03573025367432417,-0.0029917273756651193,0.07491015143184634,0.04781679984134072,-0.057816532296924704,0.020982574618619246,0.005843405479782961,-0.08681779992905084,-0.25688347065963774,-0.18924230661077168,0.10153148865212912
1682,7.630539199992199,0.02444738447298983,0.03573025367432417,-0.0029917273756651193,0.07500195978525871,0.04784118863962511,-0.05820609520416597,0.019825033964603344,0.004992779593141049,-0.0863560307100254,-0.25763574007838874,-0.18883092011599792,0.10373160373688632
1683,7.633974199998192,0.02494471124642144,0.036146675687272006,-0.0031555138530597023,0.07508855216738425,0.04786175387619714,-0.058593558091698326,0.018664178296510306,0.0041440504591579354,-0.0858843763995357,-0.2583559154925844,-0.18839574538911472,0.1059249291167229
1684,7.637336399988271,0.02494471124642144,0.036146675687272006,-0.0031555138530597023,0.07516991398176742,0.04787850430377154,-0.05897887653657607,0.017500152414091537,0.003297324922377517,-0.085402868194761,-0.25904388270986195,-0.18793695452424033,0.10811121574711373
1685,7.640780999994604,0.02494471124642144,0.036146675687272006,-0.0031555138530597023,0.07524603128522027,0.04789144915508304,-0.05936200625924911,0.01633310162117163,0.002452709049274648,-0.08491153841366958,-0.2596995331397895,-0.18745472499675803,0.11029021560728959
1686,7.646290099990438,0.027215326855422696,0.037561155123039175,-0.003626842716237833,0.07531689079004941,0.047900598139349354,-0.0597429031286179,0.015163171700246765,0.0016103081038477585,-0.08441042049022135,-0.2603227638133312,-0.1869492396387162,0.11246168173676828
1687,7.649819300000672,0.027215326855422696,0.037561155123039175,-0.003626842716237833,0.0753824798661676,0.04790596143862318,-0.06012152316706584,0.013990508886995344,0.0007702265233179395,-0.08389954896940373,-0.2609134774008555,-0.18642068661262357,0.11462536827154164
1688,7.653368399987812,0.027215326855422696,0.037561155123039175,-0.003626842716237833,0.07544278654308946,0.04790754970403395,-0.060497822555468324,0.012815259844707657,-6.7432106057958e-05,-0.08337895950210236,-0.26147158222868183,-0.18586925938363555,0.11678103047990869
1689,7.658713999990141,0.028835478669952293,0.03866125115611354,-0.003984418553504322,0.07549779951181129,0.04790537405191967,-0.06087175763817769,0.01163757163864139,-0.0009025650730526675,-0.08284868883980893,-0.26199699229416024,-0.18529515669012836,0.11892842479794537
1690,7.665743099991232,0.029398722026125958,0.0390440773029767,-0.004130149807144026,0.07554750812657461,0.047899446059849526,-0.061243284927983664,0.010457591710309785,-0.0017350705654047213,-0.08230877482916743,-0.2624896272792805,-0.18469858251265667,0.12106730886460144
1691,7.671960499996203,0.03043922966979748,0.03982760571757713,-0.004455085976696331,0.07559190240651341,0.047889777762537625,-0.06161236111104862,0.0092754678517092,-0.002564847693617946,-0.08175925640636135,-0.2629494125628072,-0.1840797460412937,0.12319744155641575
1692,7.675523499987321,0.030966755688692664,0.040166731993627434,-0.004587596551180873,0.07563097303718483,0.04787638164764866,-0.06197894305181688,0.008091348179492834,-0.003391796514616633,-0.08120017359134403,-0.2633762792309381,-0.1834388616413517,0.12531858302184062
1693,7.6797761999914655,0.03157485734359608,0.04060950753520964,-0.00473557164291378,0.0756647113719829,0.04785927065149619,-0.06234298779789729,0.006905381109097451,-0.004215818055248769,-0.08063156748191372,-0.26377016408648446,-0.18277614881748128,0.12743049471516613
1694,7.683831699992879,0.032054706978982654,0.040947876480289226,-0.004910780381738222,0.0756931094334349,0.04783845815463429,-0.06270445258491832,0.005717715328829967,-0.005036814335629696,-0.08005348024763528,-0.26413100965657016,-0.18209183217614944,0.12953293943003527
1695,7.688128299996606,0.032621082908031285,0.041383701546332315,-0.005104460494495686,0.07571615991437974,0.0478139579773432,-0.06306329484135509,0.004528499773920699,-0.0058546883923185885,-0.0794659551236103,-0.26445876419885084,-0.18138614138649767,0.13162568133254096
1696,7.692388899988146,0.033189666809889086,0.04175066525066258,-0.005245907194805828,0.07573385617902854,0.04778578437500973,-0.06341947219332765,0.0033378836005501507,-0.006669344301320131,-0.07886903640409733,-0.26475338170625284,-0.18065931113958167,0.13370848599389637
1697,7.697359799989499,0.03369032896842589,0.04218544476975078,-0.005440062846206899,0.07574619226390708,0.04775395203340338,-0.06377294246936957,0.0021460161598561615,-0.007480687200903762,-0.07826276943598483,-0.2650148219102331,-0.17991158110599456,0.13578112042267038
1698,7.705399599988596,0.03488018931826043,0.043021337719723496,-0.006028029528729361,0.07575316287868036,0.047718476063848894,-0.06412366370516678,0.0009530469719282649,-0.008288623314232867,-0.07764720061211894,-0.26524305028256057,-0.17914319589187552,0.13784335309657958
1699,7.708979399991222,0.035381787526395994,0.043401297978924294,-0.0062513734074993565,0.07575476340685917,0.047679371998296166,-0.06447159414826588,-0.00024087430020391134,-0.009093059971796283,-0.07702237736448823,-0.26543803803562116,-0.17835440499330674,0.13989495399382945
1700,7.713078699991456,0.03594604069511128,0.04383546116988469,-0.006511262751098874,0.07575098990638834,0.047636655784288315,-0.06481669226275077,-0.0014355978765813674,-0.009893905633634502,-0.07638834815726767,-0.2655997621212488,-0.17754546274910246,0.14193569462399722
1701,7.717138799998793,0.03660726410796712,0.04423775599375354,-0.006779032929378525,0.07574183911011649,0.047590343779829014,-0.0651589167338869,-0.0026309738863187397,-0.010691069911353025,-0.07574516247972375,-0.26572820522808577,-0.17671662829199505,0.14396534805844882
1702,7.721348699997179,0.03717058192588839,0.044734524619682886,-0.007089808714624798,0.07572730842614692,0.047540452748150115,-0.06549822647273257,-0.0038268523935927846,-0.011484463589915301,-0.07509287083898324,-0.26582335577747657,-0.17586816549822298,0.145983688960283
1703,7.728147299989359,0.037727977394227896,0.04527349534150108,-0.007352420616607892,0.07570739593806938,0.047486999852380495,-0.0658345806207166,-0.0050230834236095374,-0.012273998649207755,-0.07443152475266726,-0.2658852079178996,-0.17500034293552602,0.14799049361379532
1704,7.733627699999488,0.038794809971288806,0.046211144383166036,-0.007953543706068648,0.07568210040507291,0.04743000265011729,-0.06616793855418172,-0.006219516988543368,-0.0130595882853694,-0.07376117674139365,-0.26591376151794166,-0.1741134338095541,0.1499855399534552
1705,7.738000500001362,0.03937460439641012,0.046781012587519905,-0.008230213932197354,0.0756514212619398,0.04736947908790066,-0.06649825988889273,-0.00741600311344117,-0.013841146931878535,-0.07308188032114979,-0.265909022157821,-0.17320771590869766,0.15196860759238998
1706,7.742549099988537,0.03989140798024106,0.047294916555060414,-0.008572266501183937,0.07561535861892142,0.04730544749559322,-0.06682550448450912,-0.00861239186208493,-0.014618590280389022,-0.07239368999553834,-0.2658710011194631,-0.1722834715473462,0.1539394778503696
1707,7.746500399996876,0.04042732938738489,0.04780615293264291,-0.008887613219240417,0.07557391326149585,0.047237926580665106,-0.06714963244902138,-0.009808533362805984,-0.01539183530130877,-0.07169666124789831,-0.26579971537513575,-0.17134098750758409,0.155897933781284
1708,7.750593399992795,0.04100280963577082,0.048382691840478144,-0.009170761879431078,0.07552708665000825,0.047166935422385536,-0.06747060414315047,-0.011004277834244267,-0.016160800264113054,-0.07099085053330359,-0.2656951875746478,-0.17038055497933305,0.15784376020010651
1709,7.754751000000397,0.04145025048073838,0.04889396955959652,-0.009517956061434754,0.07547488091919452,0.04709249346592232,-0.06778838018471016,-0.012199475611045897,-0.016925404757385364,-0.07027631527044173,-0.26555744603111897,-0.1694024694989506,0.15977674370933823
1710,7.758861399997841,0.04194815039717667,0.04941546275621417,-0.009849515644947536,0.07541729887758829,0.04701462051635064,-0.06810292145293168,-0.013393977169492496,-0.01768556970857854,-0.06955311383337513,-0.26538652470532964,-0.16840703088629547,0.16169667272492752
1711,7.762799799995264,0.04194815039717667,0.04941546275621417,-0.009849515644947536,0.07535434400681149,0.046933336732572675,-0.0684141890927501,-0.01458763315305564,-0.018441217403488884,-0.0688213055431871,-0.26518246318865857,-0.16739454318026978,0.16360333750165934
1712,7.767130499996711,0.04227410140846286,0.04988561358526118,-0.010161844648738443,0.0752860204607485,0.04684866262114935,-0.06872214451905213,-0.015780294397869862,-0.019192271505436054,-0.06808095065951508,-0.2649453066846187,-0.16636531457285017,0.1654965301580091
1713,7.77571750000061,0.043150891535287325,0.05100596657295399,-0.010924727419797367,0.07521233306460438,0.04676061903004576,-0.069026749420885,-0.01697181195811765,-0.019938657074141736,-0.06733211037197362,-0.26467510598899907,-0.1653196573416202,0.1673760447004567
1714,7.779708499991102,0.044385576474552,0.052125914740335115,-0.01163952814282049,0.0751332873138478,0.04666922714229173,-0.0693279657656258,-0.018162037131319978,-0.02068030058429992,-0.06657484679146923,-0.2643719174686224,-0.16425788778081848,0.16924167704725618
1715,7.784093700000085,0.044887021788303484,0.05267680838827193,-0.012080154514269258,0.07504888937303962,0.0465745084695592,-0.06962575580311095,-0.01935082148352591,-0.021417129943831686,-0.06580922294140966,-0.2640358030387268,-0.1631803261309159,0.1710932250516575
1716,7.78825689999212,0.044887021788303484,0.05267680838827193,-0.012080154514269258,0.07495914607454766,0.04647648484565793,-0.06992008206972532,-0.02053801687439497,-0.022149074511817565,-0.06503530274881045,-0.26366683013898395,-0.16208729650673698,0.17293048852457585
1717,7.792217800000799,0.045107039752814417,0.053150681748461645,-0.012507559881752376,0.07486406491714812,0.04637517841995104,-0.07021090739244995,-0.021723475482165844,-0.022876065116100713,-0.06425315103530162,-0.2632650717081636,-0.16097912682413998,0.17475326925670423
1718,7.7963990999996895,0.0463098511977232,0.05422293806587816,-0.01346074076921625,0.07476365406451446,0.04627061165069197,-0.07049819489286814,-0.022907049828505145,-0.023598034070554212,-0.06346283350803733,-0.2628306061574568,-0.1598561487252714,0.17656137104006592
1719,7.800656399995205,0.046868916274416916,0.05478213533693923,-0.014063350332097605,0.0746579223435944,0.046162807298284536,-0.07078190799112913,-0.024088592803229756,-0.024314915192005866,-0.0626644167505114,-0.2623635173424686,-0.15871869750241135,0.17835459968900333
1720,7.804788299996289,0.04732223837358449,0.05520966867071403,-0.014599537695279226,0.07454687924287552,0.04605178841846768,-0.07106201040986906,-0.025267957688896482,-0.025026643816813788,-0.061857968213281773,-0.26186389453389486,-0.1575671120204265,0.1801327630606
1721,7.808880799988401,0.04790092490506769,0.05574877387105409,-0.01515269198460288,0.07443053491054014,0.04593757835542632,-0.07133846617808859,-0.026444998185252852,-0.02573315681708626,-0.0610435562046068,-0.26133183238689567,-0.1564017346378485,0.18189567107453333
1722,7.81499279999116,0.048429909233490595,0.05625594009630285,-0.015759213122224267,0.0743089001525101,0.04582020073482976,-0.07161123963498674,-0.02761956843354299,-0.02643439261653943,-0.06022124988099603,-0.2607674309091813,-0.1552229111265959,0.1836431357323541
1723,7.81894789999933,0.049010703931601306,0.05674390501762742,-0.01642871435990644,0.07418198643038243,0.04569967945679928,-0.07188029543375066,-0.028791523040662532,-0.02713029120598646,-0.059391119237677883,-0.2601707954278254,-0.15403099059035885,0.18537497113618984
1724,7.823354299995117,0.04957489543397637,0.0571940421188916,-0.01715376723790507,0.07404980585925668,0.045576038688806504,-0.07214559854530093,-0.029960717103156523,-0.02782079415845184,-0.058553235098987,-0.25954203655481894,-0.15282632538166743,0.18709099350687047
1725,7.827266099993722,0.05013874662040578,0.05770528887182807,-0.017801073950146105,0.07391237120545492,0.04544930285850429,-0.07240711426199209,-0.031127006231054397,-0.02850584464390478,-0.057707669108674184,-0.2588812701513802,-0.15160927101766325,0.18879102120147398
1726,7.831613799993647,0.050595657178469394,0.058223025235852634,-0.018528836067397744,0.07376969588413555,0.04531949664649197,-0.07266480820126778,-0.03229024657153628,-0.02918538744360575,-0.05685449372014167,-0.2581886172910357,-0.15038018609459564,0.19047487473028898
1727,7.835826700000325,0.05116995520826301,0.05868658084456111,-0.019222200112148632,0.07362179395680181,0.045186644979016505,-0.07291864630927057,-0.033450294832425016,-0.02985936896406025,-0.05599378218660661,-0.2574642042214897,-0.14913943220106224,0.19214237677319274
1728,7.839804899995215,0.0517362916607978,0.05916818024997067,-0.019994455880491865,0.07346868012870565,0.04505077302061134,-0.07316859486440541,-0.03460700830549825,-0.030527737250573957,-0.05512560855119558,-0.25670816232529614,-0.14788737383001588,0.19379335219544316
1729,7.844015199996647,0.05224279709898536,0.05965892028936514,-0.020764243577187504,0.07331036974614726,0.04491190616667489,-0.0734146204808562,-0.03576024488961487,-0.031190442000403423,-0.05425004763697271,-0.25592062807935134,-0.14662437828955935,0.19542762806288305
1730,7.85045519999403,0.05318370886449981,0.06069492252755083,-0.022245401234981574,0.07314687879367097,0.044770070035990234,-0.07365669011205561,-0.036909863113650375,-0.03184743457549659,-0.0533671750369044,-0.25510174301322414,-0.14535081561255125,0.1970450336565561
1731,7.854741299990565,0.053651665062393106,0.061233631127068644,-0.022988836612450735,0.07297822389115893,0.04462529046318798,-0.07389477105410781,-0.03805572215923619,-0.03249866801481768,-0.05247706710376302,-0.2542516536663427,-0.14406705846504528,0.19864540048673326
1732,7.858882299988181,0.05404141316374707,0.061708751810368986,-0.02367694169592264,0.07280442229082287,0.044477593491154085,-0.07412883094916388,-0.03919768188329748,-0.033144097046251084,-0.051579800939972456,-0.25337051154405626,-0.14277348205358667,0.2002285623063482
1733,7.863886499995715,0.05450038560799741,0.06231893548188022,-0.024481959991444775,0.0726254918740954,0.04432700536338493,-0.07435883778874959,-0.04033560284038439,-0.03378367809807881,-0.05067545438739807,-0.2524584730725896,-0.1414704640313896,0.20179435512384145
1734,7.867401299998164,0.05488160906440268,0.06276521301722421,-0.025166783615953574,0.07244145114842145,0.0441735525162914,-0.07458475991704486,-0.04146934630479175,-0.03441736931002634,-0.049764106017084,-0.25151569955291203,-0.14015838440342102,0.2033426172154131
1735,7.870853000000352,0.05488160906440268,0.06276521301722421,-0.025166783615953574,0.07225231924395097,0.044017261571454,-0.07480656603411429,-0.04259877429246246,-0.03504513054387142,-0.04884583511894075,-0.2505423571135413,-0.1388376254304156,0.2048731891366844
1736,7.874580499992589,0.05488160906440268,0.06276521301722421,-0.025166783615953574,0.07205811591013395,0.043858159327830715,-0.07502422519908905,-0.04372374958266966,-0.03566692339361096,-0.04792072169138553,-0.24953861666230182,-0.13750857153184878,0.2063859137337687
1737,7.879621899992344,0.0551758235028189,0.06327703696512524,-0.025907273844872375,0.07185886151221878,0.04369627275391971,-0.07523770683330011,-0.04484413573947296,-0.03628271119518119,-0.04698884643093831,-0.24850465383705939,-0.13617160918789462,0.20788063615375243
1738,7.883762499986915,0.056343213154430305,0.0649151963226598,-0.027992246246832296,0.07165457702765457,0.043531628979878556,-0.07544698072336306,-0.045959797132944305,-0.03689245903572638,-0.04605029072177603,-0.247440648955453,-0.13482712684039577,0.20935720385458773
1739,7.887858399990364,0.05666976222560393,0.06550075685071366,-0.028777130339907385,0.07144528404239853,0.043364255289602,-0.07565201702421431,-0.04707059896015909,-0.03749613376241135,-0.04510513662524781,-0.24634678696364354,-0.13347551479287367,0.2108154666143981
1740,7.892097299991292,0.05705066577242507,0.06601837284228479,-0.029404537054317018,0.07123100474712919,0.043194179112760404,-0.07585278626209827,-0.04817640726594824,-0.03809370399077316,-0.04415346686935365,-0.24522325738409934,-0.13211716510960614,0.21225527654019963
1741,7.896407699998235,0.05739908260790399,0.06655379449739074,-0.030062816002491957,0.07101176193336625,0.0430214280168011,-0.07604925933750517,-0.04927708896340694,-0.03868514011260763,-0.04319536483818953,-0.24407025426243936,-0.13075247151380173,0.21367648807603865
1742,7.900671399998828,0.057724101323573966,0.0670639775364123,-0.03076843040663258,0.07078757898949792,0.04284602969891497,-0.07624140752805988,-0.05037251185415588,-0.039270414303386535,-0.04223091456136163,-0.2428879761133569,-0.12938182928489922,0.2150789580105488
1743,7.904729199988651,0.0580668008350479,0.06760234267355998,-0.031431753869695565,0.0705584798967173,0.0426680119779701,-0.07642920249136115,-0.051462544648350726,-0.03984950052920129,-0.041260200703372156,-0.24167662586564578,-0.12800563515502184,0.21646254548392982
1744,7.912726199996541,0.058647333355434574,0.06863276433270563,-0.03269129532895178,0.07032448922486895,0.04248740278641468,-0.0766126162677713,-0.052547056984436055,-0.040422374553229175,-0.04028330855297964,-0.24043641080635106,-0.12662428720461602,0.21782711199435104
1745,7.917061100000865,0.05894563746319045,0.06913325279397436,-0.03339924284670728,0.07008563212820662,0.0423042301621511,-0.07679162128315614,-0.05362591944863993,-0.04098901394171834,-0.03930032401253633,-0.2391675425240665,-0.12523818475730442,0.21917252140378227
1746,7.921775199996773,0.05923133940513326,0.06956832836309146,-0.03397460080063729,0.06984193434106335,0.042118522240383836,-0.07696619035157512,-0.05469900359420563,-0.04154939806948824,-0.038311333587305325,-0.23787023685140254,-0.12384772827398487,0.22049863994325541
1747,7.925513800000772,0.05951486971838217,0.07008610018540509,-0.034563150014745816,0.06959342217343457,0.041930307245443006,-0.07713629667792178,-0.05576618196035705,-0.04210350812494203,-0.03731642437476,-0.23654471380664677,-0.12245331924620602,0.22180533621755996
1748,7.928933299990604,0.05951486971838217,0.07008610018540509,-0.034563150014745816,0.06934012250647616,0.04173961348258591,-0.07730191386051503,-0.056827328090994486,-0.04265132711458745,-0.03631568405386844,-0.2351911975346412,-0.12105536008885164,0.22309248120937553
1749,7.93193049999536,0.05951486971838217,0.07008610018540509,-0.034563150014745816,0.06908206278791892,0.041546469329778346,-0.07746301589364153,-0.057882316553117125,-0.043192839867063015,-0.0353092008743653,-0.2338099162469009,-0.119654254032165,0.22435994828284608
1750,7.935874999995576,0.05971681608151916,0.07057690576102665,-0.03518499174646588,0.06881927102740096,0.04135090322945779,-0.07761957717004919,-0.05893102295496868,-0.043728033036666066,-0.034297063646013703,-0.23240110216099696,-0.11825040501314564,0.22560761318660022
1751,7.93995279999217,0.060301582907660065,0.07149222814425922,-0.03633104700938464,0.06855177579171892,0.04115294368028076,-0.07777157248339214,-0.05997332396390316,-0.044256895106380055,-0.033279361727859745,-0.23096499143922697,-0.11684421756635095,0.2268353540562227
1752,7.943578999998863,0.060301582907660065,0.07149222814425922,-0.03633104700938464,0.06827960619999986,0.040952619228856756,-0.07791897703062722,-0.061009097323967657,-0.04477941639039821,-0.03225618501748209,-0.22950182412659517,-0.11543609671413561,0.22804305141618122
1753,7.946883899989189,0.060301582907660065,0.07149222814425922,-0.03633104700938464,0.06800279191879528,0.040749958461471274,-0.07806176641436262,-0.062038221873199205,-0.04529558903614106,-0.031227623940239015,-0.22801184408812797,-0.11402644785636253,0.22923058818121225
1754,7.954767999995965,0.06041111946124457,0.07182846144136984,-0.03683192897404365,0.067721363157099,0.040544989995800584,-0.07819991664515887,-0.06306057756063296,-0.04580540702576582,-0.030193769438515355,-0.22649529894554965,-0.1126156766596191,0.23039784965717092
1755,7.958938600000692,0.06133038218943109,0.07357549792512771,-0.03898319932943359,0.06743535066129003,0.04033774247262051,-0.0783334041437827,-0.06407604546301914,-0.04630886617716544,-0.02915471296097181,-0.22495244001334205,-0.11120418894597285,0.23154472354134947
1756,7.963195799995447,0.06149352255531149,0.07397971516330169,-0.03945739815222329,0.06714478571000193,0.04012824454751138,-0.07846220574341375,-0.06508450780124615,-0.046805964144455155,-0.028110546451798862,-0.22338352223421126,-0.10979239058130058,0.23267109992226997
1757,7.967194299999392,0.06175568481725275,0.0743687809845979,-0.040018488029035126,0.06684970010891943,0.03991652488256147,-0.078586298691804,-0.06608584795646746,-0.04729670041794468,-0.027061362339977652,-0.22178880411398513,-0.10838068736322468,0.23377687127895455
1758,7.971404500000062,0.06189379168226599,0.07475476973576577,-0.040520522108475295,0.06655012618550396,0.03970261213807152,-0.07870566065338984,-0.06707995048592902,-0.04778107632359447,-0.02600725352855016,-0.22016854765596647,-0.10696948490869139,0.23486193247967826
1759,7.975501499997335,0.0620810234440215,0.07513947599735953,-0.0409197695502799,0.06624609678364925,0.039486534964262646,-0.07882026971135704,-0.06806670113849515,-0.0482590950219544,-0.02494831338390095,-0.2185230182947658,-0.10555918854122592,0.23592618078021113
1760,7.979995799993048,0.0620810234440215,0.07513947599735953,-0.0409197695502799,0.06593764525826762,0.03926832199299005,-0.07893010436965925,-0.06904598686987086,-0.048730761506583696,-0.023884635725052686,-0.21685248482963868,-0.10415020317789923,0.23696951582155407
1761,7.98863629999687,0.06247361120880165,0.07616873817902842,-0.04225343216346469,0.06562480546980808,0.03904800182946469,-0.07903514355499056,-0.07001769585751877,-0.04919608260195091,-0.02281631481297756,-0.21515721935735282,-0.10274293321604208,0.23799183962717638
1762,7.992802599997958,0.0625849366478682,0.07648411643971481,-0.04276260667702188,0.06530761177870754,0.03882560304398523,-0.07913536661871219,-0.07098171751526888,-0.04965506696081282,-0.021743445339926937,-0.21343749720461083,-0.1013377824197414,0.23899305659975953
1763,7.996383499994408,0.06277304500257797,0.07681948538473597,-0.043190617779283486,0.06498609903977681,0.03860115416368268,-0.07923075333873351,-0.07193794250761897,-0.05010772506107154,-0.02066612241878158,-0.21169359686005396,-0.09993515380615416,0.23997307351745356
1764,8.000518799992278,0.06293942426512134,0.07708111831372376,-0.043572764350457406,0.06466030259652297,0.03837468366427989,-0.07932128392134716,-0.072886262763724,-0.05055406920210892,-0.01958444157242458,-0.20992579990587376,-0.09853544953167499,0.24093179952965318
1765,8.004710599998361,0.06311116628253427,0.07739466220606218,-0.0440344162846555,0.06433025827540968,0.03814621996186868,-0.0794069390030181,-0.0738265714910729,-0.050994113500597946,-0.018498498723139065,-0.20813439094905664,-0.09713907077799379,0.24186914615230076
1766,8.008800399999018,0.06322421222542002,0.07764522398505466,-0.044443951448691586,0.06399600238005669,0.03791579140470665,-0.07948769965212664,-0.07475876318885105,-0.0514278738857906,-0.017408390182032735,-0.20631965755228496,-0.09574641763807916,0.24278502726272333
1767,8.01288109998859,0.0633391753643463,0.0778427438863732,-0.04493598837095434,0.06365757168538046,0.037683426265036145,-0.07956354737066543,-0.07568273366098706,-0.05185536809428195,-0.016314212638491227,-0.20448189016451868,-0.09435788900212357,0.2436793590940112
1768,8.017125599988503,0.06351334388147326,0.07804222662825212,-0.04534851273972659,0.06331500343167672,0.03744915273092786,-0.07963446409589015,-0.07659838002888295,-0.05227661566425053,-0.01521606314966239,-0.20262138205128324,-0.09297388244348667,0.2445520602289461
1769,8.02140509999299,0.06363993202053587,0.07822962702136785,-0.04572928482932258,0.06296833531864694,0.03721299889815164,-0.07970043220192362,-0.07750560074382655,-0.0526916379291752,-0.014114039129973482,-0.20073842922468926,-0.0915947941046735,0.24540305159348585
1770,8.025569199991878,0.06381613548528706,0.07839240198986336,-0.04613587596035678,0.06261760549936998,0.0369749927620767,-0.07976143450131341,-0.07840429559908464,-0.05310045801102892,-0.013008238340683204,-0.19883333037320844,-0.09022101858338356,0.2462322564498132
1771,8.029779299991787,0.06399809257283323,0.07855267017835997,-0.046542003016045774,0.06226285257422015,0.03673516220960344,-0.07981745424654324,-0.07929436574167568,-0.05350310081294984,-0.011898758879470487,-0.19690638679123001,-0.0888529488186674,0.24703960038895653
1772,8.033944199996768,0.06418026911970003,0.07870806097178756,-0.046941005773077984,0.061904115584733375,0.03649353501112957,-0.07986847513149828,-0.08017571368382173,-0.05389959301139063,-0.010785699170061903,-0.1949579023084212,-0.08749097597722723,0.24782501132299084
1773,8.03794779999589,0.06432037692805957,0.0787369745600424,-0.0474241933949315,0.06154143400742277,0.036250138812552936,-0.07991448129288482,-0.08104824331407823,-0.05428996304774685,-0.009669157951899519,-0.19298818321891556,-0.08613548933989759,0.24858841947682625
1774,8.042218299990054,0.06442374837232795,0.0788365595311835,-0.04778736225739094,0.061174847747544996,0.036005001127313425,-0.07995545731160413,-0.08191185990814136,-0.05467424111946539,-0.008549234269850995,-0.19099753821035415,-0.08478687618834194,0.2493297573795925
1775,8.0462819999957,0.06442374837232795,0.0788365595311835,-0.04778736225739094,0.06080439713281872,0.03575814932847632,-0.07999138821408083,-0.08276647013933233,-0.05505245917063411,-0.007426027463963652,-0.1889862782928035,-0.08344552169200188,0.2500489598556272
1776,8.05211399999098,0.06453454778311143,0.07892707774126681,-0.0481307288519269,0.06043012290709628,0.035509610640859356,-0.08002225947354596,-0.08361198208875822,-0.055424650882054276,-0.006299637159264213,-0.18695471672757502,-0.08211180879533551,0.25074596401507654
1777,8.056374799998594,0.06481686475783184,0.07902082019433385,-0.04890644920165253,0.06005206622399015,0.03525941213320592,-0.08004805701127451,-0.08444830525514925,-0.0557908516607975,-0.005170163255605896,-0.1849031689559693,-0.08078611810538061,0.25142070924411947
1778,8.060518399986904,0.064921037185114,0.07903509462887061,-0.049239374537716124,0.059670268640455805,0.0350075807104068,-0.08006876719777807,-0.08527535056437237,-0.05615109862924894,-0.0040377059175643795,-0.18283195252797022,-0.07946882777967929,0.2520731371948224
1779,8.064727599994512,0.06503667751959719,0.07900286456657364,-0.04958807785878197,0.05928477211033249,0.034754143105772864,-0.08008437685395307,-0.08609303037862112,-0.05650543061363839,-0.0029023655643842057,-0.1807413870309108,-0.07816031341460022,0.2527031917746347
1780,8.068945099992561,0.06520865569448954,0.07893737685466404,-0.049979873915047504,0.05889561897784328,0.034499125873360986,-0.08009487325218503,-0.08690125850528216,-0.05685388813206123,-0.001764242859977116,-0.17863179401813548,-0.07686094793409418,0.2533108191355352
1781,8.075955199994496,0.06549413187058169,0.07883246847753292,-0.050619933743595316,0.05850285197105642,0.0342425553803553,-0.08010024411740929,-0.0876999502054787,-0.05719651338199152,-0.0006234387029737794,-0.17650349693768144,-0.07557110147891893,0.25389596766283656
1782,8.082783999998355,0.06563320228030378,0.07877152076764482,-0.05094677102535705,0.05810651419530948,0.03398445779950612,-0.0801004776281283,-0.0884890222022916,-0.05753335022729003,0.0005199457831696577,-0.17435682106100203,-0.07429114129636961,0.2544585879636574
1783,8.086670499993488,0.06563320228030378,0.07877152076764482,-0.05094677102535705,0.057706649126597884,0.0337248591016289,-0.0800955624173857,-0.08926839268865873,-0.057864444184709964,0.0016658092600088173,-0.17219209341175443,-0.07302143163055021,0.25499863285507235
1784,8.090208900001016,0.06563320228030378,0.07877152076764482,-0.05094677102535705,0.05730330060492943,0.03346378504816554,-0.08008548757369742,-0.09003798133495325,-0.05818984240990343,0.002814050183890813,-0.17000964269467472,-0.07176233361322204,0.2555160573519465
1785,8.096092499996303,0.06623562720708447,0.07826368641226245,-0.052074357030064244,0.05689651282764644,0.033201261183810296,-0.08007024264194047,-0.09079770929624115,-0.05850959368293168,0.003964566815675161,-0.1678097992245624,-0.07051420515526466,0.2560108186544628
1786,8.102658699994208,0.06643608606356696,0.07809307111618152,-0.05233244732678875,0.056486330342716794,0.032937312829202946,-0.08004981762419972,-0.09154749921921909,-0.058823748393282485,0.005117257230394658,-0.16559289485539558,-0.06927740083878442,0.2564828761353517
1787,8.10910969998804,0.0667378983748909,0.07773755691891146,-0.05281297759760677,0.05607279804199518,0.03267196507369113,-0.0800242029805728,-0.09228727524883318,-0.059132358524397716,0.006272019326855035,-0.1633592629095989,-0.06805227180990608,0.2569321913268325
1788,8.11377569999604,0.0667378983748909,0.07773755691891146,-0.05281297759760677,0.05565596115445631,0.03240524276816422,-0.07999338962993391,-0.09301696303457911,-0.05943547763771465,0.007428750837172252,-0.16110923810748567,-0.06683916567228249,0.25735872790727565
1789,8.117308699991554,0.066786392563023,0.07756187692427212,-0.05305252386416328,0.05523586523940148,0.03213717051796091,-0.07995736895065644,-0.09373648973648514,-0.05973316085622426,0.008587349336246339,-0.15884315649689532,-0.06563842638135668,0.2577624516875952
1790,8.122239599993918,0.06719348695480101,0.07713166492108241,-0.05339300109932655,0.054812556179640114,0.031867772675852765,-0.079916132781295,-0.09444578403077919,-0.060025464847550176,0.009747712251170777,-0.15656135538304797,-0.06445039413941102,0.25814333059738015
1791,8.126052399995388,0.06719348695480101,0.07713166492108241,-0.05339300109932655,0.05438608017464763,0.03159707333510626,-0.07986967342122694,-0.09514477611524123,-0.06031244780655234,0.010909736870576446,-0.1542641732586362,-0.0632754052914373,0.2585013346707747
1792,8.129626399997505,0.06719348695480101,0.07713166492108241,-0.05339300109932655,0.05395648373370119,0.03132509632262531,-0.07981798363125397,-0.09583339771424224,-0.0605941694374593,0.012073320353909213,-0.1519519497341738,-0.06211379222186161,0.25883643603211615
1793,8.133934400000726,0.06732329013152956,0.07681495180982412,-0.0535668127134942,0.05352381366899474,0.031051865192176804,-0.07976105663416375,-0.09651158208347069,-0.06087069093553348,0.013238359740640242,-0.14962502546862239,-0.06096588325215704,0.25914860888133956
1794,8.14061909999873,0.06782234906273087,0.07594954777614675,-0.054023659693464746,0.053088117088734774,0.030777403217701123,-0.07969888611525139,-0.09717926401434815,-0.061142074968273515,0.014404751959408156,-0.14728374210031503,-0.05983200253937748,0.2594378294791566
1795,8.146119699988049,0.06810019443418472,0.07535722621523837,-0.054241417595417604,0.052649441390218224,0.030501733386709744,-0.0796314662228014,-0.09783637983813456,-0.061408385656158214,0.015572393837092267,-0.14492844217819695,-0.05871246997564552,0.259704076132019
1796,8.152421499995398,0.06827088898984007,0.07506524085161835,-0.05434676958339309,0.05220783425289386,0.030224878393771755,-0.07955879156852996,-0.09848286742972498,-0.06166968855293662,0.016741182107816062,-0.14255946909340142,-0.05760760108862648,0.259947329176876
1797,8.15621669999382,0.06841883688706085,0.07477082726175421,-0.05444725201064758,0.05176334363140845,0.02994686063409129,-0.07948085722798767,-0.09911866621113988,-0.06192605062546907,0.017911013421880284,-0.14017716701117988,-0.05651770694302136,0.260167570965735
1798,8.159846199996537,0.06856879665485745,0.0744760145564524,-0.054513359090045996,0.051316017748638774,0.029667702197178094,-0.07939765874092336,-0.09974371715471073,-0.062177540233124,0.019081784354624952,-0.13778188080320541,-0.05544309404311045,0.2603647858500351
1799,8.164724099988234,0.06856879665485745,0.0744760145564524,-0.054513359090045996,0.050865905088710736,0.029387424860613194,-0.07930919211160904,-0.10035796278596258,-0.062424227106735584,0.02025339141521979,-0.13537395598026714,-0.05438406423637942,0.2605389601648444
1800,8.168046999999206,0.06855396628336596,0.07415451707210621,-0.054548972718528564,0.050413054390006984,0.029106050083911605,-0.0792154538091263,-0.10096134718619487,-0.06266618232712698,0.02142573105538248,-0.13295373862537282,-0.053340914618259086,0.26069008221289136
1801,8.172011399990879,0.0689123632825033,0.07361846202270772,-0.054604830139093244,0.049957514638164294,0.02882359900248406,-0.07911644076761422,-0.10155381599476228,-0.06290347830320463,0.022598699678024217,-0.13052157532727798,-0.05231393743800996,0.2608181422484391
1802,8.1757382999931,0.0689123632825033,0.07361846202270772,-0.054604830139093244,0.04949933505906215,0.028540092421699654,-0.07901215038647916,-0.10213531641105791,-0.06313618874962895,0.023772193645822195,-0.12807781311445787,-0.051303420005782384,0.2609231324610133
1803,8.17978019999282,0.06890106004006755,0.07324463247300375,-0.05465244699929901,0.04903856511180391,0.028255550811051123,-0.07890258053056681,-0.1027057971962012,-0.06336438866406725,0.024946109289718552,-0.12562279938953919,-0.05030964460088234,0.2610050469589916
1804,8.18356479999784,0.06890106004006755,0.07324463247300375,-0.05465244699929901,0.04857525448169207,0.02796999429842452,-0.07878772953029713,-0.10326520867443285,-0.06358815430403433,0.02612034291734551,-0.12315688186420778,-0.04933288838127279,0.26106388175306555
1805,8.187863899991498,0.06920239086434814,0.07260430085161128,-0.05467937326391543,0.048109453073198964,0.0276834426644751,-0.07866759618176215,-0.10381350273421933,-0.06380756316332707,0.027294790821376452,-0.12068040849460836,-0.04837342329433996,0.26109963473958464
1806,8.192145900000469,0.06942015403843575,0.07208470982245191,-0.05470931169897338,0.047641211002934274,0.027395915337111422,-0.07854217974678684,-0.10435063282906887,-0.06402269394805943,0.028469349287802585,-0.11819372741725065,-0.04743151598895373,0.2611123056837918
1807,8.19654449999507,0.06953740915461006,0.07183111382310295,-0.05470045452540716,0.04717057859261042,0.027107431386089287,-0.07841147995295279,-0.10487655397806181,-0.06423362655230432,0.02964391460413517,-0.1156971868854376,-0.04650742772885085,0.2611018962029597
1808,8.202448199997889,0.06964735238045888,0.07157585214888813,-0.05466546404618161,0.046697606362007024,0.026818009517717307,-0.07827549699358502,-0.10539122276609764,-0.06444044203334873,0.030818383067533223,-0.11319113520622999,-0.04560141430736917,0.261068409749438
1809,8.20644199999515,0.06964735238045888,0.07157585214888813,-0.05466546404618161,0.046222345021935875,0.026527668069676054,-0.07813423152770249,-0.10589459734386167,-0.06464322258656838,0.03199265099285672,-0.11067592067796242,-0.04471372596356061,0.26101185159362295
1810,8.210551399999531,0.06965391328427925,0.07127663086162074,-0.0546872367770054,0.04574484546720767,0.026236425005952378,-0.0779876846799329,-0.10638663742751409,-0.06484205151992838,0.03316661472064534,-0.10815189152832493,-0.043844607299710424,0.26093222880685923
1811,8.214675299997907,0.06995781516593914,0.07066670165773158,-0.05471077449898566,0.04526515876960171,0.02594429791189063,-0.07783585804039198,-0.10686730429810397,-0.06503701322811667,0.03434017062502292,-0.10561939585302352,-0.04299429720028958,0.26082955024428583
1812,8.220817699999316,0.07012520210996598,0.0701288609830924,-0.054764202267463,0.044783336170839634,0.025651303989362457,-0.07767875366452746,-0.10733656080071104,-0.06522819316631684,0.03551321512152751,-0.10307878155503375,-0.0421630287523666,0.26070382652763546
1813,8.225127499987138,0.0702405314113363,0.06985413068830776,-0.05480764023595319,0.044299429075564216,0.025357460052056635,-0.07751637407292866,-0.10779437134331787,-0.06541567782362724,0.03668564467486735,-0.10053039628446021,-0.04135102916750494,0.26055507002799994
1814,8.229415800000424,0.0703668347228478,0.06957419745664459,-0.05488170901116357,0.0438134890443245,0.025062782520890458,-0.07734872225110151,-0.10824070189541528,-0.06559955469613406,0.03785735580660266,-0.09797458737901484,-0.04055851970517141,0.2603832948485695
1815,8.233864699999685,0.07050219939426357,0.06928426221024139,-0.05490671516859571,0.04332556778656863,0.024767287419544107,-0.07717580164920991,-0.10867551998634342,-0.06577991225964572,0.03902824510275345,-0.09541170180512686,-0.03978571559768059,0.260188516807357
1816,8.237263299990445,0.07050219939426357,0.06928426221024139,-0.05490671516859571,0.04283571715364533,0.024470990370119565,-0.07699761618178366,-0.10909879470337226,-0.06595683994209603,0.04019820922133341,-0.09284208609969592,-0.039032825976699714,0.2599707534199189
1817,8.243705499990028,0.07051672235381164,0.06898758442571686,-0.05495074925027213,0.04234398913181516,0.024173906588925678,-0.07681417022739304,-0.10951049668952384,-0.06613042809562317,0.041367144899810096,-0.09026608631249974,-0.03830005380133788,0.2597300238820824
1818,8.248102999990806,0.07077514726717508,0.06850627300261364,-0.05507460801787366,0.04185043583527253,0.02387605088239075,-0.0766254686282901,-0.10991059814113956,-0.06630076796833226,0.04253494896249127,-0.08768404794926696,-0.03758759578784313,0.2594663490526867
1819,8.25498030000017,0.07096036298386807,0.06805234390664809,-0.0552167983335743,0.041355109499179435,0.02357743764310413,-0.0764315166900169,-0.11029907280519599,-0.06646795167574902,0.0437015183278375,-0.08509631591542571,-0.03689564234092991,0.2591797514363466
1820,8.261180599991349,0.07096036298386807,0.06805234390664809,-0.0552167983335743,0.0408580624727123,0.02327808084598825,-0.07623232018098097,-0.11067589597637213,-0.06663207217197219,0.044866750015701395,-0.08250323446053727,-0.03622437748675911,0.25887025516624956
1821,8.26525079998828,0.07092297966788856,0.06775816956248637,-0.05530565025597988,0.04035934721212293,0.022977994044602507,-0.07602788533199895,-0.11104104449387205,-0.06679322322053209,0.046030541154493544,-0.07990514712342414,-0.03557397880759245,0.25853788598699556
1822,8.268985899994732,0.07115411833627149,0.06741319551505845,-0.0554916964601785,0.039859016273814794,0.02267719036758035,-0.07581821883580869,-0.11139449673800611,-0.06695149936496328,0.04719278898827568,-0.077302396678002,-0.034944617378142286,0.25818267123749117
1823,8.272407799988287,0.07115411833627149,0.06741319551505845,-0.0554916964601785,0.03935712230743592,0.022375682515200893,-0.0756033278465505,-0.11173623262653459,-0.06710699589909883,0.04835339088378138,-0.07469532507982428,-0.034336457703637684,0.2578046398339078
1824,8.276367499987828,0.07110135628124331,0.06721650370477636,-0.05558120523492137,0.03885371804898946,0.022073482756096184,-0.07538321997921721,-0.11206623361077643,-0.06725980883709501,0.04951224433736472,-0.072084273413348,-0.033749657659627064,0.2574038222527118
1825,8.281030099999043,0.07127957898359437,0.06691568028710554,-0.05579799125687764,0.038348856313963016,0.021770602924095283,-0.07515790330907363,-0.11238448267148653,-0.0674100348831942,0.050669246981877344,-0.06946958183992863,-0.03318436843353692,0.25698025051377477
1826,8.28581299999496,0.0712882101449597,0.06677730558155016,-0.055937035424741675,0.03784258999047737,0.021467054415206254,-0.07492738637104562,-0.1126909643145048,-0.06755777140123438,0.0518242965934743,-0.06685158954655156,-0.03264073446800554,0.2565339581635733
1827,8.292274899999029,0.07125775837622578,0.06656992864569491,-0.056128744460481696,0.037334972032455886,0.02116284818473718,-0.0746916781590794,-0.11298566456617991,-0.06770311638391358,0.052977291098349574,-0.06423063469530706,-0.03211889340601034,0.2560649802584857
1828,8.29647779998777,0.07117105676922299,0.0664871071424171,-0.056245851664014246,0.03682605545281539,0.020857994744557205,-0.07445078812547117,-0.11326857096857082,-0.06784616842181734,0.05412812857940174,-0.06160705437361537,-0.031618976037806654,0.25557335334819625
1829,8.302934899998945,0.07112302674562761,0.06641614799157408,-0.05633506541397035,0.03631589331667939,0.0205525041604987,-0.07420472618016748,-0.11353967257442979,-0.06798702667221794,0.05527670728283069,-0.058981184545207684,-0.031141106249695346,0.2550591154592172
1830,8.306731899996521,0.07106144730157414,0.0663651972504071,-0.056428959823776825,0.03580453873461456,0.020246386049901446,-0.07395350269003656,-0.1137989599419699,-0.06812579082765349,0.05642292562466591,-0.05635336000186873,-0.030685400974635957,0.25452230607853715
1831,8.310748699994292,0.07098117643025562,0.06632476260997651,-0.056525173176861586,0.03529204485589157,0.019939649579299893,-0.07369712847811102,-0.11404642512942056,-0.06826256108429575,0.05756668219722692,-0.05372391431594626,-0.030251970144721748,0.25396296613740466
1832,8.315350199991371,0.07098117643025562,0.06632476260997651,-0.056525173176861586,0.03477846486177115,0.01963230346225437,-0.07343561482280254,-0.11428206168937396,-0.06839743811011499,0.05870787577551702,-0.05109317979363182,-0.029840916645532244,0.2533811379952568
1833,8.318871899988153,0.07075540463083492,0.0662741998599064,-0.05665452232252602,0.034263851958816295,0.01932435595732702,-0.07316897345708906,-0.11450586466292603,-0.06853052301285126,0.05984640532355072,-0.048461487429017173,-0.029452336272378213,0.2527768654237992
1834,8.323308399994858,0.07075540463083492,0.0662741998599064,-0.05665452232252602,0.03374825937223144,0.01901581486620328,-0.07289721656767477,-0.11471783057361531,-0.06866191730780087,0.06098217000061581,-0.04582916685893015,-0.02908631768845355,0.2521501935912456
1835,8.326698699995177,0.07075540463083492,0.0662741998599064,-0.05665452232252602,0.033231740339229585,0.018706687531959587,-0.07262035679412335,-0.11491795742116276,-0.06879172288542733,0.062115069167470505,-0.043196546318553575,-0.02874294238490801,0.2515011690467251
1836,8.33196469998802,0.07055780378718929,0.06621984088489581,-0.05693203839576749,0.03271434810242812,0.018396980837478063,-0.07233840722796471,-0.11510624467501598,-0.06892004197880565,0.0632450023924767,-0.04056395259783055,-0.02842228464285404,0.2508298397048652
1837,8.337805999995908,0.07053665132539347,0.06612016898374522,-0.05780063867828523,0.032196135903274165,0.018086701204008925,-0.07205138141177553,-0.1152826932677016,-0.0690469771309094,0.06437186945767051,-0.037931710998658864,-0.028124411497320447,0.25013625483055957
1838,8.341950099988026,0.07052508437223229,0.0660993813384442,-0.05808077496767601,0.03167715697550017,0.017775854589881346,-0.07175929333823332,-0.11544730558798923,-0.06917263116174946,0.06549557036477097,-0.03530014529287717,-0.02784938270316496,0.24942046502392656
1839,8.346262399994885,0.07052185543914714,0.06604535801606526,-0.05843259594244832,0.03115746453861075,0.017464446489363412,-0.07146215744914404,-0.11560008547387081,-0.06929710713537367,0.06661600534112763,-0.03266957768104498,-0.0275972507029572,0.24868252220546708
1840,8.349664800000028,0.07052185543914714,0.06604535801606526,-0.05843259594244832,0.030637111791401397,0.01715248193167168,-0.07115998863444323,-0.11574103820535898,-0.06942050832673637,0.0677330748456085,-0.030040328752017946,-0.027368060596842953,0.2479224796014269
1841,8.35533169998962,0.07051458039001175,0.06594230205806954,-0.05875335154116382,0.030116151905509994,0.01683996548013084,-0.07085280223117066,-0.11587017049710725,-0.06954293818844652,0.06884667957442944,-0.027412717443319322,-0.027161850114400015,0.24714039172937055
1842,8.361370599988732,0.07051458039001175,0.06594230205806954,-0.05875335154116382,0.029594638019001956,0.016526901231484044,-0.07054061402241874,-0.11598749049085567,-0.06966450031740412,0.06995672046692618,-0.024787061002308413,-0.026978649588495378,0.2463363143839753
1843,8.36614389999886,0.07042837536564926,0.06587769998291326,-0.05939706356835539,0.02907262322998966,0.01621329281535435,-0.07022344023625446,-0.11609300774770583,-0.06978529842133394,0.07106309871126976,-0.02216367494814655,-0.02681848193115288,0.24551030462305434
1844,8.369604199993773,0.07042837536564926,0.06587769998291326,-0.05939706356835539,0.028550160590286835,0.015899143393857736,-0.06990129754461549,-0.11618673324022812,-0.06990543628522598,0.07216571575012605,-0.01954287303456043,-0.026681362611439795,0.24466242075381603
1845,8.373117999988608,0.07038499068660442,0.06588236617266455,-0.06003612153542835,0.028027303099098885,0.015584455661368072,-0.0695742030621809,-0.11626867934440588,-0.07002501773769154,0.07326447328626039,-0.016924967213402545,-0.026567299635380327,0.24379272231936483
1846,8.377177399990615,0.07029075532713394,0.06597942170037353,-0.060805748862833804,0.027504103696749854,0.015269231844434376,-0.06924217434521707,-0.11633885983141967,-0.0701441466172445,0.07435927328808829,-0.014310267599007909,-0.026476293527903306,0.24290127008545095
1847,8.383778299990809,0.07020915711104493,0.06593755076430717,-0.061579879658699085,0.026980615258446455,0.014953473701850552,-0.06890522939039964,-0.11639728985927522,-0.0702629267385171,0.07545001799517335,-0.01169908243334608,-0.026408337316830916,0.24198812602747696
1848,8.388898199991672,0.07012405961190069,0.06597105734806959,-0.0619403222725948,0.026456890588079728,0.014637182524877987,-0.06856338663361126,-0.11644398596427895,-0.0703814618584194,0.07653660992367313,-0.009091718051966997,-0.026363416518914645,0.2410533533177678
1849,8.392594799996004,0.0700216739147653,0.06598995924864536,-0.062312116648151575,0.025932982412064987,0.014320359137621258,-0.0682166649487156,-0.11647896605236484,-0.07049985564225167,0.07761895187173379,-0.006488478850738918,-0.026341509127924045,0.24009701631311076
1850,8.396595999991405,0.06990079779675368,0.06603320277907447,-0.06266669426995385,0.025408943373220808,0.014003003897557051,-0.06786508364630814,-0.11650224939027629,-0.07061821162977935,0.07869694692483463,-0.003889667253376391,-0.026342585604793307,0.23911918054257122
1851,8.400834000000032,0.06982835841105588,0.06602903795178437,-0.06308888222939843,0.024884826024687674,0.013685116696216398,-0.06750866247244362,-0.11651385659660571,-0.07073663320128012,0.07977049846108356,-0.0012955836797558075,-0.026366608869830117,0.23811991269559105
1852,8.404792399989674,0.06974233502780416,0.06604090076675326,-0.06343884356619128,0.02436068282388682,0.013366696960020309,-0.06714742160734039,-0.11651380963269616,-0.07085522354357252,0.08083951015646476,0.001293473484984248,-0.02641353429699073,0.23709928061037566
1853,8.409059499987052,0.06964816592426157,0.0660902151501906,-0.06377637086908687,0.023836566126519885,0.013047743651268855,-0.06678138166406129,-0.11650213179340801,-0.07097408561603555,0.08190388599004007,0.003877207920561012,-0.026483309710224466,0.23605735326257585
1854,8.414367399993353,0.06952964811633702,0.06612299320072136,-0.06407509202293576,0.023312528180610078,0.012728255269283681,-0.06641056368717177,-0.11647884769775434,-0.07109332211662873,0.08296353024910509,0.006455325400887354,-0.026575875381890383,0.2349942007542702
1855,8.4190368999989,0.06948179679286069,0.06611463622962978,-0.0644478328626573,0.022788621120585512,0.012408229851703914,-0.06603498915137482,-0.11644398327940811,-0.07121303544792151,0.08401834753430157,0.009027533822637166,-0.026691164033248206,0.23390989430325454
1856,8.42359249999572,0.06944734522795944,0.06612259456724892,-0.06478587063183705,0.022264896961405135,0.012087664975935358,-0.06565467996012274,-0.11639756577708506,-0.0713333276831411,0.0850682427646873,0.01159354323304039,-0.026829100837025114,0.23280450623264465
1857,8.427275999987614,0.06930722077340917,0.06613494819051975,-0.0651336663396386,0.021741407592727864,0.011766557760752895,-0.06526965844420594,-0.116339623724805,-0.07145430053224792,0.08611312118276514,0.01415306585691208,-0.02698960342205933,0.23167810996079635
1858,8.431488299989724,0.06924107755523085,0.06615320706662899,-0.06544907176212644,0.02121820477312538,0.011444904868055909,-0.0648799473603191,-0.11627018694203538,-0.07157605530804813,0.08715288835947216,0.016705816122920127,-0.027172581880020957,0.2305307799915483
1859,8.436237999994773,0.06918451842629825,0.06618116758346197,-0.06579305303582207,0.020695340124339007,0.011122702504776514,-0.06448556988960424,-0.11618928652372103,-0.07169869289235264,0.08818745019913067,0.01925151068909667,-0.02737793877421007,0.2293625919047935
1860,8.44021009998687,0.06911966807301824,0.06620656206268659,-0.0660815327931022,0.02017286512558118,0.010799946424940372,-0.06408654963617116,-0.11609695483020349,-0.07182231370219197,0.08921671294436227,0.021789868467598464,-0.02760556915043127,0.22817362234738436
1861,8.444270499996492,0.06907316509962602,0.06619795472907992,-0.0663724230220698,0.019650831107881978,0.010476631931879818,-0.0636829106255955,-0.11599322547703464,-0.07194701765609568,0.09024058318096669,0.024320610648721718,-0.027855360549943416,0.22696394902437664
1862,8.45190649999131,0.06901784355624671,0.0661352500288075,-0.06705576175718932,0.019129289248481333,0.010152753880598957,-0.06327467730339487,-0.11587813332468822,-0.07207290414044562,0.0912589678427667,0.02684346072417711,-0.028127193024482737,0.22573365069061718
1863,8.45564889999514,0.06901784355624671,0.0661352500288075,-0.06705576175718932,0.018608290565267256,0.009828306680290319,-0.06286187453348323,-0.11575171446817298,-0.07220007197591205,0.09227177421642087,0.029358144509630993,-0.028420939153357066,0.22448280714268087
1864,8.460699899995234,0.06893991065424503,0.06606887537461163,-0.06734827129241044,0.01808788591126057,0.009503284297002671,-0.06244452759660344,-0.11561400622655044,-0.07232861938398152,0.09327890994620545,0.031864390166519235,-0.028736464062608373,0.22321149921116062
1865,8.465000600001076,0.06902868596732258,0.06598420298204481,-0.06804481663399625,0.017568125969146545,0.009177680256459509,-0.062022662188737504,-0.11546504713236075,-0.07245864395358541,0.09428028303876676,0.03436192822314015,-0.029073625446240346,0.2219198087533145
1866,8.468943100000615,0.06907135238050037,0.06593271162397635,-0.06840495976450908,0.01704906124585393,0.008851487647027676,-0.06159630441949462,-0.11530487692095959,-0.07259024260783771,0.0952758018678453,0.03685049159503343,-0.02943227358950718,0.2206078186460734
1867,8.473131799997645,0.06908531122497079,0.06583720927505905,-0.06874583846011352,0.016530742067181747,0.008524699122835582,-0.061165480810476965,-0.1151335365197685,-0.07272351157089121,0.09626537517897332,0.039329815604651826,-0.0298122513942592,0.21927561277941449
1868,8.477312299990444,0.06914205209079793,0.06572436266697158,-0.06909968200473118,0.01601321857247416,0.008197306907040432,-0.06073021829362351,-0.11495106803744175,-0.07285854633492075,0.09724891209414725,0.041799638000332755,-0.030213394406340414,0.21792327605010314
1869,8.481350099988049,0.0691530751764506,0.06562974741854743,-0.06938256736602924,0.015496540709343783,0.007869302795243782,-0.06029054420953198,-0.11475751475295226,-0.07299544162724268,0.09822632211647679,0.04425969897457687,-0.030635530845032784,0.21655089435580796
1870,8.48836059999303,0.06911460380662746,0.06548548894697323,-0.06959776252574933,0.014980758228443691,0.0075406781590547055,-0.059846486305759346,-0.11455292110460054,-0.07313429137758004,0.09919751513481216,0.046709741181640896,-0.031078481634541147,0.21515855458959096
1871,8.492760699999053,0.06922357966939177,0.06532860038289856,-0.07017972910924535,0.01446592067828854,0.007211423949799844,-0.05939807273510088,-0.11433733267894933,-0.07327518868548205,0.10016240142835169,0.0491495097544524,-0.03154206043751212,0.21374634463477768
1872,8.497099999993225,0.06923425432073993,0.06522083905626669,-0.07046818655297571,0.013952077400125124,0.006881530702379582,-0.058945332053848186,-0.11411079619968743,-0.07341822578790624,0.10112089167123044,0.05157875232085431,-0.032026073690580116,0.21231435336021082
1873,8.500711799992132,0.06923425432073993,0.06522083905626669,-0.07046818655297571,0.013439277522852797,0.0065509885392695325,-0.0584882932200263,-0.11387335951642612,-0.07356349402697226,0.10207289693709147,0.053997219019187206,-0.032530320641932974,0.21086267061588962
1874,8.504780799994478,0.0691789384579719,0.06503409469469729,-0.07070577067680191,0.012927569957994042,0.006219787174666444,-0.058026985591609875,-0.11362507159343072,-0.07371108381789597,0.1030183287036412,0.05640466251321738,-0.03305459339088928,0.20939138722899697
1875,8.50879539999005,0.0691789384579719,0.06503409469469729,-0.07070577067680191,0.012417003394715463,0.00588791591877762,-0.057561438924718426,-0.11336598249829127,-0.07386108461711276,0.10395709885718991,0.05880083800641888,-0.03359867692947904,0.20790059500031563
1876,8.51426789999823,0.06924658493411842,0.06475315269624787,-0.07131203201830277,0.011907626294899398,0.005555363682252941,-0.05709168337179062,-0.11309614339053553,-0.07401358489059881,0.10488911969717948,0.06118550325561815,-0.03416234918601865,0.20639038670103474
1877,8.518090799989295,0.06947193752691826,0.06450652165866944,-0.07191641862138397,0.011399486888266424,0.005222118980758528,-0.05661774947973751,-0.11281560651018711,-0.07416867208239904,0.10581430394069967,0.0635584185840101,-0.03474538107067062,0.2048608560699484
1878,8.521931999988738,0.0695033646301849,0.06433214622786212,-0.07216849547656264,0.010892633167549022,0.004888169939691039,-0.05613966818807476,-0.11252442516627147,-0.0743264325833699,0.10673256472699523,0.0659193468935546,-0.03534753652297839,0.20331209781104675
1879,8.526215999998385,0.06953919216399769,0.06414381602081608,-0.07242725001844402,0.01038711288371665,0.004553504299031556,-0.05565747082703401,-0.11222265372527199,-0.07448695170014577,0.10764381562196526,0.06826805367676249,-0.03596857256136583,0.2017442075915005
1880,8.529731499991613,0.06963454123707694,0.06396603403275729,-0.07265991709884215,0.009882973541252464,0.004218109418338016,-0.055171189115653094,-0.11191034759953863,-0.07465031362433734,0.10854797062265603,0.07060430702788022,-0.0366082393345907,0.20015728204003796
1881,8.534030800001347,0.06974146191847252,0.06375316312418454,-0.07294687805218292,0.009380262393481819,0.0038819722818750476,-0.05468085515984522,-0.11158756323565178,-0.07481660140197048,0.10944494416174952,0.07292787765348223,-0.03726628017514063,0.19855141874571666
1882,8.537992499987013,0.06979925861999581,0.06356135238791802,-0.0732035934506998,0.008879026437952757,0.003545079503880054,-0.05418650145044708,-0.11125435810274346,-0.07498589690317393,0.11033465111204932,0.07523853888248037,-0.03794243165455969,0.1969267162570892
1883,8.541339199990034,0.06979925861999581,0.06356135238791802,-0.0732035934506998,0.008379312411868711,0.003207417333964354,-0.053688160861245636,-0.11091079068077922,-0.07515828079212404,0.11121700679096562,0.07753606667555964,-0.03863642364069356,0.19528327408176513
1884,8.546081799999229,0.06977044871809032,0.06332437495593737,-0.0734240396120566,0.007881166787573578,0.002868971662648116,-0.053185866646983576,-0.11055692044880272,-0.07533383249725484,0.11209192696500088,0.07982023963404981,-0.03934797935684069,0.19362119268636896
1885,8.550778799995896,0.06996657941929878,0.06301343113298355,-0.07388737640261808,0.007384635768089328,0.0025297280270278086,-0.05267965244134324,-0.11019280787314537,-0.07551263018174238,0.11295932785423801,0.08209083900824285,-0.04007681544279665,0.1919405734968957
1886,8.554303199998685,0.06996657941929878,0.06301343113298355,-0.07388737640261808,0.006889765282706319,0.0021896716165748574,-0.05216955225490903,-0.10981851439560303,-0.07569475071427183,0.11381912613683247,0.08434764870516556,-0.04082264201777837,0.19024151889946395
1887,8.558566299994709,0.06993274906352763,0.06277545043008334,-0.07404327436258043,0.006396600982626446,0.0018487872790641606,-0.05165560047310806,-0.10943410242158211,-0.07588026964009563,0.1146712389535097,0.08659045529581698,-0.04158516274521462,0.18852413224146622
1888,8.565172999995411,0.07021751882035963,0.06245595512153711,-0.07455719354708115,0.005905188236659262,0.0015070595266310786,-0.05113783185412894,-0.10903963530821702,-0.07606926115239127,0.11551558391207041,0.08881904802187975,-0.04236407489938832,0.1867885178331156
1889,8.56894199999806,0.07032568631339886,0.0622889164770593,-0.07478087357947522,0.005415572126971194,0.0011644725419554893,-0.050616281526818775,-0.1086351773524612,-0.07626179806392631,0.11635207909190444,0.09103321880191534,-0.043159069433915974,0.18503478094938772
1890,8.573074499989161,0.07042606760710715,0.06213373007164908,-0.07498621357531063,0.00492779744488796,0.000821010184571446,-0.050090984988558324,-0.10822079377915407,-0.07645795177903893,0.11718064304851439,0.09323276223705328,-0.04396983105204908,0.18326302783235726
1891,8.577379599999404,0.07052908148632137,0.06196990707738663,-0.07514405421890319,0.004441908686750259,0.00047665599730095036,-0.04956197810311549,-0.10779655072906681,-0.07665779226594134,0.11800119481805055,0.09541747561618424,-0.04479603827878186,0.18147336569392783
1892,8.58143310000014,0.07052908148632137,0.06196990707738663,-0.07514405421890319,0.003957950049822865,0.00013139321281031507,-0.04902929709847682,-0.10736251524692877,-0.07686138802935445,0.11881365392185894,0.0975871589206669,-0.045637363534749294,0.17966590271895272
1893,8.585682199991425,0.07053852466221466,0.06173344873902626,-0.07531320453464768,0.0034759654282571968,-0.00021479523971244157,-0.0484929785646569,-0.10691875526943609,-0.07706880608348132,0.11961794037104395,0.09974161482855802,-0.04649347321189903,0.17784074806874411
1894,8.58982670000114,0.07085411343016838,0.061421774762667525,-0.07572813419077909,0.002995998409107451,-0.0005619267277607578,-0.04795305945148541,-0.10646533961324448,-0.07728011192532691,0.12041397467104653,0.10188064871837557,-0.047364027750920225,0.1759980118849685
1895,8.594268099986948,0.07094894837883775,0.061214638279374796,-0.0758961604459787,0.0025180922684003384,-0.0009100189085948741,-0.04740957706637214,-0.10600233796294846,-0.07749536950837203,0.12120167782623997,0.1040040686724045,-0.04824868172041235,0.17413780529392603
1896,8.60014979999687,0.07111929745417807,0.06083030907458036,-0.07619775186944962,0.002042289967258489,-0.001259089722211021,-0.046862569072049616,-0.10552982085904884,-0.07771464121660873,0.12198097134454412,0.10611168547955521,-0.049147083897776236,0.1722602404112117
1897,8.604643699989538,0.07111929745417807,0.06083030907458036,-0.07619775186944962,0.001568634148077571,-0.0016091573841961397,-0.0463120734842936,-0.10504785968591024,-0.07793798783894475,0.12275177724205995,0.10820331263778436,-0.05005887735180967,0.1703654303467549
1898,8.60884359999909,0.07110164258141359,0.06058677453391728,-0.0762701081399775,0.0010971671307571736,-0.0019602403784698586,-0.045758128669621444,-0.10455652665971035,-0.0781654685439843,0.12351401804772547,0.11027876635608753,-0.0509836995269895,0.1684534892102347
1899,8.61289809999289,0.07129655198764898,0.06032099345506793,-0.0765177987761456,0.000627930908985507,-0.002312357449915473,-0.04520077334296823,-0.1040558948163824,-0.07839714085519225,0.1242676168079938,0.11233786555607389,-0.05192118232942158,0.16652453211686838
1900,8.617204299996956,0.07136072430531035,0.060176622995770306,-0.07663580270666419,0.00016096714657794613,-0.002665527596901724,-0.044640046565340395,-0.10354603799955213,-0.07863306062644881,0.12501249709153434,0.1143804318731318,-0.05287095221443942,0.16457867519356748
1901,8.621434899992892,0.07145990553722253,0.059983794118466126,-0.07676392448077561,-0.0003036828261305547,-0.0030197700636971974,-0.04407598774144682,-0.10302703084847055,-0.0788732820180019,0.1257485829939582,0.11640628965719518,-0.0538326302758322,0.16261603558545745
1902,8.62750399998913,0.0715409520523983,0.05980472228408278,-0.07688401369785308,-0.0007659780158391589,-0.0033751043327791986,-0.04350863661730704,-0.10249894878594355,-0.07911785747282457,0.12647579914256965,0.11841526597311987,-0.054805832336682445,0.16063673146275595
1903,8.633574199993745,0.07165690609858824,0.05954012124498342,-0.0770448022424057,-0.0012258777697809495,-0.0037315501170389815,-0.04293803327783647,-0.10196186800626011,-0.07936683769338466,0.12719407070114502,0.12040719060067893,-0.055790169041793757,0.15864088202800536
1904,8.637285999997403,0.07165690609858824,0.05954012124498342,-0.0770448022424057,-0.0016833417791688335,-0.004089127351885265,-0.042364218144408626,-0.10141586546312055,-0.07962027161883353,0.12790332337474108,0.12238189603418671,-0.05678524595168827,0.15662860752365454
1905,8.640867099995376,0.07165690609858824,0.05954012124498342,-0.0770448022424057,-0.002138330082587558,-0.004447856187247969,-0.04178723197239454,-0.10086101885756657,-0.07987820640262044,0.1286034834145345,0.12433921748176087,-0.05779066363815331,0.154600029239985
1906,8.646682699996745,0.0718023942882271,0.05912670118296417,-0.07731482854747282,-0.0025908030693318524,-0.0048077569794841265,-0.04120711584867908,-0.10029740662591449,-0.08014068739053898,0.12929447762269325,0.12627899286423172,-0.058806017781315965,0.15255526952337545
1907,8.650586699994165,0.07187467531702821,0.05902279513650594,-0.07739626371657686,-0.003040721482690719,-0.005168850283187994,-0.040623911189154045,-0.09972510792769326,-0.0804077580992122,0.12997623335728184,0.12820106281370822,-0.05983089926822433,0.15049445178489898
1908,8.654255599991302,0.07187467531702821,0.05902279513650594,-0.07739626371657686,-0.0034880464231778854,-0.005531156842907356,-0.04003765973618796,-0.0991442026335885,-0.08067946019502323,0.13064867853720286,0.13010527067181002,-0.060864894292913585,0.14841770050924685
1909,8.658641199988779,0.07181631119976703,0.0588657773983755,-0.07742763879654395,-0.003932739351708449,-0.0058946975847680785,-0.03944840355607248,-0.09855477131339359,-0.08095583347349741,0.1313117416471765,0.13199146248757454,-0.0619075844579352,0.1463251412639726
1910,8.663094599993201,0.07196935107082265,0.05875532937768533,-0.07759916065710447,-0.004374762092721735,-0.006259493608008963,-0.03885618503644528,-0.097956895223969,-0.0812369158391428,0.1319653517427603,0.13385948701504877,-0.06295854687732709,0.14421690070904924
1911,8.667200299998512,0.07202201735537848,0.0586690164396555,-0.07767746234597267,-0.004814076837250397,-0.006625566176428981,-0.03826104688368914,-0.09735065629721067,-0.08152274328575518,0.13260943845541076,0.13570919571057546,-0.06401735428100208,0.14209310660673274
1912,8.671939199994085,0.07203988000955391,0.05859275508975807,-0.07775881300174003,-0.005250646145935819,-0.006992936709749024,-0.037663032120307055,-0.09673613712802873,-0.0818133498771941,0.13324393199758766,0.13754044272978258,-0.06508357512053203,0.13995388783172533
