,time,x,y,z,vx,vy,vz,ax,ay,az,jx,jy,jz
2013,9.652427699998952,0.05023296966597776,-0.04543343256220491,-0.0314282754128571,0.0009276621310223055,-0.008573345275389511,0.015978102864512195,0.07727358174327474,0.06202239283627621,-0.006687590099089805,0.24330820908863848,0.06196390826850618,-0.22313224698610382
2014,9.658994199999142,0.05005714322638032,-0.04556844657311261,-0.03145392135419034,0.0013016605516312698,-0.008274702819787304,0.01594341277585542,0.07844187735036705,0.06231888802803992,-0.007763999113243645,0.2430784019357686,0.06151442432533321,-0.22497279155743793
2015,9.665240799993626,0.04973262505782457,-0.04583995790581698,-0.03147376912651867,0.0016812684687386099,-0.007974641684338837,0.01590352984772926,0.07960896787178638,0.06261321891602399,-0.008849204920365845,0.24280646434913725,0.061062113945029056,-0.2267959127208729
2016,9.673966400005156,0.049402893586881325,-0.04608920884050143,-0.031543967204077684,0.0020664796107560408,-0.007673172287619354,0.015858412030728748,0.08077465073832428,0.06290537205691685,-0.009943122872391547,0.24249230088837576,0.06060699061739434,-0.2286012513269484
2017,9.677355099993292,0.049402893586881325,-0.04608920884050143,-0.031543967204077684,0.0024572867321002796,-0.007370305112110214,0.015808017687086853,0.08193872294189647,0.06319533407193219,-0.011045666600417703,0.24213582374113737,0.060149068326408255,-0.230388448512453
2018,9.681259100005263,0.049211050511920325,-0.04621819082188058,-0.03157159991817146,0.00285368161116734,-0.007066050703893499,0.0157523055989365,0.08310098107223902,0.06348309164909005,-0.01215674801631815,0.24173695276925622,0.05968836155691928,-0.2321571457581207
2019,9.685749600001143,0.04886019401358276,-0.04648372060486401,-0.03164912232379218,0.003255655048483528,-0.006760419672336233,0.015691234976562815,0.08426122135381983,0.0637686315455304,-0.01327627731463296,0.24129561555351034,0.05922488530101716,-0.23390698494687034
2020,9.689690700004576,0.0486899283106891,-0.04659560388190566,-0.03171450501636965,0.0036631968650341906,-0.0064534226897640145,0.015624765466644411,0.08541923968295878,0.06405194058985784,-0.014404162974734595,0.24081174743696862,0.058758655064079596,-0.2356376084225819
2021,9.694319899994298,0.048549345779486906,-0.0466901622137012,-0.0317956601806435,0.004076295900771234,-0.006145070491123887,0.015552857160482384,0.08657483166515004,0.06433300568451569,-0.015540311763273366,0.24028529156690093,0.05828968687048758,-0.23734865904940272
2022,9.698387399999774,0.04841490969490588,-0.04677352888070655,-0.03188500042938625,0.004494940013300399,-0.005835373873636281,0.01547547060221567,0.08772779265257992,0.06461181380818799,-0.01668462873690457,0.2397161989352317,0.05781799726900352,-0.23903978027157785
2023,9.702435900006094,0.04828354519541397,-0.04686976102925254,-0.031981586881624356,0.004919116076749254,-0.005524343696435864,0.015392566797021466,0.08887791778183385,0.06488835201822818,-0.017837017245299704,0.2391044284175173,0.057343603337805964,-0.2407106161737981
2024,9.706549299997278,0.048132479869030215,-0.046972232627382926,-0.032072366183558,0.005348809980816847,-0.0052119908802011885,0.015304107219299316,0.09002500201178554,0.06516260745311313,-0.018997378934444125,0.2384499468104272,0.056866522689174984,-0.24236081154205946
2025,9.71037119999528,0.047988096654430615,-0.047080357039087806,-0.03215359884791558,0.005784006630005917,-0.00489832640677299,0.015210053820837411,0.09116884016166148,0.06543456733492084,-0.020165613750223414,0.23775272886770832,0.05638677347382218,-0.243990011925027
2026,9.714828299998771,0.04784008760689334,-0.04718510580581072,-0.032242598212958176,0.006224689943038515,-0.004583361318761011,0.01511036903895976,0.09230922694927357,0.06570421897183056,-0.02134161994230081,0.23701275733461413,0.05590437438485973,-0.24559786369589573
2027,9.718759299998055,0.04767100508248639,-0.04735943864037746,-0.03232656098915921,0.006670842852455862,-0.004267106719139196,0.015005015804652858,0.09344595702941239,0.06597154976064395,-0.022525294068288095,0.23623002298077836,0.05541934466140292,-0.24718401411474086
2028,9.723963900003582,0.04750055841224218,-0.047483202017730826,-0.03244128704319607,0.007122447304403205,-0.003949573770829168,0.014893957550670536,0.09457882503239358,0.06623654718932558,-0.023716530998212287,0.23540452463151426,0.05493170409180106,-0.24874811139134853
2029,9.73181100000511,0.047199438445978584,-0.04765335918279613,-0.032663730404432254,0.00757948425860043,-0.003630773696271878,0.01477715821961553,0.09570762560274997,0.06649919883956043,-0.02491522391928031,0.23453626919752138,0.05444147301649153,-0.25028980474851903
2030,9.737677099998107,0.04704524388583905,-0.04774819713213548,-0.032790185914672254,0.008041933688499123,-0.0033107177769873385,0.014654582271996404,0.09683215343806169,0.0667594923893269,-0.026121264340943834,0.23362527170298028,0.05394867233047222,-0.2518087444858339
2031,9.742489600001136,0.04690577979410905,-0.04783616691682375,-0.03293454406716105,0.008509774581626744,-0.0029894173531223637,0.014526194694258313,0.09795220332791664,0.0670174156154828,-0.027334542100266396,0.23267155531201533,0.053453323485387276,-0.25330458204387724
2032,9.747937000007369,0.04660767061531578,-0.04800590913003373,-0.03329095508508336,0.008982984940118508,-0.0026668838229862244,0.014391961006786178,0.09906757019299298,0.0672729563963632,-0.028554945367594817,0.23167515135350786,0.052955448491221635,-0.2547769700689027
2033,9.752061399995,0.04651217837036461,-0.04804799963718736,-0.03349245973672573,0.009461541781437547,-0.002343128642574148,0.01425184727187882,0.10017804912425583,0.0675261027143876,-0.029782360652537015,0.23063609934424323,0.0524550699175998,-0.2562255624779377
2034,9.7562678999966,0.04642813405716168,-0.048102862590440866,-0.033630797446957045,0.00994542113928393,-0.002018163325078603,0.014105820101692585,0.10128343542226026,0.06777684265867484,-0.03101667281024819,0.22955444701037492,0.05195221089468439,-0.2576500145243141
2035,9.760339400003431,0.04629657344270955,-0.04816667322336293,-0.03375374860262069,0.010434598064692999,-0.0016919994403883122,0.01395384666615288,0.10238352463655193,0.06802516442766364,-0.03225776504802739,0.22843025030718864,0.051446895113670406,-0.2590499828636155
2036,9.764757900004042,0.046161729958664265,-0.0483092252890854,-0.03394045604719289,0.010929046627323477,-0.0013646486145749495,0.01379589470083205,0.10347811260515749,0.06827105633173683,-0.03350551893222631,0.22726357343714934,0.05093914682687129,-0.26042512562003073
2037,9.770559600001434,0.046055339496388924,-0.048383133021861646,-0.03408185480930013,0.011428739916935712,-0.0010361225293674828,0.013631932514792042,0.10456699549415611,0.06851450679584771,-0.034759814395472266,0.22605448886621446,0.05042899084739278,-0.2617751024530999
2038,9.775808399994276,0.04594615975609762,-0.04843397936202205,-0.03424227564999635,0.011933650045060473,-0.0007064329216141375,0.013461928998390393,0.1056499698373238,0.06875550436214667,-0.03602052974420711,0.22480307733839858,0.049916452548391,-0.26309957462484385
2039,9.78115290000278,0.04571312257326658,-0.04854758660786188,-0.034503209430755535,0.012443748146858617,-0.00037559158273196873,0.01328585363104804,0.10672683257584203,0.06899403769260573,-0.03728754166654391,0.22350942788857492,0.049401557861911305,-0.26439820506726497
2040,9.785432599994238,0.04558498655790935,-0.048622931546397005,-0.034626481828859544,0.0129590043831719,-4.361035814403089e-05,0.013103676488977539,0.10779738109806265,0.06923009557163924,-0.038560725240443273,0.22217363785349753,0.048884333277304674,-0.265670658450205
2041,9.789878299998236,0.045443174540402684,-0.04870067093370132,-0.03474256751283373,0.013479387942765207,0.00028949885329585077,0.012915368252870181,0.10886141327932103,0.06946366690871864,-0.03983995394221101,0.2207958128810288,0.04836480583921835,-0.26691660124954836
2042,9.794465400002082,0.04530163420141348,-0.04878044073181773,-0.03485076456307081,0.014004867044760425,0.0006237240998906999,0.012720900215540521,0.10991872752178936,0.06969474074097957,-0.041125099655318915,0.21937606693755737,0.047843003145157964,-0.26813570181575935
2043,9.800707699992929,0.045166286767459374,-0.04885365395944877,-0.03496211876470679,0.014535408941262163,0.00095905337770038,0.012520244289526744,0.11096912279436157,0.06992330623581929,-0.042416032679550325,0.21791452231359132,0.04731895334261833,-0.26932763044274016
2044,9.80592759999854,0.04491462695350733,-0.04899277388466413,-0.035189944706165974,0.01507097992017537,0.0012954746311539273,0.012313373014645336,0.11201239867256142,0.07014935269348188,-0.04371262174047191,0.21641130962751456,0.04679268512578055,-0.2704920594369971
2045,9.810266900007264,0.044769902695992514,-0.04907918009415136,-0.035301563535406456,0.015611545308214944,0.0016329757536741824,0.0121002595654985,0.11304835537846515,0.07037286954963,-0.04501473399923325,0.21486656782749186,0.04626422773177323,-0.27162866318710127
2046,9.81459100000211,0.0446422197370569,-0.04917104246662254,-0.03539804315583638,0.0161570694741074,0.0019715445883146747,0.01188087775893279,0.11407679382062987,0.0705938463779009,-0.04632223506269557,0.21328044419150968,0.04573361093649588,-0.27273711823342933
2047,9.818890700000338,0.044505467242750826,-0.04925787906503516,-0.0354936503767461,0.016707515831984536,0.0023111689284087047,0.011655202061447387,0.11509751563401852,0.07081227289244485,-0.04763498899389117,0.21165309432553836,0.04520086505000276,-0.2738171033381714
2048,9.822960300007251,0.04437540496906107,-0.04932582689857378,-0.03558480915938436,0.0172628468449691,0.0026518365182305547,0.011423207596550472,0.11611032321991292,0.07102813895044378,-0.048952858322814846,0.2099846821598035,0.04466602091144548,-0.2748682995555903
2049,9.831099100003485,0.0441497179633656,-0.049446173180986285,-0.03577629345322266,0.017823024028952285,0.002993535053668754,0.011184870152062086,0.11711501978580569,0.07124143455460809,-0.05027570405754846,0.20827537994315476,0.04412910988357306,-0.27589039030251816
2050,9.835259400002542,0.044038108527376406,-0.04948273747973356,-0.035894623180648906,0.018388007956562778,0.0033362521829113125,0.010940166187361895,0.11811140938526207,0.07145214985564885,-0.05160338569572022,0.20652536823552065,0.0435901638467882,-0.27688306142907415
2051,9.840042299998458,0.04392988756294628,-0.0495397335258192,-0.036008233534338636,0.018957758261327017,0.003679975507142808,0.010689072840580273,0.11909929695774268,0.07166027515472387,-0.052935761236299575,0.20473483589843852,0.043049215192759165,-0.27784600128958775
2052,9.84418509999523,0.04382790764668177,-0.04961766206417065,-0.03610295307063022,0.019532233642020336,0.0040246925812532286,0.010431567935731212,0.12007848836837758,0.07186580090585605,-0.05427268719172875,0.20290398008364838,0.042506296817586546,-0.27877890081371004
2053,9.848030199995264,0.043726913155780756,-0.04968197358897415,-0.0361843301495582,0.0201113918672088,0.004370390914558431,0.010167629989785477,0.1210487904476831,0.07206871771832217,-0.055614018600391474,0.20103300621974127,0.04196144211452448,-0.27968145357769547
2054,9.853589100006502,0.043616508872819246,-0.049732243071692425,-0.036289211161535606,0.020695189779981426,0.004717057971532082,0.009897238219682384,0.1220100110312128,0.07226901635901035,-0.056959609039419976,0.19912212799685233,0.04141468496625613,-0.2805533558758367
2055,9.85916819999693,0.0435168171506118,-0.049808475653673606,-0.036404614665830476,0.02128358330287249,0.005064681172548923,0.009620372549278618,0.12296195899913305,0.07246668775474396,-0.05830931063784106,0.19717156734938976,0.04086605973672371,-0.28139430679203514
2056,9.864393700001528,0.043337109058960634,-0.0499600472173848,-0.03661616231079695,0.02187652744297366,0.005413247894639204,0.0093370136162325,0.12390444431571403,0.0726617229945696,-0.059662974090062236,0.19518155443679014,0.04031560126251342,-0.28220400827148934
2057,9.870966000002229,0.04323747635352571,-0.05002676787687468,-0.03671060567955838,0.022473976297235583,0.005762745472254107,0.009047142778822147,0.12483727806872665,0.07285411333200703,-0.061020448669698184,0.19315232762229154,0.039763344843795824,-0.2829821651924831
2058,9.875090999994429,0.043146160226572056,-0.050095407393584444,-0.03680953607054614,0.02307588305795837,0.006113161198041952,0.008750742122695901,0.12576027250873603,0.07304385018725883,-0.062381582243738215,0.19108413344971667,0.039209326234822706,-0.2837284854382572
2059,9.88137529999949,0.04299586165549722,-0.05024903290152146,-0.03700506765810854,0.023682200018470465,0.006464482323635031,0.008447794467553456,0.1266732410882816,0.07323092514937764,-0.0637462212870552,0.188977226618259,0.03865358163398143,-0.2844426799689445
2060,9.885328799995476,0.04290619055192141,-0.05032464256879812,-0.03708101697032924,0.02429287857899536,0.006816696060446842,0.008138283373756043,0.12757599850093335,0.07341532997838889,-0.06511421089725643,0.18683186995526374,0.038096147673408444,-0.28512446289355053
2061,9.889570700004697,0.04282432630142526,-0.0504017898420793,-0.0371638571917591,0.024907869252705526,0.007169789580479526,0.007822193148864119,0.12846836072021434,0.07359705660736711,-0.06648539480987663,0.1846483343869975,0.037537061408163756,-0.2857735515419573
2062,9.893751700001305,0.04276489969902907,-0.050482806969605235,-0.03722470469423144,0.025527121671962992,0.007523750017141277,0.007499508854100948,0.12935014503838008,0.07377609714446387,-0.0678596154139133,0.18242689890740102,0.036976360304968404,-0.2863896665369325
2063,9.900151499998174,0.04269637817067845,-0.050553431176006684,-0.03732143715164913,0.026150584594745743,0.007878564466073514,0.007170216310740518,0.13022117010504464,0.073952443874885,-0.06923671376770449,0.1801678505448208,0.03641408223050723,-0.28697253186612254
2064,9.90386629999557,0.04262724253429462,-0.05062834706025014,-0.03739431928568216,0.026778205911259293,0.0082342199859876,0.006834302106418262,0.13108125596564313,0.07412608926281539,-0.07061652961514894,0.17787148432671504,0.035850265439299395,-0.2875218749540124
2065,9.908147399997688,0.042554582755946105,-0.05069265045679036,-0.037473798175947114,0.027409932650732577,0.008590703599510849,0.0064917536013630334,0.13193022409972074,0.07429702595328916,-0.07199890140226882,0.17553810324233077,0.03528494856113916,-0.2880374267338315
2066,9.912056999994093,0.042554582755946105,-0.05069265045679036,-0.037473798175947114,0.02804571098839736,0.008948002294041628,0.006142558934548755,0.1327678974590389,0.07446524677400312,-0.07338366629411452,0.17316801820334898,0.034718170588110046,-0.288518921719387
2067,9.917250600003172,0.04246506875128722,-0.05080978178888043,-0.0375942012016911,0.02868548625265026,0.009306103022613268,0.005786707029764179,0.13359410050548812,0.07463074473707135,-0.07477066019201135,0.17076154800249596,0.034149970861175494,-0.288966098076804
2068,9.923251700005494,0.04236646925312158,-0.05089713261707691,-0.03771358344755862,0.029329202932396593,0.009664992704766508,0.0054241876015991616,0.13440865924879775,0.0747935130407189,-0.07615971775114742,0.16831901927011847,0.033580389056349746,-0.2893786976961535
2069,9.927081200003158,0.04232600909374311,-0.05095710505303731,-0.03777053552979836,0.02997680468457505,0.010024658227430153,0.00505499116134583,0.13521140128403308,0.07495354507091276,-0.07755067239850262,0.16584076642872192,0.03300946517045276,-0.2897564662629463
2070,9.93239970000286,0.042276574388961236,-0.051013549093054424,-0.03781277058497391,0.030628234341862175,0.010385086445809731,0.0046791090228130916,0.13600215582887012,0.07511083440292782,-0.07894335635111831,0.1633271316454712,0.0324372395064532,-0.2900991533294717
2071,9.936633100005563,0.042217283592994946,-0.051072258921385505,-0.03785842698562782,0.03128343392055535,0.010746264184283792,0.00429653330805291,0.13678075376063806,0.07526537480284652,-0.08033760063470766,0.16077846478265367,0.03186375265840386,-0.29040651238595666
2072,9.940262000003711,0.04219445366631981,-0.051117525575426946,-0.03790935823933463,0.03194234462863332,0.01110817823730756,0.003907256952996796,0.13754702765312038,0.07541716022898963,-0.08173323510260573,0.1581951233461045,0.03128904549597373,-0.2906783009315251
2073,9.944574699999066,0.042177904887994416,-0.05115897848196162,-0.03796629640143658,0.032604906873993124,0.011470815370323628,0.003511273713000924,0.13830081181310494,0.07556618483327616,-0.08313008845505854,0.1555774724315961,0.03071315914858131,-0.2909142805449332
2074,9.94825950000086,0.04217875417714098,-0.05118623356596982,-0.03803272553808262,0.03327106027286188,0.01183416232067934,0.0031085781682983764,0.1390419423166739,0.07571244296251022,-0.08452798825884983,0.1529258846691938,0.030136134989134204,-0.2911142169550581
2075,9.952667200006545,0.04215930908918997,-0.051201896980538175,-0.038068383863804484,0.03394074365838251,0.012198205798550509,0.0026991657293569363,0.139770257045224,0.0758559291595926,-0.08592676096726448,0.15024074016557953,0.02955801461738014,-0.29127788011111777
2076,9.956607700005408,0.04214537498150533,-0.051210646842217225,-0.03810054388495424,0.03461389508937203,0.012562932487871065,0.0022830326421409107,0.1404855957212071,0.07599663816465571,-0.08732623194038719,0.14752242644434693,0.02897883984287488,-0.2914050442525987
2077,9.961209300003247,0.04213071792806414,-0.051208423862219535,-0.03814207127076683,0.03529045185925114,0.012928329047268294,0.0018601759932754414,0.14118779994358172,0.0761345649161192,-0.08872622546573507,0.14477133838427114,0.028398652667572785,-0.2914954879788703
2078,9.965179399994668,0.04214203598369435,-0.051207059437457667,-0.03818606988647882,0.0359703505051437,0.013294382111003306,0.0014305937151117669,0.14187671322296525,0.07626970455166461,-0.09012656477922273,0.14198787815555683,0.02781749526804603,-0.2915489943184619
2079,9.969088099998771,0.042139172911346695,-0.05119092451340859,-0.03822367643098861,0.03665352681714457,0.013661078289916376,0.0009942845906919114,0.14255218101647865,0.07640205240912727,-0.0915270720864582,0.1391724551540699,0.027235409977338802,-0.2915653507979815
2080,9.973028699998396,0.04216120564100946,-0.051161850105102005,-0.038255252241330424,0.0373399158477545,0.014028404172376751,0.0005512482586112864,0.14321405076227278,0.07653160402730319,-0.0929275685843678,0.13632548593355784,0.026652439266463112,-0.29154434951065356
2081,9.977551899995888,0.04220294977636826,-0.051131000026055785,-0.03830168367767402,0.038029451921480405,0.014396346325236535,0.00010148521777769157,0.14386217191372624,0.07665835514666909,-0.09432787448314849,0.13344739413586493,0.026068625725543023,-0.2914857871844495
2082,9.981583600005251,0.0422378699436123,-0.05110137068742239,-0.03833116226851103,0.03872206864459933,0.014764891294788215,-0.0003550031679347892,0.1444963959733049,0.07678230171001348,-0.09572780902854558,0.13053861041914916,0.025484012044614462,-0.2913894652497873
2083,9.985815499996534,0.04229580536426752,-0.05107889722081102,-0.03834720488484225,0.039417698915084357,0.01513402560772553,-0.0008182146651384875,0.14511657652607302,0.0769034398629771,-0.0971271905244538,0.1275995723841092,0.024898640994087916,-0.2912551899067734
2084,9.991499499999918,0.042339096574949574,-0.05105707114446181,-0.03839307499627938,0.04011627493269061,0.015503735772107308,-0.001288146166492929,0.1457225692728463,0.07702176595450097,-0.09852583635583939,0.12463072449823016,0.024312555404881617,-0.2910827721919652
2085,9.995452000002842,0.042378030307578717,-0.0510552028968252,-0.03842780604877598,0.04081772820919964,0.015874008278323973,-0.0017647936863751624,0.14631423206297783,0.07713727653718032,-0.09992356301198052,0.12163251801805744,0.023725798148232988,-0.2908720280446298
2086,9.99996220000321,0.04244459171520516,-0.05105798385453823,-0.03843535904665784,0.04152198957882029,0.016244829600066304,-0.002248152356661105,0.14689142492676724,0.0772499683675229,-0.10132018611002352,0.11860541090950781,0.023138412115196343,-0.2906227783724748
2087,10.004409200002556,0.04249596560316016,-0.05103273852318121,-0.03845258451613708,0.042228989208744204,0.016616186195296034,-0.002738216422619357,0.1474540101074845,0.07735983840611023,-0.10271552041885218,0.11554986776622782,0.022550440195835214,-0.29033484911682617
2088,10.010674799996195,0.04263029684074429,-0.050949949418739794,-0.03843648126333145,0.04293865660985391,0.01698806450721786,-0.0032349792389189435,0.148001852092999,0.07746688381766006,-0.10410937988326746,0.11246635972601024,0.02196192525811794,-0.2900080713172284
2089,10.015335699994466,0.04270303750648104,-0.05089339884295527,-0.03843664811383993,0.043650920647581956,0.017360450965252346,-0.0037384332657524094,0.14853481764700513,0.07757110197098892,-0.10550157764847465,0.10935536438528037,0.021372910126525223,-0.2896422811754426
2090,10.020679199995357,0.0427687371526234,-0.05082099299344196,-0.038412297507301095,0.044365709552919214,0.017733331986009262,-0.004248570065075707,0.14905277583983365,0.07767249043887342,-0.10689192608487517,0.10621736571166532,0.020783437560378492,-0.28923732011881753
2091,10.025118000005024,0.042837554926723136,-0.05074817293721649,-0.03839643240338353,0.04508295093357041,0.018106693974260717,-0.004765380296966298,0.1495555980788403,0.07777104699780919,-0.10828023681316058,0.10305285395465938,0.020193550231898404,-0.2887930348630079
2092,10.031137500001932,0.04299810127115672,-0.05061505125176494,-0.038392281299574504,0.04580257178525482,0.018480523323913756,-0.005288853716100861,0.1500431581383634,0.07786676962766595,-0.10966632072970577,0.0998623255543997,0.01960329070400296,-0.2883092774740154
2093,10.035730500007048,0.04310067063505291,-0.05054380906189399,-0.038364312591636494,0.04652449850314993,0.018854806418981827,-0.005818979168353985,0.1505153321892406,0.07795965651123753,-0.11104998803225803,0.09664628304856637,0.019012701407854906,-0.28778590542952676
2094,10.040122699996571,0.043195828474486865,-0.050475033477816296,-0.03834827094529209,0.04724865689347606,0.01922952963455462,-0.006355744587519213,0.1509719988278759,0.07804970603368588,-0.11243104824591899,0.09340523497742201,0.018421824620168302,-0.287222781679521
2095,10.043777099999716,0.043277632266709054,-0.050423654966492024,-0.03832402332212782,0.04797497218521966,0.019604679337765853,-0.006899136992153802,0.1514130391048486,0.0781369167818778,-0.1138093102494157,0.09013969578700624,0.017830702440284275,-0.28661977470612227
2096,10.048527699997068,0.043385738690466844,-0.05037173086283498,-0.03828912071830155,0.04870336904199294,0.019980241888758608,-0.007449142482548566,0.15183833655305468,0.07822128754361275,-0.11518458230165728,0.08685018573050216,0.01723937676702633,-0.28597675858267435
2097,10.052481199993052,0.043506724654745796,-0.0503289413827183,-0.03828262078112618,0.049433771574027376,0.020356203641647665,-0.008005746237824117,0.15224777721537244,0.07830281730674096,-0.1165566720685735,0.08353723076779147,0.016647889275345693,-0.2852936130320125
2098,10.058427900003151,0.04362089401602154,-0.050282711590807716,-0.038245110038366496,0.05016610335029873,0.02073255094547827,-0.008568932513154857,0.15264124967184473,0.07838150525817043,-0.11792538665023199,0.08020136246321662,0.016056281392767442,-0.2845702234839062
2099,10.06257629999891,0.04371545877257462,-0.050243410823372296,-0.03821395261612345,0.05090028741078132,0.021109270145180766,-0.009138684637122021,0.1530186450663685,0.07845735078276177,-0.11929053260822979,0.076843117881568,0.015464594275648306,-0.2838064811316482
2100,10.06938220000302,0.04392958167167888,-0.050119790088630455,-0.038140948903061786,0.05163624627882889,0.02148634758252054,-0.009714985009197076,0.15337985713288382,0.07853035346210974,-0.12065191599335567,0.07346303948231636,0.014872868785257275,-0.2830022829877641
2101,10.073927599994931,0.04404068532504334,-0.050047545520352836,-0.03811937896162574,0.05237390197367964,0.021863769597042684,-0.01029781509735672,0.15372478222105415,0.07860051307321048,-0.12200934237351954,0.07006167501211039,0.014281145463690238,-0.2821575319388187
2102,10.077393500003382,0.044169664555036195,-0.04995731568503899,-0.03805648613438747,0.05311317602308286,0.022241522527010737,-0.010887155435830787,0.15405331932142957,0.07866782958701342,-0.1233626168619442,0.06663957739556059,0.013689464509630104,-0.2812721367992957
2103,10.081930700005614,0.04430898497863332,-0.049842077823470415,-0.03801647891939623,0.05385398947604455,0.022619592710338986,-0.011482985622984344,0.15436537009008441,0.07873230316685693,-0.12471154414561537,0.06319730462433083,0.013097865753964074,-0.2803460123645254
2104,10.085849900002358,0.0444506027582585,-0.04972872469806002,-0.0379799666264188,0.05459626291568923,0.022997966485517725,-0.01208528431933515,0.15466083887272156,0.07879393416678661,-0.12605592851398517,0.05973541964455915,0.012506388635269844,-0.27937907946263507
2105,10.090406799994524,0.04456772213527162,-0.0496092939559187,-0.0379416684613522,0.05533991647223513,0.02337663019253087,-0.012694029245707662,0.1549396327282348,0.07885272312975558,-0.12739557388792463,0.05625449024263078,0.011915072175182765,-0.27837126500549775
2106,10.094593100002385,0.04470132064237822,-0.049492653069224464,-0.0378949389398214,0.056084869836079985,0.0237555701737654,-0.013309197181524736,0.15520166145172187,0.07890867078570643,-0.1287302838489208,0.05275508892932735,0.011323954953656148,-0.27732250203865577
2107,10.098140700007209,0.04483297131930284,-0.04939616710076377,-0.03785631211142412,0.05683104227099488,0.024134772774912085,-0.013930763963238252,0.15544683759694072,0.07896177804953383,-0.13005986166851322,0.049237792822375843,0.010733075084127129,-0.2762327297901942
2108,10.102869800000915,0.04496244012252153,-0.049313939116333985,-0.03784323145424167,0.057578352627423175,0.024514224345856796,-0.014558704482899825,0.15567507649820123,0.0790120460189275,-0.1313841103379651,0.04570318352742239,0.01014247018860057,-0.27510189371854143
2109,10.11032890000206,0.04527697804916972,-0.04913180493497121,-0.03780120716401299,0.05832671935588183,0.0248939112415618,-0.015192992686872733,0.15588629629168432,0.0790594759720947,-0.13270283259816426,0.04215184701745628,0.009552177372663695,-0.27392994555917344
2110,10.114553000006708,0.04540852583453982,-0.04908098494659187,-0.03775168354147448,0.05907606052046262,0.025273819822936236,-0.015833601574686076,0.1560804179361811,0.07910406936536155,-0.13401583096974887,0.03858437351071049,0.00896223320044427,-0.27271684337019725
2111,10.120085899994592,0.04555326606693215,-0.04902936490721663,-0.037734404974352945,0.05982629381243025,0.025653936457695332,-0.01648050319803225,0.15625736523324435,0.07914582783065252,-0.13532290778345288,0.03500135734706593,0.008372673669525287,-0.2714625515767896
2112,10.123966200000725,0.045695524468322604,-0.04899180030205474,-0.03770189084082835,0.060577336563914695,0.02603424752120778,-0.01713366865990885,0.15641706484674622,0.0791847531728477,-0.13662386521066516,0.031403396862986786,0.007783534185829174,-0.2701670410144668
2113,10.127377400000114,0.04583543376263372,-0.04891833204898729,-0.037642151454339655,0.06132910576169499,0.02641473939733069,-0.017793068113905994,0.156559446321835,0.07922084736701737,-0.13791850529419672,0.027791094265015543,0.007194849538484725,-0.2688302889711626
2114,10.131645600005868,0.04594226974935334,-0.048852090076300855,-0.03760281052778305,0.062081518061071914,0.026795398479231493,-0.01845867076364012,0.1566844421032844,0.0792541125555339,-0.13920662997924999,0.024165055501856332,0.006606653874689996,-0.2674522792280899
2115,10.135756599993329,0.04608787126798251,-0.04876703910322379,-0.037556759480604905,0.06283448979982628,0.027176211170196016,-0.019130444862335172,0.1567919875532285,0.07928455104506117,-0.1404880411445841,0.020525890135076132,0.00601898067458456,-0.26603300209936287
2116,10.140234699996654,0.04621163435829192,-0.0486717832402503,-0.037552265427442284,0.06358793701225947,0.027557163884422246,-0.019808357712552196,0.15688202096827591,0.07931216530342168,-0.14176254063387084,0.016874211208453584,0.005431862726144606,-0.26457245447035727
2117,10.143896499997936,0.04632134219978067,-0.048576199475964185,-0.03753607465721017,0.06434177544331333,0.02793824304779902,-0.020492375666068336,0.15695448359599629,0.07933695795634149,-0.14302993028723426,0.013210635116006198,0.004845332100114471,-0.26307063983478685
2118,10.14983920000668,0.046429223176962,-0.04846128027211831,-0.037511188328058234,0.0650959205627667,0.028319435098668976,-0.02118246412390614,0.15700931965077344,0.07935893178407294,-0.14429001197296873,0.009535781468727132,0.004259420124988323,-0.2615275683304748
2119,10.158182800005306,0.04663647801727083,-0.04828196103816985,-0.03744267051686252,0.06585028757950478,0.028700726488575294,-0.021878587536514185,0.15704647632901875,0.07937808971789499,-0.14554258761942876,0.005850272960063405,0.0036741573620558137,-0.25994325677379887
2120,10.162391699996078,0.046728337471508334,-0.0481889163697737,-0.03739319075056533,0.06660479145585879,0.02908210368299153,-0.02258070940409996,0.15706590382373986,0.07939443483649138,-0.14678745924708467,0.002154735230168113,0.0030895735805255833,-0.25831772869279007
2121,10.166419999994105,0.04683035156664418,-0.04811266239122681,-0.03736048764205509,0.06735934692201279,0.029463553162034018,-0.02328879227711592,0.15706755533845904,0.07940797036220668,-0.14802442900073767,-0.0015502032710402371,0.002505697732740576,-0.2566510143588658
2122,10.170437599997967,0.04693180232269378,-0.04803481381850461,-0.03734355353618671,0.06811386849047452,0.029845061421156227,-0.024002797756899483,0.157051387100475,0.07941869965718097,-0.14925329918188732,-0.005263911421977618,0.0019225579294991618,-0.25494315081717667
2123,10.17471010000736,0.04702213962934407,-0.04796041294629685,-0.037302644857681894,0.06886827047060702,0.030226614971824398,-0.024722686496467753,0.15701735837346234,0.07942662621936403,-0.15047387228124504,-0.008985755568619375,0.001340181415496137,-0.2531941819155471
2124,10.179424400004793,0.04714407803616335,-0.04789574082220776,-0.037263272194242324,0.06962246698321779,0.03060820034217393,-0.02544841820146768,0.15696543146940256,0.07943175367840954,-0.15168595101138652,-0.012715099664815337,0.0007585945448977104,-0.25140415833199053
2125,10.18362779999734,0.04725678373732774,-0.0477748860868646,-0.03722512623310283,0.07037637197520238,0.030989804077646024,-0.02617995163128243,0.15689557175984145,0.0794340857914501,-0.1528893383395372,-0.01645130541365979,0.00017782275706462578,-0.24957313760077862
2126,10.188171600006172,0.04736566938461172,-0.04768323761598419,-0.037197259536309424,0.07112989923423917,0.03137141274160407,-0.026917244600294668,0.1568077476864686,0.07943362643875354,-0.15408383752048443,-0.020193732409880465,-0.0004021094475623825,-0.24770118413704564
2127,10.1924091999972,0.04748727089540194,-0.04761489947315893,-0.037181528062186796,0.07188296240353192,0.03175301291592921,-0.027660253979307457,0.15670193077101516,0.0794303796192616,-0.15526925212960913,-0.02394173828321006,-0.0009811785314005753,-0.2457883692599078
2128,10.199294799997006,0.04759018339257635,-0.0475315711031191,-0.03717649272082165,0.07263547499659731,0.032134591201594544,-0.028408935697123248,0.15657809562446548,0.07942434944601173,-0.1564453860960299,-0.02769467884270337,-0.0015593619434723883,-0.24383477121407934
2129,10.20647750000353,0.04787665573710097,-0.04726179369504371,-0.03715766766419428,0.07338735041209409,0.03251613421921759,-0.029163244742281505,0.15643621995557766,0.07941554014144311,-0.15761204373585325,-0.03145190822196261,-0.0021366381429475424,-0.2418404751899668
2130,10.210533699995722,0.0479744058045789,-0.04711609337575179,-0.03715708556492018,0.07413850194869061,0.032897628609590404,-0.029923135164955317,0.15627628457870799,0.07940395603258728,-0.158769029785522,-0.03521277902523311,-0.0027129866224658173,-0.2398055733422225
2131,10.216403800004628,0.0481007253162354,-0.046967827724548404,-0.03715961631749816,0.07488884281996742,0.033279061034186826,-0.030688560079007405,0.15609827342093424,0.07938960154614427,-0.15991614943525412,-0.03897664247433094,-0.003288387931226209,-0.2377301648067397
2132,10.220857899999828,0.048206451846606546,-0.04680599170034717,-0.03719246279332954,0.07563828616935177,0.03366041817564641,-0.031459471664206075,0.1559021735284734,0.07937248120344528,-0.16105320836256554,-0.04274284855636357,-0.003862823697828209,-0.23561435571607298
2133,10.225166200005331,0.04833047490193379,-0.046669954725729226,-0.03721100878603312,0.07638674508508018,0.034041686738234316,-0.032235821168601714,0.15568797507238955,0.07935259961530318,-0.16218001276586935,-0.046510746172204076,-0.004436276652850948,-0.2334582592132681
2134,10.228891599996132,0.04844558671903605,-0.04655889215585002,-0.0372431201683007,0.07713413261518579,0.034422853448276405,-0.03301755891106433,0.15545567135358773,0.07932996147675246,-0.16329636939814363,-0.050279683285679236,-0.005008730651155967,-0.23126199546408577
2135,10.233281299995724,0.048552995291200746,-0.04646052261821864,-0.03723417266167571,0.07788036178250701,0.034803905054568936,-0.0338046342839823,0.15520525880709035,0.07930457156167955,-0.16440208560065986,-0.05404900707343106,-0.005580170693899422,-0.229025691667603
2136,10.236808200002995,0.048552995291200746,-0.04646052261821864,-0.03723417266167571,0.07862534559971478,0.035184828328762185,-0.034596995756123065,0.15493673700559227,0.07927643471734469,-0.16549696933676453,-0.05781806407541105,-0.00615058295023954,-0.22674948206517612
2137,10.241855999993277,0.04874495345636385,-0.0463203241170069,-0.037283152058012366,0.07936899708435433,0.03556561006571765,-0.03539459087565596,0.15465010866229162,0.07924555585879671,-0.16658082922570577,-0.06158620034596623,-0.006719954778725205,-0.22443350794775088
2138,10.247974600002635,0.048948330872760334,-0.0461901192665611,-0.03736606636756636,0.08011122927389855,0.03594623708383848,-0.036197366273337576,0.15434537963299338,0.07921193996318195,-0.16765347457649657,-0.06535276160547529,-0.007288274748351608,-0.22207791766150667
2139,10.252024600005823,0.0490661449625692,-0.04610552118316267,-0.037421370025953506,0.08085195524080947,0.03632669622537237,-0.0370052676658596,0.1540225589174831,0.07917559206394907,-0.16871471542180694,-0.06911709339249274,-0.007855532659268923,-0.21968286661182113
2140,10.256144900005893,0.0490661449625692,-0.04610552118316267,-0.037421370025953506,0.0815910881076043,0.0367069743566865,-0.03781823985935948,0.1536816586601678,0.07913651724495126,-0.16976436255187624,-0.07287854121635864,-0.008421719563130094,-0.2172485172655434
2141,10.260369199997513,0.049235007000225754,-0.04594766213485684,-0.03751173676378935,0.08232854106192272,0.03708705836851413,-0.03863622675309427,0.15332269414998223,0.07909472063444721,-0.1708022275484364,-0.07663645071023197,-0.008986827783063835,-0.21477503915156412
2142,10.265154499997152,0.04930404671151203,-0.04587029850619818,-0.037526892533821375,0.08306422737159191,0.037466935176172625,-0.03945917134327757,0.15294568381955773,0.07905020739900266,-0.17182812281863868,-0.08039016778450415,-0.009550850933259074,-0.21226260885966966
2143,10.26979200000642,0.04939524332943434,-0.04577843409991965,-0.037556391429334535,0.08379806039968651,0.03784659171975242,-0.04028701572707987,0.1525506492436522,0.07900298273729393,-0.17284186162897558,-0.08413903878054987,-0.010113783938147141,-0.20971141003766902
2144,10.273339999999736,0.04947221201770082,-0.045699186513495825,-0.03759824628104261,0.08452995361958023,0.038226014964276536,-0.04111970110679201,0.1521376151368396,0.07895305187381597,-0.17384325813919055,-0.08788241062477076,-0.010675623051168088,-0.20712163338678408
2145,10.279147599998396,0.04954728836165234,-0.045602881382739935,-0.03762305017195077,0.08525982062998584,0.03860519189983029,-0.0419571677941514,0.15170660935045757,0.07890042005249695,-0.17483212743616722,-0.09161963098288783,-0.011236365873107635,-0.20449347665529305
2146,10.285479199999829,0.049721942522755906,-0.04538658036410508,-0.03772798726211633,0.08598757516998043,0.03898410954166058,-0.042799355214830796,0.15125766286881226,0.0788450925302216,-0.17580828556778916,-0.09535004841443831,-0.01179601136999139,-0.20182714463041912
2147,10.289799599995604,0.04981718700633177,-0.045313834060350285,-0.037768255479780896,0.08671313113401173,0.03936275493024423,-0.04364620191308929,0.15079080980463966,0.07878707457026554,-0.17677154957676128,-0.099073012527432,-0.012354559890523142,-0.199122849128455
2148,10.293888700005482,0.04987572831929666,-0.04523465439547295,-0.03778877719486467,0.08743640258688246,0.03974111513132494,-0.04449764555658547,0.1503060873938233,0.0787263714356428,-0.17772173753438392,-0.10278787413312274,-0.012912013183054103,-0.19638080898311538
2149,10.299318699995638,0.049939176765967666,-0.04516883475523033,-0.03780956414860022,0.08815730377870896,0.040119177235918256,-0.0453536229413525,0.14980353598936763,0.07866298838236857,-0.17865866857427146,-0.10649398540084984,-0.0134683744120701,-0.19360125003210996
2150,10.303912300005322,0.05001701822804716,-0.045110811939712246,-0.03782793492719715,0.08887574915985046,0.04049692836028401,-0.046214069996934615,0.14928319905462686,0.0785969306526397,-0.1795821629260082,-0.11019070001290428,-0.014023648174183848,-0.1907844051019299
2151,10.308001900004456,0.05010326741336228,-0.045045023085692325,-0.03784676937058601,0.08959165339580488,0.0408743556458657,-0.04707892179168497,0.14874512315579014,0.0785282034679347,-0.18049204194873292,-0.1138773733193736,-0.01457784051361962,-0.1879305139908422
2152,10.31229610000446,0.05015481123910201,-0.044982500878147265,-0.037861022981724654,0.09030493138206816,0.04125144625919611,-0.04794811253822469,0.1481893579536221,0.0784568120220353,-0.18138812816464342,-0.11755336249291991,-0.015130958937177823,-0.18503982345008702
2153,10.31655970000429,0.050226756136270166,-0.04490497031927461,-0.03786558625945858,0.091015498258953,0.04162818739176889,-0.04882157559906264,0.14761595619445908,0.07838276147397251,-0.1822702452924126,-0.1212180266834453,-0.015683012428667122,-0.18211258716327353
2154,10.325030000007246,0.05037792350068134,-0.04467446979481095,-0.037918875728387695,0.09172326942636391,0.04200456625987583,-0.049699243492375464,0.14702497370046147,0.0783060569408998,-0.18313821828050764,-0.12487072717259792,-0.016234011462792016,-0.1791490657239696
2155,10.329333000001498,0.05047393352857969,-0.04454508541402945,-0.03794023934152997,0.09242816055852478,0.0423805701044096,-0.050581047897947234,0.14641646935912214,0.07822670349089639,-0.18399187334040337,-0.1285108275280717,-0.016783968018483884,-0.1761495266114804
2156,10.334268699996755,0.050554023340855694,-0.044426538271321175,-0.037949689388452425,0.09313008761865536,0.04275618619063174,-0.051466919663268405,0.1457905051120325,0.07814470613570335,-0.18483103797968126,-0.13213769375765277,-0.01733289559166374,-0.17311424416481372
2157,10.340180500003044,0.05072499484854341,-0.044243168099697555,-0.0380162229834873,0.09382896687359352,0.04313140180790577,-0.05235678880979373,0.1451471459429074,0.07806006982339549,-0.18565554103500537,-0.13575069446296611,-0.017880809207425137,-0.17004349955483097
2158,10.345659200000227,0.05079347473253892,-0.04411883858314432,-0.03803920115265036,0.09452471490836008,0.043506204269395,-0.05325058453935856,0.144486459864869,0.07797279943099175,-0.1864652127049672,-0.13934920099287515,-0.018427725431625918,-0.16693758075458168
2159,10.35351339999761,0.05094762439720862,-0.04397419393126197,-0.038033157917165425,0.09521724864066278,0.043880580911724844,-0.054148235240752754,0.14380851790699134,0.07788289975700673,-0.1872598845827906,-0.1429325875964881,-0.018973662381877653,-0.16379678250782131
2160,10.358070600006611,0.05104651367951437,-0.04388352201606971,-0.03807265395746155,0.09590648533533545,0.04425451909460949,-0.05504966849645167,0.14311339410010712,0.07779037551394628,-0.18803938968888798,-0.146500231575724,-0.019518639737921912,-0.16062140629571317
2161,10.364835999993376,0.0512714416703632,-0.043754108376306014,-0.03810570561665396,0.09659234261870879,0.044628006200442605,-0.05595481108950353,0.14240116546187911,0.07769523132075018,-0.1888035625032571,-0.15005151343739007,-0.020062678751382644,-0.15741176030171422
2162,10.368998699996157,0.05135255804349886,-0.043696430588357225,-0.03809366987998193,0.09727473849290938,0.04500102963385176,-0.056863589010572285,0.14167191198113904,0.07759747169518433,-0.1895522389977108,-0.1535858170447227,-0.020605802254884217,-0.1541681593746469
2163,10.373018900005263,0.051444247767735526,-0.04365641623445886,-0.03809505395694196,0.09795359135008366,0.04537357682121631,-0.057775927465135136,0.14092571660149728,0.07749710104618553,-0.19028525666793006,-0.15710252976834468,-0.02114803467052489,-0.1508909249899587
2164,10.378828899993096,0.05153550326248142,-0.04359644340041295,-0.03808173452302403,0.09862881998654341,0.04574563521014791,-0.05869175088083361,0.14016266520422715,0.07739412366616173,-0.19100245456533227,-0.16060104263659183,-0.02168940201769562,-0.1475803852091729
2165,10.383290300000226,0.05162929469444554,-0.04354692614356032,-0.03808379864745087,0.09930034361682918,0.046117192268933564,-0.0596109829149772,0.13938284659042674,0.07728854372325102,-0.1917036733287443,-0.164080750485162,-0.02222993192023438,-0.14423687463753382
2166,10.387689199997112,0.05172765230014619,-0.04347145372266129,-0.03808222634474456,0.09996808188768817,0.04648823548594087,-0.06053354646219858,0.1385863524624609,0.07718036525354267,-0.1923887552158722,-0.16754105210603812,-0.022769653612906386,-0.1408607343798506
2167,10.391481300001033,0.05182196588751993,-0.043400247404634065,-0.038111069483573456,0.1006319548919629,0.04685875236898531,-0.061459363662259674,0.13777327740468734,0.07706959215326371,-0.19305754413455817,-0.17098135039563891,-0.023308597947200978,-0.13745231199454552
2168,10.395796099997824,0.051918209547971064,-0.04334236433192582,-0.03813097363439966,0.10129188318238774,0.04722873044465931,-0.06238835590800753,0.1369437188634706,0.07695622817093396,-0.1937098856738166,-0.17440105250215002,-0.02384679739643607,-0.13401196144591224
2169,10.399806400004309,0.052029246505385186,-0.043282779498499464,-0.03813989478263334,0.10194778778529008,0.047598157257622946,-0.06332044385347911,0.13609777712648838,0.07684027689949309,-0.19434562713464032,-0.17779956997198892,-0.02438428606016133,-0.13054004305459183
2170,10.403822599997511,0.05214558175302989,-0.04320999456919859,-0.038104555012258935,0.10259959021419271,0.04796702036985643,-0.06425554742215396,0.13523555530133405,0.07672174176840314,-0.19496461756056863,-0.18117631889535687,-0.024921099667851436,-0.1270369234462749
2171,10.408094099999287,0.05225068660471465,-0.04310777824570618,-0.038092597005370196,0.10324721248331424,0.0483353073598742,-0.06519358581535395,0.13435715929341902,0.07660062603573049,-0.1955667077680096,-0.18453072005083107,-0.02545727558188119,-0.12350297549863797
2172,10.412719300002207,0.05236774633023596,-0.04302822141304617,-0.03807419484220818,0.10389057712096395,0.04870300582190058,-0.06613447752078902,0.13346269778317987,0.07647693278021084,-0.19615175037630758,-0.18786219904895085,-0.02599285279977445,-0.11993857828652386
2173,10.41698880000331,0.0525024995802853,-0.04299764853186612,-0.03810011222621898,0.1045296071828277,0.049070103365006945,-0.0670781403212475,0.13255228220259477,0.07635066489330128,-0.19671959983754686,-0.1911701864747506,-0.026527871955719304,-0.11634411702537581
2174,10.420510299998568,0.05266293705901364,-0.04291347317308461,-0.03808266712446001,0.10516422626514159,0.04943658761221025,-0.06802449130343002,0.1316260267110134,0.07622182507122298,-0.19727011246608245,-0.1944541180291921,-0.02706237532134207,-0.11271998301293501
2175,10.42490949999774,0.05281581463125773,-0.042773417584661716,-0.03802321390972264,0.10579435851774983,0.04980244619953287,-0.06897344686692568,0.13068404817030643,0.07609041580699748,-0.19780314646779018,-0.19771343466945093,-0.02759640680573311,-0.1090665735692127
2176,10.429688100004569,0.052981860763835036,-0.04263409391255032,-0.03797429272813682,0.10641992865704418,0.050167666775023684,-0.06992492273332894,0.12972646611933994,0.07595643938248067,-0.19831856196902778,-0.20094758274801103,-0.028130011954717836,-0.10538429197474883
2177,10.435249100002691,0.053377759809631345,-0.04231150897152708,-0.037888081150212305,0.10704086197878163,0.050532236997740475,-0.07087883395549624,0.1287534027477803,0.07581989786039824,-0.19881622104529859,-0.204156014150522,-0.028663237949366552,-0.1016735474071694
2178,10.443973400004325,0.05380464272666231,-0.04192416707399268,-0.037776739450549705,0.10765708437077709,0.05089614453669318,-0.07183509492694076,0.1277649828692354,0.0756807930763867,-0.19929598774961046,-0.20733818643237423,-0.029196133603736973,-0.09793475487605657
2179,10.447941899998114,0.054043188161500326,-0.041691932162560966,-0.03772001404553036,0.10826852232546721,0.05125937706974809,-0.07279361939136411,0.1267613338937389,0.07553912663104338,-0.1997577281405217,-0.2104935629539465,-0.029728749361843585,-0.0941683351561454
2180,10.452090399994631,0.0543151256607692,-0.04144165074092538,-0.037644588609335554,0.10887510295234183,0.051621922282493064,-0.07375432045232314,0.12574258579958386,0.07539489988198925,-0.20020131030986524,-0.21362161301448102,-0.030261137293848415,-0.09037471471886202
2181,10.45639150000352,0.0543151256607692,-0.04144165074092538,-0.037644588609335554,0.10947675399023976,0.05198376786706403,-0.07471711058303085,0.12470887110451302,0.07524811393594845,-0.20062660441014366,-0.21672181198454013,-0.030793351091468107,-0.0865543256622193
2182,10.46165130000736,0.054626384639863204,-0.041166179857298146,-0.037584404457973286,0.11007340381950613,0.052344901520932664,-0.07568190163628928,0.1236603248362719,0.07509876964084916,-0.20103348268158686,-0.2197936414370024,-0.03132544606259252,-0.08270760563908608
2183,10.467684799994458,0.05531362196286492,-0.040520264632736544,-0.03742715665011155,0.11066498147400886,0.05270531094565548,-0.07664860485455305,0.12259708450253295,0.07494686757794948,-0.20142181947886403,-0.22283658927655473,-0.03185747912511047,-0.07883499778384753
2184,10.473031899993655,0.056040322197136644,-0.0398081748478699,-0.03733371997011442,0.1112514166530107,0.053064983845584585,-0.07761713088012247,0.1215192900601976,0.07479240805399191,-0.2017914912974417,-0.22585014986763818,-0.03238950879993846,-0.07493695063747445
2185,10.477297300007194,0.05643099601926711,-0.03944692070169616,-0.037261658544729834,0.11183263973289394,0.053423907926539914,-0.07858738976546484,0.12042708388408321,0.0746353910933904,-0.2021423767995791,-0.228833824160805,-0.03292159520324861,-0.07101391807102017
2186,10.481386900006328,0.05684901053749021,-0.03903516885822798,-0.03723777233425,0.11240858177873453,0.05378207089444316,-0.0795592909836621,0.11932061073500291,0.07447581643045428,-0.20247435683995357,-0.2317871198174446,-0.03345380003789212,-0.06706635920756433
2187,10.48995129999821,0.05787475144736016,-0.03815479250019054,-0.03715311209278928,0.11297917455572337,0.05413946045391334,-0.08053274343898299,0.11820001772724677,0.07431368350165292,-0.20278731449090837,-0.23470955133283858,-0.033986186584014956,-0.06309473834262305
2188,10.4944414000056,0.05839080437837941,-0.0376592307071958,-0.03709143443682398,0.11354435054043116,0.054496064306824195,-0.0815076554775777,0.11706545429547255,0.07414899143792479,-0.2030811350673157,-0.23760064015750268,-0.034518819688863125,-0.05909952486304647
2189,10.50062190000608,0.05890565825028877,-0.03718221980054642,-0.03702424284793768,0.11410404293191434,0.05485187015082355,-0.08248393489829327,0.11591707216101463,0.07398173905703455,-0.20335570615104673,-0.24045991481677378,-0.035051765755775025,-0.05508119316442503
2190,10.50419229999534,0.0594192261080129,-0.03667440976120668,-0.03698177653206004,0.11465818566265967,0.05520686567781502,-0.08346148896360817,0.11475502529761866,0.07381192485598191,-0.2036109176150407,-0.24328691102860112,-0.03558509273235907,-0.05104022256702657
2191,10.50811120000435,0.05996689346818296,-0.0361405954260271,-0.03690272400022815,0.11520671340936474,0.055561038572402466,-0.0844402244106838,0.11357946989661141,0.07363954700346655,-0.20384666164696558,-0.2460811718195023,-0.03611887009785461,-0.04697709723028687
2192,10.51285060000373,0.0606015860505888,-0.0355981228554747,-0.036937217043852166,0.11574956160355206,0.055914376510297396,-0.08542004746253125,0.11239056433151438,0.0734646033324131,-0.20406283277246398,-0.24884224763864538,-0.0366531688496746,-0.04289230606587732
2193,10.51860250000027,0.06185238740141517,-0.034455230695945825,-0.036935943487390197,0.11628666644201394,0.05626686715669004,-0.08640086383929146,0.11118846912211007,0.07328709133256046,-0.20425932787797685,-0.2515696964700177,-0.037188061489128774,-0.03878634264937383
2194,10.523235300002852,0.06253495091329703,-0.03379960848463617,-0.03684615832775358,0.1168179648970855,0.05661849816458452,-0.08738257876962678,0.1099733468979708,0.07310700814311942,-0.20443604623313835,-0.25426308394264235,-0.03772362200632676,-0.03465970513055191
2195,10.527225500001803,0.06324567136043549,-0.033165905463008565,-0.03682596722768695,0.11734339472674342,0.056969257173098246,-0.08836509700222182,0.10874536236145968,0.07292435054550217,-0.2045928895127343,-0.2569219834388041,-0.03825992586426075,-0.030512896142333188
2196,10.533977400002186,0.06392447254242302,-0.032539552888425305,-0.03683734765342003,0.11786289448452793,0.05731913180572611,-0.08934832281739183,0.10750468225021262,0.07273911495612764,-0.204729761818218,-0.25954597620024766,-0.038797049982067865,-0.026346422708409645
2197,10.539583999998284,0.06537910700429618,-0.03135526742949807,-0.03682156078848493,0.11837640352928588,0.05766810966856994,-0.09033216003879593,0.10625147529911112,0.07255129741930676,-0.20484656969877799,-0.2621346514323119,-0.03933507271747244,-0.022160796149572334
2198,10.543809900002088,0.06622543099268421,-0.030725957203326125,-0.03684430790270788,0.11888386203473227,0.058016178348533336,-0.0913165120452534,0.10498591220175614,0.07236089360021171,-0.2049432221719511,-0.2646876064059624,-0.03987407384840928,-0.017956531988772163
2199,10.551832199998898,0.0678438047979281,-0.029374190790652486,-0.03683106744266702,0.1193852109988277,0.058363325411482474,-0.09230128178266038,0.10370816557145307,0.07216789877793342,-0.20501963074377497,-0.267204446557687,-0.04041413455382864,-0.01373414985494076
2200,10.55650720000267,0.06872597756576077,-0.028729134289037818,-0.036807352266311204,0.11988039225297029,0.05870953840037323,-0.09328637177600489,0.10241840990171844,0.0719723078386315,-0.20507570942847375,-0.26968478558722087,-0.04095533739368444,-0.009494173385600069
2201,10.56076999999641,0.06965333612979462,-0.028062296735044737,-0.03685377626501153,0.12036934847099962,0.05905480483334546,-0.09427168414147769,0.10111682152631907,0.07177411526878075,-0.20511137476767213,-0.2721282455530663,-0.04149776628810742,-0.005237130128289839
2202,10.566497199994046,0.0705432280802622,-0.027397804887824055,-0.03690430264841615,0.12085202317801083,0.059399112201784614,-0.0952571205986766,0.09980357857885438,0.07157331514851846,-0.20512654584913276,-0.2745344569657723,-0.04204150649576517,-0.0009635514408427075
2203,10.57104939999408,0.07146602499359359,-0.026719610742356098,-0.03695974618807233,0.12132836075897645,0.05974244796835148,-0.09624258248290188,0.09847886095189266,0.07136990114509625,-0.2051211443250112,-0.27690305887893935,-0.04258664459141179,0.003326027609462731
2204,10.574929099995645,0.07239610276699865,-0.026040375400393157,-0.03699872936172109,0.12179830646717335,0.06008479956498025,-0.0972279707575403,0.0971428502556721,0.07116386650644028,-0.20509509442962348,-0.2792336989779172,-0.04313326844262995,0.007631068347839912
2205,10.578922900007456,0.07340927716442591,-0.025302508515464277,-0.03710839196893316,0.12226180643241241,0.06042615439084564,-0.09821318602653524,0.09579572977637812,0.07095520405482403,-0.20504832299672038,-0.28152603366616263,-0.0436814671857686,0.011951028594991843
2206,10.58312900000601,0.07439793930707869,-0.024573254923687973,-0.03717112955949245,0.12271880766906865,0.0607664998102998,-0.09919812854694025,0.0944376844340084,0.07074390618065807,-0.20498075947626201,-0.28377972814922675,-0.0442313312010798,0.01628536277113617
2207,10.587264000001596,0.07536422532283994,-0.023897509813545333,-0.03722893217270408,0.12316925808390977,0.06110582315077968,-0.10018269824155358,0.09306890073983703,0.07052996483640085,-0.2048923359506875,-0.2859944565163435,-0.04478295208705888,0.02063352200102517
2208,10.591515000007348,0.07646282123756405,-0.023179252602112732,-0.03734092599307909,0.12361310648372147,0.06144411170068543,-0.10116679471163069,0.09168956675348976,0.0703133715305947,-0.2047829871506747,-0.2881699018195904,-0.04533642263399226,0.024994954219927652
2209,10.596453100006327,0.07745066063193633,-0.022517165888753674,-0.03750483255407674,0.12405030258272662,0.06178135270723013,-0.10215031724967269,0.0902998720396421,0.07009411732203139,-0.2046526504703844,-0.2903057561505934,-0.04589183679671745,0.02936910428053907
2210,10.601747900000191,0.07959259192274623,-0.021147065591811492,-0.0377447339231605,0.12448079700979692,0.06211753337426214,-0.10313316485228859,0.0889000076243519,0.06987219281405119,-0.20450126598218485,-0.2924017207147472,-0.04644928966660034,0.03375541406078595
2211,10.606484100004309,0.08066249034317446,-0.02049338758709655,-0.038024436684986444,0.12490454131545463,0.062452640860060714,-0.10411523623312896,0.08749016595103817,0.0696475881489789,-0.20432877645085262,-0.2944575059029247,-0.04700887744273524,0.03815332257249008
2212,10.61133030000201,0.08178425459887984,-0.019808252624809373,-0.03820758151321493,0.12532148797866297,0.06278666227510557,-0.10509642983588845,0.08607054083611869,0.06942029300270078,-0.20413512734724495,-0.29647283136065083,-0.04757069740237312,0.04256226607085775
2213,10.615131600003224,0.08295762370760816,-0.019174461336782432,-0.0385236032545255,0.12573159041340323,0.0631195846798204,-0.10607664384737495,0.08464132742431862,0.06919029657938616,-0.20392026686143996,-0.2984474260547146,-0.048134847870584016,0.04698167816475843
2214,10.618885899995805,0.08408285821471043,-0.018559818839679117,-0.03876052860380113,0.12613480297503654,0.06345139508229089,-0.10705577621064302,0.08320272214366299,0.06895758760635765,-0.20368414591534068,-0.3003810283371953,-0.04870142818915988,0.051410989927756834
2215,10.623214499995813,0.08525373651969911,-0.01794682126204619,-0.03898161416767724,0.12653108096644805,0.06378208043595777,-0.10803372463818886,0.08175492266016511,0.06872215432911363,-0.20342671817473865,-0.302273386006879,-0.049270538684765025,0.05584963000986241
2216,10.627060200000416,0.0864524973991351,-0.0173197136576029,-0.03926837800752572,0.12692038064397135,0.06411162763728616,-0.10901038662520426,0.08029812783222351,0.06848398450650692,-0.20314794006083464,-0.30412425636804274,-0.049842280636341184,0.06029702474995939
2217,10.636412000007113,0.0888483550066865,-0.015966174508142993,-0.03982872330857082,0.1273026592230909,0.06444002352341177,-0.1099856594628871,0.07883253766473979,0.06824306540608284,-0.20284777076121255,-0.3059334062865881,-0.05041675624177479,0.06475259828888075
2218,10.640168500001892,0.0900338184171455,-0.015345195714755639,-0.04016266425303679,0.1276778748839211,0.06476725486976531,-0.11095944025180586,0.07735835326297016,0.06799938379958105,-0.20252617224026392,-0.3077006122435018,-0.05099406858383399,0.06921577268308869
2219,10.646648800000548,0.09119983185570259,-0.014748786357922173,-0.040445159801100694,0.12804598677646015,0.06509330838767564,-0.11193162591531508,0.07587577678612378,0.0677529259586046,-0.20218310924906077,-0.3094256603856266,-0.05157432159538333,0.0736859680189239
2220,10.653272900002776,0.09357640218953234,-0.013562020290690759,-0.04119996399987948,0.1284069550256177,0.06541817072195256,-0.11290211321301875,0.07438501140072036,0.06750367765045982,-0.20181854933467253,-0.3111083465737212,-0.05215762002388458,0.07816260252738516
2221,10.65889320000133,0.09483879024812569,-0.012853232767865439,-0.04154716597351197,0.1287607407360159,0.06574182844844935,-0.11387079875427916,0.07288626123372069,0.06725162413417039,-0.20143246284892372,-0.312748476427792,-0.05274406939519249,0.0826450926994015
2222,10.662981300003594,0.0961218779314918,-0.012223611737793131,-0.04196758144259707,0.1291073059965629,0.06606426807160579,-0.11483757901176804,0.0713797313254431,0.06699675015666937,-0.2010248229565894,-0.3143458653696778,-0.05333377597665477,0.08713285340155745
2223,10.667270299993106,0.09735893936453362,-0.011626368073149967,-0.04235100615368416,0.12944661388479733,0.06638547602197228,-0.1158023503350575,0.06986562758227875,0.06673903994917298,-0.20059560564302534,-0.31590033866287154,-0.053926846739525566,0.09162529799223257
2224,10.673148799993214,0.09983146482077727,-0.010415078167135508,-0.043101270970501156,0.12977862847100313,0.06670543865371585,-0.11676500896424773,0.06834415672921904,0.0664784772237399,-0.20014478972123131,-0.3174117314495644,-0.05452338932070203,0.0961218384381157
2225,10.68129969999427,0.1022683827106389,-0.009231444148038953,-0.043867173652432236,0.13010331482209386,0.06702414224210906,-0.11772545104362837,0.06681552626220873,0.0662150451700194,-0.19967235683834705,-0.31887988878489626,-0.05512351198379404,0.10062188543105491
2226,10.685528100002555,0.10357121376022661,-0.008606191572286858,-0.04424278332788804,0.13042063900526618,0.06734157298100257,-0.11868357263537042,0.06527994440033835,0.06594872645219182,-0.19917829148157926,-0.3203046656683994,-0.055727323579537164,0.10512484850520308
2227,10.689697399997383,0.10475537832186115,-0.008021095634281218,-0.04468446330406863,0.130730568091421,0.06765771698028201,-0.11963926973324536,0.06373762003788971,0.06567950320610444,-0.19866258098355855,-0.32168592707262395,-0.05633493350555921,0.10963013615441905
2228,10.693294500000777,0.10475537832186115,-0.008021095634281218,-0.04468446330406863,0.13103307015835072,0.06797256026331057,-0.12059243827636829,0.062188762696248394,0.06540735703660598,-0.19812521552712536,-0.3230235479689335,-0.05694645166551084,0.11413715594988434
2229,10.698861900003976,0.10727793247296422,-0.006922168265376264,-0.045676455045670035,0.1313281142936917,0.06828608876435874,-0.12154297416296221,0.06063358247569639,0.06513226901508253,-0.19756618814954338,-0.32431741335045905,-0.05756198842757156,0.11864531465789538
2230,10.703368999995291,0.10844486631585049,-0.006381113942754713,-0.046114017108998234,0.13161567059764065,0.06859828832602241,-0.12249077326414118,0.059072290007098634,0.0648542196771979,-0.19698549474613972,-0.32556741825220226,-0.058181654582341945,0.12315401835779029
2231,10.708059900003718,0.10971324698802568,-0.005767517115345955,-0.046466877094757254,0.13189571018543508,0.0689091446966301,-0.123435731437709,0.057505096403497054,0.06457318902084133,-0.19638313407337116,-0.3267734677682791,-0.058805561300133716,0.12766267255996971
2232,10.71400029999495,0.1108662830485735,-0.005203385322486527,-0.046906655614849184,0.1321682051895975,0.06921864352764068,-0.12437774454197094,0.05593221321162606,0.06428915650428557,-0.1957591077513155,-0.32793547706629533,-0.05943382008766919,0.13217068232397147
2233,10.719067500001984,0.11334849395180097,-0.0041946967467438884,-0.04780281239329465,0.13243312876194235,0.06952677037103244,-0.12531670844955498,0.0543538523633633,0.0640021010445582,-0.1951134202655871,-0.3290533713988478,-0.06006654274420194,0.13667745237655882
2234,10.723859799996715,0.11453330897027858,-0.003704097896483538,-0.048324043573372596,0.13269045507534594,0.06983351067668465,-0.12625251906123983,0.0527702261271299,0.06371200101602903,-0.19444607896867636,-0.33012708611214586,-0.0607038413170713,0.1411823872297827
2235,10.72767659999954,0.11453330897027858,-0.003704097896483538,-0.048324043573372596,0.1329401593252786,0.0701388497897519,-0.12718507231978635,0.051181547059254186,0.06341883424921632,-0.19375709408071398,-0.33115656665174903,-0.06134582805670347,0.14568489129897755
2236,10.731360899997526,0.11577918527301305,-0.0032281238865810857,-0.04890568819259435,0.13318221773109998,0.07044277294803289,-0.12811426422376962,0.04958802795531247,0.06312257802981458,-0.19304647868966093,-0.3321417685654169,-0.06199261537107232,0.1501843690206502
2237,10.735606799993548,0.11821446357656143,-0.002189225536032281,-0.04992303275109445,0.1334166075371164,0.07074526527933477,-0.12903999084140957,0.0479898818014608,0.06282320909794645,-0.19231424875092465,-0.33308265750306837,-0.06264431577963364,0.15468022497022246
2238,10.740119199996116,0.11939554536969656,-0.0017492203637715005,-0.05044396654917245,0.13364330701340127,0.07104631179883425,-0.12996214832439684,0.04638732172577176,0.06252070364764177,-0.1915604230864014,-0.333979209213848,-0.06330104186674629,0.15917186397958666
2239,10.74436440000136,0.12061280383926665,-0.0013457890251320215,-0.05092372437954423,0.13386229545637857,0.07134589740643621,-0.13088063292171115,0.04478056094959031,0.062215037326546443,-0.19078502338294523,-0.3348314095402978,-0.06396290623459389,0.16365869125443347
2240,10.750851200005854,0.12173044637912886,-0.0009026785572295941,-0.051449407061578335,0.13407355318916922,0.07164400688413104,-0.13179534099343057,0.0431698127389231,0.06190618523586342,-0.1899880741902658,-0.3356392544096339,-0.06463002145562063,0.16814011249131325
2241,10.756742300000042,0.12411842170286624,-4.180502693644576e-05,-0.052648505665759175,0.1342770615617007,0.0719406248933521,-0.13270616902452875,0.04155529035587511,0.061594121930528205,-0.18916960291825724,-0.3364027498221302,-0.06530250002449528,0.17261553399438984
2242,10.760691000003137,0.12523858518360015,0.0003010152203507325,-0.05331090883811283,0.1344728029505797,0.07223573597233393,-0.1336130136386573,0.039937207010147864,0.06127882141962078,-0.18832963983375964,-0.33712191183661117,-0.06598045430961773,0.17708436279184567
2243,10.76903470000252,0.12750555518388504,0.001137235226530356,-0.05441232628791038,0.13466076075872824,0.0725293245334732,-0.1345157716119115,0.038315775810613094,0.06096025716701617,-0.18746821805675493,-0.33779676655305607,-0.06666399650418274,0.1815460067518976
2244,10.772857200005092,0.12860860222796708,0.0015447643225568097,-0.054955780719936446,0.13484091941478316,0.07282137486069351,-0.13541433988657642,0.036691209716975814,0.060638402092275875,-0.1865853735559997,-0.338427350092319,-0.06735323857681534,0.1859998746983834
2245,10.778497599996626,0.1297313012253305,0.0018828909439963743,-0.05562452333737064,0.13501326437226016,0.07311187110681522,-0.13630861558485025,0.03506372149154044,0.06031322857178245,-0.1856811451440973,-0.3390137085729696,-0.06804829222179225,0.1904453765258781
2246,10.78318169999693,0.13089709844403394,0.0022390316024466675,-0.05628116045289752,0.13517778210848244,0.07340079729093142,-0.1371984960225419,0.03343352365109397,0.05998470844011951,-0.18475557447201246,-0.3395558980852625,-0.06874926880886438,0.19488192331430007
2247,10.787350500002503,0.13197852913519595,0.0024848540603485438,-0.05697217489773976,0.1353344601232747,0.07368813729579096,-0.13808387872273997,0.031800828418920186,0.0596528129916993,-0.18380870602302998,-0.3400539846622425,-0.06945627933269548,0.19930892744296722
2248,10.793898500007344,0.1341532505316064,0.003053455192744313,-0.05828204449266246,0.13548328693742337,0.07397387486518957,-0.13896466142945063,0.030165847676958634,0.059317512982639355,-0.18284058710616125,-0.3405080442479954,-0.07016943436193182,0.20372580270406462
2249,10.799016899996786,0.13521342320738533,0.003300159245348529,-0.05884232798298096,0.1356242520909033,0.07425799360137046,-0.13984074212120143,0.02852879291812222,0.0589787786328899,-0.18185126784900166,-0.3409181626630535,-0.07088884398791875,0.20813196441548462
2250,10.80393819999881,0.13626356884778099,0.003541690811331765,-0.059536993269375865,0.13575734614087276,0.07454047696243549,-0.1407120190246077,0.026889875198787265,0.05863657962861379,-0.18084080119004256,-0.341284435566967,-0.07161461777307968,0.2125268295330003
2251,10.808219600003213,0.13731884992321672,0.0038833616865564355,-0.060138814635190045,0.13588256065943694,0.07482130825976775,-0.1415783906278982,0.025249305091469804,0.05829088512482067,-0.1798092428704408,-0.34160696841805255,-0.07234686469897292,0.21690981676173396
2252,10.812701100003324,0.13844649189073283,0.004130536424942856,-0.060883877101941576,0.13599988823118228,0.07510047065546707,-0.1424397556943982,0.023607292637701893,0.0579416637482571,-0.17875665142524894,-0.34188587643033186,-0.07308569311404264,0.22128034666688248
2253,10.818756199994825,0.14053427937700366,0.004561190500389933,-0.062266039349363436,0.13610932245048238,0.07537794715979931,-0.14329601327596725,0.02196404730112141,0.05758888360055404,-0.17768308817410966,-0.34212128452767104,-0.07383121068107974,0.22563784178366147
2254,10.823774200005571,0.1415317910780595,0.004799619017202674,-0.06285772245416824,0.1362108579185774,0.07565372062866087,-0.1441470627263895,0.020319777920788915,0.05723251226163318,-0.17658861721141877,-0.34231332729513186,-0.07458352432440864,0.2299817267264311
2255,10.831537200007006,0.14353259697752888,0.005187830107671511,-0.06432421384513363,0.1363044902404283,0.07592777376105897,-0.1449928037147151,0.018674692664745182,0.05687251679337386,-0.17547330539596123,-0.34246214892754795,-0.0753427401768161,0.23431142829696852
2256,10.835365599996294,0.14455790084717096,0.005314692393992249,-0.06506270807538574,0.1363902160213469,0.07620008909660954,-0.14583313623855007,0.01702899898382273,0.056508863743541866,-0.17433722234002452,-0.34256790317534325,-0.07610896352623847,0.2386263755918494
2257,10.840404999995371,0.1455235035866228,0.005474104574382826,-0.0658493498133869,0.13646803286340378,0.07647064901305363,-0.14666796063729112,0.01538290356572459,0.056141519149981445,-0.17318044039799377,-0.34263075328760934,-0.07688229876222369,0.24292600010890283
2258,10.84408739999344,0.14648261082099318,0.005619826893252556,-0.06658820934750506,0.13653793936161496,0.07673943572379385,-0.14749717760530368,0.013736612289383485,0.05577044854507157,-0.1720030346544338,-0.3426508719524598,-0.0776628493221847,0.24720973585270387
2259,10.848105800003395,0.14744194240219366,0.00571800188982006,-0.06730040991249156,0.13659993509990886,0.07700643127545224,-0.14832068820504074,0.012090330179614705,0.05539561696044786,-0.17080508291166274,-0.3426284412346792,-0.07845071763746096,0.2514770194390681
2260,10.8524713999941,0.14835504154688345,0.005797410226658725,-0.06812644100729934,0.1366540206468754,0.07727161754545113,-0.14913839388010033,0.01044426136207567,0.05501698893199068,-0.16958666567682232,-0.3425636525106863,-0.07924600507920525,0.255727290198512
2261,10.856533700003638,0.14940558846085106,0.005947083781274757,-0.0689173740256332,0.1367001975512986,0.07753497623961808,-0.1499501964682192,0.008798609018545107,0.05463452850507992,-0.16834786614844938,-0.34245670640083015,-0.08004881190411271,0.25995999027864414
2262,10.86063209999702,0.1504212771688776,0.006154991572042171,-0.06977003302897591,0.1367384683374741,0.07779648888981618,-0.15075599821420044,0.007153575342534712,0.05424819924011717,-0.16708877020255322,-0.34230781269903837,-0.08085923720000879,0.26417456474545337
2263,10.864659500002745,0.15131397244873235,0.0062760737555406865,-0.07052485198030628,0.13676883650031274,0.07805613685160093,-0.1515557017827723,0.005509361495246056,0.05385796421831619,-0.16580946637820437,-0.34211719029984067,-0.08167737883131307,0.2683704616834584
2264,10.868930199998433,0.15223827394051156,0.0063512301430072955,-0.07130636225870693,0.1367913065002325,0.0783139013019051,-0.15234921027137516,0.0038661675618854225,0.05346378604776176,-0.1645100458626399,-0.341885067122791,-0.08250333338439571,0.2725471322946859
2265,10.87485029999516,0.15316444391028483,0.006437844198368383,-0.07212649726887534,0.13680588375784106,0.07856976323675306,-0.1531364272228736,0.0022241925083491187,0.05306562686973792,-0.1631906024758909,-0.34161168003431436,-0.08333719611284308,0.27670403099644375
2266,10.878856199997244,0.1540852084666219,0.0065822831274324105,-0.0729424892635768,0.13681257464841054,0.07882370346900591,-0.15391725663819206,0.0005836341382917105,0.05266344836532592,-0.1618512326549387,-0.3412972747670031,-0.08417906088264976,0.28084061551785733
2267,10.88327279999794,0.1550081321805173,0.006660153209173382,-0.07379681376054971,0.13681138649614655,0.07907570262613857,-0.15469160298887175,-0.0010553109494105119,0.05225721176227212,-0.1604920354374062,-0.3409421058363895,-0.08502902011735386,0.2849563469951368
2268,10.88975930000015,0.15673510214979353,0.006825318229453028,-0.07547629865592141,0.1368023275682534,0.07932574114804948,-0.15545937122954748,-0.0026924474027886416,0.05184687784212638,-0.15911311244479126,-0.34054643645522037,-0.08588716474313295,0.28905069006554396
2269,10.89474760000303,0.15765727727760476,0.00696909680252789,-0.07633589635797164,0.1367854070687974,0.0795737992849044,-0.15622046681034157,-0.004327581158490786,0.05143240694765087,-0.1577145678652485,-0.3401105384452622,-0.08675358413387739,0.29312311296002835
2270,10.900306600000476,0.1584977290564801,0.007119562116603165,-0.07713764867927836,0.13676063513237072,0.07981985709501559,-0.1569747956891726,-0.005960519483060287,0.05101375899049939,-0.1562965084359265,-0.3396346921466661,-0.08762836605625832,0.2971730875945017
2271,10.904318700006115,0.15934492611308923,0.007223453506866824,-0.07804850318468073,0.13672802281755794,0.08006389444275779,-0.15772226434397554,-0.007591071013770722,0.05059089345916701,-0.1548590434248665,-0.33911918632492194,-0.08851159661480747,0.3012000896597212
2272,10.910696000006284,0.16105573243647608,0.007400648025895753,-0.07971282569380332,0.13668758210020818,0.08030589099652286,-0.15846277978483012,-0.009219045799006042,0.0501637694272096,-0.1534022846124716,-0.33856431807543097,-0.0894033601970264,0.30520359870975183
2273,10.914982799993597,0.16192919659607494,0.007524549671959105,-0.08061667517290609,0.13663932586651345,0.0805458262267142,-0.1591962495659959,-0.010844255338174347,0.04973234556173301,-0.15192634627255208,-0.33797039272572826,-0.09030373941854208,0.30918309824897894
2274,10.91894570000295,0.16271897448475534,0.007601662259384893,-0.08142533684693153,0.13658326790589587,0.08078367940378241,-0.15992258179785243,-0.012466512621143917,0.04929658013215136,-0.15043134515295511,-0.3373377237353878,-0.09121281506832639,0.31313807581764547
2275,10.923963399996865,0.16352525093155726,0.007701221948798072,-0.08232942820840351,0.13651942290370517,0.08101942959630318,-0.16064168515874278,-0.014085632167190278,0.0488564310192139,-0.1489174004557852,-0.3366666325936448,-0.09213066605399665,0.3170680230758877
2276,10.927747599998838,0.16435913720374967,0.007839191692607252,-0.08317691753304304,0.13644780643372906,0.08125305566909867,-0.16135346890671948,-0.015701430063443232,0.048411855724300054,-0.1473846338172227,-0.3359574487147681,-0.0930573693472149,0.32097243588624386
2277,10.931635000000824,0.16516909852522896,0.00798738483671201,-0.0840080651948769,0.1363684349505186,0.08148453628140377,-0.16205784289119118,-0.017313724002822908,0.04796281137898213,-0.1458331692869477,-0.335210509331215,-0.0939929999292028,0.32485081439460955
2278,10.936272199993256,0.1659034015974758,0.008143823322314898,-0.08484581876005091,0.1362813257815308,0.08171384988507868,-0.16275471756446855,-0.01892233332145413,0.047509254754854936,-0.14426313330717702,-0.33442615938460357,-0.09493763073639017,0.32870266310961627
2279,10.939850900002057,0.1666269503593141,0.008253749089437074,-0.08576105317558276,0.13618649711909042,0.08194097472286926,-0.16344400399320727,-0.020527079035548575,0.047051142273631226,-0.14267465469132223,-0.3336047514145385,-0.09589133260621424,0.3325274909804079
2280,10.944220300007146,0.1673496793684482,0.008330214994001899,-0.08662156523417143,0.13608396801217387,0.08216588882671695,-0.16412561386974686,-0.0221277838777443,0.04658843001750221,-0.14106786460227572,-0.3327466454453279,-0.09685417422308805,0.33632481147279236
2281,10.948169600000256,0.16805248905087053,0.008434152958161252,-0.08757134336110743,0.135973758358018,0.08238857001611974,-0.16479945952334377,-0.023724272332892496,0.04612107373976209,-0.13944289653033312,-0.3318522088706295,-0.09782622206455463,0.34009414264374643
2282,10.952173700003186,0.16877715018915967,0.008621846815274375,-0.08844865393778926,0.13585588889355665,0.08260899589654516,-0.16546545393129708,-0.025316370673281505,0.045649028875695344,-0.1377998862707615,-0.3309218163360633,-0.09880754034764501,0.3438350072142528
2283,10.956795399994007,0.16954185747812592,0.008791794270560946,-0.08940996782967922,0.13573038118668784,0.08282714385789645,-0.16612351072996595,-0.026903906993288283,0.04517225055372557,-0.13613897190102153,-0.329955849619829,-0.0997981909754575,0.3475469326404485
2284,10.960988999999245,0.17017806669498517,0.008940360454479922,-0.0903065437294313,0.13559725762737468,0.0830429910730333,-0.16677354422567717,-0.02848671124344763,0.044690693606824705,-0.13446029375765198,-0.32895469751136575,-0.10079823348397547,0.3512294511830644
2285,10.9664344000048,0.17073986071199043,0.009054742055047173,-0.0911327165932695,0.1354565414185839,0.08325651449634863,-0.16741546940552066,-0.03006461526392979,0.044204312584181185,-0.1327639944128254,-0.3279187556880955,-0.10180772498914079,0.35488209997513764
2286,10.973756599996705,0.1720885434548338,0.009279393068439393,-0.09309506137912311,0.13530825656706494,0.08346769086240274,-0.16804920194803158,-0.0316374528174173,0.04371306176312548,-0.13105021865058272,-0.32684842659028934,-0.10282672013420026,0.35850442108797714
2287,10.97844000000623,0.1727513012687504,0.009408330866336438,-0.09408657977465801,0.1351524278739731,0.08367649668461587,-0.16867465823375752,-0.03320505962137196,0.04321689516131157,-0.12931911344275548,-0.3257441192940988,-0.10385527103734254,0.3620959615953673
2288,10.983203700001468,0.17333910490517732,0.0095132472910415,-0.09496290203769664,0.13498908092533957,0.0838829082540208,-0.16929175535570984,-0.03476727337968313,0.04271576654915288,-0.12757082792458535,-0.3246062493827911,-0.10489342723964233,0.36565627363599384
2289,10.98955319999368,0.17453378925446886,0.009743177166744223,-0.09685429837573653,0.13481824208239146,0.0840869016380765,-0.16990041112969753,-0.03632393381368853,0.04220962946251074,-0.1258055133700496,-0.32343523881623243,-0.10594123565332916,0.3691849144740763
2290,10.994013799994718,0.175199253473337,0.009894297771440045,-0.09793359422305374,0.13463993847172526,0.08428845267954468,-0.17050054410454257,-0.03787488269255943,0.04169843721563382,-0.12402332316690123,-0.32223151579866266,-0.10699874051039777,0.3726814465581907
2291,10.999204899999311,0.17588115616706784,0.010055320150158979,-0.09899615669173603,0.13445419797533606,0.08448753699543042,-0.17109207357217496,-0.039419963863041634,0.04118214291434675,-0.12222441279143327,-0.32099551464480236,-0.10806598331157724,0.3761454375782701
2292,11.004371500006528,0.1765056208550514,0.010296280791853156,-0.09992351605493875,0.1342610492205059,0.084684129975988,-0.1716749195776065,-0.04095902327854422,0.040660699469486014,-0.12040893978297654,-0.31972767564433635,-0.10914300277567571,0.37957646052076927
2293,11.009109499995247,0.1771237459163884,0.010445445738438615,-0.10100247356774708,0.13406052156955497,0.08487820678379338,-0.17224900292878184,-0.0424919090275683,0.040134059610581134,-0.11857706371813984,-0.31842844492481703,-0.11022983478931798,0.38297409372197966
2294,11.014988700000686,0.17821522135622472,0.010768151315542344,-0.10313404985351354,0.13385264510945863,0.08506974235288423,-0.17281424520630467,-0.04401847136146801,0.039602175899779074,-0.11672894618480192,-0.3170982743130312,-0.11132651235709268,0.3863379209194852
2295,11.019575800004532,0.1787837791002048,0.010963614393132953,-0.10422341430641263,0.13363745064133226,0.08525871138796866,-0.17337056877303805,-0.04553856272153629,0.039065000746009715,-0.1148647507558649,-0.3157376211948739,-0.11243306555212533,0.3896675313017474
2296,11.029662100001588,0.17998180395459681,0.011388155834415978,-0.10647227849403579,0.13341496966978736,0.08544508836370353,-0.17391789678357641,-0.04705203776540854,0.03852248641939022,-0.11298464296277821,-0.3143469483737727,-0.11354952146709459,0.39296251955581146
2297,11.035796099997242,0.18092748081276888,0.011788868109265264,-0.10866314612592831,0.1331852343921625,0.08562884752404311,-0.17445615319358798,-0.04855875339277706,0.0379745850658661,-0.11108879026884252,-0.3129267239277086,-0.11467590416570794,0.39622248591312575
2298,11.04017659999954,0.18143757373248076,0.012026703217805072,-0.10978395379506663,0.13294827768763176,0.08580996288165951,-0.17498526276902757,-0.05005856877040949,0.037421248722086915,-0.10917736204230216,-0.31147742106488024,-0.115812234634654,0.39944703619346716
2299,11.044383300002664,0.18193210513611374,0.012223189054257455,-0.11091610359659618,0.132704133106194,0.08598840821743617,-0.17550515109521878,-0.05155134535646494,0.036862429330514236,-0.10725052952923499,-0.30999951797805875,-0.11695853073604687,0.40263578184696525
2300,11.048743199993623,0.1824779901084943,0.012423199374914472,-0.1120322421033101,0.1324528348575462,0.08616415708003564,-0.17601574458580455,-0.05303694692410139,0.03629807875475922,-0.10530846582624862,-0.30849349769768186,-0.11811480716037903,0.40578833999422065
2301,11.053309900002205,0.1829878613568343,0.012665319180943846,-0.11323728167899728,0.13219441779984392,0.08633718278554273,-0.17651697049156517,-0.05451523958436857,0.03572814879514691,-0.1033513458529928,-0.30695984794373543,-0.1192810753799987,0.40890433346451294
2302,11.064638900003049,0.18429628774516277,0.013438328989917162,-0.11671656847590176,0.13192891742835236,0.08650745841718398,-0.17700875690910273,-0.055986091808380635,0.03515259120450448,-0.10137934632449715,-0.30539906097646763,-0.12045734360312763,0.4119833908320942
2303,11.07061860000249,0.18478038197252744,0.01377128238619119,-0.1178767551505882,0.13165636986399096,0.0866749568251252,-0.17749103278939052,-0.05744937444876303,0.034571357704170434,-0.09939264572334372,-0.3038116334459833,-0.12164361672843493,0.41502514645056726
2304,11.075526600005103,0.1852635904451378,0.014101772756475289,-0.1190734609373138,0.13137681184177558,0.08683965062634845,-0.17796372794618645,-0.058904960760368094,0.03398440000022189,-0.09739142427168393,-0.30219806624076484,-0.12283989630018237,0.41802924048534956
2305,11.08246419999341,0.1861386309288917,0.014657778526773234,-0.12150508102025667,0.1310902806991614,0.08700151220460932,-0.1784267730643098,-0.06035272642025433,0.03339166979991693,-0.09537586390310887,-0.3005588643351684,-0.1240461804639564,0.42099531894421977
2306,11.086388600000646,0.1861386309288917,0.014657778526773234,-0.12150508102025667,0.1307968143642899,0.08716051371047583,-0.17888009970778074,-0.06179254954692428,0.03279311882834892,-0.09334614823438199,-0.2988945366359409,-0.12526246392300244,0.4239230337059496
2307,11.090418399995542,0.18655130353322646,0.014937109707126278,-0.12268796853552322,0.13049645134414325,0.08731662706144955,-0.179323640327823,-0.06322431071881632,0.0321886988453096,-0.09130246253704308,-0.2972055958278071,-0.12648873789517703,0.42681204254702154
2308,11.095561699999962,0.1873441487056245,0.01543255902226379,-0.12512282343762798,0.13018923071261077,0.08746982394216984,-0.1797573282707282,-0.06464789299204607,0.03157836166235756,-0.08924499370889302,-0.295492558218174,-0.12772499007053303,0.429662009166433
2309,11.099899499997264,0.18777999584102828,0.015707326869844395,-0.12649791124953338,0.12987519209847115,0.08762007580470227,-0.1801810977855819,-0.06606318191739356,0.030962059160088748,-0.08717393024536847,-0.29375594358100193,-0.1289712045695528,0.43247260320858905
2310,11.104625599997236,0.18828111114665885,0.01600704042982407,-0.1277919540456199,0.1295543756732962,0.08776735386891188,-0.1805948840318513,-0.06747006555653208,0.03033974330560582,-0.08508946221081592,-0.29199627499988995,-0.1302273619020438,0.4352435002842889
2311,11.108749100007117,0.18879063900597856,0.01633068240879926,-0.12907578401275316,0.12922682213927933,0.08791162912292255,-0.18099862308683423,-0.06886843449749518,0.029711366170182926,-0.0829917812096744,-0.2902140787104257,-0.13149343892671223,0.4379743819898105
2312,11.113058400005684,0.18922326833398465,0.01668451249725956,-0.13035751422305206,0.12889257271699261,0.08805287232366332,-0.18139225195296727,-0.0702581818693783,0.02907687994712246,-0.08088108035757613,-0.2884098839418491,-0.1327694088114295,0.4406649359240999
2313,11.11705630000506,0.18964323678130662,0.016986818290846434,-0.13169410817567873,0.12855166913307653,0.08819105399750277,-0.18177570856499414,-0.07163920335627223,0.02843623696979997,-0.07875755425237452,-0.28658422275807766,-0.1340552409942072,0.44331485570407103
2314,11.122825400001602,0.19038606113133863,0.017576582320942075,-0.1342347414191715,0.12820415360786674,0.08832614444097198,-0.18214893179699387,-0.07301139721042538,0.02778938972989352,-0.07662139894510824,-0.2847376298981435,-0.13535090114489562,0.4459238409780237
2315,11.127049600007012,0.190823732732231,0.017939417244950174,-0.13554209990910016,0.12785006884296193,0.08845811372157703,-0.182511861469269,-0.0743746642646324,0.027136290895793717,-0.07447281191091044,-0.28287064261608974,-0.13665635112761987,0.4484915974371883
2316,11.130680500005838,0.190823732732231,0.017939417244950174,-0.13554209990910016,0.12748945800873643,0.08858693167870157,-0.18286443835509358,-0.07572890794384675,0.026476893331190632,-0.07231199201987237,-0.280983800520377,-0.13797154896396693,0.45101783682540697
2317,11.135584100004053,0.19164701066990728,0.01875238064703167,-0.13820586244201977,0.12712236473180094,0.0887125679246002,-0.18320660418732027,-0.0770740342760152,0.02581115011383359,-0.0701391395078704,-0.2790776454128516,-0.1392964487969373,0.4535022769469595
2318,11.139868500002194,0.19197431689094818,0.01911884647354875,-0.13952287485907122,0.12674883308241564,0.08883499184548316,-0.18353830166484722,-0.07840995190213318,0.02513901455446,-0.06795445594736577,-0.27715272112732414,-0.14063100085567545,0.45594464167254556
2319,11.14462160000403,0.1923689676274081,0.0194758319306722,-0.14090893644967628,0.1263689075618589,0.08895417260269371,-0.18385947445894493,-0.07973657208551946,0.02446044021588909,-0.06575814421818567,-0.27520957336780977,-0.1419751514209934,0.4583446609434347
2320,11.148616299993591,0.19272766585943457,0.019799394640253785,-0.14221115015391056,0.12598263308975546,0.08907007913397856,-0.1841700672194432,-0.08105380872030843,0.023775380932276585,-0.06355040847829421,-0.2732487495464802,-0.14332884279170205,0.46070207077379677
2321,11.152838499998325,0.19272766585943457,0.019799394640253785,-0.14221115015391056,0.12559005499136738,0.08918268015485235,-0.184470025580778,-0.08236157833915873,0.023083790828526084,-0.06133145413456172,-0.27127079862137893,-0.1446920132517627,0.46301661325122845
2322,11.157730699997046,0.1934953098216993,0.02049937237488584,-0.1448932942911875,0.12519121898485217,0.08929194416005713,-0.18475929616789805,-0.0836598001201774,0.022385624339853062,-0.05910148781354109,-0.2692762709339507,-0.1460645970382717,0.4652880365354908
2323,11.161563700006807,0.19387963427662117,0.020867648409702594,-0.1463002563087887,0.12478617116849244,0.08939783942511761,-0.18503782660203155,-0.08494839589305844,0.02168083623149711,-0.056860717332260106,-0.26726571804643634,-0.14744652431029187,0.4675160948554741
2324,11.165321399996174,0.19428670713774007,0.02126791548146306,-0.14760686136391796,0.12437495800790023,0.08950033400799282,-0.1853055655063131,-0.08622729014443561,0.020969381618578087,-0.05460935166903865,-0.26523969257918256,-0.14883772111854351,0.4697005485044048
2325,11.16881600000488,0.19463843950087945,0.021607989370946275,-0.1489351305964378,0.1239576263232,0.08959939575082435,-0.185562462511271,-0.087496410022449,0.02025121598609172,-0.052347600934339135,-0.26319874804791304,-0.15023810937596885,0.4718411638333121
2326,11.17369179999514,0.1949626779333133,0.021965859241996295,-0.15030684259890484,0.12353422327619451,0.0896949922817822,-0.18580846826017502,-0.08875568534052536,0.01952629520904033,-0.050075676341658486,-0.26114343870101203,-0.15164760682918238,0.47393771324277006
2327,11.179447999995318,0.19536558559150272,0.022346836749199905,-0.15162329722241075,0.1231047963575171,0.0897870910170089,-0.18604353441424457,-0.09000504858037264,0.01879457557269402,-0.04779379017846979,-0.2590743193568688,-0.15306612703081987,0.4759899751729379
2328,11.183290700006182,0.19574919442001748,0.022817702872151974,-0.1528553185435165,0.12266939337377455,0.08987565916266256,-0.18626761365771657,-0.0912444348941886,0.01805601379297793,-0.0455021557772217,-0.2569919452413311,-0.15449357931279797,0.4779977340919189
2329,11.186958999998753,0.19612825062473993,0.02328294204673658,-0.15415116466260453,0.12222806243468441,0.08996066371705946,-0.18648065970277505,-0.09247378210608412,0.017310567036980754,-0.04320098748640376,-0.2548968718253175,-0.15592986876049736,0.47996078048245977
2330,11.191633199996431,0.1965094913343166,0.02370500591665888,-0.1554343769320379,0.12178085194021016,0.0900420714729166,-0.18668262729434248,-0.09369303071272263,0.016558192943580165,-0.04089050064168552,-0.2527896546626392,-0.15737489618788114,0.4818789108270114
2331,11.196024499993657,0.19680856692134202,0.024096564948180008,-0.1568010854505977,0.12132781056769837,0.09011984901969515,-0.18687347221473338,-0.09490212388317681,0.01579884964418033,-0.038570911537136994,-0.25067084922808125,-0.15882855811356114,0.4837519275911752
2332,11.199876300001051,0.19715023027745399,0.02451650773290731,-0.15807177257051092,0.12086898725902118,0.09019396274604566,-0.18705315128817082,-0.09610100745800365,0.015032495783556789,-0.03624243739653844,-0.24854101075579232,-0.1602907467378236,0.4855796392055562
2333,11.208546800000477,0.1977766319371693,0.025392932962183225,-0.16057891569051952,0.12040443120772759,0.09026437884235514,-0.18722162238516596,-0.09728962994753937,0.014259090540803756,-0.03390529634478694,-0.2464006940780305,-0.16176134992062619,0.48736186004604753
2334,11.212726900004782,0.19811215374638072,0.025864707702036947,-0.16199288801722408,0.11993419184620746,0.0903310633033967,-0.18737884442676084,-0.09846794252941649,0.013478593650378972,-0.031559707379407276,-0.2442504534643128,-0.1632402511605783,0.48909841041256963
2335,11.216516800006502,0.19847632577787458,0.026320590026444705,-0.16320451002910688,0.1194583188328715,0.0903939819310818,-0.18752477738863377,-0.09963589904530563,0.012690965423241133,-0.0292058903421747,-0.24209084246101678,-0.16472732957491595,0.490789116506288
2336,11.220594099999287,0.19886340243616796,0.026896189822502775,-0.1644336938889075,0.11897686203935152,0.0904531003373158,-0.18765938230506812,-0.10079345599688497,0.011896166768074971,-0.026844065890856455,-0.23992241373148226,-0.16622245988048337,0.4924338104053342
2337,11.224803300006895,0.19918585639991057,0.02739287673144777,-0.16571889638470325,0.11848987153772458,0.09050838394695719,-0.18778262127278497,-0.10194057254104015,0.01109415921259893,-0.02447445547107951,-0.2377457188966608,-0.16772551237573347,0.4940323300390562
2338,11.22906779999903,0.19943437720246207,0.027748055492121986,-0.16705996248821672,0.11799739758776513,0.09055979800088029,-0.18789445745464048,-0.1030772104842977,0.010284904924950378,-0.022097281288331345,-0.23556130837636102,-0.16923635292375838,0.49558451916082735
2339,11.232687499999884,0.19943437720246207,0.027748055492121986,-0.16705996248821672,0.11749949062422888,0.09060730755914162,-0.18799485508318856,-0.10420333427649502,0.009468366735143143,-0.019712766280100408,-0.23336973123113636,-0.17075484293636148,0.49709022731944186
2340,11.239451899993584,0.20025482216359639,0.028926314599576522,-0.17059371157009445,0.11699620124417179,0.09065087750425023,-0.18808377946411003,-0.10531891100369065,0.008644508156592227,-0.017321134088162857,-0.23117153500486332,-0.17228083935918223,0.49854930982912754
2341,11.243891999998596,0.20057209445642646,0.029332736701238513,-0.17189688982263068,0.11648758019430805,0.09069047254454243,-0.18816119697950928,-0.10642391038031797,0.007813293407700445,-0.014922609031022098,-0.22896726556805536,-0.17381419465788542,0.4999616277382026
2342,11.248317200006568,0.200840684887834,0.029710213995328152,-0.1731085497169812,0.11597367835841019,0.0907260572176614,-0.18822707509107872,-0.10751830474058632,0.006974687433501745,-0.012517416076507398,-0.2267574669619578,-0.17535475680542584,0.5013270477964069
2343,11.252321899999515,0.20113832007561624,0.030110590278449867,-0.174367035352242,0.11545454674475458,0.09075759589414187,-0.18828138234313252,-0.10860206902913394,0.006128655927355835,-0.010105780814537797,-0.22454268124346813,-0.17690236927039926,0.5026454424209366
2344,11.26341020000109,0.2017372009815137,0.030910842241245125,-0.17671141111765626,0.1149302364736158,0.09078505278110006,-0.18832408836550965,-0.10967518079093741,0.005275165352688788,-0.007687929430057419,-0.22232344833092604,-0.1784568710064896,0.5039166896612114
2345,11.2688671000069,0.20224020027953732,0.031819214890417835,-0.17891361729472519,0.11440079876481433,0.09080839192602935,-0.18835516387634735,-0.11073762016048216,0.004414182964774223,-0.005264088676148084,-0.22010030585081827,-0.1800180964430228,0.5051406731624085
2346,11.27327890000015,0.20246262371999055,0.03224333726195018,-0.18001963562093617,0.11386628492532053,0.09082757722070155,-0.1883745806847247,-0.11178936985019894,0.0035456768325496046,-0.0028344858473249865,-0.21787378898544194,-0.18158587547663813,0.5063172821277967
2347,11.277619700005744,0.20282142320608548,0.032618667472728714,-0.1811421648813367,0.11332674633691876,0.09084257240517427,-0.1883823116931779,-0.11283041513817128,0.0026696158604621765,-0.0003993487530209887,-0.21564443032157105,-0.18316003346408727,0.5074464112799066
2348,11.285516000003554,0.20337043416219214,0.033401935794063455,-0.18327487476254364,0.11278223444393505,0.09085334107190397,-0.1883783309000874,-0.11386074385511893,0.0017859698103390206,0.002041094308735059,-0.21341275970017007,-0.1847403912161712,0.5085279608205676
2349,11.290303799993126,0.20353145391202807,0.03379922029171268,-0.18432678183039486,0.11223280074103151,0.09085984666996459,-0.18836261340193888,-0.11488034637066152,0.0008947093232757136,0.0044866145774407245,-0.21117930406719762,-0.1863267649928243,0.5095618363898419
2350,11.29402349999873,0.2037175886534277,0.03413592195856384,-0.18538812908671917,0.1116784967610712,0.09086205250937177,-0.18833513539545804,-0.11588921557886774,-4.194058462022398e-06,0.006936982856038072,-0.208944587325543,-0.18791896649935563,0.5105479490238893
2351,11.299087000006692,0.20395257618606008,0.03454141422291494,-0.18635792503190188,0.11111937406305619,0.09085992176551312,-0.18829587417962074,-0.11688734688309531,-0.0009107678695293083,0.009391969536622517,-0.2067091301881374,-0.1895168028838572,0.511486215111796
2352,11.304564399993978,0.20421195435400002,0.0349248080202385,-0.18750216438098843,0.11055548422014212,0.09085341748368468,-0.18824480815753913,-0.11787473818012742,-0.00182503869959139,0.011851344625937732,-0.20447345003228212,-0.19112007673578862,0.5123765563513997
2353,11.310494699995616,0.20467904675811435,0.03584291908021176,-0.18956748025419545,0.10998687880773274,0.09084250258373375,-0.18818191683822433,-0.11885138984361149,-0.0027470321714169158,0.014314877770652048,-0.20223806075523407,-0.19272858608574694,0.5132188997041511
2354,11.314852199997404,0.20492074221272877,0.03628033613155629,-0.1905462333124139,0.10941360939165806,0.09082713986480835,-0.18810718083822636,-0.11981730470680672,-0.00367677291898094,0.01678233828241195,-0.2000034726310898,-0.19434212440642978,0.5140131773490455
2355,11.319647800002713,0.20516837535668092,0.036665612929630546,-0.1915696861495733,0.1088357275164392,0.09080729201021308,-0.18802058188315324,-0.12077248804464694,-0.0046142845655834175,0.019253495162668492,-0.1977701921690077,-0.19596048061480123,0.5147593266356586
2356,11.324861000000965,0.20538835301115577,0.037032483358611853,-0.19259566358080377,0.10825328469364362,0.09078292159237081,-0.18792210280906957,-0.12171694755512515,-0.005559589701988982,0.021728117127272652,-0.19553872197280878,-0.19758343907546902,0.5154572900363272
2357,11.329147399999783,0.2056290798683266,0.03736066976073952,-0.1935292055136255,0.10766633239033357,0.09075399107789023,-0.18781172756377668,-0.12265069334000801,-0.006512709864593849,0.02420597263083575,-0.19330956060199536,-0.19921077960528147,0.5161070150975081
2358,11.33328760000586,0.2058455187017055,0.03773930357311761,-0.1944649320734385,0.10707492201761112,0.09072046283273848,-0.1876894412079754,-0.1235737378848872,-0.007473665513625711,0.02668682989085123,-0.1910832024342265,-0.2008422774791514,0.5167084543903518
2359,11.337596099998336,0.20602811800800075,0.03809436431751989,-0.1954200692170578,0.10647910491926205,0.09068229912751825,-0.18755522991631293,-0.12448609603857498,-0.008442476011382528,0.029170456911574147,-0.1888601375292885,-0.2024777034371153,0.5172615654605293
2360,11.342510699993,0.2062004901956077,0.038463360378354974,-0.19633289666847084,0.10587893236050186,0.09063946214284894,-0.1874090809783148,-0.12538778499185138,-0.009419159600516126,0.03165662150765503,-0.186640851494599,-0.20411682369263576,0.517766310777347
2361,11.347511999993005,0.20645275953908016,0.038839032623605926,-0.19730844978020387,0.10527445551682728,0.09059191397485129,-0.18725098279920363,-0.12627882425557072,-0.010403733382366564,0.034145091327524996,-0.1844258253522821,-0.20575939994215584,0.518222657682192
2362,11.352425499993842,0.2070032767723309,0.03956702227203367,-0.19907234581032476,0.1046657254629762,0.0905396166407354,-0.18708092490060613,-0.1271592356381351,-0.011396213295353253,0.03663563387652925,-0.1822155354078526,-0.2074051893759135,0.5186305783363434
2363,11.356677300005686,0.20729072929558368,0.0399475997762338,-0.19992508277417562,0.1040527931619993,0.09048253208449167,-0.18689889792114978,-0.1280290432223428,-0.01239661409342883,0.039128016539806465,-0.18001045312054395,-0.20905394469002317,0.5189900496681884
2364,11.366393400006928,0.20769996667679538,0.04064063727103821,-0.20150176301344508,0.103435709454446,0.09042062218268437,-0.18670489361695072,-0.12888827334162012,-0.0134049493246018,0.04162200660491153,-0.1778110449753159,-0.21070541409983146,0.5193010533198792
2365,11.37625499999558,0.2081227686526399,0.041432627760237935,-0.20317878022382432,0.10281452504766728,0.09035384875034744,-0.18649890486199414,-0.12973695455564477,-0.014421231309533931,0.04411737128417938,-0.17561777235657564,-0.21235934135455556,0.5195635755934708
2366,11.3818339999998,0.20851375759695012,0.0421348595341508,-0.20474250423949772,0.10218929050523815,0.09028217354698198,-0.18628092564840776,-0.1305751176253689,-0.015445471120218466,0.04661387773682774,-0.17343109142364593,-0.21401546575321156,0.5197776073965829
2367,11.385706999994,0.20870668980316137,0.042514737389911426,-0.2054199505257448,0.10156005623650297,0.090205558282655,-0.18605095108662978,-0.13140279548745137,-0.01647767855874521,0.049111293090796995,-0.1712514529880139,-0.2156735221618389,0.5199431441876232
2368,11.389102999994066,0.20870668980316137,0.042514737389911426,-0.2054199505257448,0.1009268724862464,0.0901239646241982,-0.18580897740547211,-0.1322200232281072,-0.01751786213615854,0.05160938446432519,-0.16907930239239174,-0.21733324103202756,0.520060185920613
2369,11.39468460000353,0.20908490501772883,0.04331563252593698,-0.20675091456581215,0.10028978932449246,0.09003735420150658,-0.18555500195207997,-0.13302683805638396,-0.01856602905141452,0.05410791898725691,-0.16691507939162273,-0.21899434842075458,0.5201287369896523
2370,11.398349099996269,0.20926356070390612,0.043699144257940636,-0.20744769529349574,0.09964885663643426,0.08994568861393626,-0.18528902319178983,-0.13382327927687376,-0.01962218517044325,0.05660666382208471,-0.16475921803546284,-0.22065656601153721,0.5201488061730659
2371,11.402303900002153,0.2094345172743091,0.0440797642350146,-0.20820078187564844,0.09900412411249675,0.08984892943680058,-0.18501104070788663,-0.13460938826186938,-0.020686335005322815,0.05910538618472179,-0.16261214655327014,-0.22231961113690918,0.5201204065772677
2372,11.406568999998854,0.20957388329717935,0.04445799806112476,-0.2088229928074221,0.09835564123853449,0.08974703822796397,-0.18472105520126098,-0.13538520842297483,-0.021758481693570923,0.06160385336500491,-0.1604742872406321,-0.22398319680222614,0.5200435555803871
2373,11.410831800007143,0.20971832919493133,0.044811110229986025,-0.20937814884855147,0.09770345728616714,0.08963997653453344,-0.18441906848996817,-0.1361507851821791,-0.022838626977560356,0.0641018327469265,-0.1583460563479603,-0.22564703171080672,0.5199182747756974
2374,11.414726000002702,0.20985944913989646,0.04516392286429795,-0.21004481859567908,0.09704762130325492,0.08952770589964673,-0.1841050835086896,-0.13690616594240304,-0.02392677118406459,0.06659909182859595,-0.15622786397108182,-0.22731082029041572,0.5197445899148877
2375,11.418728799995732,0.20998340100586776,0.045479869900448014,-0.2106048167859636,0.09638818210451677,0.08941018786935606,-0.18377910430809857,-0.1376514000575283,-0.02502291320393987,0.06909539824192924,-0.15412011394385527,-0.2289742627210959,0.5195225308512136
2376,11.423213000001851,0.21007720497231575,0.04578630782209886,-0.2110951734419205,0.09572518826229395,0.0892873839996067,-0.1834411360541324,-0.1383865388019182,-0.026127050471950037,0.07159051977206686,-0.15202320373283867,-0.23063705496435283,0.519252131482562
2377,11.427198799996404,0.2102389791291622,0.04619054093815089,-0.21156811380389268,0.09505868809746097,0.0891592558633099,-0.18309118502717237,-0.13911163533944035,-0.027239178946740338,0.07408422437651994,-0.14993752433403584,-0.23229888879369953,0.518933429694471
2378,11.431346800003666,0.21035591858247815,0.04651232428143133,-0.2120467818269656,0.09438872967048645,0.08902576505750986,-0.18272925862113393,-0.13982674469200068,-0.028359293090966634,0.07657628020404487,-0.14786346017174812,-0.2339594518265662,0.5185664673031433
2379,11.43559280000045,0.2105032531881317,0.04678101671980818,-0.21255096281715868,0.09371536077264588,0.08888687321064379,-0.1823553653424678,-0.14053192370759932,-0.02948738585158639,0.0790664556132461,-0.1458013889995564,-0.23561842755757978,0.5181512899984936
2380,11.439907899999524,0.21063939051093047,0.04711308476612372,-0.21302783571808842,0.09303862891738852,0.08874254198989416,-0.18196951480907286,-0.14122723102791893,-0.03062344864031777,0.08155451919090807,-0.14375168180345788,-0.23727549539321768,0.5176879472872675
2381,11.444187899993269,0.21077880286756934,0.04737338654410721,-0.21360047625804848,0.0923585813318605,0.0885927331086328,-0.18157171774912256,-0.1419127270554569,-0.03176747131427332,0.08404023977005752,-0.14171470270718128,-0.23893033068783975,0.5171764924362701
2382,11.447980400000231,0.21097444595046774,0.04767739919836781,-0.21413347184488846,0.09167526494858633,0.08843740833395587,-0.18116198599980526,-0.14258847392021134,-0.03291944215677481,0.08652338644775623,-0.13969080887970442,-0.24058260478110308,0.516616982415744
2383,11.452257600001758,0.2111270001165571,0.04799273214642736,-0.21451622464649067,0.09098872639731105,0.08827652949430878,-0.18074033250598037,-0.14325453544593203,-0.034079347858355646,0.08900372860262531,-0.1376803504449973,-0.2422319850367635,0.5160094778429367
2384,11.46042370000214,0.2113226377174408,0.04851713452515747,-0.21521318833675845,0.09029901199700514,0.08811005848719994,-0.18030677131875153,-0.1439109771159478,-0.03524717349795751,0.09148103591210219,-0.13568367039401358,-0.24387813488286675,0.5153540429258963
2385,11.4645523000072,0.21141689192853771,0.0487857585323185,-0.21551756072412995,0.0896061677480341,0.08793795728700222,-0.17986131759395926,-0.1445578660385811,-0.03642290252432746,0.09395507836943144,-0.1337011044989516,-0.2455207138533328,0.5146507454075363
2386,11.469088300000294,0.21147957658526548,0.049043023062313805,-0.21579932706864222,0.08891023932449453,0.08776018795284142,-0.17940398759059398,-0.1451952709121612,-0.037606516737622074,0.09642562630039121,-0.13173298122980737,-0.2471593776309363,0.5138996565100097
2387,11.473402899995564,0.21153395058881744,0.04928055614231519,-0.21607438082285493,0.08821127206671871,0.08757671263657105,-0.17893479866913048,-0.14582326198964687,-0.038797996271224995,0.09889245037975657,-0.12977962167323914,-0.24879377809168646,0.5131008508794267
2388,11.477626000007149,0.21158590589419105,0.04951585855513605,-0.21632231210526184,0.08750931097394898,0.0873874935908323,-0.1784537692897864,-0.1464419110428699,-0.03999731957378465,0.10135532164750191,-0.12784133945376241,-0.2504235633506097,0.5122544065309532
2389,11.4813381999993,0.21163548638554253,0.04975328501992947,-0.21656174231195696,0.08680440069718412,0.0871924931771979,-0.17796091901070504,-0.1470512913264111,-0.04120446339147832,0.10381401152474454,-0.12591844065729407,-0.252048377808936,0.5113604047943268
2390,11.48596269999689,0.21168498863122853,0.04996850453031394,-0.21678057920247698,0.08609658553219901,0.08699167387439889,-0.1774562684860634,-0.147651477541121,-0.04241940275050936,0.10626829182943175,-0.12401122375706476,-0.2536678622026922,0.510418930259829
2391,11.489958899997871,0.21172347713815073,0.05016508061655906,-0.2169598772649112,0.08538590941273956,0.08678499828663334,-0.17693983946410632,-0.14824254579729704,-0.043642110939844055,0.10871793479177394,-0.12211997954191654,-0.2552816536527044,0.5094300707247545
2392,11.493898000000629,0.21176041500547763,0.0503389767078507,-0.21714677853903905,0.08467241590389483,0.08657242915195587,-0.17641165478510829,-0.148824573577528,-0.04487255949419463,0.11116271306942607,-0.12024499104700277,-0.25688938571600867,0.5083939171404117
2393,11.498330100002931,0.21180765252448258,0.05051536665612029,-0.21732141807605487,0.08395614819564795,0.08635392935074629,-0.17587173837926473,-0.14939763969921785,-0.04611071817725508,0.11360239976242054,-0.11838653348690642,-0.2584906884386726,0.5073105635596912
2394,11.50278769999568,0.2118480297757816,0.05066287132631203,-0.2174849696103101,0.08323714909660741,0.08612946191425634,-0.17532011526451466,-0.1499618242767985,-0.047356554965196536,0.11603676842785403,-0.11654487419119157,-0.26008518841002787,0.5061801070852404
2395,11.506806000004872,0.21188577310892118,0.05081651427282876,-0.21763932758005541,0.08251546102791997,0.08589899003323324,-0.17475681154429573,-0.15051720868364438,-0.04861003603042883,0.11846559309433173,-0.11472027254240319,-0.2616725088183144,0.5050026478182772
2396,11.51043949999439,0.2119465377705151,0.05102748435447509,-0.21781626573869098,0.08179112601736606,0.08566247706661916,-0.17418185440523357,-0.15106387551370082,-0.04987112572563491,0.12088864827617252,-0.11291297991652897,-0.26325226950773756,0.5037782888080716
2397,11.51475919999939,0.2120010933214987,0.0512049702807723,-0.21798088478509575,0.08106418569363873,0.08541988655032545,-0.17359527211476633,-0.15160190854283825,-0.051139786568084634,0.12330570898737876,-0.11112323962593652,-0.26482408703693805,0.5025071360021319
2398,11.52147619999596,0.2120356476909817,0.05135605638610416,-0.21811864107099396,0.08033468128080708,0.08517118220607978,-0.172997094018706,-0.15213139268994455,-0.052415979224234306,0.12571655075537472,-0.10935128686479842,-0.2663875747388737,0.5011892981971251
2399,11.527238399998168,0.2121071531726335,0.051609993880966605,-0.2183800630867575,0.07960265359296587,0.08491632795034454,-0.17238735053873736,-0.1526524139777677,-0.05369966249461864,0.1281209496345165,-0.10759734865701721,-0.2679423427821125,0.49982488699056293
2400,11.535439800005406,0.21221573879717512,0.05179470010489713,-0.21869868292863553,0.07886814302907247,0.08465528790330568,-0.1717660731698562,-0.15316505949352116,-0.05499079329904162,0.13051868221937746,-0.10586164380666134,-0.2694879982335355,0.4984140167332866
2401,11.5401625999948,0.21228384396840752,0.05191777558307234,-0.21891155677053192,0.07813118956797209,0.08438802639792992,-0.17113329447774767,-0.1536694173492639,-0.05628932666207292,0.13290952565781322,-0.10414438285092159,-0.27102414512244893,0.4969568044827826
2402,11.543736199993871,0.21233058302204266,0.05199199953225464,-0.21900354237057035,0.07739183276361257,0.08411450798908943,-0.17048904809610538,-0.15416557664206657,-0.05759521569885632,0.13529325766381117,-0.10244576801559707,-0.2725503845061037,0.4954533699573613
2403,11.548062100002426,0.21239586634281696,0.05206153725804112,-0.21919818637407373,0.07665011174044978,0.08383469746275234,-0.16983336872389174,-0.15465362741397537,-0.05890841160123646,0.1376696565301281,-0.10076599317311988,-0.27406631453661817,0.4939038354912284
2404,11.552356900006998,0.21247157948434872,0.05213916741639949,-0.21933836079785043,0.07590606518904439,0.08354855984523778,-0.16916629212254072,-0.15513366061178577,-0.06022886362421054,0.1400385011407203,-0.09910524380312688,-0.2755715305293018,0.4923083259904824
2405,11.556339999995544,0.21252358481195,0.05221229344508332,-0.2194583161553508,0.07515973136185145,0.08325606041253424,-0.16848785511310413,-0.1556057680466388,-0.06155651907271163,0.1423995709829706,-0.0974636969555858,-0.2770656250323743,0.4906669688900672
2406,11.5614127000008,0.2125909133120345,0.05227736784376705,-0.21956628132864248,0.07441114806920358,0.08295716469967959,-0.1677980955733422,-0.15607004235345195,-0.06289132328873023,0.1447526461597173,-0.09584152121648243,-0.27854818789807767,0.48897989411170867
2407,11.564826100002392,0.21263626701029978,0.05232623406127053,-0.21968947162725075,0.07366035267548858,0.08265183851020166,-0.16709705243475953,-0.15652657695019692,-0.0642332196387804,0.14709750740108946,-0.09423887667607539,-0.28001880635517795,0.4872472340228633
2408,11.56902500000433,0.21269896743650912,0.05239039934426833,-0.21980188164254044,0.07290738209552189,0.08234004792561762,-0.16638476567958732,-0.1569754659970366,-0.06558214950171705,0.14943393607615288,-0.09265591489972397,-0.28147706508285625,0.4854691233967068
2409,11.573115699997288,0.2127561728774628,0.05245576525617071,-0.21992187420332782,0.07215227279111482,0.08202175931499057,-0.16566127633771235,-0.1574168043553341,-0.06693805225691025,0.1517617142043731,-0.09109277890129411,-0.28292254628598484,0.48364569937318613
2410,11.577478899998823,0.2128159404404191,0.052517297019358984,-0.22005631921751753,0.07139506076783898,0.08169693934454164,-0.16492662648355405,-0.15785068754654613,-0.06830086527278263,0.1540806244669009,-0.08954960311914716,-0.28435482977178556,0.48177710142115737
2411,11.581446900003357,0.21286194653674895,0.0525641706288495,-0.22019021542419764,0.07063578157198803,0.08136555498731583,-0.16418085923288983,-0.1582772117110133,-0.06967052389571622,0.15639045021768508,-0.08802651339471483,-0.2857734930278664,0.47986347130163187
2412,11.58536379999714,0.21289919045016542,0.052617419792877165,-0.2203043882377332,0.06987447028773698,0.08102757353289977,-0.1634240187396295,-0.15869647356665884,-0.07104696143933527,0.15869097549441713,-0.08652362695366335,-0.28717811130163146,0.47790495303215413
2413,11.589833000005456,0.21292973841885818,0.05266080901029796,-0.2204146930400342,0.06911116153449949,0.0806829625971894,-0.16265615019253948,-0.15910857036760903,-0.07243010917417166,0.16098198502931294,-0.0850410523896489,-0.2885682576810567,0.4759016928523335
2414,11.596182199995384,0.21298282344194827,0.05270860762479339,-0.22053714478854583,0.06834588946448307,0.08033169013220604,-0.16187729981191679,-0.15951359986274755,-0.07381989631771937,0.16326326425973614,-0.08357888965066611,-0.28994350317682593,0.4738538391905521
2415,11.599701500002991,0.2130045021734436,0.05275926330176516,-0.22064514731742377,0.06757868776044251,0.07997372443595889,-0.16108751484621395,-0.15991166025421621,-0.07521625002488412,0.16553459933866987,-0.08213723002798991,-0.2913034168058203,0.47176154263186754
2416,11.605789299996104,0.21309877157727275,0.05280623969862651,-0.22088430742651344,0.06680958963363141,0.07960903416235235,-0.16028684356861594,-0.16030285015587395,-0.07661909537883398,0.16779577714504304,-0.08071615614771109,-0.29264756567595585,0.46962495588713316
2417,11.610235400003148,0.21313280944835714,0.05283835008280442,-0.2209970791925092,0.06603862782195166,0.07923758833113577,-0.15947533527356827,-0.16068726855172658,-0.07802835538225728,0.1700465852939165,-0.07931574196486517,-0.293975515072363,0.46744423376335
2418,11.615161499998068,0.2131673117858681,0.05286119634078247,-0.22110336102201608,0.06526583458830071,0.07885935633789382,-0.15865304027325683,-0.16106501475434043,-0.0794439509490343,0.17228681214653516,-0.07793605276015346,-0.295286828544899,0.4652195331352703
2419,11.618968299997505,0.21322926791024174,0.05286992762242874,-0.22125018520181475,0.06449124171911645,0.07847430796407537,-0.15782000989403988,-0.16143618836325274,-0.0808658008963291,0.17451624682025146,-0.07657714513925414,-0.2965810679969858,0.4629510129182688
2420,11.62329519999912,0.21326366860423324,0.05290372330920745,-0.22138847609200493,0.06371488052312003,0.07808241338705892,-0.15697629647283334,-0.1618008892233911,-0.08229382193710783,0.17673467919832725,-0.07523906703472069,-0.29785779377576604,0.46063883404249945
2421,11.62703760000295,0.21331433551985235,0.05295431941498597,-0.22152628588823264,0.06293678183025617,0.07768364319025232,-0.1561219533534498,-0.16215921738351455,-0.08372792867308945,0.1789418999396194,-0.07392185771046503,-0.29911656476356924,0.45828315942835507
2422,11.631312400000752,0.21336859658670815,0.052998077737731956,-0.22167182340997657,0.0621569759908312,0.07727796837322472,-0.15525703488289172,-0.1625112730546894,-0.08516803358813502,0.1811377004881552,-0.07262554776882187,-0.3003569384706787,0.45588415396324383
2423,11.635419700003697,0.2134361214695044,0.05304753587684435,-0.22182433479516112,0.06137549287484907,0.07686536036186797,-0.1543815964075997,-0.162857156568812,-0.0866140470420816,0.18332187308260317,-0.07135015916019047,-0.3015784711293891,0.45344198447969974
2424,11.639916000000085,0.21352376265719974,0.053114439165668464,-0.2220113063568016,0.060592361871544737,0.07644579101858565,-0.15349569426965606,-0.16319696833719122,-0.08806587726502679,0.18549421076564473,-0.07009570519524881,-0.3027807177893449,0.4509568197348399
2425,11.644177099995431,0.21358509145542243,0.05315101530409531,-0.2222128807721536,0.059807611889115084,0.07601923265250699,-0.1525993858029437,-0.1635308088092023,-0.08952343035206936,0.1876545073932538,-0.06886219055973496,-0.3039632324141482,0.4484288303911801
2426,11.648136799994973,0.2136615573892208,0.053209151278744746,-0.2224106892111238,0.05902127135464668,0.07558565802972386,-0.15169272932926067,-0.16385877843102414,-0.0909866102585119,0.18980255764389126,-0.06764961133178927,-0.30512556797922563,0.44585818899881935
2427,11.652317400003083,0.21374404912955955,0.05326910404949753,-0.2226004312412606,0.05823336821423968,0.07514504038354841,-0.1507757841543914,-0.16418097760447206,-0.09245531879553147,0.1919381570276212,-0.06645795500185063,-0.3062672765709417,0.4432450699790044
2428,11.656170300004304,0.21384590453107058,0.053335258123206476,-0.22280267098456918,0.057443929933327635,0.0746973534247892,-0.14984861056413415,-0.16449750664593793,-0.0939294556263233,0.1940611018951556,-0.06528720049509927,-0.3073879094869454,0.44058964960908276
2429,11.660637099994346,0.21393892797114722,0.05342108979179913,-0.2230663456523372,0.056652983497192604,0.07424257135204364,-0.1489112698202856,-0.16480846574545027,-0.09540891826272342,0.19617118944683423,-0.06413731819643857,-0.308487017337736,0.4378921060088537
2430,11.664708399999654,0.21401255763566082,0.053510134304779564,-0.2232841603608018,0.05586055541167466,0.07378066886200448,-0.1479638241565831,-0.16511395492586703,-0.09689360206231579,0.19826821774154596,-0.06300826997800708,-0.3095641501494348,0.4351526191283268
2431,11.66877590000513,0.21411694321218935,0.05359374597764611,-0.22356390856233174,0.05506667170407523,0.07331162115977788,-0.1470063367746039,-0.1654140740022138,-0.09838340022602936,0.20035198570559726,-0.06190000922921122,-0.3106188574677482,0.43237137073689313
2432,11.67293119999522,0.21422423175334523,0.053692706651503386,-0.22379232685745432,0.054271357924253326,0.07283540396921107,-0.1460388718396219,-0.16570892254117972,-0.09987820379623112,0.20242229314153512,-0.0608124808892687,-0.31165068846310773,0.42954854441391466
2433,11.676964600002975,0.21431892674267286,0.05376312544242293,-0.22407163448312806,0.05347463914591416,0.0723519935432277,-0.14506149447642175,-0.16599859982078313,-0.10137790165532105,0.20447894073693074,-0.059745621482252084,-0.3126591920369717,0.42668432554073366
2434,11.681304800004,0.214402750201297,0.053851316068088864,-0.22430007989133832,0.05267653996808956,0.07186136667416856,-0.14407427076507034,-0.1662832047902193,-0.10288238052483464,0.2065217300731304,-0.05869935915462112,-0.3136439169292738,0.4237789012941073
2435,11.685614899994109,0.2144820332319404,0.05393057853053622,-0.22452983700187903,0.051877084516809016,0.07136350070413472,-0.1430772677366446,-0.16656283602990188,-0.10439152496505837,0.20855046363397908,-0.05767361371523227,-0.31460441182700366,0.4208324606410687
2436,11.689571800001431,0.2145630056188171,0.054011455979001775,-0.2247726640607142,0.051076296446960316,0.07085837353533105,-0.14207055336891608,-0.16683759171171078,-0.10590521737516322,0.21056494481452384,-0.05666829667781304,-0.31554022547390287,0.41784519433521616
2437,11.693822000001092,0.21461264423795484,0.05412493009182971,-0.22500758809047605,0.050274198944338835,0.07034596364040799,-0.14105419658199217,-0.16710756955945763,-0.10742333799386132,0.21256497792970316,-0.05568331130588867,-0.3164509067812608,0.4148172949144305
2438,11.698176299993063,0.21466835317713173,0.05421650978491472,-0.22528302306124445,0.049470814727884435,0.06982625007279922,-0.14002826723391293,-0.16737286680958036,-0.10894576490059094,0.2145503682230286,-0.054718552660147794,-0.3173360049397918,0.41174895670002215
2439,11.702140499997768,0.214746306039198,0.0543172798916861,-0.2255200589430807,0.04866616605210505,0.06929921247705288,-0.13899283611620347,-0.1676335801720778,-0.11047237401723493,0.21652092187526562,-0.05377390764823339,-0.318195069532575,0.40864037579730716
2440,11.706878400000278,0.21481447048383742,0.05441688835420978,-0.22574525055886305,0.0478602747096857,0.0687648310991541,-0.13794797494938266,-0.16788980579169446,-0.1120030391103777,0.21847644601312075,-0.05284925507694426,-0.319027650649038,0.4054917500976094
2441,11.712063800005126,0.21486860114474116,0.05449407353064459,-0.22599897771685337,0.04705316203428143,0.06822308679683614,-0.13689375637842838,-0.16814163920936634,-0.11353763179410502,0.2204167487179412,-0.05194446570683215,-0.3198332989999635,0.40230327928168513
2442,11.71640920000209,0.21490589808716704,0.0545634304544434,-0.2262291435703535,0.046244848903492994,0.06767396104987779,-0.13583025396820012,-0.1683891753239393,-0.11507602153335213,0.2223416390344334,-0.051059402309179,-0.3206115660334984,0.3990751648245657
2443,11.726901700007147,0.21504834876077702,0.05475240317550556,-0.22697485220455496,0.045435355742023946,0.06711743597038396,-0.13475754219881889,-0.16863250835417187,-0.1166180756478046,0.2242509269794062,-0.05019391972533826,-0.3213620040521461,0.3958076100018142
2444,11.731174500004272,0.21507602248379185,0.0548238127872305,-0.22720773162564661,0.04462470252501766,0.06655349431304682,-0.13367569646100427,-0.16887173180103407,-0.11816365931635642,0.22614442355054531,-0.049347864928423774,-0.3220841663307216,0.392500819897189
2445,11.735895399993751,0.21511970568169905,0.054901280687315035,-0.22744797183784907,0.04381290878157296,0.06598211948538449,-0.13258479305136864,-0.16910693841031252,-0.11971263558212983,0.22802194073522553,-0.04852107708732905,-0.32277760723524807,0.38915500141170595
2446,11.7397806999943,0.21515966047044857,0.05495375171850951,-0.22768228193910167,0.04299999359843686,0.06540329555795468,-0.13148490916766806,-0.16933822013553193,-0.12126486535806152,0.22988329151936682,-0.047713387633058886,-0.32344188234277627,0.38577036327409236
2447,11.743822999997064,0.21518634460446406,0.0550663417548522,-0.22793633606317754,0.042185975623872655,0.06481700727454051,-0.13037612290400893,-0.16956566810120344,-0.12282020743305914,0.2317282898963409,-0.04692462032735502,-0.3240765485621046,0.3823471160526211
2448,11.752558299995144,0.21528100122996724,0.055304994989313995,-0.22857408280430194,0.04137087307170191,0.06422324006230597,-0.12925851324600995,-0.16978937256640989,-0.12437851847873307,0.2335567508759359,-0.04615459133359646,-0.3246811642553761,0.3788854721683158
2449,11.756506399993668,0.2152900108543459,0.0553889215933079,-0.22879522464425697,0.04055470372551889,0.06362198004191856,-0.12813216006591965,-0.1700094228887377,-0.1259396530567075,0.23536849049338598,-0.045403109289955106,-0.32525528936052833,0.3753856459095172
2450,11.760732599999756,0.21530450366185544,0.05549175350068239,-0.22903605211473033,0.03973748494307576,0.063013214037637,-0.12699714411768895,-0.17022590748856492,-0.1275034636265142,0.23716332581847152,-0.0446699753847867,-0.3257984855145726,0.371847853447797
2451,11.764701399995827,0.21531541587491126,0.05558885907226572,-0.2292643348630758,0.038919233660836876,0.06239692958736087,-0.12585354703199875,-0.17043891381371662,-0.12906980055407333,0.2389410749646942,-0.04395498343423693,-0.326310316177677,0.3682723128552047
2452,11.76886999999988,0.21532112809232185,0.055662273681371284,-0.2295344517420511,0.03809996639870053,0.061773114952638646,-0.12470145131124218,-0.17064852830449717,-0.13063851212076535,0.2407015570985325,-0.043257919962041744,-0.32679034675802787,0.3646592441228334
2453,11.772862700003316,0.2153405429209417,0.05576526850468779,-0.2297975397467106,0.037279699264886536,0.061141759128631165,-0.12354094032446125,-0.17085483635911064,-0.1322094445330981,0.24244459244878386,-0.042578564281500746,-0.3272381447374431,0.3610088691806927
2454,11.777287000004437,0.21534403245247632,0.055850947429154536,-0.2300162477645895,0.03645844796098802,0.06050285185402757,-0.1223720983022377,-0.17105792229947903,-0.13378244193297215,0.24417000231599928,-0.04191668857960167,-0.3276532797977092,0.35732141191887
2455,11.7816496000014,0.2153258067078251,0.05593892185971855,-0.23021397929733958,0.03563622778718548,0.05985638362091068,-0.121195010331537,-0.1712578693374677,-0.135357346408548,0.24587760908201634,-0.0412720580032737,-0.32803532394761326,0.353597098209965
2456,11.786359799996715,0.2153492755071937,0.0560630947889345,-0.2304686595926924,0.0348130536476213,0.05920234568456917,-0.1200097623505052,-0.17145475954152753,-0.13693399800571834,0.24756723621959642,-0.040644430747746485,-0.3283838516506434,0.34983615593277617
2457,11.792395299999043,0.21535103919089224,0.056168287149141086,-0.23068701866555424,0.03398894005593291,0.05854073007325359,-0.11881644114321875,-0.17164867380376347,-0.13851223474018914,0.24923870830217315,-0.040033558146991666,-0.32869843995332915,0.34603881499722217
