,time,x,y,z,vx,vy,vz,ax,ay,az,jx,jy,jz
2063,9.85138759999245,0.012360130207905579,0.012720629102930182,-0.02505331374121357,-0.011586215966943219,-0.02320028598381749,-0.0050036125762979,0.0038685941220863006,0.022250350248550863,0.005462684876301098,0.10368034629351965,0.1614080817085616,0.04712829010721056
2064,9.857077399996342,0.012273026473115912,0.012638503558916834,-0.025066536170304864,-0.011566501428283388,-0.023091834674233588,-0.004976908961741237,0.004366127951513552,0.023024840830085352,0.005688536617382161,0.10400513506418116,0.16187976190436817,0.04712343889359521
2065,9.862916999991285,0.012189863398027894,0.012457226308673262,-0.025047557984654585,-0.011544399260927497,-0.022979666926714756,-0.004949123062313562,0.004865194271546966,0.023801536548856403,0.005914348644697484,0.10431964520648422,0.1623298263837642,0.04711122950987025
2066,9.867161999995004,0.012125712676436086,0.012374874523745848,-0.0250422702060303,-0.011519902237588192,-0.022863772441737575,-0.0049202551449596755,0.005365743484773964,0.024580333295899568,0.006140085592249567,0.10462375276921199,0.162758091874389,0.04709163801892339
2067,9.871765199990476,0.012078069440787606,0.01227074670039167,-0.025021532445687913,-0.011493003370442156,-0.02274414142149039,-0.0048903056465559895,0.005867725401003019,0.02536112609439419,0.006365711980109876,0.1049173346475429,0.16316437807160297,0.04706464142054395
2068,9.87596069999563,0.012021823373033758,0.012172555771059648,-0.025006836665815067,-0.011463695913961932,-0.022620764573982783,-0.004859275174454487,0.006371089241463302,0.02614380911414448,0.0065911922189723785,0.10520026861447278,0.16354850768767104,0.04703021766045769
2069,9.880852300004335,0.01197260956780641,0.012076495635034067,-0.024977905182171606,-0.011431973367726818,-0.02249363311708395,-0.004827164507004614,0.006875783643155594,0.026928275686292955,0.006816490614752034,0.10547243335221579,0.1639103065007246,0.04698834563925517
2070,9.885075300000608,0.011922083326361806,0.011977013970553754,-0.02493340193800081,-0.011397829479212094,-0.022362738782488872,-0.004793974594052864,0.0073817566633542645,0.02771441831826517,0.007041571373227658,0.10573370848357828,0.16424960340349154,0.046939005221212415
2071,9.8897874999966,0.011873875105704769,0.0118879015550141,-0.02491501316555953,-0.011361258246555862,-0.022228073819611133,-0.004759706557419839,0.007888955784260096,0.02850212870894449,0.007266398604728619,0.1059839746032986,0.1645662304517835,0.04688217724300255
2072,9.896509999991396,0.011723858309679059,0.011733788956091949,-0.024937556049493367,-0.011322253921302802,-0.022089630999401293,-0.004724361691354577,0.008397327917803659,0.029291297764075488,0.007490936328864791,0.10622311330934643,0.1648600229127286,0.046817843522296995
2073,9.9007486999908,0.011672753378936992,0.011652945393070154,-0.024945997060247298,-0.011280811011124181,-0.021947403618089806,-0.0046879414629659695,0.008906819410598997,0.03008181561189441,0.0077151484792991895,0.10645100723417542,0.16513081931273782,0.04674598686625486
2074,9.905319999990752,0.011592522245173743,0.011573428215063518,-0.024979106296296256,-0.0112369242825134,-0.021801385500853494,-0.004650447512631088,0.00941737604904731,0.030873571618985258,0.007938998908562724,0.106667540075922,0.1653784614851955,0.04666659107989953
2075,9.908880499991938,0.011517479811121395,0.011502682866127406,-0.025008391098865258,-0.011190588763456381,-0.02165157100540464,-0.004611881654380195,0.00992894306459032,0.03166645440635976,0.008162451392910492,0.10687259662954399,0.16560279461786245,0.046579640974381144
2076,9.91314799999236,0.011436533097124519,0.011424123166480624,-0.025034306327020642,-0.01114179974607609,-0.02149795502550156,-0.004572245876258251,0.010441465139112935,0.03246035186575979,0.00838546963721902,0.10706606281789233,0.16580366729997983,0.04648512237512403
2077,9.917215399997076,0.011365121362230583,0.011351881637571625,-0.025033925944804955,-0.011090552789250432,-0.02134053299437955,-0.004531542340662706,0.010954886410494753,0.03325515117618062,0.008608017279923864,0.10724782572270916,0.16598093156906282,0.046383022129858134
2078,9.921275699991384,0.011289556652311626,0.011281539162565956,-0.02503931898287132,-0.011036843721202763,-0.021179300888101223,-0.004489773384657358,0.011469150478309938,0.03405073882061336,0.008830057897996945,0.107417773615546,0.16613444295737265,0.04627332811653343
2079,9.925906399992527,0.011209769381457145,0.011207342622479567,-0.025052396067016175,-0.01098066864206436,-0.021014255228825104,-0.0044469415202620785,0.011984200409674984,0.03484700060300467,0.009051555011963006,0.10757579598859537,0.16626406053805512,0.04615602925111672
2080,9.929713899997296,0.011149433770801614,0.011141589574003814,-0.025043930328317497,-0.010922023926408128,-0.020845393087991493,-0.004403049434718229,0.012499978745243874,0.03564382166543204,0.009272472090954553,0.10772178358542929,0.166369646970933,0.0460311154952699
2081,9.93385909999779,0.011084058945939118,0.011084123422356307,-0.025050500355041496,-0.010860906225752795,-0.020672712089424658,-0.004358099990729566,0.01301642750535008,0.0364410865054927,0.009492772557804658,0.1078556284316373,0.1664510685479395,0.04589857786390907
2082,9.938039899992871,0.011016470132454778,0.011010033686043967,-0.025064379803308223,-0.010797312471036914,-0.020496210412350394,-0.004312096226678464,0.013533488196294833,0.037238678993904505,0.00971241979417697,0.10797722386535766,0.1665081952381806,0.045758408432643706
2083,9.942148300004192,0.010954632784656913,0.010931557843161606,-0.025069458884145003,-0.010731239875061941,-0.02031588679432799,-0.00426504135681728,0.014051101816781113,0.03803648239231694,0.009931377145732296,0.1080864645676945,0.1665409007326146,0.04561060034509528
2084,9.946453800002928,0.010892343549472787,0.010855595811642227,-0.02507857257631989,-0.010662685934903698,-0.02013174053409556,-0.004216938771434666,0.014569208864492724,0.038834379371329955,0.010149607927331081,0.10818324659301486,0.16654906248833592,0.04545514782009503
2085,9.950473399992916,0.010830553600181633,0.010789219723437013,-0.025073620202551994,-0.010591648434291482,-0.019943771494327755,-0.004167792036996618,0.015087749342817848,0.03963225202871846,0.010367075428271179,0.10826746739911876,0.16653256177245201,0.04529204615876028
2086,9.954600600001868,0.010732695846883376,0.010710726000883231,-0.025114028886685992,-0.010518125445954166,-0.019751980104304897,-0.004117604896262104,0.015606662767716458,0.040429981907860256,0.010583742917560203,0.10833902587727617,0.16649128370554042,0.045121291751448946
2087,9.959130100003676,0.010635052730268746,0.010642386860798733,-0.02517066939820858,-0.010442115333932595,-0.01955636736249269,-0.004066381268373072,0.01612588817473085,0.041227450016365234,0.010799573649221773,0.10839782238212413,0.16642511730467408,0.044942882084591726
2088,9.96318930000416,0.010573521564567503,0.0105825674299246,-0.025217277304756428,-0.0103636167558576,-0.01935693483903161,-0.004014125248918644,0.01664536412613853,0.04202453684490372,0.011014530867634984,0.10844375876141774,0.16633395552600264,0.044756815747401646
2089,9.967697200001568,0.010449342843153428,0.010520654578665386,-0.025286529489690516,-0.010282628665192908,-0.019153684678135077,-0.00396084110997335,0.017165028718246662,0.04282112238623169,0.011228577812906418,0.10847673838562784,0.1662176953068769,0.04456309243846091
2090,9.972016200001235,0.010354985400690762,0.010460908471169296,-0.025335438984160435,-0.010199150313442255,-0.01894661960039549,-0.003906533300109205,0.017684819588827224,0.04361708615441059,0.011441677726273995,0.1084966661773788,0.16607623760750365,0.04436171297218468
2091,9.976005399992571,0.010247324487669072,0.01038032033567918,-0.02536990673769559,-0.010113181252319994,-0.018735742904997337,-0.0038512064443814438,0.018204673924691984,0.04441230720421935,0.011653793855542084,0.10850344864071941,0.16590948745211717,0.04415267928516139
2092,9.981109400003334,0.010132985852809685,0.010302343404261742,-0.025407405269519595,-0.010024721335884569,-0.01852105847183638,-0.00379486534428779,0.018724528469406473,0.04520666415075612,0.011864889460547205,0.10849699389022008,0.16571735396965442,0.04393599444236948
2093,9.989527700003237,0.009957144298845342,0.010123344828433373,-0.025456937324804713,-0.009933770722634211,-0.018302570763544086,-0.00373751497770111,0.019244319531141963,0.046000035189227094,0.012074927818653602,0.1084772116798899,0.1654997504339201,0.04371166264327029
2094,9.994152600003872,0.009874322301762195,0.010026920178110398,-0.025477290240192293,-0.009840329877564226,-0.018080284827416394,-0.003679160498775314,0.019763982990664564,0.046792298114919875,0.012283872230278018,0.10844401343190735,0.1652565943032285,0.043479689227776994
2095,10.003349899998284,0.009719495898015143,0.009845685715505382,-0.025550469229363302,-0.009744399574185223,-0.017854206297245937,-0.0036198072378243627,0.02028345430946038,0.04758333034335888,0.012491686024442962,0.10839731226515824,0.16498780725950957,0.04324008068209955
2096,10.009177699990689,0.009594421456817546,0.009662616404111498,-0.025627172738830514,-0.009645980896501646,-0.017624341395056947,-0.0035594607011742384,0.020802668537995724,0.048373008930640005,0.012698332564357913,0.1083370230235746,0.16469331524686504,0.04299284464446553
2097,10.017974399990637,0.009408899619797665,0.009513325256613152,-0.02576335008729407,-0.00954507524095,-0.017390696932741905,-0.003498126570987733,0.021321560324111352,0.04916121059394173,0.012903775253027813,0.10826306230426849,0.16437304850956155,0.04273798991071661
2098,10.022488499991596,0.009313938691955702,0.009450886162963265,-0.025823451414542904,-0.00944168431829614,-0.017153280313599147,-0.0034358107050619243,0.0218400639215498,0.04994781173220986,0.013107977538888179,0.10817534848545436,0.16402694162944695,0.04247552643978055
2099,10.028302499995334,0.009216912410007572,0.00939893793536247,-0.025898485569065797,-0.009335810155490983,-0.016912099533770666,-0.0033725191365982085,0.022358113198614794,0.0507326884470129,0.013310902921466144,0.108073801754154,0.16365493356277644,0.04220546535901889
2100,10.032518199994229,0.00912314364260398,0.009345652327045244,-0.02596603377086908,-0.009227455097484016,-0.016667163183579383,-0.003308258073944755,0.02287564164696158,0.051515716563565524,0.0135125149570668,0.10795834413367805,0.16325696767643388,0.04192781896945024
2101,10.037703599999077,0.00891128404016563,0.009253484875374423,-0.026081855769292946,-0.009116621808994063,-0.016418480448765056,-0.0032430339003112637,0.023392582390517145,0.052296771651917005,0.013712777264484168,0.10782889951087798,0.16283299178353533,0.041642600750849156
2102,10.04302209999878,0.008812540713650367,0.009195405301713757,-0.02611719557511579,-0.009003313276236722,-0.016166061111617985,-0.003176853173455891,0.023908868194529087,0.05307572904830186,0.01391165353073614,0.10768539366316225,0.1623829581784009,0.04134982536672059
2103,10.046782099991104,0.00869674240047097,0.009107576454669117,-0.02614580337073656,-0.00888753280860787,-0.01590991555200973,-0.0031097226253442084,0.024424431474742072,0.05385246387664965,0.014109107516822681,0.1075277542852701,0.16190682367088075,0.04104950866915007
2104,10.0509510999982,0.00859390407425694,0.009031605954455348,-0.02615256567379284,-0.00876928404032268,-0.015650054748320232,-0.0030416491617800924,0.02493920430670054,0.054626851070250906,0.014305103063506587,0.10735591101579647,0.16140454962002151,0.04074166770352939
2105,10.057100699996226,0.008519868556032229,0.008950959543178316,-0.026141568921196984,-0.008648570932009518,-0.015386490278260683,-0.002972639862008456,0.025453118435176468,0.055398765393576056,0.014499604097116127,0.10716979546346164,0.1608761019670594,0.04042632071315777
2106,10.061052699995344,0.008443018261782757,0.00885586656945469,-0.026146683043593834,-0.008525397772258164,-0.015119234319591536,-0.00290270197828972,0.025966105283720807,0.05616808146424424,0.014692574635368832,0.10696934123311987,0.16032145126772593,0.040103487143718274
2107,10.06573999999091,0.008382498387652752,0.008774111406613076,-0.026170919405785552,-0.008399769179121783,-0.014848299650735013,-0.002831842935445929,0.02647809596433728,0.05693467377513881,0.014883978793215737,0.10675448395150057,0.15974057272385234,0.03977318764762964
2108,10.072256699990248,0.008261904737295572,0.008573844387239146,-0.026274574717593084,-0.008271690101572127,-0.01457369965128133,-0.002760070330378427,0.02698902128727701,0.05769841671666616,0.015073780788705375,0.10652516129267575,0.15913344621425796,0.03943544408827354
2109,10.076372499999708,0.008186631760060788,0.008466488694783975,-0.026336098100112088,-0.008141165820907409,-0.014295448302388106,-0.002687391931556992,0.0274988117709526,0.05845918459915483,0.015261944948866806,0.10628131300324772,0.15850005632490782,0.03909027954409745
2110,10.07995139999548,0.008124811453423777,0.008366828455454993,-0.026386303603508427,-0.008008201952112234,-0.014013560187072302,-0.0026138156784803264,0.02800739765197012,0.05921685167539146,0.01544843571561104,0.1060228809272511,0.15784039237832503,0.038737718312593206
2111,10.084169199995811,0.00807404748793432,0.008268668235410432,-0.02643773495309536,-0.007872804445169083,-0.013728050490394085,-0.002539349681107813,0.02851470889527751,0.05997129216328991,0.015633217651650187,0.10574980903076313,0.15715444846224344,0.03837778591415124
2112,10.08848799999396,0.008010072874188166,0.008173276925859922,-0.026470653117923022,-0.007734979586320776,-0.013438934999531991,-0.002464002219262439,0.02902067520442792,0.060722380268689764,0.015816255446433662,0.10546204342621678,0.15644222345748646,0.03801050909579073
2113,10.092549399996642,0.007939153905565995,0.008072576677426991,-0.026509221278078494,-0.007594733999283428,-0.013146230103748886,-0.002387781742004802,0.029525226031956498,0.06146999020828037,0.015997513922100828,0.10515953239641028,0.15570372106505823,0.037635915834765506
2114,10.09683579999546,0.007865397100468453,0.007989671328063214,-0.026535233494073173,-0.007452074646409345,-0.012849952794248255,-0.002310696866978139,0.030028290589869087,0.06221399623264645,0.016176958039449397,0.10484222641820737,0.15493894983243348,0.03725403534204576
2115,10.100500799992004,0.007794307460478704,0.007881840219627846,-0.026555660131277112,-0.00730700882979941,-0.012550120663920352,-0.002232756379724286,0.030529797860241254,0.0629542726494316,0.01635455290391901,0.10451007818592226,0.1541479231790322,0.03686489806567519
2116,10.10828689999471,0.007648011357134169,0.007687171402914828,-0.026567904772397333,-0.007159544192364434,-0.012246751906977717,-0.0021539692329705087,0.03102967660592635,0.06369069384661574,0.016530263771589365,0.10416304263438322,0.1533306594208647,0.03646853569400373
2117,10.112956800003303,0.007607502239668445,0.007582247964153263,-0.026561340386929325,-0.007009688718834994,-0.011939865318479528,-0.002074344545887139,0.0315278553813709,0.0644231343159028,0.01670405605519219,0.10380107696166936,0.1524871817943328,0.036064981158795584
2118,10.117151600003126,0.007540314875762941,0.007453814091102563,-0.026557857347239245,-0.006857450736719261,-0.011629480293744313,-0.0019938916033159617,0.032024262543535756,0.06515146867621426,0.016875895330136396,0.10342414065151491,0.1516175184791723,0.03565426863821225
2119,10.121433499996783,0.0074967864980483665,0.007354861375220955,-0.026541124523880067,-0.006702838917208291,-0.011315616827650508,-0.0019126198549692893,0.03251882626292131,0.06587557169728439,0.017045747340545703,0.10303219549537573,0.15072170262052278,0.0352364335596706
2120,10.125614799995674,0.007481967917460172,0.007235811290804583,-0.026512368447977403,-0.006545862276028326,-0.010998295513824459,-0.0018305389145996784,0.03301147453469517,0.06659531832335351,0.017213578005308077,0.10262520561415206,0.14979977235011066,0.03481151260257587
2121,10.130277999996906,0.007436990573262775,0.0071450382028552225,-0.026501529150259703,-0.006386530174239633,-0.010677537543715468,-0.001747658559140239,0.03350213518992093,0.0673105836969548,0.017379353424136344,0.10220313747956204,0.1488517708065309,0.034379543700929494
2122,10.134657299990067,0.007416331974148879,0.007033779676163308,-0.026510684834794056,-0.006224852318981449,-0.010353364705557552,-0.0016639887278154925,0.033990735906886144,0.06802124318279082,0.0175430398836394,0.1017659599351604,0.1478777461546131,0.03394056604581135
2123,10.138819899992086,0.00739408599748673,0.006941114362445823,-0.026492544013980268,-0.006060838764162552,-0.010025799383217533,-0.0015795395212227406,0.03447720422252787,0.06872717239169539,0.017704603863403355,0.10131364421699654,0.14687775160385735,0.03349462008773614
2124,10.142548000003444,0.0073677401938917215,0.006851815618640086,-0.02649473699480657,-0.005894499911097013,-0.009694864554929026,-0.0014943212003839077,0.03496146754395388,0.06942824720467673,0.01786401204208194,0.10084616397390703,0.14585184542592516,0.0330417475388834
2125,10.146376000004238,0.007345714347991807,0.006770566214415998,-0.026477552196931944,-0.0057258465090846665,-0.009360583791911991,-0.0014083441857678223,0.03544345316005779,0.07012434379703769,0.01802123130349558,0.1003634952874365,0.14480009097117155,0.03258199137520101
2126,10.150472499997704,0.007300176541489536,0.006698178620319273,-0.0264755036604027,-0.005554889655935813,-0.009022981256877505,-0.001321619056282909,0.035923088253226355,0.07081533866256848,0.018176228742738398,0.09986561669138173,0.14372255668420442,0.03211539583838156
2127,10.154868199999328,0.007282702371545371,0.006619359041156233,-0.02646783559682195,-0.005381640798439745,-0.008682081702417447,-0.0012341565482402572,0.036400299911136955,0.07150110863780747,0.018328971672292485,0.09935250919095295,0.14261931611845777,0.03164200643771125
2128,10.159005399997111,0.007234397024560335,0.0065528675690655685,-0.026470905395150537,-0.005206111732776685,-0.008337910469278858,-0.0011459675542870376,0.03687501513864371,0.07218153092636592,0.018479427628148793,0.09882415628154693,0.14149044794976523,0.031161869951790967
2129,10.1641959999979,0.007212485689215067,0.006479449837362155,-0.026479019176114154,-0.005028314604872732,-0.007990493484522689,-0.001057063122310234,0.03734716086975024,0.07285648312331193,0.01862756437593397,0.09828054396712602,0.14033603598892055,0.030675034430129106
2130,10.16943789999641,0.007191095265381453,0.006394575002024474,-0.02648955263868442,-0.004848261910697436,-0.007639857259566709,-0.0009674544543106778,0.03781666397966711,0.07352584323960845,0.01877334991704263,0.09772166077819684,0.13915616919321225,0.030181549194605802
2131,10.17380740000226,0.00718149778838798,0.00631704598015296,-0.026478428840622875,-0.004665966496503647,-0.007286028888112311,-0.0008771529052473698,0.03828345129695229,0.07418948972660057,0.018916752494774404,0.09714749778938353,0.1379509416769183,0.029681464840807806
2132,10.179664299997969,0.007154868551267342,0.006154878854725182,-0.026445341544395717,-0.004481441559009254,-0.0069290360439550214,-0.000786169981852082,0.0387474496157328,0.0748473015005472,0.019057740600475007,0.0965580486365905,0.1367204527207481,0.02917483323923315
2133,10.184247099998174,0.007143686680056236,0.0060632243126602274,-0.02641052682174068,-0.004294700645520478,-0.006568906978678545,-0.0006945173414142328,0.03920858570800545,0.07549915796719255,0.019196282979680672,0.09595330953374973,0.13546480678021874,0.028661707536365027
2134,10.18811819999246,0.007092889988645783,0.005978209498158243,-0.02638437770359229,-0.004105757653996324,-0.006205670519232153,-0.0006022067905360278,0.039666786336014635,0.07614493904637239,0.01933234863826518,0.09533327928914749,0.13418411349295303,0.02814214215561407
2135,10.194347299999208,0.007103544863419782,0.005910564793190223,-0.0263061604012676,-0.003914626833053857,-0.005839356065391279,-0.0005092502838578654,0.0401219782647051,0.07678452519665005,0.019465906848588798,0.0946979593213253,0.13287848768488575,0.027616192798128276
2136,10.19863849999092,0.00704928067392663,0.005829946491847053,-0.02626003774963393,-0.003721322781913912,-0.005469993587101216,-0.00041565992275400913,0.04057408827424738,0.07741779743997654,0.01959692715564839,0.09404735367454974,0.13154804937536563,0.027083916443469806
2137,10.202754700003425,0.006987827456944551,0.005763912510738435,-0.02623720018767211,-0.003525860450286939,-0.005097613621703891,-0.00032144795399853104,0.04102304317263388,0.07804463738636978,0.019725379383227888,0.09338146903384544,0.13019292378114045,0.02654537135015769
2138,10.206563699990513,0.0069582933267635155,0.0057014899675326474,-0.02621344829482197,-0.0033282551381986483,-0.004722247271047632,-0.00022662676840153937,0.04146876980834343,0.07866492725860819,0.019851233640048472,0.09270031473958656,0.1288132413192126,0.02600061705607558
2139,10.21116809999512,0.006938918448114378,0.005649652483652585,-0.026199704656146048,-0.0031285224957551716,-0.004343926198479918,-0.00013120889941570335,0.04191119508307249,0.07927854991693346,0.01997446032591792,0.09200390280164208,0.12740913760855363,0.025449714378743275
2140,10.217302999997628,0.006853355504154973,0.005543168109984045,-0.02617960292504044,-0.0029266785228474106,-0.003962682625723106,-3.52070217130939e-05,0.042350245964530506,0.07988538888375772,0.020095030137878684,0.0912922479130699,0.12598075347066542,0.024892725415450807
2141,10.22207589999016,0.006823195575159323,0.005464499545370178,-0.026173735180686313,-0.0027227395687942904,-0.0035785493296331705,6.136605026764003e-05,0.04278584949929713,0.08048532836836952,0.020212914076354064,0.09056536746335518,0.12452823492897575,0.02432971354325381
2142,10.22579080000287,0.00680203625855305,0.005408243093357004,-0.026170891458830062,-0.002516722331924636,-0.0031915596388415054,0.00015849736380373416,0.04321793282573931,0.08107825329163373,0.020328083451291824,0.08982328155118753,0.12305173320705685,0.023760743418828792
2143,10.229911999995238,0.006794233942948114,0.005339572939811726,-0.026178937616427,-0.0023086438590973943,-0.002801747430279841,0.000256173829400383,0.0436464231869859,0.08166404931067939,0.020440509888304568,0.08906601299677246,0.12155140472565586,0.023185880978186794
2144,10.234222799990675,0.006762526100158665,0.005272688541437201,-0.026197811210865698,-0.0020985215451599444,-0.0024091471255883543,0.0003543822223323935,0.04407124794395766,0.0822426028435698,0.020550165334806074,0.08829358735367222,0.12002741109852537,0.022605193436243922
2145,10.239084999993793,0.006751454449837574,0.005193585241883356,-0.02621072648838391,-0.0018863731323442562,-0.0020137936874070955,0.00045310918421538247,0.044492334588450144,0.08281380109394999,0.020657022066142863,0.08750603292017153,0.11847991912704277,0.02201874928624721
2146,10.24322079999547,0.006768713662443576,0.00510517561172008,-0.026209205909460114,-0.00167221670960066,-0.0016157226155508841,0.0005523412246064765,0.04490961075626743,0.08337753207566599,0.02076105269172014,0.08670338075016332,0.11690910079360714,0.021426618299054206
2147,10.248764599993592,0.006757917264196802,0.005002931155198623,-0.026211411543118457,-0.0014560707118689911,-0.001214969943067823,0.0006520647226344727,0.04532300424040443,0.08393368463735015,0.02086223016112131,0.08588566466355,0.11531513325380315,0.02082887152226459
2148,10.2532865999965,0.006769997530883274,0.004894633695900452,-0.026210144362344843,-0.0012379539192868974,-0.0008115722321816141,0.0007522659286594158,0.04573244300427511,0.08448214848696702,0.020960527770220238,0.08505292125615559,0.1136981988273209,0.020225581279202123
2149,10.257827900000848,0.006782907131744745,0.004780862683972801,-0.026189825899261002,-0.0010178854563350954,-0.00040556657011789023,0.0008529309659615408,0.04613785519498457,0.08502281421631347,0.02105591916728553,0.08420518990914388,0.1120584849876225,0.01961682116774505
2150,10.26276019999932,0.006829752850509243,0.004556181268278708,-0.02617784462033794,-0.0007958847909193779,3.0094351851839395e-06,0.0009540458324595306,0.04653916915664263,0.0855555733254676,0.021148378359075883,0.08334251279793743,0.1103961843503447,0.019002666059003033
2151,10.267402600002242,0.00684034481987336,0.0044480599731904075,-0.026197034409217165,-0.0005719717333891832,0.00041411765948178307,0.0010555964024580313,0.04693631344371658,0.08608031824718092,0.021237879716925923,0.08246493490063275,0.10871149466042872,0.01838319209583852
2152,10.27145629998995,0.006853330247184283,0.004352842667405439,-0.0262349413252498,-0.00034616643549254623,0.0008277194667384714,0.0011575684284243694,0.047329216834420505,0.08659694237120828,0.021324397982821718,0.08157250400590758,0.10700461877796738,0.017758476691230644
2153,10.27771439999924,0.006840281245564179,0.004268229310656333,-0.026285718514344202,-0.00011848938926725576,0.0012437757137691186,0.0012599475427944036,0.04771780834413906,0.08710534006856922,0.0214079082754652,0.0806652707204154,0.10527576466276008,0.01712859852647943
2154,10.281625999996322,0.006839897311102458,0.004169068259255955,-0.02631871447963493,0.00011103857413194445,0.0016622467549843377,0.001362719259807439,0.048102017238883354,0.08760540671573468,0.021488386096326664,0.07974328847566337,0.10352514535756557,0.016493637549247958
2155,10.28810789999261,0.0068427389990725835,0.003986964461902843,-0.02633068186492213,0.00034239628567025716,0.0020830924472550762,0.0014658689773701314,0.04848177304877679,0.08809703871873337,0.021565807335684535,0.07880661353436909,0.10175297897004468,0.0158536749714401
2156,10.292158800002651,0.006832836052587652,0.003899484276002958,-0.026352965898038157,0.0005755622397339735,0.0025062721548899628,0.0015693819789492991,0.048857005581568344,0.08858013353717231,0.02164014827865145,0.07785530499629208,0.09995948865338498,0.015208793266911389
2157,10.296359300002225,0.0068349871913888595,0.0037967999072689054,-0.026372477386403477,0.0008105145954959811,0.002931744754725986,0.0016732434354935646,0.04922764493617094,0.08905458970816534,0.021711385611185796,0.0768894248035349,0.09814490258560032,0.014559076169010527
2158,10.300690499992925,0.0068276443598962455,0.0037111609100494306,-0.026392252908973488,0.001047231178345757,0.0033594686413320756,0.0017774384073837443,0.04959362151622235,0.08952030687016402,0.021779496426087824,0.07590903774530956,0.0963094539474977,0.013904608667949007
2159,10.307635899996969,0.006858387624153588,0.0036161523125057674,-0.026399714191810822,0.0012856894813839483,0.0037894017323251137,0.0018819518464119028,0.04995486604366628,0.089977185786685,0.021844458228979534,0.0749142114621652,0.09445338089930384,0.013245477007996139
2160,10.313393399992492,0.0069122061676986125,0.003427596889538902,-0.026456765055158912,0.0015258666669816351,0.004221501473797877,0.0019867685977889796,0.05031130957235111,0.09042512836992761,0.021906248944267494,0.07390501644967312,0.09257692655594442,0.012581768684496848
2161,10.318196899999748,0.006924120735947041,0.003336617126944162,-0.02648626563680527,0.001767739568404359,0.00465572484585839,0.0020918734021808934,0.05066288350164361,0.0908640377042759,0.021964846921087872,0.07288152606156538,0.090680338960969,0.011913572440709504
2162,10.32220260000031,0.006928591361297091,0.003248165690785988,-0.026526399189291477,0.0020112846915009896,0.00509202836828014,0.00219725089777302,0.051009519590054925,0.09129381806967828,0.022020230939232808,0.0718438165123235,0.08876387105911586,0.011240978264460874
2163,10.32564129999082,0.006932396537624782,0.003154526916350738,-0.026564119273792743,0.0022564782164574983,0.005530368106262548,0.0023028856223629435,0.05135114996887624,0.09171437496489838,0.022072380215057186,0.07079196687921353,0.08682778066751043,0.010564077384615228
2164,10.32965279999189,0.006959527069346422,0.003070283445657922,-0.026586202983416022,0.002503295999615683,0.005970699676301089,0.002408762015481376,0.05168770715582142,0.0921256151306306,0.022121274407364947,0.06972605910376395,0.08487233044549224,0.009882962267354512
2165,10.333924499995192,0.006949248998155666,0.002994579609288161,-0.02660655117171036,0.002751713575356882,0.006412978252166425,0.0025148644205411413,0.05201912406867438,0.0925274465724737,0.022166893623274026,0.06864617799268244,0.08289778786306552,0.009197726612266404
2166,10.337944300001254,0.006943964822124209,0.002909956048810295,-0.02662236360868001,0.0030017061580506913,0.006857158570991891,0.0026211770870141144,0.052345334038938526,0.0929197785837561,0.02220921842405924,0.06755241121820839,0.08090442516796828,0.008508465348237147
2167,10.342450399999509,0.0069142702889180155,0.002821392063918362,-0.026637050929424203,0.0032532486440687114,0.007303194939468636,0.00272768417263599,0.05266627082548538,0.09330252176820548,0.022248229830972126,0.066444849317897,0.07889251935135569,0.007815274629145864
2168,10.346530099996016,0.006877922868728644,0.0027443160436618694,-0.026656672684985134,0.003506315613863334,0.007751041240147642,0.002834369745638751,0.05298186862819981,0.09367558806245685,0.022283909331036862,0.06532358569383152,0.0768623521120941,0.00711825182935694
2169,10.35053149999294,0.006844171524064445,0.0026534357213331182,-0.026645874953866406,0.003760881334111562,0.008200650937847866,0.002941217787010719,0.05329206210161923,0.09403889075839182,0.0223162388828213,0.06418871661126055,0.07481420981966189,0.006417495539007048
2170,10.354657999996562,0.006828260513426488,0.002576753850756534,-0.02659889640961333,0.004016919759923842,0.00865197708616967,0.0030482121927840433,0.05359678636856426,0.09439234452530278,0.022345200922182156,0.06304034119665736,0.07274838347565377,0.005713105559083352
2171,10.358910900002227,0.006814775165428664,0.0025060284497222898,-0.02653245415964652,0.004274404537117885,0.009104972334112777,0.0031553367763494833,0.05389597703375832,0.09473586543187484,0.02237077836798332,0.06187856143519822,0.07066516867388627,0.005005182896289309
2172,10.363192599994363,0.006814344852144733,0.0024215660421934,-0.026470206010261073,0.004533309004557418,0.009559588932797876,0.0032625752707983336,0.054189570197433416,0.09506937096797885,0.022392954627786305,0.06070348216765656,0.06856486555910207,0.004293829757694425
2173,10.367134300002364,0.006838094037181129,0.002355080994711746,-0.02641526693554294,0.004793606196555773,0.010015778742290999,0.0033699113312913344,0.05447750246891928,0.09539278006626849,0.022411713603511914,0.059515211086709964,0.06644777878427136,0.003579149545164283
2174,10.371294099997613,0.006856316221741172,0.0022784604766892297,-0.026372491275546552,0.0050552688453442286,0.010473493238529766,0.0034773285374544217,0.05475971098021317,0.09570601312357516,0.02242703969707213,0.05831385873265725,0.06431421746648833,0.0028612468495670374
2175,10.375497100001668,0.006859549785192652,0.0022202673487001067,-0.026350966543868738,0.005318269383605001,0.0109326835203506,0.0035848103958011474,0.05503613339952768,0.09600899202209409,0.02243891781597128,0.0570995384885422,0.06216449514146253,0.002140227444752599
2176,10.379643499996746,0.006877514268039272,0.002122491775183996,-0.026319174326240875,0.005582579947068791,0.011393300316615894,0.003692340342181613,0.05530670794481396,0.09630164015035488,0.022447333378875448,0.05587236657468124,0.05999892971660445,0.0014161982813005905
2177,10.384029499997268,0.006910077457280983,0.0020578907568631452,-0.026277529496981804,0.0058481723771767824,0.011855293993440116,0.003799901744257745,0.05557137339725748,0.09658388242396972,0.02245227232114907,0.05463246204259224,0.057817843422705864,0.000689267480033141
2178,10.392304799999692,0.006899177524369924,0.0019190275304724947,-0.026186437512807918,0.006115018223806952,0.012318614561513884,0.00390747790400473,0.05583006911474373,0.09685564530615294,0.022453721100357746,0.05337994676832206,0.055621562764215135,-4.0455674711465e-05
2179,10.39635989999806,0.006888022873139136,0.001846186017501146,-0.026143494587655736,0.0063830887480645715,0.012783211683525015,0.004015052060238441,0.05608273504529096,0.09711685682800515,0.02245166670173607,0.05211494544517039,0.05341041846810836,-0.0007728607420483336
2180,10.40061969999806,0.006882010718803671,0.0017950213836689904,-0.026088122863508787,0.006652354925136732,0.013249034681675527,0.004122607391168652,0.05632931174044727,0.09736744660855608,0.02244609664361943,0.05083758557580765,0.051184745431357676,-0.0015078361317627956
2181,10.405207299991162,0.006864852640571835,0.0017356070619631886,-0.02604107330740007,0.006922787447210689,0.013716032545293492,0.00423012701697786,0.05656974036864939,0.0976073458745593,0.02243699898283856,0.04954799746378445,0.048944882666998736,-0.0022452691117786686
2182,10.409282599997823,0.006877914021983002,0.0016620580654612997,-0.025978485554325286,0.007194356726455847,0.01418415393853864,0.004337594002425515,0.056803962728540006,0.09783648748003212,0.02242436232007592,0.04824631420443023,0.046691173248799935,-0.002985045815882133
2183,10.413750299994716,0.006839858132561151,0.0016097645898853856,-0.02594168228979437,0.007467032898069221,0.014653347208200473,0.0044449913594774215,0.05703192126224095,0.09805480592553416,0.0224081758051827,0.04693267167513914,0.04442396425453667,-0.0037270512517054554
2184,10.417582299996866,0.006852522948414236,0.0015303485529631644,-0.025881706158247614,0.0077407858233841985,0.015123560391587656,0.004552302049960147,0.05725355906857955,0.09826223737717808,0.02238842914245522,0.0456072085250412,0.04214360670787429,-0.00447116930897482
2185,10.42403799999738,0.006878688900312509,0.0014516520664484096,-0.02580421428964027,0.008015585093042347,0.01559474122450748,0.004659508988240215,0.0574688199162653,0.0984587196853659,0.022365112595869523,0.04427006616405658,0.039850455518863764,-0.005217282768026564
2186,10.430358999990858,0.0069160504846846604,0.0012823015423345538,-0.02567718871246769,0.00829140003022801,0.016066837149334125,0.0047665950439278616,0.057677648257014,0.0986441924032443,0.022338216994273023,0.042921388751331196,0.0375448694230549,-0.005965273308596146
2187,10.433959300004062,0.006927264619304466,0.0012050991287081319,-0.025615950454554254,0.008568199693965474,0.01653979532316433,0.00487354304460514,0.05787998923861654,0.09881859680487295,0.02230773373653191,0.04156132318305187,0.0352272109192317,-0.006715021518884233
2188,10.438090299998294,0.006975001700673458,0.0010984493659973637,-0.02555499094314853,0.008845952882478438,0.017013562626059096,0.004980335778578105,0.05807578871794939,0.09898187590309941,0.02227365479663331,0.04019001907963945,0.03289784620577596,-0.007466406904904326
2189,10.44216150000284,0.007012183768035822,0.0010009141342200234,-0.02551024367226803,0.009124628136611544,0.017488085669369928,0.005086955997652837,0.05826499327392377,0.09913397446713351,0.022235972728740956,0.03880762877231846,0.030557145115665558,-0.008219307900116294
2190,10.446544799997357,0.007077858557270085,0.0009202132662012311,-0.02545653725788624,0.009404193743313622,0.01796331080414821,0.0051933864199350645,0.05844755022037053,0.09927483903981489,0.022194680672203204,0.03741430728906205,0.02820548105011425,-0.00897360187535022
2191,10.45061889999488,0.00711971110670255,0.0008203359639154383,-0.02540031267195142,0.00968461773918238,0.018439184129636074,0.0052996097326531615,0.05862340761885766,0.09940441795456753,0.02214977235651191,0.03601021233991082,0.025843230910860354,-0.009729165149024999
2192,10.459424599990598,0.007159289515914685,0.0006382340624631758,-0.02528390104562156,0.009965867914070182,0.01891565150183737,0.005405608595004269,0.05879251429143747,0.09952266135203491,0.022101242106210964,0.034595504301664505,0.023470775031112213,-0.010485872997666174
2193,10.46510469999339,0.007180224897944837,0.0005730583200272136,-0.02523074029682173,0.010247911814750633,0.01939265854216731,0.0055113656410233,0.05895481983332065,0.09962952119638903,0.022049084845753082,0.033170346201945804,0.02108849710515893,-0.011243599666727465
2194,10.46936970000388,0.007159739183221001,0.0004758367707278293,-0.0251959772390496,0.010530716748645566,0.01987015064617924,0.0056168634824745435,0.059110274625474274,0.09972495129130636,0.021993296104303534,0.0317349037026354,0.018696784116655367,-0.012002218381720437
2195,10.473603199992796,0.007183187631313769,0.00040360247865556465,-0.025147950240109213,0.010814249787612118,0.02034807299236699,0.005722084711765604,0.059258829847140905,0.09980890729560449,0.02193387202048957,0.0302893450826772,0.016296026265590995,-0.012761601359656802
2196,10.479614700001548,0.00723284880791563,0.00027116840653643664,-0.025063232313662687,0.011098477771789506,0.020826370551041164,0.005827011904883414,0.05940043748827599,0.09988134673853286,0.02187080934709411,0.028833841220253127,0.013886616893952932,-0.013521619820807762
2197,10.48382369999308,0.007254065022025214,0.00019554626135032298,-0.025027277102808065,0.011383367313505104,0.021304988093277796,0.005931627624352061,0.05953505036190048,0.09994222903471117,0.02180410545569237,0.027368565574327264,0.011468952410093948,-0.014282144000784777
2198,10.488212700001895,0.007274183201259026,0.0001246837116034342,-0.024996040920149627,0.011668884801239359,0.021783870199937657,0.0060359144222121115,0.059662622116365534,0.09999151549870891,0.02173375834123006,0.025893694165558912,0.009043432211816782,-0.015043043162946142
2199,10.492070799999055,0.007311694596204581,5.073686440056611e-05,-0.02492790062869518,0.011954996403649113,0.022262961270754555,0.0061398548430211496,0.059783107247526626,0.1000291693592596,0.021659766626541666,0.024409405556584305,0.006610458608186711,-0.01580418561113386
2200,10.496331100002864,0.00735851957758073,-2.236739727733901e-05,-0.024860428801870376,0.01224166807364884,0.022742205533490992,0.006243431426875179,0.059896461110824216,0.1000551557731034,0.021582129566807367,0.022915880831666926,0.0041704367400849434,-0.016565438702745107
2201,10.503292199995483,0.007371742357869172,-9.471860103260988e-05,-0.02481025858379716,0.012528865552549348,0.023221547053159496,0.0063466267124506195,0.06000263993326791,0.10006944183845201,0.02150084705394695,0.021413303575716455,0.0017237744995159715,-0.01732666886214256
2202,10.50912829999288,0.007450943265420407,-0.0002066639829046673,-0.024720923189033447,0.012816554374253481,0.02370092974130793,0.006449423240066582,0.060101600825321,0.1000719966080699,0.02141591962094924,0.019901859852676562,-0.0007291175523174477,-0.01808774159440781
2203,10.513096099995892,0.007497772156627531,-0.0002578485343727663,-0.024673244433745918,0.013104699869508286,0.024180297365367004,0.006551803554767127,0.06019330179268256,0.10006279110196598,0.0213273484461355,0.01838173818328189,-0.003187826268157429,-0.018848521499442102
2204,10.517687300001851,0.007513150616584717,-0.0003029735243943895,-0.02463627977637135,0.013393267170213174,0.024659593558058066,0.006653750209423166,0.06027770174796455,0.10004179831969004,0.02123513535735546,0.01685312952218474,-0.005651935999037361,-0.019608872286418503
2205,10.521945799991954,0.007542212704278688,-0.00034722610411053515,-0.024599708183576634,0.013682221213783546,0.025138761826859254,0.006755245767853674,0.06035476052226043,0.10000899325222867,0.021139282836114284,0.01531622723445213,-0.008121028679816152,-0.020368656788589568
2206,10.525782500000789,0.0075630483971679645,-0.0003979192689671472,-0.024575411059013494,0.01397152674756931,0.025617745563528152,0.006856272807965901,0.06042443887660257,0.09996435289349495,0.02103979402162876,0.013771227071434017,-0.010594683915884308,-0.02112773697845455
2207,10.530035399991904,0.007563898990402622,-0.0004113925405697256,-0.02454634268415614,0.014261148333327724,0.02609648805367901,0.006956813924914192,0.0604866985133049,0.09990785625140593,0.020936672714811016,0.012218327146003643,-0.013072479071025251,-0.021885973983290334
2208,10.533731100003934,0.007593272859526928,-0.00043008132185262503,-0.024515016506990114,0.014551050351750007,0.026574932486412677,0.007056851734277056,0.06054150208718812,0.09983948435854238,0.020829923382178275,0.010657727907171014,-0.015553989356414659,-0.022643228101049975
2209,10.538080799989984,0.007603330784358101,-0.00044940457338224265,-0.024501653278559136,0.014841197007041165,0.027053021963997267,0.007156368875252127,0.06058881321668432,0.09975922028238594,0.02071955115968691,0.009089632114070751,-0.018038787920740065,-0.023399358816632673
2210,10.542373299991596,0.00762281812933158,-0.0004639903305564781,-0.024488722177870684,0.015131552331552478,0.02753069951159768,0.007255348013868646,0.06062859649481798,0.09966704913512796,0.02060556185648919,0.0075142448093255924,-0.02052644594142232,-0.024154224818528816
2211,10.54633470000408,0.0076637387876845806,-0.0004890456408765618,-0.02446032131970548,0.015422080190466056,0.028007908087051867,0.0073537718462170585,0.060660817500060686,0.09956295808304502,0.02048796195861098,0.005931773291787167,-0.02301653271692003,-0.024907684015843857
2212,10.550557199996549,0.007694028383226845,-0.0005014038985954368,-0.024450990489856175,0.01571274428653093,0.028484590590691916,0.007451623101695318,0.060685442807056574,0.09944693635543522,0.02036675863254867,0.004342427088655745,-0.025508615760097438,-0.02565959355570463
2213,10.559003200003644,0.007738697993228547,-0.0005435549559013059,-0.024414899925761426,0.01600350816485006,0.028960689875207696,0.007548884546271536,0.06070243999721516,0.09931897525311,0.020241959728783683,0.00274641792698088,-0.028002260892635637,-0.026409809841051634
2214,10.563144400002784,0.007778075506138984,-0.0005694225955421392,-0.02438690572390997,0.016294335217717573,0.029436148755551148,0.0076455389857625865,0.06071177766916861,0.09917906815643636,0.020113573785212734,0.0011439597045449618,-0.03049703234046652,-0.02715818854882079
2215,10.572737700000287,0.007842898256744356,-0.0006221161433331143,-0.02437991817144896,0.01658518868950564,0.02991091001887908,0.007741569269128284,0.060713425449090246,0.09902721053292428,0.01998161003049198,-0.0004647315398680697,-0.032992492830208275,-0.0279045846485181
2216,10.576458499999717,0.007874560244906466,-0.0006455016420523514,-0.024365885848598737,0.0168760316816003,0.03038491643453235,0.007836958291780709,0.0607073540008717,0.09886339994435425,0.01984607838729345,-0.0020794376568164605,-0.03548820368658066,-0.0286488524211904
2217,10.579991599995992,0.007910943272464338,-0.0006541769620338614,-0.024369244788236176,0.017166827157385493,0.03085811076404928,0.007931688998908223,0.06069353503615546,0.09868763605344016,0.019706989475471896,-0.003699938417154275,-0.03798372493077771,-0.029390845478795235
2218,10.583872000002884,0.007928186635562575,-0.0006726165342797955,-0.02439225260813618,0.017457537947274643,0.03133043577121142,0.008025744388813746,0.06067194132421992,0.09849992063002275,0.019564354615140202,-0.005326011543592196,-0.04047861537977486,-0.030130416783972724
2219,10.588239199991222,0.00794120724777788,-0.0006899809109804908,-0.024414109740502676,0.017748126753789114,0.031801834232119276,0.008119107516266797,0.06064254670171387,0.09830025755678919,0.019418185829651595,-0.006957432742862608,-0.0429724327465472,-0.03086741867022215
2220,10.592589199994109,0.007949897823493703,-0.0006971691854912432,-0.0244135622669834,0.01803855615668295,0.032272248945296116,0.008211761495868858,0.06060532608223775,0.09808865283451411,0.019268495848486687,-0.008593975738485908,-0.04546473374117464,-0.03160170286248603
2221,10.597022499991,0.007977960655997492,-0.0007021310329801167,-0.024399110657560296,0.018328788618113146,0.03274162274181725,0.008303689505431634,0.06056025546576858,0.09786511458681753,0.01911529811004347,-0.01023541230413481,-0.04795507417280981,-0.03233312049814439
2222,10.6049966999999,0.00798850300992473,-0.000755760821420903,-0.024398207397129425,0.01861878648785466,0.03320989849546251,0.008394874789367722,0.060507311947925684,0.09762965306443538,0.01895860676432836,-0.011881512297593197,-0.05044300905248303,-0.033061522148421583
2223,10.608939700003248,0.00798375582559615,-0.0007868305964230909,-0.024398728085204883,0.01890851200855934,0.03367701913288957,0.00848530066209325,0.060446473729074204,0.09738228064899837,0.018798436675546433,-0.013532043695305885,-0.052928092696718894,-0.03378675784020775
2224,10.61343029999989,0.008006416313092632,-0.0008079461119043387,-0.024396927659992865,0.019197927321057955,0.03414292764382573,0.008574950511442019,0.06037772012326356,0.09712301185631517,0.01863480342458875,-0.015186772627515438,-0.05540987883193805,-0.03450867707829703
2225,10.617409799990128,0.008024378727312417,-0.0008370376220372619,-0.02439420026405226,0.01948699446970458,0.034607567091275875,0.008663807802090693,0.06030103156699822,0.09685186333915582,0.018467723311414917,-0.016845463413982065,-0.05788792069961736,-0.035227128868044445
2226,10.621631300004085,0.008045632367881635,-0.0008743078824476904,-0.024384471119428198,0.01977567540776258,0.03507088062174403,0.008751856078994513,0.06021638962783804,0.09656885388953163,0.018297213357328913,-0.0185078786002824,-0.06036177116218103,-0.035941961738443114
2227,10.625964899998507,0.008071794139591451,-0.0009160773194506814,-0.02439979430531778,0.020063932002831412,0.035532811475466344,0.008839078970833051,0.060123777012825196,0.09627400444046777,0.018123291307146266,-0.02017377899468272,-0.06283098280959487,-0.03665302376562336
2228,10.62966310000047,0.008088649886202559,-0.0009604900800056703,-0.02442208831162406,0.020351726042313358,0.035993302996652744,0.008925460193465518,0.060023177576735066,0.09596733806726526,0.01794597563125051,-0.02184292370558211,-0.06529510806663573,-0.037360162596775374
2229,10.63402149999456,0.00810551314510426,-0.0009941781467294928,-0.024427189890761918,0.0206390192389193,0.03645229864373493,0.009010983553395108,0.059914576330148565,0.09564887998824853,0.017765285527536957,-0.02351507017952064,-0.0677536993008072,-0.038063225474496594
2230,10.637939399995958,0.00810551314510426,-0.0009941781467294928,-0.024427189890761918,0.02092577323621272,0.036909741999618086,0.009095632951241864,0.05979795944734329,0.09531865756499613,0.01758124092324175,-0.025189974239747687,-0.07020630893087221,-0.03876205926156511
2231,10.647374899999704,0.008133416962894761,-0.001100712017719174,-0.024520212530591553,0.02121194961419113,0.037365576781934126,0.009179392385223499,0.05967331427400071,0.09497670030205177,0.01739386247665411,-0.02686739012534519,-0.07265248953597271,-0.03945651046613989
2232,10.650709900000948,0.008138608903905204,-0.0011269761024308932,-0.024555319110252133,0.02149750989490393,0.03781974685329378,0.009262245954643651,0.05954062933472668,0.09462303984611292,0.017203171578709785,-0.028547070530900418,-0.07509179396530585,-0.040146425267388576
2233,10.654797600000164,0.008111927751183969,-0.0011716766849305337,-0.024601377902835554,0.02178241554810581,0.038272196231534966,0.009344177863387055,0.05939989434038289,0.09425770998469414,0.01700919035446355,-0.030228766646722655,-0.07752377544832599,-0.04083164954154365
2234,10.658833099994808,0.0080959810546593,-0.0012137765360454322,-0.024652226909616194,0.022066627996944782,0.03872286909996498,0.009425172423421078,0.059251100195226454,0.09388074664426214,0.01681194166443894,-0.03191222819959812,-0.07994798770544108,-0.0415120288883876
2235,10.66302999999607,0.00809505835645246,-0.0012251566566016529,-0.024670332240126647,0.022350108623683945,0.03917170981759392,0.009505214058303086,0.05909423900385515,0.09349218788784032,0.0166114491058532,-0.03359720349407698,-0.08236398505917147,-0.04218740865816738
2236,10.66728179999336,0.00809953582089644,-0.0012612726438299734,-0.02469204773466422,0.02263281877545598,0.03961866292935698,0.009584287306693078,0.05892930407795597,0.09309207391207988,0.016407737013715607,-0.03528343945428649,-0.08477132254573858,-0.042857633978938235
2237,10.671661999993376,0.00810713991414554,-0.0013055795062900453,-0.024710333979913065,0.022914719770049444,0.040063673176322964,0.009662376825870974,0.05875628994285469,0.09268044704379556,0.016200830461797055,-0.03697068166626378,-0.08716955602705069,-0.04352254978433679
2238,10.675606599994351,0.00811383189560524,-0.0013350139808795338,-0.024738590821401653,0.02319577290172601,0.04050668550588643,0.009739467395257936,0.058575192343864046,0.09225735173596357,0.01599075526346902,-0.03865867442080201,-0.08955824230305359,-0.04418200084178308
2239,10.679640699992888,0.008108743641543991,-0.0013792735736841107,-0.02476536000981352,0.023475939447067648,0.04094764508194075,0.009815543919941121,0.05838600825242769,0.09182283456317972,0.015777537972409803,-0.040347160756803335,-0.09193693922441261,-0.04483583178111082
2240,10.68409929999325,0.00811318086429992,-0.0014120806400192826,-0.024806164932834877,0.023755180670852794,0.0413864972950295,0.009890591434201243,0.05818873587205739,0.09137694421657648,0.015561205883176185,-0.04203588250513183,-0.09430520580549248,-0.04548388712362487
2241,10.6881973999989,0.008127657104354934,-0.0014345045764190235,-0.024830002644236338,0.024033457831960477,0.0418231877724736,0.009964595105042266,0.05798337464406104,0.09091973149819754,0.015341787031638597,-0.04372458033295911,-0.09666260233760066,-0.04612601131158465
2242,10.692183699997258,0.008124962042733063,-0.001473523627712833,-0.02485663970560169,0.024310732189301416,0.04225766238847139,0.010037540235722626,0.05776992525305918,0.09045124931482841,0.01511931019527773,-0.04541299378859544,-0.09900869050245957,-0.04676204873811205
2243,10.697460900002625,0.008139313094001014,-0.0014991400647925567,-0.024875223295072565,0.024586965007775144,0.04268986727416914,0.010109412269287271,0.05754838963228748,0.08997155267128157,0.01489380489334056,-0.04710086134679884,-0.1013430334858723,-0.047391843777521966
2244,10.70127049999428,0.008130389696771155,-0.0015483406493695703,-0.02490468314072283,0.024862117564252186,0.04311974882769941,0.010180196792099867,0.057318770968683104,0.0894806986631356,0.014665301386853813,-0.04878792045455478,-0.10366519609154595,-0.04801524081607383
2245,10.704872499991325,0.008131057661365702,-0.0015920470474589182,-0.024936968743818212,0.02513615115358015,0.04354725372418468,0.010249879537374483,0.05708107370775274,0.0889787464689276,0.014433830678492805,-0.050473907577318344,-0.10597474485503673,-0.04863208428314226
2246,10.709352999998371,0.008128794910193589,-0.0016348805608018705,-0.0249583779308908,0.02540902709461259,0.043972328925703894,0.01031844638870608,0.05683530355821994,0.08846575734179789,0.014199424512303707,-0.052158558245711015,-0.10827124815778055,-0.04924221868280478
2247,10.713246899991644,0.00812486304141589,-0.001664906978604963,-0.025003806043252686,0.02568070673625967,0.04439492169121913,0.010385883383599059,0.05658146749644957,0.08794179460058632,0.0139621153732772,-0.053841607102663655,-0.11055427634117292,-0.04984548862584407
2248,10.717244400002528,0.008104655302253867,-0.001710375832601943,-0.025047300533725805,0.02595115146355958,0.04481497958645985,0.010452176716993195,0.05631957377064709,0.08740692362037988,0.013721936486771485,-0.05552278795099718,-0.11282340182066129,-0.05044173886216208
2249,10.721435899991777,0.008096044373402469,-0.0017421415784733632,-0.02509967393661144,0.026220322703769484,0.04523245049376204,0.01051731274478623,0.056049631904830345,0.08686121182251111,0.013478921817782727,-0.057201833801432234,-0.11507819919981306,-0.05103081431360332
2250,10.725818099992466,0.008089451721669494,-0.0018029277625481233,-0.025151924425470828,0.026488181932474927,0.045647282621859304,0.010581277987352427,0.05577165270257205,0.08630472866400735,0.01323310607006098,-0.05887847692101896,-0.11731824538432192,-0.05161256010718407
2251,10.730271099993844,0.008065736444944382,-0.0018487518010837098,-0.02520957747260958,0.026754690679716572,0.04605942451562338,0.010644059133056364,0.05548564825051082,0.08573754562649093,0.012984524685069644,-0.06055244888197769,-0.11954311969591493,-0.05218682160872376
2252,10.733971499998006,0.008090699998965273,-0.0019188926820896015,-0.025230595414240078,0.027019810536133372,0.04646882506575136,0.010705643041761253,0.05519163192162884,0.08515973620453048,0.012733213840786586,-0.06222348061094087,-0.12175240398612298,-0.05275344445687458
2253,10.738369300001068,0.008071793171460558,-0.0019761378562955655,-0.025268908342078483,0.027283503159121064,0.04687543351839702,0.010766016748331013,0.05488961837829425,0.08457137589344418,0.012479210450345007,-0.06389130243858704,-0.12394568274987718,-0.05331227459754544
2254,10.742308400003822,0.008072762543581066,-0.0020465336231423785,-0.025302899262308897,0.02754573027900494,0.0472791994847439,0.010825167466125316,0.054579623575066065,0.08397254217655621,0.012222552160512207,-0.06555564414965692,-0.12612254323889263,-0.05386315831871577
2255,10.747386200004255,0.008052815223448466,-0.002105997305475863,-0.025357634267480198,0.027806453705225873,0.047680072950517495,0.010883082590486813,0.05426166476125947,0.083363314511907,0.011963277350004421,-0.06721623503334212,-0.12828257557480077,-0.05440594228563463
2256,10.751431600001524,0.008046939868593395,-0.002163747040013499,-0.025397265878628998,0.02806563533253843,0.048078004285433816,0.010939749702219791,0.05393576048326963,0.08274377431841866,0.011701425127635792,-0.06887280393403611,-0.13042537286199096,-0.05494047357640009
2257,10.755154099999343,0.008036063044888981,-0.0022065567780351052,-0.0254590900401676,0.02832323714721991,0.0484729442525816,0.01099515657105945,0.05360193058665229,0.08211400496151675,0.011437035330299607,-0.07052507930243719,-0.13255053130012245,-0.05546659971791341
2258,10.75907709999592,0.008038195350899715,-0.002258653815458245,-0.025496939302619214,0.028579221233289185,0.04886484401773578,0.011049291159131024,0.05326019621795972,0.08147409173820948,0.011170148520779981,-0.07217278924699308,-0.13465765029626797,-0.055984168722202965
2259,10.762904699993667,0.00803340022516165,-0.0023002940681069125,-0.025549019362766236,0.02883354977873415,0.04925365515859975,0.011102141624397923,0.05291057982633027,0.08082412186162612,0.010900805985392198,-0.07381566158567676,-0.13674633257664956,-0.05649302912311194
2260,10.76721639999596,0.008021870576758669,-0.002339078931674656,-0.02558837495932413,0.029086185081746624,0.04963932967397371,0.011153696324098105,0.05255310516482955,0.08016418444501634,0.010629049731449907,-0.07545342389808282,-0.13881618429792802,-0.056993030013343556
2261,10.771419099997727,0.008009765020847319,-0.0023734235229597184,-0.025660160047314202,0.029337089556963295,0.05002181999284665,0.011203943818167824,0.05218779729154184,0.07949437048521306,0.01035492248455742,-0.07708580357783375,-0.14086681515800697,-0.057484021081857864
2262,10.775858599998172,0.008007698109524185,-0.0023910620643499665,-0.025715450354672566,0.02958622574171155,0.05040107898340944,0.011252872872651967,0.05181468257041045,0.07881477284556028,0.010078467685725411,-0.07871252788528565,-0.1428978385063115,-0.057965852651613824
2263,10.780454499996267,0.008007698109524185,-0.0023910620643499665,-0.025715450354672566,0.02983355630225893,0.05077705996198649,0.011300472463100153,0.05143378867182568,0.07812548623830849,0.009799729488308343,-0.08033332400052262,-0.14490887145350156,-0.058438375717649906
2264,10.785084999995888,0.007979686057182167,-0.002412780081600381,-0.025840430644764916,0.0300790440400651,0.051149716701883105,0.01134673177794785,0.05104514457295876,0.07742660720648042,0.009518752754761946,-0.08194791907662863,-0.14689953498058037,-0.05890144198549618
2265,10.789117299995269,0.007959999929108093,-0.0023985679085016015,-0.02593808181418529,0.03032265189803522,0.0515190034421462,0.011391640221881653,0.05064878055784008,0.0767182341052102,0.009235583053219148,-0.08355604029322534,-0.1488694540473571,-0.05935490390991062
2266,10.793163800000912,0.007967229899918708,-0.002400276146878071,-0.02600643912992986,0.030564342966773593,0.05188487489623605,0.011435187419187804,0.05024472821718024,0.07600046708255913,0.00895026665388288,-0.08515741491026428,-0.150818257700225,-0.05979861473393248
2267,10.796870699996362,0.007983310886562558,-0.0023954812362700167,-0.02607997393654561,0.03080408049083644,0.05224728626060659,0.01147736321708313,0.04983302044793236,0.07527340805981203,0.00866285052523414,-0.08675177032206188,-0.1527455791792145,-0.06023242852824485
2268,10.80126539999037,0.007975734795355125,-0.0023698852561086906,-0.02616290089337631,0.03104182787498278,0.05260619322319199,0.011518157689027473,0.04941369145259475,0.0745371607112576,0.008373382330053875,-0.08833883411156589,-0.15465105602428217,-0.06065620023083837
2269,10.805753299995558,0.00799685902796273,-0.0023589988727568643,-0.026223537040946546,0.03127754869042225,0.0529615519717967,0.011557561138016745,0.04898677673825298,0.07379183044345673,0.008081910421257115,-0.08991833410484099,-0.1565343301807965,-0.061069785686967644
2270,10.809697799995774,0.008018981072932798,-0.0023299398549833,-0.026274896974056668,0.03151120668105861,0.05331331920238648,0.011595564099855809,0.04855231311536017,0.07303752437400236,0.007788483837537903,-0.09148999842576135,-0.15839504810417973,-0.06147304168939136
2271,10.817462699997122,0.008027788099876523,-0.002260483326706052,-0.0264086684899316,0.03174276576972782,0.053661452127277826,0.011632157346410243,0.04811033869625438,0.07227435130977435,0.007493152298823618,-0.09305355555089768,-0.1602328608636671,-0.06186582601888715
2272,10.821596499998122,0.008057139478050503,-0.002206352439327177,-0.026472276774937766,0.03197219006442927,0.0540059084832236,0.011667331888836155,0.047660892893412465,0.07150242172469357,0.0071959662015373075,-0.09460873436458651,-0.16204742424514354,-0.06224799748503179
2273,10.826330299998515,0.008089049545205614,-0.002159294032848151,-0.026515482902632365,0.032199443864548934,0.05434664653939247,0.011701078980787174,0.047204016417439515,0.07072184773697948,0.006896976613666726,-0.09615526421416923,-0.1638383988530188,-0.06261941596723695
2274,10.830067399991094,0.00810796989497388,-0.0021112693730120685,-0.026575511078173842,0.03242449166707327,0.054683625105239726,0.011733390121597714,0.046739751274793406,0.06993274308591556,0.006596235269638803,-0.0976928749653883,-0.1656054502111,-0.06297994245603053
2275,10.833828899994842,0.008125469032937756,-0.002058222246989344,-0.02661733052015923,0.032647298172792695,0.05501680353826712,0.011764257059441608,0.04626814076524341,0.06913522310812734,0.006293794564998311,-0.09922129705792722,-0.1673482488624238,-0.06332943909457363
2276,10.840438799990809,0.008173048642312102,-0.00200605682513063,-0.02665743811752443,0.03286782829249343,0.055346141751669395,0.011793671794465147,0.04578922947906233,0.06832940471337824,0.005989707550889512,-0.1007402615610805,-0.16906647046800918,-0.0636677692204023
2277,10.844693499995628,0.008177530934932745,-0.0019350422892222086,-0.026711769066964656,0.03308604715313646,0.055671600221865014,0.011821626581893658,0.04530306329395125,0.06751540635988801,0.0056840279283396555,-0.1022495002295403,-0.17075979590449372,-0.06399479740738313
2278,10.848998999994365,0.008231221145922459,-0.0018532419196335872,-0.026761683045771402,0.033301920104022276,0.05599313999590857,0.011848113935110692,0.044809689371696146,0.06669334802917912,0.005376810042343208,-0.10374874555928645,-0.17242791136061492,-0.06431038950787134
2279,10.853276599998935,0.008290919904053232,-0.001764852132185891,-0.026818791137106578,0.033515412722939744,0.05631072269878244,0.011873126628708854,0.04430915615455578,0.06586335120045667,0.005068108875745748,-0.10523773084356637,-0.17407050843249816,-0.06461441269506009
2280,10.856947699998273,0.008334190164160473,-0.001658221182715305,-0.026889684887020916,0.03372649082229821,0.05662431054056572,0.011896657701511394,0.04380151336138035,0.06502553882452758,0.0047579800429265184,-0.10671619022895071,-0.1756872842177135,-0.0649067355055092
2281,10.861039700001127,0.008393641536827097,-0.001542504644807108,-0.02696800228611228,0.03393512045524155,0.056933866323477994,0.011918700459563617,0.04328681198346053,0.06418003529726517,0.004446479783278737,-0.10818385877145158,-0.17727794140806394,-0.06518722788184185
2282,10.865181400004076,0.008465179642515284,-0.0014243257375336248,-0.02702969192145377,0.03414126792174301,0.05723935344879588,0.011939248479093162,0.042765104280106436,0.06332696643262542,0.004133664954486768,-0.10964047249268971,-0.1788421883810671,-0.06545576121559729
2283,10.869390699997894,0.008546157623191596,-0.0012736562706265582,-0.027087735225237265,0.03434489977467921,0.05754073592364042,0.011958295609438244,0.04223644377395628,0.062466459435221354,0.0038195930255993547,-0.11108576843609705,-0.1803797392900933,-0.06571220839022722
2284,10.873977600000217,0.008609913656232888,-0.001123366167524447,-0.027146653591534432,0.03454598282588212,0.057837978367632985,0.011975835975942933,0.04170088524601461,0.06159864287246178,0.003504322069898114,-0.11251948472314094,-0.18189031415312296,-0.065956443824223
2285,10.879685699997935,0.008733422409351628,-0.0007942818984547266,-0.027270488724778275,0.03474448415216755,0.05813104601941745,0.01199186398281855,0.04115848473041997,0.06072364664626071,0.003187910757560589,-0.11394136060955566,-0.18337363894008854,-0.06618834351436044
2286,10.884349200001452,0.00880679392735279,-0.0005953924693997525,-0.02733840607361015,0.03494037110133871,0.05841990474304625,0.012006374315970198,0.04060929950894205,0.05984160196432473,0.00287041834811722,-0.11535113654156717,-0.1848294456587652,-0.06640778507904946
2287,10.88845240000228,0.008853716589497218,-0.00039538901920649805,-0.027415840469398038,0.035133611298163635,0.05870452103422837,0.012019361945787491,0.04005338810520843,0.05895264131102566,0.0025519046827016615,-0.11674855421209654,-0.18625747243917457,-0.06661464780177494
2288,10.893267899999046,0.008940162680267151,-0.00016116091808437194,-0.027471685031267776,0.03532417265032486,0.05898486202643676,0.01203082212989852,0.03949081027866081,0.058056898417865516,0.00223243017609392,-0.11813335661692684,-0.18765746361646646,-0.06680881267461493
2289,10.89800679999462,0.00904426849678599,7.912820448639928e-05,-0.027520703533386814,0.03551202335433994,0.05926089549687316,0.012040750415886113,0.03892162701824096,0.05715450823354086,0.0019120558085558548,-0.11950528811081998,-0.18902916981224294,-0.06699016244182185
2290,10.902748199994676,0.009111301738623408,0.00030274626559847985,-0.027563964130432602,0.03569713190145143,0.059532589872288544,0.012049142643965421,0.03834590053580645,0.05624560689361391,0.0015908431174586483,-0.12086409446356844,-0.19037234801429123,-0.06715858164345234
2291,10.910752800002228,0.009324357029890696,0.0008131965995771985,-0.02761375120411541,0.03587946708348488,0.05979991423465723,0.012055994949621875,0.037763694259276614,0.05533033168979827,0.001268854188701918,-0.12220952291596816,-0.19168676165469184,-0.0673139566590317
2292,10.915340499996091,0.009433215147945746,0.0010823590829617034,-0.027615948366003163,0.03605899799867362,0.06006283832670263,0.012061303766208537,0.0371750728255088,0.05440882103886709,0.0009461516479242277,-0.12354132223569812,-0.19297218068626834,-0.06745617575123843
2293,10.919414399992093,0.009551346056753453,0.0013655616960312276,-0.02762667809732759,0.036235694057448885,0.06032133255727278,0.01206506582750188,0.03658010207290542,0.05348121445119163,0.0006227986515048098,-0.12485924277309249,-0.19422838165734582,-0.0675851291095939
2294,10.927133499993944,0.009793439793279303,0.001984155203319714,-0.02764072912412498,0.036409524988193935,0.06057536800656352,0.012067278170214968,0.03597884903375245,0.05254765249891831,0.0002988588773563922,-0.12616303651679167,-0.19545514778478504,-0.06770070889414227
2295,10.933893099994748,0.010064843546403867,0.0025934986099453473,-0.027700535136799737,0.03658046084296088,0.060824916431187606,0.012067938136467053,0.0353713819262899,0.05160827678379246,-2.560348449091052e-05,-0.12745245714925735,-0.1966522690252608,-0.0678028092791052
2296,10.938058500003535,0.01020642363571037,0.0029231361924968663,-0.027701572351740287,0.0367484720031489,0.06106995026908812,0.01206704337620862,0.03475777014651515,0.050663229904637286,-0.00035052374151460947,-0.12872726010213636,-0.1978195421447531,-0.06789132649649579
2297,10.942221499994048,0.010386778930083742,0.0032602333100639736,-0.02768482465628641,0.036913529185142825,0.06131044264429456,0.012064591849600868,0.03413808425972007,0.04971265542449672,-0.0006758367085336447,-0.12998720261145835,-0.19895677078622018,-0.06796615887967573
2298,10.946528300002685,0.01054273036387862,0.0036056369015488527,-0.02766932938919908,0.03707560344591053,0.06154636737152004,0.012060581829348646,0.033512395991762464,0.04875669783745119,-0.001001476717750796,-0.1312320437726527,-0.2000637655354237,-0.06802720690683967
2299,10.95114979999198,0.010738707734872517,0.00399263500068557,-0.027652071674472766,0.037234666188557995,0.06177769896059776,0.012055011902985824,0.03288077822007231,0.04779550253511535,-0.0013273776290034377,-0.13246154459537055,-0.2011403439848764,-0.06807437324441072
2300,10.955288800003473,0.010888280864874257,0.004359028289279584,-0.027658223292149925,0.03739068916784069,0.06200441262075511,0.012047880975112156,0.032243304964393774,0.04682921577282696,-0.0016534728402223015,-0.13367546805809716,-0.20218633079588244,-0.06810756279033113
2301,10.959061399989878,0.011081752720006891,0.004743071372265141,-0.027650876341691485,0.037543644495630114,0.06222648426472374,0.012039188269580581,0.03160005137726417,0.04585798463553627,-0.001979695298097826,-0.13487357916253914,-0.20320155775864285,-0.0681266827172313
2302,10.963292999993428,0.011232109830823702,0.0051567698492835145,-0.0276565502010083,0.03769350464633413,0.0624438905126843,0.012028933331633938,0.0309510937342307,0.04488195700340519,-0.0023059775089535987,-0.13605564498777142,-0.20418586385039872,-0.0681316425154609
2303,10.9679613999906,0.011379913055788695,0.005592843015313493,-0.0276465749408179,0.03784024246226988,0.06265660869604422,0.012017116029990099,0.03029650942380641,0.0439012815171262,-0.002632251549826302,-0.1372214347441299,-0.2051390952915839,-0.06812235403596524
2304,10.975591700000225,0.011678390601367498,0.006495152615715622,-0.027604059798435086,0.03798383115898821,0.0628646168610472,0.012003736558874479,0.02963637693716661,0.04291610754297053,-0.002958449079751496,-0.13837071982683485,-0.20606110559995977,-0.06809873153298984
2305,10.979867200003357,0.011896542267179023,0.006968607029393949,-0.027540025306021038,0.03812424433054841,0.06306789377221288,0.011988795439999004,0.02897077585758707,0.04192658513757568,-0.0032845013512545046,-0.13950327386932976,-0.20695175564270643,-0.06806069170659651
2306,10.984033000000636,0.012094934293781917,0.007480369108232125,-0.02750559807359905,0.03826145595474217,0.06326641891560578,0.011972293524486593,0.028299786849625443,0.04093286501248199,-0.0036103392220455804,-0.14061887279631996,-0.20781091368644503,-0.0680081537449736
2307,10.990224499997566,0.01225428331941827,0.007999277835178193,-0.02749680827394452,0.03839544039826518,0.06346017250193244,0.011954231994740175,0.027623491648047484,0.03993509849842837,-0.003935893166918427,-0.14171729487649637,-0.2086384554451667,-0.06794103936652296
2308,10.99646209999628,0.012608065878480814,0.009084973601659592,-0.02741302990616018,0.03852617242183511,0.06364913546946556,0.01193461236625528,0.026941973046499437,0.038933437509417364,-0.004261093289851084,-0.14279832077492924,-0.20943426412604452,-0.06785927286170629
2309,11.00064779999957,0.012782291196526983,0.009658186207207708,-0.02741013638366265,0.038653627185254724,0.06383328948679429,0.01191343648937525,0.026255314885928104,0.03792803450655998,-0.004585869336308095,-0.14386173360511734,-0.21019823047310418,-0.0677627811346333
2310,11.00513079999655,0.012943328777804141,0.01022381428363475,-0.027398524354579165,0.038777780252418945,0.06401261695539939,0.01189070655098807,0.025563602042749958,0.03691904246171063,-0.004910150705742829,-0.14490731898067769,-0.2109302528087323,-0.06765149374437451
2311,11.009431999991648,0.013139473890804283,0.010863518800505833,-0.027358882029816508,0.03889860759626457,0.06418710101205209,0.011866425076163926,0.024866920416771156,0.03590661482090293,-0.005233866464298702,-0.14593486506666092,-0.21163023707300094,-0.06752534294598111
2312,11.013606799999252,0.013331655203575215,0.01149561214270107,-0.02734221370196194,0.03901608560366131,0.06435672553103515,0.011840594929732492,0.024165356918860174,0.03489090546759715,-0.005556945357707996,-0.14694416263047735,-0.21229809686078713,-0.06738426373119379
2313,11.020066700002644,0.013488446562139685,0.01214668705614298,-0.02734084085267278,0.03913019108024318,0.0645214751261852,0.011813219317799014,0.023458999458374805,0.03387206868575009,-0.005879315824386819,-0.1479350050924189,-0.21293375345666601,-0.06722819386882246
2314,11.025512399995932,0.013806228415149445,0.013512784419807447,-0.02730816687125078,0.03924090125517894,0.06468133515275529,0.011784301789198188,0.022747936930345495,0.0328502591227185,-0.006200906008724715,-0.14890718857576166,-0.21353713586755724,-0.06705707394477858
2315,11.030019999991056,0.013990392195029169,0.01425814117165982,-0.027265740905325263,0.03934819378588015,0.06483629170909695,0.011753846236884809,0.02203225920241709,0.03182563175200699,-0.006521643774567332,-0.14986051195643427,-0.2141081808531059,-0.06687084740174229
2316,11.03382939999574,0.014191318587651353,0.015013562515206191,-0.027226468588658514,0.039452046762645625,0.06498633163816138,0.011721856899260238,0.021312057101551048,0.030798341835871455,-0.0068414567188904655,-0.15079477691223728,-0.2146468329537799,-0.06666946057844629
2317,11.03827089999686,0.014419461165684308,0.015777384280947684,-0.027186299551370727,0.039552438713241274,0.06513144252881904,0.011688338361433757,0.020587422400490347,0.02976854488778912,-0.007160272185663717,-0.1517097879716001,-0.21515304451666628,-0.06645286274855843
2318,11.043931299995164,0.014596416587611169,0.01654621098868426,-0.027154501221748725,0.03964934860741412,0.06527161271699689,0.011653295556417838,0.01985844780398929,0.028736396634806302,-0.0074780172799018855,-0.15260535256186092,-0.21562677571895045,-0.06622100615914484
2319,11.05120739999984,0.014868974203316633,0.018150666766065283,-0.027188051667898287,0.039742755861339144,0.06540683128663233,0.011616733766256446,0.01912522693481067,0.027702052979775214,-0.007794618881902164,-0.1534812810570569,-0.21606799458906323,-0.0659738460686954
2320,11.055285800001002,0.015055512079397116,0.018992349558100825,-0.027177643007173572,0.03983264034199766,0.06553708807044367,0.011578658623085493,0.018387854319492622,0.02666566996349128,-0.008110003661665083,-0.15433738682521086,-0.2164766770254821,-0.06571134078469318
2321,11.059791799998491,0.01526038115394919,0.01982416760271905,-0.02714350586369208,0.03991898237148619,0.06566237365051653,0.01153907611012465,0.01764642537388773,0.02562740372674224,-0.008424098093497099,-0.15517348627510089,-0.21685280681317237,-0.06543345170070977
2322,11.066042199992808,0.015391038305604553,0.020673120663486342,-0.027158672373642327,0.04000176273125462,0.06578267935870585,0.011497992562599606,0.016901036388476877,0.024587410472280607,-0.00873682847079259,-0.1559893989024984,-0.2171963756376554,-0.06514014333300848
2323,11.071964299990212,0.015793402588175725,0.022511259173594676,-0.02717703780902589,0.04008096266627273,0.06589799727685307,0.011455414668593922,0.0161517845134605,0.02354584642673121,-0.009048120920993002,-0.15678494733585935,-0.21750738309669204,-0.06483138335663696
2324,11.076090499991553,0.015912743805823453,0.02344085219754816,-0.027207848638451784,0.04015656388912372,0.06600832023681806,0.011411349469829595,0.015398767743629917,0.02250286780244554,-0.009357901420720698,-0.15755995738145454,-0.21778583670956997,-0.06450714264099107
2325,11.079947599995648,0.016084849351007496,0.024375265549910655,-0.027219852422472008,0.040228548584024096,0.06611364182032635,0.011365804362375479,0.014642084903021532,0.021458630759314538,-0.009666095811085039,-0.15831425806792573,-0.2180317519239858,-0.06416739528483198
2326,11.08401559999038,0.01628409390584471,0.025360742690161725,-0.027240947141791025,0.04029689941076909,0.0662139563586313,0.011318787097282708,0.013881835629356586,0.020413291366551633,-0.009972629813158086,-0.15904768169025327,-0.21824515212051374,-0.0638121186507382
2327,11.087967100000242,0.01644117031785056,0.02634108941885903,-0.027254607476282004,0.04036159950860252,0.0663092589319914,0.011270305781146262,0.013118120358269387,0.019367005564457723,-0.01027742904361727,-0.15976006385312277,-0.21842606861465194,-0.06344129339897442
2328,11.09251889999723,0.016643872552085687,0.02735071063648481,-0.027259136175037633,0.04042263250001018,0.06639954536896274,0.011220368876591877,0.012351040307326956,0.018319929126179982,-0.010580419030552256,-0.16045124351367854,-0.21857454065643983,-0.06305490352075889
2329,11.096483899993473,0.01686522033601697,0.028348368913174833,-0.027287687173708112,0.040479982494435976,0.06648481224550655,0.011168985202687463,0.011580697459843116,0.017272217619476372,-0.010881525229433154,-0.16112106302365004,-0.21869061542764154,-0.06265293637091099
2330,11.100646299993969,0.017080294633290378,0.029310801968857648,-0.0273787465563557,0.040533634091919964,0.06656505688391216,0.01111616393527827,0.010807194548490084,0.016224026368497728,-0.011180673039237107,-0.16176936817083876,-0.21877434803648985,-0.06223538269986083
2331,11.107534099995974,0.01732710086693951,0.030336981575206864,-0.027454038639723868,0.040583572386657246,0.06664027735153598,0.011061914607245016,0.01003063503871073,0.015175510415599383,-0.011477787818730156,-0.16239600821995262,-0.21882580150998662,-0.061802236685003176
2332,11.113487199996598,0.017826043293117665,0.03251325627421828,-0.027488778000047728,0.04062978297047689,0.06671047245935639,0.011006247108684235,0.009251123111934715,0.014126824483194297,-0.011772794902901281,-0.16300083595277542,-0.21884504678375524,-0.061353495961377805
2333,11.117904899991116,0.01807644949503886,0.033553499235267285,-0.02751314951519179,0.04067225193623987,0.06677564176034426,0.010949171687010028,0.008468763648601756,0.013078122935659653,-0.01206561961954534,-0.16358370770765826,-0.21883216268944183,-0.06088916165165828
2334,11.121441800001776,0.018274538706818846,0.034617221355015326,-0.027543677151252676,0.040710965881155116,0.06683578554764916,0.010890698946976453,0.007683662210995279,0.012029559741308874,-0.01235618730599162,-0.1641444834183191,-0.21878723593966412,-0.06040923839543176
2335,11.125753200001782,0.018507492447987505,0.03579904115127726,-0.027571667186120558,0.04074591191001295,0.06689090485260238,0.01083083985061986,0.006895925025889783,0.010981288434441058,-0.012644423325974633,-0.16468302665193915,-0.21871036111050637,-0.05991373437775249
2336,11.129932199997713,0.018797163187601506,0.03696856921922795,-0.0276075388304114,0.04077707763833487,0.06694100144253715,0.01076960571712043,0.006105658967015326,0.009933462077479815,-0.012930253086643721,-0.16519920464654433,-0.21860164062156168,-0.059402661356951394
2337,11.134226199996192,0.018945059080569773,0.03800322504154309,-0.027700688303447032,0.040804451195438754,0.06698607781842705,0.010707008222582333,0.005312971537342582,0.008886233223213491,-0.013213602055707919,-0.16569288834766027,-0.2184611847135219,-0.05887603469168442
2338,11.138699599992831,0.019225496131909922,0.039128942627134615,-0.0277674333161332,0.04082802122741848,0.06702613721234321,0.010643059399731805,0.004517970851192058,0.007839753877148832,-0.013494395778712389,-0.16616395244422905,-0.21828911142331664,-0.05833387336720278
2339,11.143473000003723,0.01954697702423805,0.04029105266491824,-0.02782459074145207,0.04084777690003725,0.06706118358473065,0.010577771637532481,0.0037207656161711,0.006794175459990084,-0.013772559896442691,-0.16661227540377832,-0.21808554655680581,-0.05777620002082783
2340,11.147121999994852,0.019812950764540885,0.04137079776589874,-0.02787805324221893,0.04086370790153371,0.06709122162150419,0.010511157680717392,0.002921465114942358,0.005749648770255515,-0.014048020162453115,-0.1670377395068307,-0.2178506236590289,-0.05720304096661377
2341,11.150749699998414,0.020077786693014715,0.04248810264887453,-0.027942413025787954,0.04087580444534022,0.06711625673096486,0.010443230629237039,0.0021201791868274374,0.004706323947043353,-0.014320702460715136,-0.1674402308805425,-0.217584483982014,-0.05661442621918163
2342,11.154821099989933,0.02035293655795561,0.04357626208841957,-0.02798483678854972,0.04088405727271257,0.06713629504053739,0.010374003937622958,0.0013170182092494965,0.003664350432959034,-0.014590532823382112,-0.16781963953156104,-0.21728727645015233,-0.05601038951670786
2343,11.158909799996763,0.02063205785960843,0.04468696879374536,-0.02802790397838132,0.04088845765527009,0.06715134339332958,0.010303491414266144,0.0005120930790186133,0.0026238769372156764,-0.014857437448666157,-0.16817585937808924,-0.2169591576231456,-0.0553909683430516
2344,11.163743400000383,0.02095522137496952,0.04579010492976421,-0.028096402491344666,0.04088899739744512,0.06716140934451444,0.010231707220609745,-0.0002944848065362044,0.001585051398919609,-0.015121342718823039,-0.16850878828114643,-0.21660029165653447,-0.05475620394900469
2345,11.167444299993804,0.02120747241230074,0.046847992414607485,-0.028172398999789475,0.04088566883884126,0.06716650115753632,0.010158665870255526,-0.0011026035685844442,0.0005480209505527745,-0.015382175218240885,-0.16881832807501498,-0.21621085025981823,-0.05410614137264873
2346,11.171346499992069,0.02155106218937098,0.047874485913194244,-0.0282072933148013,0.04087846485649968,0.06716662780014178,0.010084382227983591,-0.001912150865956971,-0.00048706811833623204,-0.015639861751628386,-0.16910438459686217,-0.2157910126521753,-0.0534408294588039
2347,11.17572410000139,0.021970008037994287,0.04893803298053432,-0.028260916724173666,0.04086737886707275,0.06716179894023588,0.01000887150868493,-0.0027230139144503443,-0.0015200703972207677,-0.015894329362298124,-0.16936686771552786,-0.21534096551579382,-0.052760320877554334
2348,11.179629299993394,0.02233869261605253,0.049976301858344147,-0.028327989227677836,0.04085240482890447,0.06715202494156491,0.00993214927620636,-0.003535079506268504,-0.0025508413904527325,-0.01614550535054061,-0.16960569135946907,-0.2148609029468238,-0.05206467214183491
2349,11.184091699993589,0.02264381359215899,0.05101278088577537,-0.028426971690330576,0.04083353724401712,0.0671373168592268,0.009854231442107345,-0.0043482340295977265,-0.0035792375528755456,-0.01639331729208459,-0.16982077354385217,-0.21435102640396145,-0.05135394362406471
2350,11.188423999992663,0.022998399745506205,0.05198573674381625,-0.02848079352802014,0.04081077116000379,0.06711768643501059,0.009775134264328186,-0.005162363488310689,-0.00460511632518197,-0.01663769305663893,-0.1700120363967834,-0.2138115446546796,-0.05062819957181259
2351,11.192260600000736,0.023366730803842325,0.05301596931024141,-0.02846455899075058,0.0407841021718261,0.06709314609256571,0.009694874345769154,-0.0059773535217954666,-0.005628336169005321,-0.016878560826511367,-0.17017940618466895,-0.21324267371911787,-0.0498875081224805
2352,11.196456899997427,0.023760630311794085,0.054078021202724834,-0.028463085865795223,0.04075352642351659,0.06706370893240231,0.009613468632780188,-0.006793089424905193,-0.006648756601732656,-0.017115849115299293,-0.17032281333669647,-0.21264463681164605,-0.0491319413169905
2353,11.200515999997153,0.024093274171473947,0.055083524481988375,-0.0285192098118372,0.040719040609785276,0.06702938872672429,0.009530934413560744,-0.0076094561680241125,-0.0076662382310286456,-0.017349486786647838,-0.17044219246842932,-0.21201766428011587,-0.04836157511246181
2354,11.20504339999752,0.024434043724153545,0.05613259797536939,-0.02862937700720586,0.040680641977529866,0.06699019991409663,0.009447289316469485,-0.00842633841724563,-0.008680642789058887,-0.01757940307307035,-0.17053748240450584,-0.21136199354281768,-0.0475764893938646
2355,11.213613699990674,0.02534168074790853,0.05813242838763311,-0.028560940958689916,0.04063832832724893,0.06694615759394847,0.00936255130824346,-0.009243620554658013,-0.009691833166401534,-0.017805527594826433,-0.17060862620043482,-0.210677869023161,-0.04677676798463769
2356,11.217519700003322,0.025838324962320254,0.05916434369758623,-0.028481181456675043,0.040592098014357564,0.06689727752091353,0.009276738692126477,-0.010061186698733316,-0.010699673445636208,-0.01802779037885241,-0.17065557116347937,-0.2099655420820963,-0.04596249865625716
2357,11.221871899993856,0.02629657212981812,0.060138095122655826,-0.028434538701923313,0.04054194995040505,0.06684357609900976,0.009189870105906413,-0.010878920724815092,-0.011704028934599195,-0.018246121877739146,-0.17067826887262166,-0.20922527094829785,-0.04513377313674363
2358,11.226335200000904,0.02673653808666979,0.06109818533724299,-0.028316891726144218,0.04048788360419374,0.06678507037566005,0.009101964519861172,-0.011696706285700421,-0.012704766199294113,-0.018460452988752173,-0.17067667519760193,-0.20845732064612607,-0.04429068711809571
2359,11.230274799992912,0.027234909387806944,0.06210844351359678,-0.02817708318882035,0.04042989900279873,0.06672177803555511,0.009013041234613077,-0.012514426832311748,-0.013701753096447349,-0.018670715072888915,-0.17065075031702576,-0.20766196292139172,-0.043433340262637926
2360,11.238143199996555,0.028248963200905454,0.06408865376461348,-0.02797276342751582,0.040367996732488004,0.06665371739436063,0.008923119878891505,-0.013331965634454022,-0.01469485880569758,-0.01887683997396778,-0.17060045873553312,-0.2068394761649425,-0.04256183620827174
2361,11.242217399994844,0.02874619376730288,0.06504192640565476,-0.02784965343330123,0.040302177939542654,0.06658090739226986,0.008832220407203592,-0.014149205801652551,-0.01568395386140883,-0.019078760037743774,-0.17052576930002375,-0.2059901453340948,-0.04167628257261835
2362,11.246466900003725,0.0292266470084955,0.06600005139660152,-0.027657026420102388,0.04023244433097688,0.0665033675874036,0.00874036309741284,-0.014966030304066952,-0.016668910184096584,-0.019276408131045263,-0.1704266552149332,-0.20511426187193388,-0.040776790956042426
2363,11.251076500004274,0.02967129527071047,0.06695516562852431,-0.027485659569421412,0.04015879817515764,0.06642111814905947,0.008647568548225563,-0.015782321993476598,-0.017649601111456664,-0.019469717660926616,-0.17030309405655408,-0.20421212362450775,-0.03986347694354607
2364,11.255646499994327,0.03015014329566846,0.06790630995536572,-0.027327810055019504,0.04008124230232371,0.06633417985081227,0.008553857676585109,-0.016597963624332843,-0.01862590142898671,-0.019658622593831297,-0.1701550677863971,-0.20328403475594098,-0.03893646010552308
2365,11.259345200000098,0.03058997968161766,0.06883604858940315,-0.027125690309554962,0.03999978010500387,0.06624257406346797,0.008459251714973788,-0.01741283787487329,-0.01959768740019013,-0.01984305747475991,-0.1699825627635866,-0.20233030566149554,-0.03799586399736398
2366,11.26295289999689,0.030965091304844483,0.06971379483513897,-0.026940429339568125,0.03991441553833406,0.06614632274787352,0.008363772208622486,-0.018226827368293334,-0.020564836796352636,-0.020022957446437627,-0.169785569756286,-0.20135125287860542,-0.03704181615790232
2367,11.272002199999406,0.031832130210546594,0.07150460667500871,-0.026467875970513838,0.0398251531202731,0.06604544844758485,0.008267441012627956,-0.019039814693970192,-0.021527228925881606,-0.020198258268475343,-0.1695640839521484,-0.20034719899591355,-0.03607444810669343
2368,11.275572600003215,0.03223286817301185,0.0723719423111137,-0.026171153708233277,0.03973199793171666,0.06593997428139511,0.008170280288977818,-0.019851682428734613,-0.022484744663198664,-0.020368896336518744,-0.16931810496778765,-0.19931847256033935,-0.03509389534011682
2369,11.279873099992985,0.032630097148532815,0.07318165633873609,-0.02585498138386477,0.03963495561650924,0.06582992393572568,0.008072312503483347,-0.02066231315818558,-0.023437266477175978,-0.020534808701379626,-0.1690476368572664,-0.19826540798220654,-0.03410029732629424
2370,11.284169499995189,0.03305313633773473,0.07397035354717765,-0.02552044700796189,0.03953403238135372,0.06571532165688197,0.007973560422620127,-0.0214715894980432,-0.024384678459107002,-0.020695933088143662,-0.16875268811959618,-0.197188345438461,-0.03309379749881577
2371,11.288195100001758,0.03341532740568151,0.07471335239862748,-0.025213685989340047,0.03942923499561819,0.0655961922431764,0.00787404711027662,-0.022279394115534985,-0.025326866350202558,-0.020852207915248923,-0.16843327170524644,-0.1960876307740104,-0.03207454324926668
2372,11.292301399997086,0.0337816384685687,0.07546617921380346,-0.024854361005412995,0.03932057079103977,0.06547256103692028,0.007773795924410786,-0.023085609750810802,-0.02626371756860336,-0.021003572313529225,-0.16808940502165956,-0.19496361540121654,-0.03104268591854852
2373,11.29645850000088,0.03415472695544255,0.0761827506491451,-0.024503253551522303,0.039208047661325456,0.06534445391628772,0.007672830513614928,-0.023890119238381535,-0.02719512123589996,-0.021149966145216484,-0.1677211099377701,-0.19381665619757346,-0.02999838078698813
2374,11.300863700002084,0.034547602941928865,0.07687613995521672,-0.024131359314563006,0.03909167406164988,0.0652118972870533,0.007571174813588958,-0.02469280552857667,-0.028120968203151273,-0.021291330022896286,-0.1673284127875266,-0.1926471154016041,-0.028941787063228894
2375,11.305293700002949,0.0349345217906569,0.0775418114231869,-0.023738446665862705,0.03897145900804979,0.065074918074206,0.007468853043522326,-0.025493551709015877,-0.02904115107639319,-0.021427605328410607,-0.16691134437241292,-0.19145536050700862,-0.02787306787189859
2376,11.30915780000214,0.03521363971296556,0.07817672407874877,-0.023353702653294207,0.03884741207671545,0.06493354371344158,0.007365889702384824,-0.026292241026089708,-0.029955564241628697,-0.02155873423170172,-0.16646993996296564,-0.19024176415509902,-0.026792390240048987
2377,11.31357179999759,0.03550566867110796,0.07884874591804777,-0.022979789545989088,0.03871954340317882,0.0647878021425362,0.007262309565126535,-0.027088756906444664,-0.030864103889291457,-0.02168465970959136,-0.16600423929928682,-0.1890067040255553,-0.0256999250823628
2378,11.31734329999017,0.0358231560121679,0.07949980353549169,-0.02257699646753285,0.03858786368139872,0.06463772179260344,0.007158137678787188,-0.02788298297846785,-0.031766668038174795,-0.021805325564489,-0.16551428659054995,-0.18775056272553875,-0.02459584718512386
2379,11.321809999994002,0.036105204049312986,0.0801178764074503,-0.02216590820142659,0.038452384162742985,0.06448333157923762,0.00705339935851525,-0.028674803093766323,-0.03266315655881826,-0.021920676443023288,-0.16500013051349832,-0.18647372767719927,-0.023480335188946946
2380,11.325513499992669,0.03639009016683959,0.0806854113486518,-0.021760718407217144,0.03831311665486734,0.06432466089354612,0.006948120183497099,-0.02946410134863621,-0.033553471196344165,-0.022030657854590522,-0.16446182420993577,-0.18517659100361378,-0.022353571570263964
2381,11.329808700000283,0.03666115008185349,0.0812449235973764,-0.021344155533406368,0.03817007352049131,0.06416173959307346,0.0068423259927966945,-0.030250762105516613,-0.03443751559273659,-0.02213521618981413,-0.1638994252832088,-0.1838595494131928,-0.02121574262156396
2382,11.333962799995788,0.03692370095254876,0.08177108528392585,-0.02098928025159571,0.03802326767607109,0.06399459799262026,0.006736042881106137,-0.031034670014423643,-0.035315195308555834,-0.022234298738909038,-0.16331299579367967,-0.18252300408259314,-0.020067038430384675
2383,11.338288400002057,0.03720384393454012,0.08228802512494844,-0.020644294744191365,0.037872712590369687,0.06382326685495956,0.0066292971944075735,-0.031815710034359485,-0.0361864178440812,-0.02232785370994493,-0.16270260225319136,-0.1811673605381744,-0.018907652857053907
2384,11.34345200000098,0.03761373796247347,0.08276719361645633,-0.020267624818266196,0.03771842228292429,0.06364777738145333,0.006522115525546955,-0.03259376745469161,-0.0370510926598753,-0.022415830247002267,-0.1620683156185252,-0.17979302853603832,-0.017737783511179408
2385,11.347121799990418,0.038020110939161716,0.08322071953248403,-0.01992422626502308,0.03756041132241087,0.06346816120257211,0.006414524709720196,-0.03336872791649737,-0.037909131196763424,-0.02249817844821494,-0.16141021128385125,-0.1784004219406913,-0.016557631726886533
2386,11.351902399997924,0.03840532642741046,0.0836334698003478,-0.019598736645757505,0.03739869482490603,0.06328445036832056,0.006306551819872266,-0.034140477433868874,-0.038760446895221685,-0.02257484938369345,-0.1607283690721721,-0.1769899586023698,-0.015367402536803439
2387,11.355741099992883,0.038835516184543464,0.08404735513457083,-0.019259094940319067,0.03723328845204637,0.06309667733857133,0.006198224162009745,-0.03490890241517319,-0.03960495521416767,-0.02264579511332236,-0.16002287322576098,-0.1755620602330691,-0.014167304644794007
2388,11.360192299995106,0.03925824832594639,0.0844339500053787,-0.018908628090007762,0.03706420840908564,0.0629048749733105,0.006089569270427448,-0.03567388968426279,-0.04044257364914741,-0.0227109687044259,-0.15929381239559554,-0.1741171522813174,-0.012957550397439168
2389,11.363750099990284,0.039697180619219286,0.08476201464906533,-0.01859093750104082,0.036891471442849745,0.06270907652279781,0.00598061490284976,-0.036435326501631296,-0.04127322174991282,-0.022770324249295544,-0.15854127962978995,-0.17265566380573624,-0.01173835575426782
2390,11.367784799993387,0.040103558556595476,0.08509673445206326,-0.018299661956301498,0.036715094839589915,0.06250931561764382,0.005871389035487334,-0.03719310058550974,-0.04209682113738365,-0.022823816882573417,-0.1577653723610274,-0.17117802734742932,-0.010509940256738985
2391,11.37145540000347,0.040527475273461906,0.08540592403654826,-0.018010887486997453,0.036535096422734406,0.06230562625880758,0.0057619198580098445,-0.03794710013289857,-0.04291329551998864,-0.02287140279848546,-0.15696619239299534,-0.16968467880124238,-0.009272526995977283
2392,11.375671000001605,0.04091019069896885,0.08568807693567121,-0.017730731388145064,0.03635149455053926,0.06209804280751757,0.005652235768435493,-0.038697213840530584,-0.04372257070938051,-0.02291303926791834,-0.15614384588582692,-0.16817605728593796,-0.00802634257926439
2393,11.37978029999067,0.0413248913350592,0.08595239600811228,-0.017415073021079884,0.03616430811363849,0.061886599975119534,0.005542365367938063,-0.03944333092575988,-0.04452457463551998,-0.02294868465533404,-0.15529844334055135,-0.16665260501332815,-0.006771617095289597
2394,11.384041600002092,0.04170612593441177,0.0861695271369015,-0.017102916651133827,0.03597355653249382,0.061671332812854154,0.005432337455572292,-0.040185341147372045,-0.04531923736112377,-0.02297829843551607,-0.15443009958255538,-0.16511476715640955,-0.005508584078163071
2395,11.38801660000172,0.04205126100750445,0.08634405613789957,-0.016772895104516208,0.0357792597547443,0.06145227670156735,0.005322181022918397,-0.04092313482631087,-0.04610649109547166,-0.023001841210141077,-0.1535389337440592,-0.16356299171654418,-0.004237480470196043
2396,11.3921801999968,0.04242135517564605,0.0865164975760874,-0.01641204650321839,0.03558143825245633,0.06122946734135645,0.00521192524864658,-0.04165660286631671,-0.04688627020756814,-0.023019274724169814,-0.15262506924561128,-0.16199772938973156,-0.002958546583452548
2397,11.396807299999637,0.04276529422460539,0.08661638475116525,-0.01604455581802799,0.035380113019274434,0.06100294074115539,0.005101599493002388,-0.04238563677447177,-0.04765851123865427,-0.023030561882051347,-0.15168863377660688,-0.1604194334320165,-0.00167202606007785
2398,11.40060559999256,0.043122029542523026,0.08669705761080913,-0.015692230481780086,0.035175305567473364,0.06077273320826196,0.0049912332922138055,-0.04311012868164757,-0.048423152914066014,-0.023035666763734544,-0.15072975927483395,-0.15882855952407718,-0.00037816583140917975
2399,11.40617299999576,0.043438176789582894,0.08672407731501311,-0.015357642055139856,0.034967037924911674,0.06053888133781035,0.004880856352821008,-0.043829971362849884,-0.049180136154435346,-0.023034554640480855,-0.14974858190505091,-0.15722556563503878,0.0009227839241251043
2400,11.409820899993065,0.04383410668216706,0.08672939287818457,-0.014968998839511706,0.03475533263188734,0.060301422002192316,0.004770498545929755,-0.0445450582574565,-0.0499294040862305,-0.023027191990472456,-0.14874524203660128,-0.1556109118855583,0.0022305698243113253
2401,11.413468600003398,0.04423990079264403,0.08667907567133906,-0.01455555525929613,0.03454021273789566,0.06006039234042967,0.004660189901389397,-0.04525528348934317,-0.050670902051631696,-0.023013546514209834,-0.14771988422007076,-0.15398506041022683,0.003544935327654171
2402,11.417754800000694,0.044594839031124614,0.08657467115006748,-0.01414075787475455,0.03432170179828992,0.059815829747501006,0.0045499606018965175,-0.04596054188689324,-0.05140457761773931,-0.022993587149692983,-0.14667265716299255,-0.15234847521933453,0.004865620779070663
2403,11.425497299991548,0.045177711979943226,0.08626992942726268,-0.013271714809718758,0.03409982387084546,0.059567771863625836,0.0044398409770253005,-0.046660729002886404,-0.05213038058511157,-0.02296728408738029,-0.1456037137046062,-0.15070162206004556,0.006192363456766336
2404,11.429741400002968,0.04542690921201742,0.08611183888908647,-0.012840138344662298,0.03387460351222792,0.059316256563509466,0.004329861497185676,-0.04735574113426225,-0.05284826299562922,-0.022934608784919167,-0.14451321078967697,-0.14904496827702857,0.00752489762028506
2405,11.43359829999099,0.04542690921201742,0.08611183888908647,-0.012840138344662298,0.03364606577436639,0.05906132194555206,0.0042200527675103575,-0.04804547534175398,-0.053558179139684886,-0.022895533981642638,-0.1434013094413808,-0.1473789826725892,0.008862954559723467
2406,11.43971559999045,0.045769668752746934,0.0857657296199604,-0.011957643319414984,0.03341423620073226,0.05880300632102467,0.004110445521671892,-0.048729829469387934,-0.05426008556269497,-0.022850033712826217,-0.14226817473326156,-0.14570413536635132,0.010206262646100391
2407,11.443298099999083,0.04589678746403515,0.08559140199438894,-0.011482249650235709,0.03317914082252473,0.05854134820321578,0.004001070615630921,-0.049408702163844145,-0.05495394107093209,-0.022798083323699352,-0.1411139757602674,-0.14402089765453413,0.011554547382871363
2408,11.447491999992051,0.04597806833826515,0.08539281524491671,-0.010996164061940265,0.032940806154763955,0.058276386296551734,0.0038919590213168306,-0.05008199289367373,-0.05563970673667638,-0.022739659483205815,-0.13993888560887383,-0.1423297418688722,0.012907531458577634
2409,11.45181450000382,0.046069626464809346,0.0851629308755615,-0.010537070419316535,0.03269925919229233,0.05800815948569446,0.003783141820242022,-0.05074960196836861,-0.05631734590268403,-0.02267474019750744,-0.1387430813262998,-0.14063114123522596,0.014264934800618826
2410,11.458984299999427,0.0463297702809296,0.08469557053293818,-0.009491178752998373,0.03245452740568476,0.05773670682461952,0.0036746501970510567,-0.051411430557279404,-0.05698682418597247,-0.02260330482322566,-0.13752674388882444,-0.13892556973193,0.01562647463013774
2411,11.463192099996377,0.04647994580203999,0.08443704424610504,-0.008929561549667273,0.032206638737068666,0.057462067525677826,0.0035665154330059424,-0.052067380708377124,-0.05764810948092127,-0.022525334080415366,-0.13629005816921222,-0.13721350194792672,0.01699186551800537
2412,11.467957999993814,0.04663394872991464,0.08417788544998206,-0.008347595836354907,0.03195562159585434,0.05718428094864455,0.0034587688994088704,-0.05271735536685447,-0.0583011719616884,-0.022440810065265708,-0.13503321290325485,-0.13549541294073342,0.01836081944189384
2413,11.472122799998033,0.04678050903740917,0.0838980277559969,-0.007774133089764124,0.03170150485437675,0.05690338658975901,0.003351442050963752,-0.053361258393562795,-0.05894598408394139,-0.022349716262522436,-0.13375640065543767,-0.13377177809428925,0.01973304584442439
2414,11.475838099999237,0.04694969115826832,0.08363616376884436,-0.007196451102999011,0.031444317843449456,0.056619424070759115,0.003244566419077926,-0.05399899458328039,-0.05958252058590312,-0.022252037557626697,-0.13245981778373947,-0.13204307297673024,0.021108251692377185
2415,11.479841199994553,0.04710246805193966,0.08338150995262342,-0.006636383165837524,0.031184090347831497,0.05633243312791346,0.0031381736051054195,-0.054630469682807686,-0.06021075848871232,-0.02214776024856508,-0.13114366440357492,-0.13030977319813866,0.022486141536949205
2416,11.483840400003828,0.04726018207687634,0.08309003799657955,-0.006071798465527573,0.030920852601608116,0.05604245360105432,0.0030322952735331882,-0.055255590408885336,-0.06083067709609859,-0.022036872057425837,-0.12980814435088944,-0.12857235426831498,0.02386641757504606
2417,11.488340099997004,0.04738676598310457,0.08275631381709396,-0.005499124913423186,0.030654635283486303,0.055749525422614556,0.0029269631451117654,-0.05587426446593139,-0.061442257993372586,-0.02191936214165609,-0.12845346514441564,-0.12683129145461822,0.025248779711593096
2418,11.49214829999255,0.04753974489208218,0.08244710299999528,-0.004976580259322095,0.03038546951200605,0.05545368860667155,0.002822208989931786,-0.05648640056359301,-0.06204548504573204,-0.021795221105014993,-0.12707983794709968,-0.1250870596399227,0.02663292562285066
2419,11.496392200002449,0.047671728436422596,0.08214586274069419,-0.00443086248966585,0.030113386840668145,0.05515498323800168,0.00271806462044787,-0.05709190843410871,-0.0626403443958847,-0.02166444100821799,-0.12568747752670725,-0.12334013318073828,0.028018550820718108
2420,11.50065899999754,0.04775832973354005,0.08184851380801778,-0.0039186065817517594,0.029838419252979514,0.05485344946114854,0.0026145618844513846,-0.057690698849477064,-0.06322682446098893,-0.021527015379267413,-0.12427660221561826,-0.12159098576554166,0.029405348718010597
2421,11.505013300004066,0.04779599022901913,0.08153308450358471,-0.003440142437324247,0.02956059915741697,0.054549127469508234,0.0025117326579936223,-0.05828268363842817,-0.06380491592891332,-0.021382939223464698,-0.12284743386982057,-0.11984009027336606,0.03079301069469252
2422,11.509010800000397,0.047825286046412056,0.0812240717956809,-0.002990643530393565,0.029279959382310327,0.05424205749443517,0.002409608838260966,-0.05886777570319442,-0.06437461175381688,-0.021232209033099494,-0.12140019782711371,-0.11808791863269569,0.032181226165050925
2423,11.513003599990045,0.047904913072581025,0.08090479757007525,-0.0025733128633144945,0.0289965331706458,0.053932279794372,0.0023082223364036384,-0.05944588903607691,-0.06493590715105185,-0.021074822796811225,-0.11993512286453246,-0.11633494168071101,0.03356968264579179
2424,11.51726690000214,0.04795467834853826,0.08058672641654778,-0.002192788852805996,0.028710354174790682,0.05361983464400696,0.0022076050703196287,-0.060016938735803944,-0.0654887995913914,-0.020910780008618634,-0.11845244115500038,-0.11458162902293126,0.03495806582504177
2425,11.52145329999621,0.04799850314280164,0.08023912565801894,-0.0018478141391904343,0.02842145645114033,0.05330476232346201,0.0021077889573954227,-0.060580841023677626,-0.0660332887945845,-0.02074008167661285,-0.11695238822322274,-0.11282844889330063,0.036346059632237526
2426,11.525502299991786,0.04808658629222051,0.07990895285055999,-0.0014817201096043132,0.028129874454688644,0.05298710310751523,0.0020088059072051866,-0.06113751325950513,-0.06656937672224046,-0.0205627303313098,-0.11543520290082923,-0.11107586801476482,0.03773334630888468
2427,11.529443299994456,0.04808658629222051,0.07990895285055999,-0.0014817201096043132,0.02783564303352311,0.05266689725486037,0.0019106878141700726,-0.061686873957311504,-0.06709706757004553,-0.020378730033657682,-0.11390112728077756,-0.10932435146038405,0.039119606480167775
2428,11.533665800001472,0.048334991142375106,0.07925735205098625,-0.0007430783122447957,0.027538797423245533,0.05234418499740692,0.0018134665501793397,-0.06222884280083027,-0.06761636775931473,-0.02018808638269539,-0.11235040667102922,-0.10757436251502865,0.04050451922739232
2429,11.538174200002686,0.04845994460190696,0.07895629822954368,-0.0004101706085423815,0.027239373241319503,0.05201900652962363,0.0017171739571749931,-0.06276334065876853,-0.06812728592788198,-0.01999080652285791,-0.1107832895475087,-0.10582636253770306,0.041887762161239524
2430,11.542348899994977,0.048579205641624275,0.07868787929489542,-0.00012709589907838317,0.026937406481345808,0.05169140199792901,0.0016218418397016677,-0.06329028959984323,-0.06862983292033203,-0.01978689915092467,-0.10920002750635738,-0.10408081082454353,0.04326901149581401
2431,11.546475900002406,0.048663702157835484,0.07845781723811278,0.0001182341599491616,0.02663293350726687,0.05136141149013203,0.001527501957423516,-0.06380961290758498,-0.06912402177757783,-0.019576374522607083,-0.10760087521549366,-0.10233816447253452,0.044647942123464714
2432,11.55144609999843,0.04867130067337712,0.07821366370196854,0.00030266553364061664,0.02632599104750132,0.051029075024925936,0.0014341860176098735,-0.06432123509490605,-0.06960986772578688,-0.01935924445877156,-0.10598609036549132,-0.1005988782439881,0.04602422769035855
2433,11.555255699990084,0.04871207244829703,0.07802053900607135,0.0005077998774863377,0.026016616189009717,0.05069443254143834,0.0013419256675914837,-0.06482508191842967,-0.0700873881646609,-0.019135522351294548,-0.10435593361978832,-0.09886340443183,0.047397540672786315
2434,11.563575399995898,0.04868328507751421,0.07771431488660077,0.0008781204752134476,0.025704846371292403,0.05035752388884066,0.0012507524871890859,-0.0653210803925772,-0.07055660265507249,-0.01890522316854607,-0.10271066856423823,-0.09713219272573577,0.04876755245417983
2435,11.567374199992628,0.048619745398919625,0.07760106163254957,0.001015819670875398,0.025390719380320607,0.050018388816020075,0.0011606979811161818,-0.06580915880340976,-0.07101753290606315,-0.018668363460498424,-0.10105056165601638,-0.09540569007916018,0.05013393340281901
2436,11.571759200000088,0.04852311563598083,0.07752477221757964,0.0010954085324315355,0.025074273342402035,0.04967706696131707,0.0010717935713578204,-0.06628924672222156,-0.07147020276120714,-0.018424961363456723,-0.09937588217189297,-0.09368434057730339,0.05149635295020706
2437,11.578244799995446,0.04849808543325158,0.07748785637352068,0.0011800723521229258,0.024755546717982035,0.049333597842331586,0.0009840705895272496,-0.06676127501888136,-0.07191463818434658,-0.01817503660440805,-0.09768690215588612,-0.09196858530605613,0.05285447967009209
2438,11.582831899999292,0.048458592210851734,0.07746173045687901,0.0012336694365422162,0.024434578295381523,0.0489880208458008,0.0008975602692023033,-0.0672251758749197,-0.07235086724470256,-0.017918610504986082,-0.09598389636630746,-0.09025886222196573,0.05420798135811302
2439,11.588555700000144,0.04844195822607994,0.07745496222355935,0.0012950559419296773,0.02411140718447279,0.04864037521755154,0.0008122937382434137,-0.067680882796359,-0.07277892010136694,-0.017655705985048117,-0.09426714222221351,-0.08855560602326462,0.05555652511204717
2440,11.592687600001229,0.04845546254345534,0.07745722322081099,0.001322835671279342,0.0237860728102944,0.04829070005253013,0.0007283020110951526,-0.06812833062628394,-0.07319882898718047,-0.01738634756586165,-0.09253691974927569,-0.0868592480220025,0.0568997774126369
2441,11.597028399992269,0.04846893689966376,0.07746714172492697,0.0013117189946332715,0.023458614906606466,0.0479390342849123,0.0006456159810732088,-0.06856745555714933,-0.0736106281920022,-0.01711056137289775,-0.09079351152508211,-0.08517021601732355,0.05823740420497247
2442,11.60128590000386,0.04849518340798507,0.07748042504925973,0.0012732832442750273,0.023129073509387636,0.04758541667829576,0.0005642664126387277,-0.06899819514282306,-0.07401435404537583,-0.01682837513822854,-0.08903720262388443,-0.08348893416992936,0.059569070980407694
2443,11.605189199995948,0.048550833265641836,0.07750696614262312,0.001224667928908386,0.022797488950275103,0.04722988581597818,0.0004842839336619535,-0.06942048831036171,-0.07441004489859908,-0.016539818202526313,-0.08726828056080284,-0.0818158228777676,0.06089444285898483
2444,11.60917119999067,0.04860521020326201,0.07754539230553475,0.0011314887725520904,0.022463901849948967,0.0468724800913235,0.0004056990276771252,-0.06983427537151635,-0.07479774110620209,-0.01624492151666194,-0.08548703523550241,-0.08015129865298605,0.06221318467234474
2445,11.613449800002854,0.04866513090157557,0.07760030224200651,0.0010141988560234258,0.022128353111462197,0.046513237698219266,0.00032854202613058795,-0.07023949803396615,-0.07517748500684146,-0.015943717642900288,-0.08369375887535432,-0.07849577400019067,0.06352496104709876
2446,11.6171689999901,0.048709089629691546,0.07765932242888718,0.0008503925520652331,0.021790883913517523,0.04615219662162776,0.0002528431006240967,-0.07063609941227762,-0.07554932090361668,-0.015636240755690572,-0.0818887459780959,-0.07684965729604651,0.06482943648863812
2447,11.62156060000416,0.04878134885094884,0.07770646219403492,0.0006635498303588804,0.02145153570369266,0.04578939462823355,0.00017863225515529814,-0.07102402403858694,-0.07591329504381633,-0.015322526642049571,-0.08007229325400335,-0.0752133526702597,0.06612627546535661
2448,11.62749939999776,0.048860081387273616,0.07778202867211542,0.0005229712168505129,0.021110350191615262,0.0454248692571903,0.00010593931835738255,-0.07140321787300322,-0.07626945559810082,-0.015002612701535696,-0.07824469956759132,-0.07358725988797803,0.06741514249326186
2449,11.632014699993306,0.048948964186739205,0.0778459209380738,0.0003685487510286323,0.020767369342088945,0.04505865781096953,3.479393573990802e-05,-0.07177362831373066,-0.07661785263912864,-0.014676537945812125,-0.07640626587885319,-0.07197177423364637,0.06869570222095073
2450,11.636111899992102,0.04902031194611749,0.07789459379914261,0.00016957701140394178,0.02042263536817172,0.04469079734631405,-3.4774438067193946e-05,-0.07213520420690714,-0.07695853811963321,-0.014344342997797289,-0.07455729518405609,-0.07036728639635363,0.0699676195149237
2451,11.64039459999185,0.04908769161500648,0.07793765676891448,-3.80465878480952e-05,0.020076190724208225,0.04432132466529894,-0.00010273654706441294,-0.0724878958561571,-0.07729156584995776,-0.014006070090401147,-0.07269809245610533,-0.06877418235670615,0.07123055954521368
2452,11.64388930000132,0.04918462415492024,0.07799892387311029,-0.00024893130959912106,0.019728078098817138,0.0439502763065028,-0.0001690633416262294,-0.07283165503185683,-0.07761699147505559,-0.013661763064845843,-0.07082896458449263,-0.06719284327526293,0.07248418787130409
2453,11.648674900003243,0.04930161397047885,0.0780459504689645,-0.0004743584152552649,0.019378340407835083,0.04357768853629187,-0.00023372598623542856,-0.07316643498011022,-0.07793487245096326,-0.01331146736856939,-0.06895022031484244,-0.06562364538256654,0.07372817052831108
2454,11.652834699998492,0.04942069084383892,0.07806595189490524,-0.0007354652118056295,0.019027020787218445,0.04320359734021955,-0.00029669586720612053,-0.07349219043143342,-0.07824526802075464,-0.012955230052711184,-0.06706217018807029,-0.06406695987080345,0.0749621741134048
2455,11.656753999996,0.04958714832149659,0.07808664646205124,-0.0009939877886112614,0.018674162585904527,0.04282803841454379,-0.00035794460039342423,-0.07380887760914659,-0.07854823918998385,-0.012593099769178278,-0.0651651264791675,-0.06252315278712614,0.07618586587244469
2456,11.663440000003902,0.04992797249862312,0.07813238760880092,-0.0015123498024530585,0.018319809358633456,0.042451047157864887,-0.00041744403888776876,-0.07411645423747097,-0.07884384870162527,-0.01222512676729153,-0.06325940313562683,-0.06099258492867014,0.0773989137868033
2457,11.667654399992898,0.05007933581323054,0.0781358166098974,-0.0017563451077197765,0.017964004858732376,0.042072658662885974,-0.00047516628069176194,-0.0744148795493297,-0.07913216101051906,-0.011851362890010755,-0.06134531571552344,-0.059475611739297926,0.07860098666035308
2458,11.671331599995028,0.05023915682598024,0.0781418632024395,-0.0020453611511387594,0.017606793030863346,0.041692907708298345,-0.0005310836763775744,-0.07470411429385096,-0.07941324225733058,-0.011471861569738262,-0.05942318132526547,-0.05797258320810075,0.0797917542065904
2459,11.675751599992507,0.05039721272413019,0.07818032390064303,-0.0023252009273755435,0.017248218003736458,0.041311828750794026,-0.000585168836722784,-0.07498412074357197,-0.07968716024203168,-0.01108667782370015,-0.05749331855702898,-0.05648384376968929,0.0809708871358712
2460,11.679624700002025,0.05053290507300302,0.0782049195360134,-0.002595425639250018,0.016888324082789598,0.04092945591720793,-0.0006373946403226223,-0.07525486270134248,-0.079953984396913,-0.010695868248904923,-0.05555604742589161,-0.05500973220630285,0.08213805724273178
2461,11.683932200001436,0.05068672478978462,0.07824065319922902,-0.002855261874201568,0.016527155742836284,0.040545822996791894,-0.0006877342411765658,-0.07551630550692655,-0.08021378575913629,-0.010299491016679067,-0.05361168930667979,-0.05355058155176629,0.08329293749326948
2462,11.690424699991128,0.05079401374493427,0.07826672004743733,-0.003147324027375946,0.01616475762068299,0.04016096343362268,-0.0007361610762472114,-0.07576841604330094,-0.08046663694283578,-0.00989760586677936,-0.05166056687054375,-0.05210671899732305,0.08443520211255724
2463,11.6942141999898,0.050880810993393505,0.07830116470419356,-0.003442490072920052,0.01580117450771729,0.03977491031914609,-0.0007826488729893728,-0.0760111627426489,-0.08071261211077745,-0.009490274101081915,-0.04970300402127502,-0.05067846579937192,0.08556452667206632
2464,11.698979900000268,0.050979945356804356,0.07835206104001396,-0.0037000258529364637,0.015436451342468314,0.03938769638485917,-0.0008271716568473356,-0.07624451559204788,-0.08095178694558544,-0.009077558576848044,-0.047739325831380824,-0.04926613718913483,0.08668058817707118
2465,11.703395099990304,0.05105751634386756,0.07837119529328014,-0.00395945372498188,0.01507063320314093,0.03899935399513257,-0.0008697037587182145,-0.07646844613885027,-0.08118423862054543,-0.008659523699567222,-0.04576985847793031,-0.047870042284281836,0.0877830651540114
2466,11.708905599996797,0.05124202493712061,0.0784628412614007,-0.004396089750555422,0.014703765300125248,0.03860991514017486,-0.0009102198223793606,-0.07668292749575657,-0.08141004576999467,-0.008236235415377437,-0.043794929178187204,-0.046490484002539405,0.08887163773778478
2467,11.71605719999934,0.05134406188576305,0.07850209953874741,-0.004582644097062235,0.01433589296848289,0.0382194114291408,-0.0009486948118777615,-0.07688793434558054,-0.08162928845930816,-0.007807761203063444,-0.04181486612504345,-0.04512775897730682,0.08994598775894586
2468,11.721040599994012,0.05158323251947378,0.07856613031443972,-0.00492277846451343,0.0139670616604115,0.037827874083385345,-0.00098510401887939,-0.07708344294570565,-0.08184204815449028,-0.007374170065633522,-0.03982999842226855,-0.04378215747530524,0.09100579883078361
2469,11.725374000001466,0.051692658253635684,0.07860517023133194,-0.005080078996253318,0.01359731693768897,0.037435333929865276,-0.0010194230699764524,-0.07726943113223211,-0.0820484076913819,-0.006935532521475397,-0.03784065601958929,-0.042453963316282574,0.09205075643625292
2470,11.730067399999824,0.05179263546371269,0.0786704438322411,-0.0052259435607106865,0.013226704464098845,0.037041821394689936,-0.0010516279339504958,-0.07744587832381376,-0.08224845124449277,-0.0064919205950921465,-0.035847169647614224,-0.041143453794796926,0.09308054801473323
2471,11.73400509999192,0.051867671264281365,0.07871564277520496,-0.005333437953240488,0.012855269997838415,0.03664736649682276,-0.001081694928989332,-0.0776127655251841,-0.08244226429546969,-0.006043407807419055,-0.03384987075261789,-0.03985089960410071,0.09409486304858844
2472,11.738236599994709,0.051926562033910086,0.07878012882433627,-0.005416781265001545,0.012483059383911026,0.036251998841935425,-0.0011096007298557473,-0.07777007533037078,-0.08262993360121022,-0.005590069165722545,-0.03184909143119917,-0.03857656476214669,0.09509339314950271
2473,11.742313399998238,0.0519779424030723,0.07884370853056911,-0.005503119596187753,0.01211011854650412,0.03585574761641623,-0.0011353223750059736,-0.07791779192559793,-0.08281154716163266,-0.005131981153082394,-0.029845164364828473,-0.037320706539736584,0.09607583214456687
2474,11.747154299999238,0.05202906057641634,0.07891277156613281,-0.005594931044172277,0.011736493481354453,0.035458641581534105,-0.0011588372736559035,-0.07805590109187634,-0.0829871941871121,-0.004669221717458599,-0.02783842275429817,-0.036083575390832026,0.09704187616208981
2475,11.7520102999988,0.05202603069755813,0.07901084372302165,-0.005693525722863194,0.011362230248102009,0.0350607090677599,-0.0011801232127930342,-0.07818439020728063,-0.08315696506559343,-0.00420187026034435,-0.025829200254090887,-0.03486541488504674,0.09799122371710939
2476,11.75790149999375,0.052100752620596,0.07912648390811923,-0.005779947804626999,0.01098737496263412,0.034661977969246326,-0.001199158364132143,-0.07830324824891331,-0.08332095132939218,-0.0037300076250067205,-0.023817830906680305,-0.033666461642338025,0.09892357579657732
2477,11.76314629999979,0.0521260969082663,0.07932509313894351,-0.005955912698389316,0.010611973789421237,0.03426247573846782,-0.0012159212910127038,-0.07841246579455516,-0.08347924562169397,-0.003253716084316792,-0.021804649076778853,-0.03248694526991504,0.09983863594419283
2478,11.767405899998266,0.052133146895061586,0.07942262982310014,-0.006003420251754211,0.01023607293384583,0.033862229381021645,-0.001230390955236072,-0.07851203502400168,-0.08363194166276333,-0.002773079328171076,-0.019789989385546942,-0.03132708830138069,0.10073611034486016
2479,11.773099600002752,0.05216089902196619,0.07950725304707687,-0.006046643786145342,0.009859718634525923,0.03346126545059179,-0.0012425467238404628,-0.07860194972008577,-0.08377913421587299,-0.002288182450506228,-0.017774186644778037,-0.030187106138123143,0.10161570790874458
2480,11.780177199994796,0.052224394846187995,0.07965165351720482,-0.006115578960938135,0.009482957155634747,0.03305961004407707,-0.0012523683758117643,-0.07868220526938595,-0.08392091905296463,-0.0017991119359091349,-0.01575757579107401,-0.029067206992972272,0.1024771403549018
2481,11.788297699997202,0.05234222066770005,0.07980581550440845,-0.0061707877589081365,0.009105834779218011,0.03265728879688445,-0.0012598361087282322,-0.07875279866262017,-0.08405739292005181,-0.0013059556458245801,-0.013740491820025076,-0.02796759183613544,0.10332012229445568
2482,11.79339489999984,0.05240545483345774,0.07983801440214157,-0.006188005685637167,0.008728397797510378,0.03225432687838887,-0.001264930545337133,-0.07881372849472491,-0.0841886535023759,-0.0008088028043628465,-0.011723269720408587,-0.026888454343426224,0.10414437131330029
2483,11.798054700004286,0.05242929523437823,0.07991043834768681,-0.006226761766167396,0.008350692505252603,0.03185074898756076,-0.0012676327400614155,-0.0788649949646194,-0.08431479938932585,-0.00030774398370973067,-0.009706244408421038,-0.02582998084679894,0.10494960805430115
2484,11.801979600000776,0.052472037401218814,0.0799890834525027,-0.006248486120790223,0.007972765192010869,0.03144657934876236,-0.001267924185434504,-0.07890659987465537,-0.08443593003913277,0.00019712891085843758,-0.007689750661957511,-0.024792350287200754,0.10573555629897198
2485,11.80551559999003,0.05251664198333915,0.08002726781230876,-0.00624836996404172,0.0075946621344998005,0.031041841707714138,-0.0012657868184613166,-0.07893854662975279,-0.08455214574335024,0.000705722656352073,-0.005674123054952743,-0.023775734169752635,0.1065019430486026
2486,11.810428199998569,0.05259479382156272,0.0800853678823947,-0.0062490728070297525,0.007216429588910687,0.03063655932763203,-0.0012612030269036321,-0.07896084023622194,-0.08466354759113151,0.0012179427278350842,-0.0036596958917979087,-0.022780296521269464,0.10724849860481424
2487,11.814452599996002,0.052614075819594895,0.08013380389050971,-0.0063138908410442715,0.006838113783246437,0.030230754985536394,-0.0012541556554879372,-0.07897348730027183,-0.0847702374333148,0.001733693314578152,-0.0016468031418470986,-0.021806193850129097,0.10797495664951834
2488,11.8187048999971,0.05261575844788291,0.08019425014268908,-0.0064354064125836715,0.00645976090966479,0.029824450968733537,-0.0012446280120339012,-0.07897649602620549,-0.08487231784632773,0.0022528773365954853,0.0003642216259725337,-0.02085357510849938,0.108681054324255
2489,11.8240009000001,0.0526600869671722,0.08023898551215772,-0.006561769189144348,0.006081417116831253,0.029417669071470663,-0.0012326038735016424,-0.07896987621430233,-0.08496989209592265,0.0027753964615618897,0.0023730453084330576,-0.019922581656931223,0.10936653230888763
2490,11.830209699997797,0.05277855246704597,0.08029169896615682,-0.006822106370025819,0.005703128502283264,0.029010430591764967,-0.0012180674919559738,-0.07895363925838854,-0.085063064100754,0.003301151122106864,0.004379335333146643,-0.019013347231325084,0.11003113489962987
2491,11.83613769999647,0.05280899914770709,0.08028758525134212,-0.006949297452384536,0.005324941104807031,0.02860275632840746,-0.001201003600445821,-0.07892779814309589,-0.08515193839580902,0.003830040533482334,0.006382759723561268,-0.018125997912277276,0.11067461008638128
2492,11.840178400001603,0.05287464170741296,0.08026663043283046,-0.007032780324275463,0.0049469008968285695,0.02819466657814216,-0.0011813974187970325,-0.07889236744081025,-0.08523662009570332,0.00436196271160051,0.008382987163797588,-0.017260652096811945,0.11129670962934879
2493,11.844570300003396,0.05297063879652881,0.08022334275015396,-0.007115535327440268,0.00456905377682038,0.02778618113302125,-0.0011592346593168133,-0.07884736330831066,-0.08531721485785261,0.004896814491438257,0.010379687063313365,-0.016417420472503726,0.11189718913493114
2494,11.849244500001078,0.05306186086910191,0.08016801234816157,-0.0071968856078187295,0.004191445561725307,0.02737731927793667,-0.0011345015324080404,-0.07879280348310012,-0.08539382884553218,0.005434491545804257,0.012372529621381913,-0.015596405993995243,0.11247580813084383
2495,11.856201299990062,0.05323628897033188,0.08003535043239747,-0.007399568497391273,0.003814121979399046,0.02696809978832859,-0.0011071847520917346,-0.0787287072794293,-0.08546656869083545,0.005974888404465153,0.014361185891371074,-0.014797703861913009,0.11303233014046223
2496,11.862996900003054,0.05332847626098361,0.07995794463869534,-0.007507473206944807,0.0034371286610727293,0.026558540928071233,-0.0010772715414359803,-0.07865509558401353,-0.08553554145754316,0.006517898473626687,0.016345327844809326,-0.01402140150418435,0.11356652275636114
2497,11.869010599999456,0.05351581192928079,0.07979043412764582,-0.007735840318838222,0.0030605111338370856,0.02614866044753646,-0.0010447496378896057,-0.07857199085144463,-0.08560085460391455,0.007063414055765786,0.018324628435225705,-0.013267578559757229,0.1140781577130293
2498,11.876768200003426,0.05366863921532908,0.07956647542972961,-0.008013971017575852,0.0026843148131496164,0.025738475581835337,-0.001009607298518957,-0.0784794170992984,-0.08566261594541193,0.007611326369809391,0.020298761661750278,-0.012536306864724043,0.11456701095873709
2499,11.880990499994368,0.053735503564618134,0.07947044805703728,-0.00817728534234655,0.0023085849953662415,0.025328003049237883,-0.0009718333051461329,-0.07837739990293861,-0.08572093361737067,0.00816152557165584,0.022267402632462092,-0.011827650440849736,0.11503286272653676
