,time,x,y,z,vx,vy,vz,ax,ay,az,jx,jy,jz
1870,8.453721999991103,0.012347738281574386,-0.07009418046137238,0.0978307553409912,-0.00011622183133063974,0.011481021691257018,0.012090395384496995,0.09857514681642458,0.12947499295194867,0.031086411490828966,0.2401624500409105,0.09720118497015169,0.0169338323223371
1871,8.457719199999701,0.012290030024240084,-0.07014046137931984,0.0978368947098677,0.0003350832868171031,0.012071562103086205,0.01223210616432524,0.09966440647943023,0.12991033064040994,0.03116214144399902,0.23826633239604486,0.09403077662745364,0.016351052459240557
1872,8.462420900003053,0.012238073888565371,-0.0701757709356825,0.09785219096421975,0.0007913281749802984,0.012664051457060482,0.012374155280228253,0.10074494716758121,0.13033117046032494,0.031235212237607776,0.23633125669137045,0.09083288856054045,0.01576524620018512
1873,8.466380400001071,0.012165328798004686,-0.07022635817009587,0.09785878387244563,0.0012524727523205612,0.013258423460164228,0.012516530599779068,0.10181659212307316,0.1307373883644688,0.031305610281882675,0.23435747067264864,0.08760794210758224,0.015176462584281613
1874,8.47045559999242,0.012112607399805488,-0.07026815821920965,0.09787896438329118,0.0017184761362751583,0.013854611259585654,0.012659219929781248,0.10287916572925061,0.13112886223984388,0.03137332221205174,0.23234522927394827,0.08435636569094478,0.014584751763681996
1875,8.474501999997301,0.012051479665344913,-0.07033095891074119,0.09788568240236158,0.002189296647805952,0.014452547451597207,0.012802211017301928,0.10393249354315127,0.13150547193967232,0.031438334893313054,0.23029479458661234,0.08107859477297295,0.013990165006639441
1876,8.478709399991203,0.01198849651574406,-0.0703616413322739,0.09789938814527503,0.002664891816795802,0.015052164090580602,0.012945491550726895,0.10497640232790831,0.1318670993151817,0.03150063542581721,0.22820643582665526,0.0777750718099212,0.013392754700058566
1877,8.482979599997634,0.011921215833885265,-0.07040593094731658,0.0979204341892037,0.003145218387591781,0.015653392698195503,0.013089049160837706,0.1060107200850036,0.13221362824717467,0.031560211149660566,0.22608042930058803,0.07444624620402619,0.012792574351529942
1878,8.486912799999118,0.011849799074900804,-0.07046035528883093,0.09793550267958978,0.0036302323246945314,0.016256164272690894,0.013232871421910942,0.10703527608636539,0.13254494467737457,0.031617049649887444,0.22391705836967066,0.07109257425371789,0.012189678590843214
1879,8.491419199999655,0.011800847730566978,-0.07050361957918434,0.09796005304916693,0.004119888818593055,0.01686040929835801,0.013376945852839566,0.10804990090630305,0.13286093663953916,0.031671138761498935,0.22171661341259066,0.06771451910196491,0.011584123170973496
1880,8.499537299998337,0.011686344332306572,-0.07062227039953296,0.09801625097761335,0.004614142291744193,0.01746605775512387,0.013521259918276424,0.10905442645327225,0.13316149429033503,0.0317224665744663,0.21947939178656736,0.06431255068275127,0.010975964968535914
1881,8.503716799998074,0.011634301921353271,-0.07066997723957676,0.09804135781745126,0.005112946404696033,0.018073039128284268,0.01366580102979991,0.11004868600146317,0.13344650993996526,0.03177102143874643,0.21720569778688215,0.06088714566568186,0.01036526198370337
1882,8.508791400003247,0.011560483629489405,-0.07075578320422413,0.09808644740779816,0.005616254062354414,0.018681282418375227,0.013810556547101695,0.11103251422220516,0.13371587808254268,0.03181679196929727,0.21489584260483535,0.05743878739871462,0.009752073339582909
1883,8.512776000003214,0.011519519849601484,-0.0708283841883111,0.0981264978060798,0.006124017420391671,0.019290716151181567,0.013955513779196448,0.11200574721518002,0.1339694954262004,0.03185976705109071,0.2125501442841303,0.05396796584901812,0.009136459281046259
1884,8.519685099992785,0.011423825824497661,-0.07093339512088892,0.09818766616028592,0.0066361878917967215,0.01990126838788141,0.014100659985653484,0.11296822253943704,0.13420726092293056,0.03189993584412057,0.21016892767568626,0.050475177541953443,0.008518481173010356
1885,8.526838899997529,0.011403712674338116,-0.07095976111027198,0.09820446502253995,0.007152716153565614,0.0205128667353254,0.01424598237785035,0.11391977924420275,0.1344290757981428,0.031937287788403476,0.2077525243908803,0.04696092549818001,0.007898201498163933
1886,8.532789199991385,0.011333933366449297,-0.07102622099464956,0.09823918376778717,0.0076735521535315696,0.021125438356449276,0.014391468120248305,0.11486025789947807,0.13463484357993388,0.03197181260897033,0.2053012727532196,0.04342571916888522,0.007275683854136527
1887,8.538633000003756,0.011300451997819186,-0.07105677698832591,0.0982672107065464,0.008198645117333519,0.02173890998081839,0.014537104331689681,0.11578950062641631,0.13482447012805962,0.03200350032084573,0.2028155177484464,0.039870074369138336,0.006650992950106494
1888,8.545840099992347,0.01124899830222304,-0.0710990001311555,0.09832183413612276,0.008727943555522139,0.02235320791530278,0.014682878086717078,0.11670735112747535,0.13499786366260125,0.032032341234013065,0.20029561097307896,0.03629451320936961,0.006024194602844882
1889,8.551528099997086,0.011213384260920771,-0.07112908961800063,0.09834058561433712,0.009261395270802344,0.022968258054881414,0.014828776416914309,0.117613654716337,0.1351549347923187,0.0320583259583628,0.197741910581394,0.03269956402497601,0.00539535573219221
1890,8.56016959999397,0.011159005241555173,-0.07118199108440655,0.09836688640784504,0.009798947365411205,0.023583985893574074,0.014974786312269039,0.11850825834758658,0.13529559654268294,0.03208144540862149,0.19515478123085403,0.029085761304055605,0.004764544355965519
1891,8.566499599997769,0.011105347436945032,-0.07123837786575864,0.09840745294716702,0.010340546248630204,0.02420031653549956,0.015120894722556982,0.11939101064614571,0.13541976438357883,0.03210169080925905,0.19253459402598452,0.025453645613273453,0.00413182958429333
1892,8.570483199990122,0.011083059782287335,-0.07126131005342594,0.0984179016730151,0.010886137644430752,0.024817174706058553,0.015267088558747487,0.1202617619364517,0.13552735625667026,0.0321190536993717,0.18988172646070672,0.02180376352186213,0.0034972816133764144
1893,8.574491399995168,0.011057111041261931,-0.07128779462712793,0.09843403051407866,0.011435666599251824,0.025434484763239583,0.015413354694430425,0.12112036427137632,0.13561829260241984,0.03213352593753807,0.18719656235913074,0.018136667523760874,0.00286097171867257
1894,8.582757800002582,0.011022339433964794,-0.07134713886681038,0.0984381786427854,0.011989077489908566,0.02605217070904659,0.015559679967264347,0.12196667146087749,0.13569249638675562,0.03214509970664576,0.18447949181481527,0.014452915957897649,0.002222972247503859
1895,8.586917599997832,0.011000054886167947,-0.07138660922231796,0.0984446171580376,0.01254631403163069,0.026670156201046395,0.015706051180445713,0.12280053910037626,0.13574989312737634,0.03215376751868569,0.18173091112850018,0.010753072926619147,0.0015833566110850688
1896,8.590963299997384,0.010981202605307865,-0.07140933713475527,0.09845744600429335,0.013107319286229383,0.027288364564034478,0.01585245510419916,0.12362182459885208,0.13579041091968688,0.03215952221951179,0.17895122274431788,0.007037708212274333,0.0009421992759724164
1897,8.59665259999747,0.010975235816094319,-0.07142269907706489,0.09847009790468195,0.013672035670391469,0.02790671880181722,0.015998878477288755,0.12443038720664969,0.13581398046235485,0.032162356993563374,0.17614083518449108,0.0033073971919576456,0.00029957575493182414
1898,8.600914900001953,0.010956211061890727,-0.07143848500188417,0.09846803453725124,0.014240404964099543,0.028525141609108955,0.016145308008549956,0.12522608804299065,0.13582053508247954,0.032162265368547834,0.17330016298252468,-0.0004372792495813474,-0.0003444374027736161
1899,8.604289800001425,0.010944629948118907,-0.07145986737944099,0.09847540968240458,0.01481236831917672,0.029143555383542036,0.016291730378442205,0.12600879012318306,0.13581001076036503,0.03215924122008078,0.17042962661489985,-0.004195734808854494,-0.0009897626216770763
1900,8.608968500004266,0.010934281823685268,-0.07147301527543055,0.09846944167034757,0.015387866267954626,0.029761882237788213,0.01643813224062201,0.1267783583855227,0.135782346153889,0.03215327877628143,0.16752965243127915,-0.007967377854369826,-0.0016363213109821116
1901,8.612745699996594,0.010921873052484146,-0.07149376682000215,0.09847520999281931,0.015966838732063216,0.030380044011789304,0.01658450022353631,0.12753465971787878,0.13573748262245885,0.03214437262232084,0.16460067258323155,-0.011751611519175937,-0.002284033876016954
1902,8.616608900003484,0.01091379187010606,-0.07151957458043366,0.09848091915342592,0.016549225031340892,0.030997962285095455,0.016730820932035907,0.12827756298395787,0.1356753642505464,0.03213251770492032,0.161643124951487,-0.015547833795206764,-0.00293281973026816
1903,8.624533599999268,0.010880884657921645,-0.07159033288220402,0.09846788290761219,0.01713496389286343,0.03161555838930912,0.01687708094900887,0.1290069390492388,0.13559593787079302,0.032117709336797674,0.15865745307173004,-0.019355437629416904,-0.003582597307992495
1904,8.628653399995528,0.010878690709723178,-0.07158963415587798,0.09846653638391907,0.017723993460090157,0.032232753420632726,0.01702326683703367,0.1297226608065711,0.1354991530866763,0.032099943201058426,0.1556441060589434,-0.023173811021697018,-0.00423328407740563
1905,8.632654000000912,0.010856236996635422,-0.07162940294111203,0.09845018886865096,0.018316251302125854,0.032849468252518096,0.017169365140051823,0.13042460320143034,0.13538496229473002,0.03207921535552942,0.15260353853031258,-0.027002337124558313,-0.00488479655444592
1906,8.637074199999915,0.01083838022328043,-0.07166164716621423,0.09845992232868236,0.01891167442309673,0.03346562354841545,0.01731536238505974,0.1311126432568233,0.13525332070631013,0.032055522237032084,0.14953621052670282,-0.030840394344574414,-0.005537050317111224
1907,8.641265999991447,0.010837675071461609,-0.07168480174633879,0.09847204303236376,0.01951019927163899,0.03408113977461978,0.017461245083819417,0.13178666009783666,0.13510418636889904,0.03202886066559293,0.14644258743272034,-0.03468735644556833,-0.0061899600203664095
1908,8.64546669999254,0.010835170820719844,-0.07171693146991265,0.0984768378702168,0.02011176175049832,0.0346959372132124,0.017606999734587733,0.13244653497582295,0.1349375201869405,0.031999227848588496,0.14332313989537038,-0.03854259265353147,-0.006843439411618893
1909,8.649835599993821,0.010817852211978497,-0.07174688605546149,0.09848702886375933,0.02071629722623874,0.035309935975095845,0.017752612823863992,0.13309215129221905,0.1347532859421972,0.03196662138482237,0.1401783437413249,-0.042405467763261324,-0.007497401346759276
1910,8.65355049999198,0.010814435715492652,-0.07177215112952938,0.09849969021859059,0.02132374053905905,0.03592305601311972,0.017898070828155387,0.13372339462199126,0.1345514503136237,0.03193103926853147,0.13700867989281426,-0.04627534224670354,-0.008151757806763743
1911,8.658291699990514,0.010796249803088827,-0.07179893663313366,0.09850708520632093,0.02193402601271502,0.036535217135295374,0.018043360215760192,0.13434015273670108,0.13433198289674736,0.031892479893319226,0.13381463428215687,-0.05015157236298373,-0.00880641991485467
1912,8.662213699994027,0.010780840840958313,-0.07181569640521977,0.09853028329049177,0.02254708746454579,0.0371463390180968,0.01818846744856852,0.13494231562718467,0.13409485622254935,0.03185094205601302,0.13059669776494154,-0.05403351027011329,-0.009461297954215514
1913,8.666118099994492,0.010764285030501431,-0.07184830169192875,0.09854499892816669,0.0231628582156027,0.037756341219845474,0.018333378983880277,0.135529775525839,0.13384004577583813,0.031806424960443586,0.1273553660318779,-0.057920504138353146,-0.010116301386255841
1914,8.670478300002287,0.010752685444556761,-0.07185974150645816,0.09858257179158378,0.023781271100878743,0.03836514319417673,0.018478081276240028,0.13610242692850813,0.1335675300131085,0.03175892822114379,0.12409113951933089,-0.06181189826521882,-0.010771338869422014
1915,8.674353399997926,0.010729775341242911,-0.07188429479057779,0.09860820082345507,0.02440225847963702,0.038972664303585265,0.018622560779288335,0.13666016661596397,0.13327729037987862,0.03170845186696433,0.1208045233185562,-0.0657070331921092,-0.011426318278548625
1916,8.678812700003618,0.010712678512575246,-0.07190940986154637,0.09864281844916908,0.025025752245836422,0.03957882383304724,0.01876680394762931,0.1372028936749762,0.13296931132749967,0.031654996344604,0.11749602708365267,-0.06960524582254067,-0.01208114672474547
1917,8.68694030000188,0.010649574251608604,-0.07196168416471299,0.09869658092455247,0.025651683838652732,0.04018354100371674,0.018910797238714028,0.13773050951896537,0.13264358032943108,0.03159856252205214,0.1141661649382494,-0.07350586954196801,-0.012735730575814525
1918,8.691314499999862,0.010622096274047041,-0.07197225296906469,0.09874254795494133,0.02627998425309329,0.040786734986694086,0.01905452711473945,0.1382429179082337,0.13230008789697423,0.0315391516919409,0.11081545538094477,-0.07740823433917292,-0.013389975477191172
1919,8.69558899999538,0.01059423762912323,-0.07199108855323498,0.09877765015867597,0.026910584050703384,0.041388324916863554,0.019197980044562486,0.13874002496976806,0.13193882759445733,0.03147676557480466,0.10744442118951518,-0.08131166692920051,-0.014043786373403571
1920,8.704085599994869,0.010530657790185227,-0.07202835660582077,0.09885180813163263,0.02754341337036246,0.04198822990679777,0.01934114250562881,0.1392217392166092,0.13155979605386434,0.03141140632224408,0.10405358932391122,-0.08521549087782315,-0.014697067530043748
1921,8.707826300000306,0.0104990539405761,-0.07203738429566851,0.0989008429862095,0.028178401939168075,0.04258636906072624,0.019484000985915986,0.13968797156678261,0.13116299298890124,0.0313430765199925,0.10064349082806014,-0.0891190267275101,-0.015349722556243653
1922,8.71219900000142,0.01046640787545074,-0.07206556018738981,0.09894562361911063,0.028815479083405548,0.043182661488565525,0.01962654198589061,0.14013863536178528,0.1307484212084927,0.031271779190882094,0.09721466073049465,-0.09302159212488134,-0.01600165442764914
1923,8.71595929999603,0.010427660557131855,-0.07208601311991428,0.09899193988911592,0.029454573739601378,0.04377702632000842,0.01976875202047904,0.1405736463846231,0.13031608662970298,0.03119751779770777,0.09376763794382828,-0.0969225019496225,-0.016652765509884485
1924,8.720415899995714,0.010407497837300649,-0.07210498947501615,0.09905042623056133,0.030095614465658307,0.04436938271866962,0.0199106176210514,0.14099292287739362,0.12986599829007547,0.031120296245986383,0.09030296516309806,-0.10082106844483725,-0.017302957582499803
1925,8.724527700003819,0.010385507148748708,-0.07212995480773159,0.09911337763129247,0.030738529452069764,0.04495964989628533,0.02005212533741836,0.1413963855584096,0.1293981683593836,0.031040118886609333,0.08682118876299559,-0.10471660134881314,-0.017952131863393315
1926,8.728627000004053,0.010351605830253798,-0.07213934501506883,0.09914371477174315,0.03138324653321147,0.04554774712696401,0.020193261739840138,0.1417839576388583,0.12891261215078637,0.030956990518386386,0.08332285869400806,-0.10860840802817695,-0.018600189033700268
1927,8.732965599992895,0.010317480515172334,-0.07213277785110178,0.09918950680716533,0.03202969319870814,0.046133593761485917,0.020334013421047223,0.14215556483899106,0.12840934813138194,0.03087091639047851,0.07980852837749089,-0.11249579361241457,-0.01924702926313991
1928,8.736989700002596,0.010298634695520694,-0.0721325674950886,0.099242905271896,0.032677796604873126,0.04671710924164873,0.020474366998272445,0.14251113540383908,0.12788839793215206,0.03078190220471737,0.07627875459969441,-0.11637806112972916,-0.019892552235811517
1929,8.7421267000027,0.010268530443106707,-0.07213296585840755,0.09929660011297485,0.03332748358621905,0.04729821311465668,0.020614309115293758,0.14285060011845085,0.12734978635729152,0.030689954117809542,0.07273409740476745,-0.12025451164421079,-0.020536657176430273
1930,8.745572500003618,0.010253359253453909,-0.07212520527561336,0.0993394381876448,0.03397868066703712,0.04787682504755021,0.02075382644448734,0.1431738923226471,0.12679354139291668,0.030595078743423293,0.06917511998676135,-0.12412444439428981,-0.02117924287699355
1931,8.749486699991394,0.010223353813763388,-0.07211694897266954,0.09938151955431858,0.03463131407304291,0.048452864841673327,0.02089290568889045,0.1434809479252881,0.1262196942151463,0.030497283154156053,0.06560238858065812,-0.1279871569324455,-0.0218202077238679
1932,8.753679799992824,0.010227144766451389,-0.07209748501583989,0.09943560567202087,0.03528530974308642,0.049026252447175886,0.021031533584273624,0.14377170541804832,0.12562827919754782,0.03039657488338047,0.06201647235244755,-0.13184194526614126,-0.022459449725286674
1933,8.757992400001967,0.010198401507715607,-0.07208569111898971,0.09948209196274375,0.03594059334092421,0.04959690797754815,0.021169696901221606,0.14404610588869496,0.12501933391794331,0.030292961926967364,0.05841794328827814,-0.135688103999957,-0.023096866539248057
1934,8.762371499993606,0.010187662359115956,-0.07206825927891206,0.09955816966087105,0.0365970902670514,0.050164751724184796,0.021307382447222505,0.14430409303386532,0.12439289916457028,0.03018645274488389,0.0548073760827071,-0.13952492647888984,-0.023732355501802926
1935,8.766248500003712,0.010160998210674335,-0.07204214163764042,0.0996127406460953,0.03725472567059113,0.050729704170975734,0.021444577068764622,0.14454561317133927,0.12374901894159251,0.030077056262665183,0.051185348026075085,-0.14335170493279342,-0.024365813655721765
1936,8.770428299991181,0.010138442014573073,-0.0720426870188144,0.09967808187321521,0.03791342446123922,0.05129168600892065,0.02158126765344036,0.144770615251802,0.12308774047395536,0.029964781872757567,0.047552438891030925,-0.14716773062192542,-0.024997137779529457
1937,8.774606899998616,0.010090876259607985,-0.07202529633035946,0.09973225625648025,0.038573111321261726,0.051850618150764256,0.021717441132056627,0.14497905087009266,0.12240911421158025,0.029849639435731403,0.0439092308182331,-0.15097229398357107,-0.025626224416896548
1938,8.778564899999765,0.010070321793291467,-0.07202283678465002,0.09977630935183501,0.039233710717543044,0.05240642174564936,0.021853084480751014,0.14517087427593425,0.1217131938328938,0.029731639281362,0.04025630820125481,-0.15476468477971106,-0.02625296990637529
1939,8.782679199997801,0.00999441692398747,-0.07203894302079826,0.09981912143541255,0.03989514691368226,0.05295901819378497,0.021988184723113077,0.1453460423841399,0.12100003624768743,0.029610792209577096,0.036594257570719796,-0.15854419224570138,-0.026877270411468354
1940,8.786953299990273,0.009956578522417667,-0.07204800477909581,0.09988259121246856,0.04055734398213522,0.05350832916112648,0.022122728932310244,0.14550451478429202,0.12026970159930267,0.029487109491269512,0.03292366747769635,-0.16231010523993217,-0.027499021951017954
1941,8.791325899990625,0.009928291381857475,-0.07204819487010941,0.09993101720269323,0.041220225816400106,0.05405427659406494,0.022256704233217683,0.1456462537498917,0.11952225326613783,0.02936060286897345,0.029245128376377463,-0.1660617123944317,-0.028118120429902922
1942,8.79531549999956,0.009906785846163783,-0.07203019056381538,0.09998498243147808,0.04188371614324409,0.05459678273412219,0.022390097804551635,0.145771224246975,0.11875775786247078,0.029231284557403085,0.025559232506075415,-0.1697983022663812,-0.028734461670031106
1943,8.799436400004197,0.009889022135691282,-0.07202255995990602,0.10003981281663807,0.042547738534968675,0.05513577013264902,0.022522896881005543,0.14587939394219246,0.11797628523859395,0.029099167243852034,0.021866573772559187,-0.17351916349050522,-0.02934794144161421
1944,8.803452299995115,0.009857040405629056,-0.07199825299536189,0.10007773197489561,0.04321221642171097,0.05567116166552355,0.02265508875538833,0.14597073321034867,0.1171779084802577,0.028964264088452273,0.0181677476287636,-0.17722358493230247,-0.029958455494711995
1945,8.808822199993301,0.009813593833250091,-0.07197653927628553,0.10014474322624838,0.04387707310377837,0.056202880547846626,0.02278666078076424,0.14604521514139868,0.11636270390741837,0.028826588724291214,0.014463350954899498,-0.18091085584208094,-0.030565899591032546
1946,8.812389700004132,0.009785479193481128,-0.07196423067397116,0.10020253281386882,0.04454223176401413,0.0567308503486311,0.022917600372593737,0.14610281554689689,0.11553075107228701,0.028686155257385767,0.010753981937994607,-0.18458026600976013,-0.031170169535975057
1947,8.816636599993217,0.009766144433927731,-0.07194837917337997,0.10024716200650724,0.045207615480191504,0.05725499500548175,0.0230478950108748,0.14614351296589576,0.11468213275667558,0.02854297826651234,0.007040239950895121,-0.18823110592040324,-0.031771161210901344
1948,8.820430299994769,0.009723673654918318,-0.07195250371266186,0.1002843303622669,0.04587314723743395,0.057775238839262735,0.02317753224228409,0.1461672886702906,0.1138169349686364,0.028397072802891617,0.0033227254307582788,-0.1918626669104424,-0.03236877060562219
1949,8.824849700002233,0.009691840053630944,-0.07193785347941593,0.10032705480862812,0.04653874994065921,0.05829150656874969,0.023306499682317242,0.1461741266696083,0.11293524693839128,0.028248454389726934,-0.0003979602429334646,-0.19547424132455932,-0.03296289385108433
1950,8.828823699994246,0.009669609563066934,-0.07191306639546677,0.1003857622873808,0.047204346427044706,0.05880372332526314,0.02343478501742763,0.1461640137152374,0.11203716111354732,0.02809713902159515,-0.004121214870805818,-0.19906512267318335,-0.03355342725224373
1951,8.833014799994999,0.0096291503536622,-0.07188878549902539,0.10043334901298602,0.04786985947851174,0.059311814667280006,0.02356237600716293,0.14613693930409688,0.11112277315359652,0.027943143163689194,-0.007846435556442434,-0.2026346057905678,-0.034140267321110744
1952,8.838912299994263,0.009591840503579988,-0.07186235030617787,0.10048614439327068,0.04853521183422589,0.05981570659502007,0.0236892604862989,0.14609289568174125,0.11019218192369638,0.027786483750911407,-0.011573018829619681,-0.20618198699340506,-0.034723310809952536
1953,8.8429821000027,0.009568068907023964,-0.07183453987350305,0.10054348598371289,0.049200326203111364,0.060315325565004005,0.02381542636696975,0.14603187784490085,0.10924548948772948,0.027627178186817,-0.015300360769894703,-0.20970656423994127,-0.03530245474463789
1954,8.849500700001954,0.009511411204799942,-0.07175005845910093,0.1006675490125557,0.04986512527637662,0.06081059850457989,0.023940861640794578,0.14595388354345584,0.10828280110063934,0.02746524434240715,-0.019027857130514823,-0.2132076372895503,-0.035877596458109416
1955,8.853647399999318,0.009485932943047299,-0.07170754570491412,0.10072514570828399,0.05052953174004893,0.06130145282641475,0.024065554380999176,0.14585891328184244,0.10730422520004042,0.027300700554771146,-0.022754903462616098,-0.21668450786272683,-0.03644863362396782
1956,8.857939800000167,0.009464181857760684,-0.07165338590100229,0.10077928923266852,0.05119346828751512,0.06178781644294805,0.024189492744532505,0.14574697031989012,0.10630987339710035,0.027133565625577023,-0.02648089523967868,-0.22013647980145826,-0.0370154642901528
1957,8.861911200001487,0.00943490889651736,-0.0715968947479334,0.10082415542713287,0.05185685763206601,0.06226961778080405,0.024312664974177174,0.1456180606730889,0.10529986046669297,0.02696385881941009,-0.030205227982206366,-0.22356285922993335,-0.0375779869127051
1958,8.865939900002559,0.009422994905372701,-0.07152815349813565,0.10087123613296306,0.05251962251944187,0.0627467857951597,0.024435059400653106,0.14547219311228557,0.10427430433682051,0.026791599861958847,-0.03392729738259744,-0.2269629547155454,-0.03813610038959413
1959,8.869992399995681,0.00942707256665172,-0.07141043281545584,0.10092844331742026,0.05318168574037662,0.06321924998406481,0.024556664444713747,0.14530937916280648,0.10323332607730305,0.02661680893804786,-0.03764649943017391,-0.23033607743014695,-0.03868970409459534
1960,8.87421870000253,0.009412525142932147,-0.07135268770378894,0.10098525812845544,0.05384297014313803,0.06368694040271149,0.024677468619234092,0.14512963310300664,0.10217704988773386,0.026439506689517084,-0.04136223053633578,-0.23368154131151234,-0.03923869791120132
1961,8.878790899994783,0.009388178169434457,-0.07132157538762976,0.10106041622480476,0.0545033986460615,0.06414978767764937,0.02479746053128987,0.14493297196224345,0.10110560308470022,0.02625971421294728,-0.04507388765980697,-0.23699866322496496,-0.03978298226655069
1962,8.882862300000852,0.009360423651105688,-0.07128378502046956,0.10111829409462061,0.05516289425007429,0.06460772302094334,0.024916628884227163,0.1447194155182749,0.10001911608826919,0.026077453057231345,-0.048780868431939024,-0.24028676312512456,-0.0403224581653586
1963,8.889933600003133,0.00932375897814192,-0.07125349449829123,0.10116307442552264,0.055821380051207826,0.06506067824427011,0.025034962479721732,0.14448898629408113,0.09891772240773773,0.025892745220991366,-0.05248257128203911,-0.24354516421773054,-0.04085702722383251
1964,8.893502899998566,0.009308535572005658,-0.0712160510704622,0.10121456036685145,0.05647877925309495,0.06550858577294989,0.02515245021982743,0.14424170955410834,0.09780155862664688,0.025705613149841457,-0.05617839556268861,-0.24677319312149745,-0.04138659170355696
1965,8.897207599991816,0.009302629952664256,-0.07118569728689671,0.10124705106869406,0.05713501517945006,0.0659513786599092,0.025269081109013106,0.14397761329993614,0.09667076438706,0.025516079733496386,-0.05986774167501835,-0.24997018002995883,-0.04191105454533091
1966,8.901497099999688,0.009298299464978699,-0.0711519685281506,0.10127099109613709,0.05779001128652988,0.06638899059957167,0.025384844256187318,0.14369672826536817,0.09552548237310492,0.025324168302726106,-0.06355001119390682,-0.2531354588732547,-0.0424303194029414
1967,8.905909599998267,0.009293204813593439,-0.07112442282328497,0.1013048762402466,0.058443691175571806,0.06682135594167307,0.02549972887671021,0.1433990879109476,0.09436585829377996,0.02512990262615649,-0.06722460699306727,-0.2562683674798187,-0.04294429067685683
1968,8.909585699992022,0.009289362028707563,-0.07109989370429785,0.10133438136722622,0.05909597860520756,0.0672484097049976,0.02561372429439172,0.14308472841789782,0.09319204086502424,0.02493330690691651,-0.07089093336998938,-0.259368247737918,-0.043452873547823324
1969,8.913060499995481,0.009276145558109836,-0.07107153071585418,0.10136124321212395,0.059746797503849404,0.06767008759103196,0.025726819943475435,0.14275368868148938,0.09200418179105294,0.024734405779132294,-0.07454839617070112,-0.26243444575700187,-0.04395597401034737
1970,8.916769599993131,0.00926672529129245,-0.07103816545160827,0.1013799298803911,0.06039607198204638,0.06808632599753454,0.025839005370607446,0.14240601030383404,0.09080243574495807,0.0245332243042685,-0.07819640291431648,-0.26546631202881316,-0.044453498906048015
1971,8.922118399990723,0.009259700355799117,-0.07101641565805306,0.1014123108715844,0.06104372634480783,0.06849706203201572,0.025950270236789325,0.14204173758610686,0.08958696034857577,0.024329787967317513,-0.08183436291733479,-0.268463201588218,-0.04494535595686201
1972,8.926301400002558,0.009253824698602267,-0.07096856083698722,0.10144555153707793,0.06168968510389204,0.06890223352512653,0.026060604319314472,0.14166091752019655,0.08835791615162145,0.0241241226728372,-0.08546168741765764,-0.2714244741737068,-0.04543145379808523
1973,8.930391799993231,0.009267036955628602,-0.07091759268252744,0.10147147256279482,0.06233387299005745,0.06930177904395231,0.026169997513687034,0.14126359977978528,0.08711546661009362,0.023916254740837677,-0.08907778969828911,-0.27434949438752027,-0.04591170201123364
1974,8.939202099994873,0.009306058372768974,-0.07077421494952181,0.10150063858205924,0.06297621496527388,0.06969563790520791,0.026278439835522693,0.14084983671085927,0.08585977806394826,0.023706210902517753,-0.09268208521068484,-0.27723763185535266,-0.04638601115670722
1975,8.943166099998052,0.009335288986589613,-0.07071088201907352,0.1015280804618281,0.06361663623489118,0.07008375018833139,0.026385921422430573,0.14041968332165236,0.0845910197140458,0.02349401829585185,-0.09627399169771587,-0.28008826138558457,-0.046854292806240275
1976,8.947137499999371,0.009362263044999989,-0.07063355408284865,0.1015439754043246,0.06425506225976302,0.07046605674847285,0.026492432535875503,0.139973197272024,0.08330936359837254,0.023279704461028262,-0.09985292931621363,-0.2829007631279973,-0.047316459575121005
1977,8.951702199992724,0.009394096829945287,-0.07057411718222559,0.10156430224877246,0.06489141876832313,0.07084249922937538,0.02659796356301984,0.1395104388622737,0.08201498456753899,0.023063297335739794,-0.10341832075906154,-0.2856745227319216,-0.047772425154163495
1978,8.957943999994313,0.009421391074159456,-0.07045596177460457,0.10160478221177177,0.06552563176861138,0.0712130200761446,0.026702505018544088,0.13903147102139432,0.0807080602595573,0.022844825250327678,-0.10696959137679893,-0.28840893150377445,-0.048222104341415474
1979,8.966315999990911,0.00945859886905231,-0.07034304520086868,0.1016568661811327,0.06615762756024718,0.07157756254790383,0.026806047546445635,0.13853635929476568,0.07938877107390092,0.02262431692277999,-0.11050616929870313,-0.2911033865639353,-0.04866541307358517
1980,8.970377399993595,0.009484683360010323,-0.07026699208238746,0.10167528106569772,0.06678733274634818,0.07193607073033147,0.026908581921814893,0.13802517183129115,0.07805730014484885,0.022401801453585665,-0.11402748555331654,-0.29375729100291753,-0.04910226845717075
1981,8.974400299994159,0.00951621917260355,-0.07018642724458893,0.1017039022740469,0.06741467424539159,0.07228848954807733,0.027010099052588006,0.13749797936997932,0.07671383331411812,0.022177308320445423,-0.11753297418838397,-0.2963700540367853,-0.04953258879927609
1982,8.978434699994978,0.009556670461708635,-0.07011119002626892,0.10173550479784726,0.06803957930301506,0.07263476477705448,0.027110589981275482,0.13695485522597464,0.07535855910278774,0.02195086737284088,-0.12102207239016581,-0.29894109116176876,-0.04995629363809659
1983,8.983156699992833,0.009597523139096086,-0.07001740761408576,0.10176028931663211,0.0686619755037545,0.07297484305660358,0.027210045886665972,0.13639587527603994,0.07399166868251773,0.021722508826463312,-0.12449422060209353,-0.3014698243080297,-0.05037330377305864
1984,8.987070999995922,0.009653764188745265,-0.06990679915502655,0.10178368281821049,0.06928179078271604,0.07330867190152622,0.027308458085504445,0.13582111794349375,0.07261335584606675,0.02149226325750372,-0.12794886264273414,-0.3039556819925311,-0.05078354129459673
1985,8.991255699991598,0.009700221140433457,-0.06980386037694718,0.1018260728885757,0.0698989534371801,0.0736361997139834,0.027405818034144026,0.13523066418260513,0.07122381697711228,0.021260161596805653,-0.13138544582303074,-0.3063980994709633,-0.05118692961355183
1986,8.99916680000024,0.009835288670947332,-0.06953899214351017,0.10187688815035303,0.07051339213813505,0.073957375795256,0.02750211733017073,0.13462459746245006,0.06982325101937749,0.021026235123882426,-0.13480342106278662,-0.3087965188886794,-0.05158339349017542
1987,9.003866500002914,0.009957327587131705,-0.06937190264518094,0.10190104366116277,0.07112503594173818,0.0742721503573642,0.02759734771400029,0.13400300375023358,0.06841185944506953,0.020790515460800404,-0.13820224300635964,-0.31115038943059103,-0.05197285906272332
1988,9.007710699996096,0.01005709392461272,-0.0692171694392388,0.10194865844278249,0.07173381430070064,0.0745804745345427,0.027691501070446572,0.13336597149408183,0.06698984622263353,0.020553034565930182,-0.14158137013753366,-0.31345916746997654,-0.0523552538756236
1989,9.011947599996349,0.010180361052660129,-0.0690378081723251,0.10198190493320346,0.07233965707559399,0.07488230039456882,0.027784569430260926,0.1327135916053087,0.0655574177838272,0.02031382472756764,-0.1449402648935339,-0.3157223167161549,-0.05273050690720305
1990,9.01765539999178,0.010337951983821812,-0.06884793900694895,0.10200983376032675,0.0729424945460759,0.0751775809499405,0.027876544971641895,0.13204595744016057,0.06411478299012133,0.020072918557426867,-0.14827839377815458,-0.31793930836097534,-0.05309854859695671
1991,9.021264499999234,0.010494724140507039,-0.06865818867860375,0.10205261244857586,0.073542257422033,0.07546627016890056,0.027967420021714647,0.13136316478104323,0.06266215309843172,0.019830348984006978,-0.15159522747396686,-0.3201096212240752,-0.05345931087234485
1992,9.02473769999051,0.010694610739366403,-0.06845435456241816,0.10210422655979243,0.07413887685463834,0.07574832298630439,0.028057187057979608,0.13066531181723604,0.06119974172618814,0.019586149245834805,-0.15489024095357504,-0.3222327418968591,-0.05381272717510247
1993,9.028521200001704,0.010918519896597109,-0.06823775098823455,0.10213743452558537,0.07473228444732086,0.07602369531432782,0.028145838709729767,0.12995249912509582,0.05972776481574574,0.019340352884585674,-0.15816291358988865,-0.32430816488515196,-0.054158732487045905
1994,9.03260269999737,0.011193579073217885,-0.06799840612005228,0.10221114397808578,0.07532241226664471,0.07629234405301306,0.028233367759436044,0.12922482964775586,0.058246440598145544,0.019092993738084527,-0.16141272926537828,-0.32633539275048057,-0.054497263355361744
1995,9.036641300001063,0.01142849990694339,-0.06778084309166105,0.10220240810414838,0.07590919285309608,0.07655422710064941,0.028319767144100148,0.1284824086743238,0.056755989556230305,0.018844105933189567,-0.1646391764802841,-0.3283139362499379,-0.0548282579173632
1996,9.041040500000236,0.011714339212846628,-0.06752343955039233,0.10220901416953539,0.07649255923177539,0.07680930336398532,0.028405029956574412,0.12772534381858333,0.05525663438712222,0.018593723878560828,-0.16784174845974745,-0.330243314474586,-0.05515165592469945
1997,9.047829599992838,0.012002888856737292,-0.0672628645477999,0.10225207612877818,0.07707244492299245,0.07705753276826914,0.028489149446848154,0.12695374499720516,0.0537485999640692,0.01834188225731603,-0.17101994325983466,-0.33212305498635103,-0.0554673987670035
1998,9.056764599998132,0.012625748001970666,-0.0666676846805105,0.10224817061095415,0.07764878395276227,0.07729887626711504,0.02857211902330004,0.12616772440747226,0.05223211329766623,0.018088616019576127,-0.1741732638724219,-0.33395269395336385,-0.05577542949496452
1999,9.062857800003258,0.01334097963140614,-0.0658773015686558,0.10231267660999234,0.0782215108631991,0.07753329585219167,0.028653932253915836,0.12536739650452397,0.050707403496458886,0.017833960374903108,-0.17730121832891135,-0.33573177628370265,-0.05607569284281106
2000,9.066669299994828,0.013749597282522341,-0.065469572696045,0.1023473039442424,0.07879056072280635,0.07776075456273047,0.02873458286747107,0.12455287797812445,0.04917470172693596,0.01757795078463274,-0.18040331980274946,-0.3374598557574914,-0.056368135250191846
2001,9.07039929999155,0.01418572104512875,-0.0650561039784895,0.10240089368544679,0.07935586913666016,0.07798121649485118,0.02881406475467799,0.12372428772896091,0.04763424117291864,0.017320622954105056,-0.1834790867107174,-0.3391364951573106,-0.05665270488344124
2002,9.074055799996133,0.01418572104512875,-0.0650561039784895,0.10240089368544679,0.07991737225648415,0.07819464681070121,0.02889237196929649,0.12288174684447764,0.046086256994353786,0.017062012824795504,-0.18652804281296426,-0.3407612663968774,-0.05692935165621629
2003,9.078979300000356,0.015132715962205948,-0.06415187287314314,0.10244130085006553,0.08047500679061292,0.07840101174740677,0.028969498729208506,0.12202537857425153,0.04453098628551915,0.016802156566349685,-0.1895497173117548,-0.3423337506479532,-0.05719802724949326
2004,9.083468700002411,0.01566273719146331,-0.06365063501407621,0.10242798496353657,0.08102871001384236,0.07860027862583273,0.029045439417455528,0.12115530830491429,0.04296866803264877,0.016541090568524583,-0.1925436449489026,-0.34385353846543615,-0.05745868513091113
2005,9.087574099990888,0.016216189292041588,-0.06315235590355041,0.10240479529655559,0.08157841977716422,0.07879241585914858,0.029120188583238966,0.120271663534627,0.04139954307098685,0.016278851433039244,-0.19550936610186143,-0.34532022991059763,-0.057711280573449986
2006,9.09103499999037,0.01678437785407098,-0.06267884665542615,0.10236777579613922,0.08212407451738271,0.07897739296119725,0.0291937409428831,0.11937457384711303,0.039823854041278715,0.01601547596533787,-0.19844642687844702,-0.34673343467241763,-0.057955770673432376
2007,9.095042200002354,0.017373922578200487,-0.062192123502018255,0.10241112170965158,0.08266561326661095,0.07915518055466413,0.029266091380760317,0.11846417088525621,0.03824184534570739,0.015751001166268503,-0.20135437921016322,-0.3480927721869776,-0.05819211436783643
2008,9.099241599993547,0.01798403613592179,-0.06165011873339521,0.10239353225843077,0.08320297566164545,0.07932575037904381,0.029337234950178336,0.11754058832427122,0.03665376310328506,0.015485464223680453,-0.20423278094410605,-0.34939787175486936,-0.05842027245090912
2009,9.103317499990226,0.01879234689517721,-0.06084434577503732,0.1023574834019082,0.08373610195321611,0.07948907529840225,0.029407166874229153,0.11660396184445262,0.03505985510470856,0.015218902503943667,-0.20708119593342036,-0.35064837265657833,-0.05864020759006892
2010,9.107974999991711,0.01947903059014239,-0.06024884285382762,0.10235199220702808,0.08426493301511,0.07964512930893201,0.02947588254659946,0.11565442910350898,0.033460370766687994,0.014951353543393239,-0.20989919412628316,-0.3518439242658,-0.058851884341087325
2011,9.112093499992625,0.020163073184213027,-0.0596490733672478,0.10236036042302082,0.084789410353167,0.07979388754629789,0.029543377532342263,0.11469212970848876,0.0318555610857578,0.014682855039702333,-0.21268635165338765,-0.35298418616064997,-0.05905526916253876
2012,9.117657800001323,0.020905441509904928,-0.059073710822936575,0.1024064697300689,0.08530947611414574,0.07993532629277032,0.029609647568609353,0.11371720518730469,0.030245678591579866,0.014413444843186872,-0.21544225091390437,-0.3540688282327271,-0.05925033042950909
2013,9.12134669999068,0.02169731275903333,-0.05837008454794897,0.10240062587365872,0.08582507309445754,0.0800694229841442,0.02967468856534419,0.11272979895986417,0.02863097729974829,0.014143160948045309,-0.21816648065989538,-0.35509753079399103,-0.05943703844655327
2014,9.125667200001772,0.02248641518173609,-0.05762164981331898,0.10235438641959885,0.08633614474876652,0.08019615621644044,0.029738496605934785,0.11173005630881254,0.02701171266410577,0.013872041483536952,-0.22085863607915787,-0.3560699846814153,-0.059615365459892745
2015,9.130608599996776,0.02327599113291277,-0.05691073010261169,0.10236700606473828,0.08684263519845374,0.08031550575238772,0.029801067947826405,0.11071812434989685,0.025388141528581685,0.013600124705102223,-0.22351831887647383,-0.3569858913593794,-0.0597852856688441
2016,9.137332199999946,0.02510850497463663,-0.05538996818413283,0.10252913083606016,0.08734448923994392,0.08042745252768202,0.029862399023093875,0.10969415200195756,0.023760522078562402,0.013327448985428432,-0.22614513735324157,-0.3578449630197606,-0.059946775236470955
2017,9.141222199992626,0.02596595781316254,-0.05463105903984398,0.10258574193403983,0.08784165235289296,0.080531978657022,0.029922486438973148,0.10865828995655559,0.022129113791804374,0.013054052805464629,-0.22873870648546676,-0.3586469226796898,-0.06009981229945121
2018,9.151101700001163,0.02769696306743938,-0.053151905728268785,0.10269717933931284,0.08833407070823494,0.08062906743991811,0.029981326978351843,0.10761069064724271,0.020494177388900716,0.012779974745389173,-0.23129864800009106,-0.35939150427693567,-0.060244376977152125
2019,9.157380999997258,0.029560411320729486,-0.05149635790533508,0.1030022267593364,0.08882169117608675,0.08071870336627364,0.03003891760021866,0.106551508218483,0.018855974783312194,0.012505253475533598,-0.2338245904496374,-0.3600784527628817,-0.06038045137990589
2020,9.162014799992903,0.030524631681220396,-0.05066930942351143,0.10310080144010064,0.0893044613335086,0.08080087212173545,0.030095255440071543,0.10548089849423342,0.017214769030973742,0.01222992774726646,-0.23631616928515167,-0.36070752419306246,-0.0605080196164788
2021,9.166067300000575,0.031365543386569404,-0.04992487065744236,0.10325487129336447,0.08978232947211913,0.08087556059281317,0.030150337810284374,0.10439901894619177,0.015570824279487784,0.011954036383840887,-0.2387730269274219,-0.36127848581522576,-0.06062706780072727
2022,9.170521899999583,0.03224610931741087,-0.04910918250413166,0.10351155285890831,0.09025524460556343,0.08094275687176491,0.030204162200432056,0.10330602866171999,0.013924405716915755,0.011677618271209545,-0.2411948128364565,-0.3617911161548862,-0.06073758405743427
2023,9.174684600002363,0.03316230493279357,-0.04819968929946735,0.10373557955902864,0.09072315647683273,0.08100245026124762,0.03025672627757395,0.10220208831145089,0.012275779520179437,0.011400712348810859,-0.24358118357920222,-0.3622452050983395,-0.060839558527320474
2024,9.178779399997438,0.034025810367014,-0.04740990583157403,0.10396667055896941,0.09118601556543443,0.08105463127873051,0.03030802788649574,0.10108736011658637,0.01062521280308378,0.011123357600330274,-0.24593180289548291,-0.36264055397310463,-0.060932983371224825
2025,9.182899499995983,0.034858912705326345,-0.04662005496564696,0.10413387870561669,0.09164377309441105,0.08109929166066998,0.03035806504990948,0.09996200781589532,0.0089729735639731,0.010845593044440395,-0.24824634176214228,-0.3629769756257595,-0.06101785277344941
2026,9.18710860000283,0.03578925535740587,-0.04565687541770394,0.10440468470341835,0.09209638103720609,0.08113642436644408,0.030406835968611583,0.09882619663241954,0.007319330633032655,0.01056745772552386,-0.25052447845537296,-0.363254294497139,-0.061094162944263924
2027,9.191507800002,0.03675888616959916,-0.04471943260831468,0.10478420966507093,0.09254379212437575,0.0811660235820449,0.030454339021598685,0.09768009323989628,0.005664553619247773,0.01028899070438288,-0.2527658986112154,-0.36347234669486445,-0.06116191212156617
2028,9.195292799995514,0.037587226240450015,-0.04400218367507467,0.10509770063000962,0.09298595985014477,0.08118808472352736,0.03050057276614144,0.096523865728906,0.004008912857032763,0.010010231048939328,-0.25497029528421195,-0.3636309800631754,-0.061221100571695275
2029,9.199777200003156,0.038528568982526774,-0.04307045126508072,0.10537634301789361,0.09342283847880574,0.0812026044402133,0.030545535937816327,0.09535768357275443,0.0023526793525420675,0.009731217824929321,-0.2571373690042005,-0.36373005425003563,-0.061271730589394294
2030,9.20388549999916,0.03941631214861771,-0.0422886360182165,0.10562125889020971,0.09385438305096079,0.08120958061764963,0.030589227450495613,0.09418171759309793,0.0006961247296762025,0.009451990086596264,-0.25926682783123267,-0.3637694407714839,-0.06131380649692017
2031,9.20791489999101,0.040294828544190656,-0.041567852621434614,0.10601507058714084,0.09428054938960462,0.08120901238031929,0.030631646396295467,0.09299613992532145,-0.0009604788242048015,0.009172586867386224,-0.26135838740860406,-0.36374902307320195,-0.061347334642298794
2032,9.21208129999286,0.04121010970006043,-0.0407131507826116,0.10638875608083252,0.09470129410604804,0.08120090009410356,0.030672792045482317,0.09180112398367751,-0.0026168586128476395,0.008893047170649596,-0.26341177101398366,-0.36366869658927525,-0.06137232339672378
2033,9.216037299993332,0.04212484462139187,-0.03987709664468906,0.1067721258437531,0.095116574605681,0.08118524536849486,0.030712663846337373,0.09059684442619538,-0.004272741485938734,0.008613409960353011,-0.26542670960862896,-0.3635283687981214,-0.06138878315109772
2034,9.220248099998573,0.04303742633388798,-0.03910755487882301,0.10719502100958413,0.09552634909357396,0.08116205105855923,0.03075126142497919,0.0893834771193694,-0.005927853894190943,0.008333714151805444,-0.2674029418846745,-0.3633279592755629,-0.06139672631171493
2035,9.224296000000322,0.04395334064641744,-0.03829498488874239,0.10762831106206885,0.09593057657991663,0.08113132126664753,0.03078858458514406,0.0881611991026357,-0.007581921944670807,0.008053998602402508,-0.26934021431048344,-0.3630673997450201,-0.06139616729508524
2036,9.228306999997583,0.04477861589645153,-0.03760036785794892,0.10804503269122838,0.09632921688529308,0.0810930613438542,0.03082463330792417,0.08693018855264661,-0.009234671456353061,0.0077743021023929815,-0.2712382811740524,-0.3627466341248028,-0.06138712252189895
2037,9.238872200003245,0.046684193443146664,-0.03604925002184742,0.10895944356050016,0.09672223064579195,0.08104727789122237,0.03085940775146354,0.08569062474735153,-0.01088582801588903,0.007494663365671585,-0.27309690462445857,-0.3623656185724789,-0.061369610410133654
2038,9.245722499996193,0.04847356063117591,-0.0345717486208097,0.10991793648346987,0.09710957931795063,0.08099397876069456,0.030892908250611764,0.08444268802989315,-0.012535117033575453,0.0072151210206020085,-0.2749158547113384,-0.3619243215262989,-0.06134365136730408
2039,9.25001049999264,0.049364701443107284,-0.03381888582163953,0.11045082230681286,0.09749122518353256,0.08093317305580774,0.030925135316535568,0.08318655977232844,-0.014182263799510129,0.00693571360087419,-0.2766949094223913,-0.36142272374365697,-0.061309267781856434
2040,9.25442669999029,0.05022766629898027,-0.033064760657735295,0.11095393712304852,0.09786713135413685,0.08086487113213207,0.030956089636288302,0.08192242233918379,-0.015826993539920686,0.0066564795363998,-0.27843385471889914,-0.3608608183365732,-0.06126648401370903
2041,9.25813869999547,0.05116079864087776,-0.03231759302303165,0.1114927807920604,0.09823726177563949,0.08078908459745258,0.030985772072337513,0.08065045905085344,-0.017469031473652717,0.00637745714424989,-0.28013248456925577,-0.360238610804178,-0.061215326383941455
2042,9.26223680000112,0.05201393416485518,-0.03162067502983974,0.11203928345576178,0.09860158123246579,0.08070582631169342,0.031014183662050922,0.07937085414685098,-0.019108102868803364,0.006098684619638708,-0.28179060098050007,-0.3595561190621826,-0.06115582316363541
2043,9.270092699996894,0.053795204533355824,-0.030218378003784383,0.11307316798663923,0.09896005535169337,0.08061511038658396,0.031041325617140948,0.0780837927489227,-0.02074393309948643,0.0058202000269576,-0.28340801402784854,-0.35881337346932024,-0.0610880045618709
2044,9.274537199991755,0.05465561660766639,-0.029538609924960702,0.11361001563634025,0.09931265060698473,0.08051695218506622,0.031067199323067868,0.07678946082403254,-0.022376247702715065,0.005542041290862973,-0.2849845418822223,-0.35801041685074325,-0.06101190271288171
2045,9.278017000004184,0.05465561660766639,-0.029538609924960702,0.11361001563634025,0.09965933432234875,0.0804113683204431,0.031091806338401848,0.07548804514722839,-0.024004772435387973,0.005264246187422234,-0.2865200108357634,-0.3571473045183609,-0.06092755166237476
2046,9.282929799999692,0.05637472627002195,-0.028139826344451294,0.1147096000995966,0.10000007467573109,0.08029837665526723,0.031115148394143945,0.07417973326439899,-0.02562923333136495,0.004986852335321656,-0.2880142553253378,-0.3562241042881052,-0.06083498735301789
2047,9.287151999989874,0.05720304604026308,-0.027448446569141503,0.11526923392835522,0.10033484070243306,0.08017799629996974,0.0311372273930064,0.07286471345493122,-0.027249356758617692,0.00470989718714004,-0.28946711795402075,-0.35524089649411233,-0.06073424760910141
2048,9.291328899998916,0.05806083179068487,-0.026708254772454358,0.11584985875109584,0.10066360229835844,0.08005024761122842,0.031158045408652486,0.07154317469427707,-0.028864869476441436,0.00443341802069207,-0.29087844951056346,-0.3541977739998073,-0.06062537212037942
2049,9.297327499996754,0.05887492355360842,-0.026045944397997255,0.11640704115314557,0.10098633022308794,0.07991515219007511,0.031177604684896165,0.07021530661643956,-0.030475498692713238,0.004157451930445223,-0.29224810898683895,-0.3530948422058809,-0.06050840242509702
2050,9.301429799990728,0.05973045536479082,-0.02537286101054025,0.11692555881378022,0.10130299610278082,0.07977273287974179,0.03119590763486189,0.06888129947638613,-0.032080972121182445,0.003882035819014033,-0.2935759635932653,-0.3519322190551496,-0.06038338189221011
2051,9.305529099990965,0.06056022951606965,-0.024671553852644072,0.1176030543390157,0.10161357243290356,0.07962301376324532,0.031212956840104854,0.06754134411239884,-0.03368101803877897,0.0036072063887355285,-0.29486188877220504,-0.35071003503428944,-0.060250355702804716
2052,9.31080479999946,0.061351611823119094,-0.024010652909462422,0.11818764398121939,0.10191803258078506,0.07946602016071058,0.031228755049692167,0.0661956319083707,-0.03527536534292492,0.003333000133329572,-0.2961057682093387,-0.34942843317243744,-0.06010937083072359
2053,9.316225599992322,0.0630206676146287,-0.0226172021070871,0.11927285073547321,0.1022163507879984,0.07930177862643177,0.031243305179245104,0.06484435475605776,-0.03686374360883505,0.003059453329647827,-0.297307493843013,-0.3480875690366555,-0.059960476022408074
2054,9.320777000000817,0.06382876884310855,-0.022004753836656184,0.1198350493704008,0.10250850217256897,0.07913031694567167,0.03125661030994275,0.06348770501729631,-0.03844588314679172,0.002786602029515039,-0.2984669658715645,-0.3466876107242499,-0.05980372177596386
2055,9.3245115000027,0.06472727300294172,-0.02135398345575061,0.12032028078809567,0.10279446273100905,0.07895166413119924,0.031268673687487515,0.062125875486194686,-0.04002151505937948,0.002514482051666279,-0.29958409275862213,-0.34522873885194055,-0.05963916031945981
2056,9.328641100000825,0.06558998739726216,-0.02068519510743928,0.12087543751349182,0.10307420934017808,0.07876585041956521,0.03127949872103304,0.06075905935130933,-0.04159037129866485,0.002243128973783745,-0.3006587912363943,-0.34371114654187535,-0.05946684558846911
2057,9.332688599999528,0.06641719840961259,-0.020073233278035695,0.1214292461623516,0.10334771975896881,0.0785729072671155,0.03128908898207511,0.0593874501578139,-0.04315218472330665,0.001972578124636681,-0.30169098630694374,-0.34213503940448925,-0.05928683320286246
2058,9.33895809999376,0.06733393016715586,-0.01939706003029829,0.12185831555599194,0.10361497262981915,0.0783728673457424,0.031297448203305885,0.058011241769670624,-0.04470668915558233,0.001702864576327953,-0.30268061124145584,-0.3405006355182047,-0.05909918044286337
2059,9.343426599996748,0.06817228151227135,-0.01878280048160424,0.12233293759696093,0.10387594748004993,0.07816576453837487,0.03130458027743209,0.05663062833181345,-0.04625361943831569,0.0014340231366507538,-0.3036276075775055,-0.3388081654059731,-0.058903946224376565
2060,9.34699589999218,0.06896274163174089,-0.01819879364099896,0.12278928941472887,0.10413062472302857,0.07795163393420806,0.03131048925595767,0.0552458042323526,-0.047792711491691266,0.001166088341558859,-0.3045319251143304,-0.33705787200866005,-0.05870119107360063
2061,9.350634799993712,0.06985134463793946,-0.017572027143197447,0.12317980772763826,0.10437898565915887,0.07773051182367278,0.03131517934793147,0.05385696406480976,-0.04932370236994084,0.0008990944477537965,-0.30539352190611696,-0.33525001065527754,-0.05849097710093668
2062,9.35410860000411,0.07061500456507085,-0.017028309371686094,0.12367706206731491,0.10462101247669689,0.0775024356931451,0.03131865491866044,0.05246430259039332,-0.05084633031788738,0.0006330754253922635,-0.30621236425330683,-0.3333848490300679,-0.0582733679742044
2063,9.358032599993749,0.07140214144514581,-0.016465445311903498,0.12418959835362142,0.10485668825239347,0.07726744421939737,0.03132092048838896,0.05106801470032294,-0.05236033482733188,0.0003680649509170479,-0.30698842669193244,-0.33146266713644723,-0.0580484288911779
2064,9.361916499998188,0.07222912985845763,-0.01587473148837095,0.12469390116952075,0.10508599695196383,0.07702557726379156,0.03132198073094489,0.049668295378212705,-0.05386545669326854,0.00010409640001466606,-0.3077216919809885,-0.3294837572578134,-0.057816226551454096
2065,9.366029099997832,0.07300804977326972,-0.015264302735240763,0.12522865399605076,0.10530892343038417,0.0767768758662157,0.03132184047235288,0.04826533966252211,-0.055361438069913914,-0.0001587971592971355,-0.30841215108784764,-0.3274484239152248,-0.057576829127666734
2066,9.370681799991871,0.0737420529169013,-0.014646567621370388,0.1257121191849621,0.10552545343201537,0.07652138223876438,0.03132050468941546,0.04685934260908381,-0.05684802252653558,-0.0004205829734489266,-0.3090598031717314,-0.32535698382195904,-0.05733030623605971
2067,9.374480700003916,0.07448236776184763,-0.01400790098734011,0.12618558440669414,0.10573557359055429,0.07625913975916387,0.031317978508262595,0.045450499253716956,-0.05832495510306597,-0.0006812286099631626,-0.3096646555652473,-0.3232097658349607,-0.057076728906433276
2068,9.378712699995958,0.07515460815626188,-0.0133389803736771,0.12690131239971736,0.10593927142881306,0.0759901929639433,0.03131426720287037,0.04403900457493512,-0.05979198236548738,-0.0009407019639588196,-0.3102267237540027,-0.3210071109031871,-0.05681616955147756
2069,9.383777800001551,0.07588131078979608,-0.012716489950051856,0.1275345659829653,0.10613653535832683,0.07571458754135268,0.031309376193549496,0.0426250534567576,-0.06124885246097388,-0.0011989712645142003,-0.3107460313543051,-0.3187493720128642,-0.056548701935507935
2070,9.389950800003136,0.07655191311815103,-0.01212720177110426,0.1279931499900381,0.10632735467879054,0.07543237032402915,0.031303311045404035,0.041208840651632904,-0.06269531517277642,-0.001456005080885087,-0.3112226100889631,-0.31643691412966113,-0.05627440114261768
2071,9.395155899997915,0.07794937401132718,-0.010829571205701235,0.12899730180342314,0.1065117195773253,0.07514358928141247,0.03129607746676105,0.0397905607434832,-0.06413112197483704,-0.0017117723285754892,-0.3116564997611964,-0.31407011413779695,-0.05599334354426324
2072,9.400239099995815,0.07854053073094293,-0.010175939412859348,0.1292833140682844,0.10668962112757527,0.07484829351191123,0.0312876813075719,0.038370408110878405,-0.06555602608611844,-0.001966242275258312,-0.3120477482266672,-0.31164936077609284,-0.05570560676629796
2073,9.405865900000208,0.07925062232138438,-0.009489485229108266,0.12968150240787002,0.10686105128863527,0.07454653323482126,0.031278128557785785,0.036948576890348514,-0.066969782524635,-0.0022193845465433466,-0.3123964113636458,-0.30917505457098743,-0.05541126965547069
2074,9.409577899990836,0.0799492276631696,-0.008886549842524554,0.13009633100899048,0.10702600290380962,0.07423835978199782,0.03126742534569628,0.03552526093984277,-0.0683721481611712,-0.002471169131590056,-0.3127025530413248,-0.3066476077665298,-0.055110412245405666
2075,9.413949900001173,0.08059117562068852,-0.00828403927292099,0.13050978657925047,0.10718446969920314,0.07392382558928245,0.03125557793626168,0.03410065380234397,-0.06976288177267295,-0.002721566388562707,-0.312966245086298,-0.3040674442513667,-0.05480311572208033
2076,9.418210799994997,0.08123308991236787,-0.007684816428773748,0.13095502319908175,0.10733644628214564,0.07360298418768665,0.03124259272940005,0.03267494866964635,-0.07114174409529773,-0.002970547049925475,-0.3131875672472183,-0.30143499948273983,-0.05448946238881838
2077,9.42247160000261,0.08187987926976449,-0.006994507016779434,0.13143329780630256,0.10748192813945118,0.07327589019433399,0.031228476258259783,0.031248338346305103,-0.07250849787710952,-0.003218082227575216,-0.31336660715765,-0.2987507204075091,-0.05416953563081536
2078,9.42635860000155,0.08250047428474447,-0.0063567259324118965,0.13190072568381692,0.10762091163551361,0.07294259930316262,0.031213235187466278,0.029821015213765855,-0.07386290793040425,-0.0034641434178096825,-0.3135034602971307,-0.2960150653802229,-0.05384341987921418
2079,9.431044400000246,0.08319209008478738,-0.005668327620063597,0.1323752365695954,0.10775339401023944,0.07260316827539001,0.031196876311345666,0.028393171194682116,-0.07520474118365247,-0.003708702506129038,-0.31359822995046,-0.293228504078253,-0.05351120057474842
2080,9.436989800000449,0.08440111813016378,-0.0043861301724502574,0.1334310940435246,0.10787937337681873,0.07225765492974144,0.031179406552126185,0.026964997717429013,-0.0765337667330455,-0.003951731771868644,-0.31365102716523297,-0.2903915174140174,-0.0531729641309719
2081,9.441250000003492,0.08495440077147773,-0.0038069991593896527,0.13380581053152768,0.10799884871933481,0.0719061181324438,0.031160832958117824,0.02553668568082133,-0.07784975589363187,-0.0041932038926611554,-0.3136619707076365,-0.2875045974443114,-0.052828797897093
2082,9.445599700004095,0.08549923944423098,-0.0032018507158097544,0.13416854069586012,0.10811181989021394,0.07154861778698647,0.031141162701871304,0.024108425419043726,-0.0791524822500308,-0.0044330919487260536,-0.31363118701652737,-0.2845682472767691,-0.0524787901204326
2083,9.4530064999999,0.08604969983160693,-0.0026078426211414846,0.13452461525954687,0.10821828760751574,0.07118521482365105,0.031120403078317118,0.022680406666800962,-0.08044172170670975,-0.004671369426984846,-0.3135588101558133,-0.2815829809734793,-0.052123029908525007
2084,9.457958899991354,0.08720688425101808,-0.001357051445886633,0.13513786168236955,0.10831825345206503,0.07081597118881147,0.031098561502885314,0.021252818524695915,-0.08171725253781328,-0.004908010225000229,-0.3134449817651558,-0.2785493234517793,-0.05176160719088094
2085,9.462317299999995,0.08774660937787315,-0.0007342101388022135,0.135470509799895,0.10841171986442585,0.07044094983400653,0.03107564550960698,0.01982584942484303,-0.08297885543652969,-0.005142988654737637,-0.313289851009013,-0.27546781038225215,-0.05139461268043212
2086,9.469035799993437,0.0882680761114731,-9.881057902170684e-05,0.13572863042227637,0.10849869014171881,0.07006021470478715,0.03105166274919827,0.01839968709672473,-0.08422631356398257,-0.005376279446147655,-0.3130935745240431,-0.2723389880839516,-0.05102213783467734
2087,9.473314699993352,0.08879997019324097,0.0005382120310745489,0.13600021745828078,0.10857916843428342,0.06967383072934112,0.031026620987127832,0.01697451853329823,-0.08545941259763423,-0.0056078577505679185,-0.31285631636488853,-0.2691634134168822,-0.05064427481654985
2088,9.479011000003084,0.08980792130928562,0.0018075792009354628,0.1365327309171613,0.10865315974218703,0.06928186380689752,0.03100052810166843,0.015550529957359895,-0.08667794077918803,-0.005837699143943179,-0.3125782479483616,-0.2659416536717613,-0.0502611164550263
2089,9.483061699997052,0.09033475997461943,0.0024453751172442417,0.13673593014787983,0.10872066991158177,0.06888438079591333,0.030973392081933622,0.014127906788174343,-0.08788168896197718,-0.006065779629862312,-0.3122595479960485,-0.26267428645709384,-0.04987275620549779
2090,9.487064699991606,0.0908230427937913,0.0031561016434635946,0.13693730424752332,0.10878170563091111,0.0684814495020444,0.030945221025900534,0.0127068336083754,-0.08907045065782834,-0.006292075642411168,-0.3119004024753543,-0.2593618995835895,-0.04947928810992349
2091,9.491515799993069,0.09128321307904388,0.0038473241548838983,0.13713898104077166,0.10883627442696789,0.06807313866590338,0.030916023138419436,0.011287494131145919,-0.0902440220833879,-0.006516564048840219,-0.31150100453900964,-0.2560050909459538,-0.04908080675678777
2092,9.495707800000671,0.09167921715199422,0.004518526435607238,0.1373980591935107,0.10888438466080486,0.06765951795060716,0.030885806729211047,0.00987007116768332,-0.09140220220589919,-0.006739222152046066,-0.3110615544630627,-0.25260446840208595,-0.04867740724088134
2093,9.49959239999589,0.09211120942616513,0.00518756677560623,0.13762325523941116,0.10892604552349891,0.06724065792911649,0.03085458021085228,0.008454746594957572,-0.092544792788419,-0.006960027692865981,-0.3105822595833794,-0.24916064964971787,-0.04826918512292754
2094,9.503714599995874,0.09256929549941145,0.005874432960349589,0.13778571879107665,0.10896126703177028,0.06681663007136994,0.03082235209675122,0.007041701323768326,-0.09367159843446146,-0.007178958852184769,-0.31006333423067467,-0.2456742621005272,-0.04785623638907484
2095,9.509157699998468,0.09296917333477094,0.00654117145865798,0.13792477840738016,0.10899006002345771,0.06638750673121492,0.030789130999112128,0.0056311152671077325,-0.09478242663205787,-0.007395994252853338,-0.3095049996640968,-0.24214594275175752,-0.04743865741027673
2096,9.51265639999474,0.09334062601545992,0.00723403512998049,0.13806045327724403,0.10901243615285106,0.0659533611331381,0.030754925626891222,0.004223167308835348,-0.09587708779722093,-0.0076111129614184585,-0.3089074840033875,-0.23857633805538161,-0.04701654490158058
2097,9.516428200004157,0.09370466376849294,0.007960292475464432,0.13820713081554495,0.10902840788588283,0.06551426735879827,0.03071974478374434,0.002818035272671419,-0.09695539531680217,-0.0078242944896633,-0.30827102215964164,-0.23496610378484378,-0.04658999588134689
2098,9.520415399994818,0.09401643813658093,0.00866140842893519,0.13836914218463683,0.10903798849518037,0.0650703003333646,0.030683597365967454,0.001415895891514709,-0.0980171655907311,-0.008035518795958404,-0.3075958557646907,-0.2313159048994178,-0.0461591076304205
2099,9.524901299999328,0.09430961791551183,0.009318820946360317,0.13848755083400557,0.10904119205498054,0.06462153581166373,0.03064649236043087,1.6924777090923354e-05,-0.09906221807362553,-0.008244766286422895,-0.3068822330991373,-0.22762641540621856,-0.0457239776512751
2100,9.528741399990396,0.09462926101394858,0.009974375843759537,0.1385844232231523,0.10903803343590877,0.06416805036413888,0.030608438842508124,-0.0013787036100623314,-0.10009037531576219,-0.008452017815895791,-0.3061304090190644,-0.22389831821990433,-0.04528470362715269
2101,9.533080699999118,0.09496427653697422,0.010632629261107689,0.13864091391359715,0.10902852829962369,0.06370992136262409,0.030569445974000367,-0.002770815990268231,-0.1011014630033971,-0.008657254688717371,-0.30534064488144413,-0.22013230502010808,-0.04484138338121957
2102,9.537390500001491,0.09521558111079449,0.011258190241353948,0.13869579598568893,0.10901269309332876,0.06324722696593654,0.030529523001057306,-0.004159240294035351,-0.10209530999842537,-0.008860458659320728,-0.3045132084682754,-0.21632907610663774,-0.044394114835760674
2103,9.542986000000385,0.09545985413191643,0.01184633116569747,0.13874566014936,0.1089905450441524,0.06278004610528955,0.030488679252095367,-0.0055438056910286386,-0.10307174837737006,-0.009061611932633664,-0.303648373909475,-0.21248934025248623,-0.043942995971433925
2104,9.547277999998188,0.0957079957914995,0.012476221827651015,0.13880051843103663,0.10896210215339748,0.062308458469528906,0.030446924135713954,-0.006924342618681295,-0.10403061346968998,-0.009260697164291162,-0.3027464216045484,-0.2086138145546922,-0.043488124786606026
2105,9.551530999990064,0.09593817829055112,0.013068119569162163,0.13886838305041216,0.10892738319066245,0.0618325444901962,0.03040426713861074,-0.008300682810442253,-0.10497174389539654,-0.009457697460658866,-0.3018076381430658,-0.20470322428309273,-0.043029599256791534
2106,9.55544799999916,0.0961519496002191,0.01359401683373549,0.13891368344035104,0.10888640768783575,0.061352385326422294,0.03036071782349682,-0.009672659323654057,-0.10589498160197011,-0.009652596378668036,-0.30083231622397105,-0.20075830272701042,-0.04256751729421689
2107,9.559631199997966,0.09636149142580422,0.0140916595276071,0.13894788439344416,0.10883919593296539,0.06086806284965414,0.03031628582701277,-0.01104010656705606,-0.10680017190056662,-0.009845377925462532,-0.2998207545737494,-0.1967797910399163,-0.04210197670753095
2108,9.566053699993065,0.09684771632467573,0.015139735015800461,0.13894192993786622,0.10878576896400508,0.060379659628218195,0.030270980857646512,-0.012402860327907985,-0.10768716350150552,-0.010036026557858539,-0.2987732578634819,-0.1927684380821126,-0.041633075161683436
2109,9.570197499997448,0.09702536100571424,0.01564741335140503,0.13893815133364557,0.10872614856243955,0.05988725891172388,0.03022481269365406,-0.013760757798728977,-0.10855580854902995,-0.010224527181617796,-0.29769013662481275,-0.1887250002614781,-0.04116091013799274
2110,9.574634699994933,0.09720976964518381,0.016165928637228724,0.13891356046346254,0.1086603572467903,0.05939094461531016,0.030177791180984195,-0.01511363760364744,-0.10940596265533029,-0.010410865150535298,-0.2965717071648575,-0.18465024137232036,-0.04068557889442451
2111,9.578638999999384,0.09738568202894121,0.016662501480323066,0.1388744578283529,0.10858841826600375,0.0588908013037386,0.030129926231207922,-0.016461339824357123,-0.11023748493382206,-0.010595026265342455,-0.29541829148007814,-0.18054493243237993,-0.04020717842610278
2112,9.58325519999198,0.09754866931473094,0.017167814405258844,0.13883945622593077,0.10851035559272335,0.05838691417533655,0.030081227819453684,-0.017803706025675024,-0.11105023803167023,-0.010776996772426826,-0.29423021716915193,-0.17640985151803146,-0.03972580542607497
2113,9.587883699990924,0.09775471857898817,0.017711694044861358,0.13877543386049293,0.10842619391644785,0.05787936904579372,0.03003170598234918,-0.019140579280696797,-0.11184408816155139,-0.010956763362369648,-0.2930078173448605,-0.17224578359772774,-0.039241556246351963
2114,9.591687599997384,0.09788808805157002,0.018243864291511504,0.13868514576907381,0.10833595863657763,0.05736825233181564,0.029981370815970746,-0.020471804195545555,-0.11261890513264597,-0.011134313168302407,-0.2917514305450278,-0.16805352036373167,-0.03875452685924417
2115,9.595461799995974,0.09801924515585109,0.018770940780011233,0.13861498580420434,0.10823967585535071,0.05685365103463712,0.029930232473801242,-0.02179722693371001,-0.11337456238085285,-0.011309633764083846,-0.29046140064253445,-0.16383386006218328,-0.03826481281901426
2116,9.59987409999303,0.09816124263152706,0.01930210399005472,0.13852594770942817,0.1081373723706709,0.05633565272339971,0.02987830116469729,-0.023116695239968076,-0.1141109369982188,-0.011482713162298949,-0.2891380767544359,-0.15958760732155025,-0.03777250922386713
2117,9.603709399991205,0.09826783804158667,0.019826656012254702,0.1384339944973841,0.10802907566882976,0.05581434551839681,0.029825587150866667,-0.024430058463892193,-0.11482790976157514,-0.011653539812081507,-0.2877818131502125,-0.15531557297951007,-0.03727771067829796
2118,9.607981799999834,0.09842471712982392,0.020378011132851957,0.13830532929776274,0.10791481391712446,0.055289818074190235,0.0297721007458565,-0.02573716758293282,-0.11552536516037519,-0.01182210259676196,-0.28639296915917795,-0.15101857390831208,-0.03678051125581872
2119,9.612003799993545,0.09856362923080479,0.020924768456182553,0.13815963121376415,0.10779461595637371,0.054762159562602115,0.029717852312552976,-0.027037875225076495,-0.11620319142372507,-0.011988390831342316,-0.2849719090770735,-0.14669743283866785,-0.03628100446208345
2120,9.616478800002367,0.09865045948229238,0.021421194642428917,0.13798871516628697,0.10766851129333369,0.05423145965558577,0.02966285226119335,-0.028332035691074998,-0.11686128054660108,-0.01215239425980001,-0.28351900207187697,-0.14235297818221915,-0.03577928319843207
2121,9.624324899996282,0.09875018693243273,0.02230708912541162,0.13766092157426713,0.1075365300930152,0.053697808507979235,0.029607111047391117,-0.02961950497624213,-0.11749952831524747,-0.01231410305222269,-0.2820346220888556,-0.13798604385263316,-0.035275439725872854
2122,9.628614599991124,0.09877917008254027,0.02268842207507349,0.13751673892620958,0.10739870317090419,0.053161296740145386,0.02955063917017508,-0.030900140791814978,-0.1181178343317483,-0.012473507801775946,-0.28051914775489,-0.13359746908537454,-0.03476956562952266
2123,9.632862600003136,0.09883228232020502,0.02304049024726637,0.1373593884796371,0.10725506198508702,0.052622015420502474,0.029493447170043076,-0.03217380258587672,-0.11871610203776786,-0.01263059952150618,-0.27897296228209906,-0.12918809825620392,-0.034261751783524586
2124,9.637192900001535,0.09886925393885819,0.023416469175095725,0.13717650988903787,0.10710563862828262,0.05208005604794891,0.029435545627031146,-0.03344035156383807,-0.11929423873745419,-0.01278536964098089,-0.2773964533707928,-0.12475878069845299,-0.03375208831646203
2125,9.641485300002389,0.09894493476658041,0.023822310815636807,0.13698584569993838,0.10695046581978325,0.05153551053418605,0.0293769451587988,-0.03469965070847456,-0.11985215561949941,-0.012937810002768717,-0.27579001311178014,-0.12031037051912652,-0.03324066457728782
2126,9.645433700003196,0.09899310650145744,0.024175892989526347,0.1367738337575411,0.1067895768973063,0.05098847118594282,0.029317656418730978,-0.03595156479951694,-0.12038976777835173,-0.013087912858761706,-0.2741540378880598,-0.11584372641388187,-0.032727569101786876
2127,9.649827100001858,0.09904379894569719,0.024509673909640796,0.13655890444211133,0.106623005808759,0.05043903068710573,0.029257690094057542,-0.037195960432792094,-0.12090699423457472,-0.013235670866342282,-0.27248892827592125,-0.11135971148093639,-0.03221288957959083
2128,9.65376549999928,0.09913039588204765,0.02485743518068481,0.13632101279059308,0.10645078710391807,0.049887282080758294,0.029197056903990975,-0.038432706038912204,-0.12140375795434967,-0.013381077084397544,-0.2707950889454845,-0.10685919303395341,-0.03169671282176281
2129,9.658009299993864,0.0992475655768535,0.025217641402640913,0.13604545051321287,0.10627295592602708,0.049333318751133864,0.029135767597883104,-0.03966167190150959,-0.12187998586811727,-0.013524124969183537,-0.2690729285607083,-0.10234304241395814,-0.03117912472897
2130,9.662232100003166,0.0993741001559459,0.025551481225849146,0.13577775838435835,0.10608954800331391,0.048777234405486175,0.02907383295340163,-0.04088273017501529,-0.12233560888835435,-0.013664808370042268,-0.26732285967889313,-0.09781213480033478,-0.030660210260261146
2131,9.666205699992132,0.09946741834240196,0.025861341554344303,0.13546590482898932,0.10590059964043043,0.04821912305588168,0.029011263774727163,-0.04209575490197919,-0.12277056192648196,-0.013803121524974302,-0.2655452986497069,-0.0932673490209567,-0.03014005340246609
2132,9.6703955999983,0.09954708356316855,0.026157716537248042,0.1351473657450192,0.10570614770981583,0.047659079000917655,0.02894807089077147,-0.04330062202992984,-0.12318478390890125,-0.013939059056069911,-0.26374066551376096,-0.0887095673615011,-0.02961873714023408
2133,9.674279200000456,0.09965232573170786,0.026389062518441576,0.1348140689636065,0.10550622964298559,0.04709719680737006,0.028884265153417465,-0.04449720942777191,-0.12357821779215372,-0.014072615964801794,-0.26190938390076374,-0.08413967537400044,-0.029096343426727282
2134,9.679355599990233,0.09976845838424225,0.02663347594092311,0.13445079204085017,0.10530088342174794,0.04653357129177519,0.028819857435781755,-0.045685396901719695,-0.12395081057720307,-0.014203787627182536,-0.26005188092727827,-0.07955856168468232,-0.0285729531549856
2135,9.68320240000321,0.09992739176388953,0.026843516940458043,0.13411773581046998,0.10509014756935035,0.04596829750194949,0.028754858630500188,-0.046865066210765166,-0.12430251332283547,-0.014332569788789974,-0.25816858709411244,-0.07496711780114952,-0.028048646129978365
2136,9.68729039999016,0.1001250644708815,0.0270539645128619,0.1337946205880179,0.10487406114155769,0.04540147069845156,0.02868927964803688,-0.04803610108167921,-0.12463328115817467,-0.014458958559663688,-0.25625993618336895,-0.07036623791895255,-0.027523501041358228
2137,9.691779400003725,0.10030135932840971,0.027253521730969628,0.13343257213330526,0.10465266371766412,0.044833186335990496,0.028623131415017294,-0.049198387223544714,-0.12494307329430987,-0.014582950409075925,-0.2543263651551821,-0.06575681872760654,-0.026997595436932233
2138,9.695749699996668,0.10045220273735968,0.027401866085137193,0.1330938158826355,0.10442599539144116,0.0442635400447846,0.02855642487258595,-0.05035181234182041,-0.12523185303503476,-0.014704542160180438,-0.2523683140441701,-0.061139759216104955,-0.026471005696864787
2139,9.70002669999667,0.10063718077862456,0.02754562997758346,0.13275018744405778,0.10419409676202411,0.04369262761187465,0.028489170974789296,-0.05149626615193403,-0.12549958778669523,-0.014823730984542618,-0.25038622585563014,-0.05651596047798243,-0.02594380700862695
2140,9.703877699997976,0.10084907744070125,0.027722382771667692,0.13241045987096114,0.10395700892473954,0.04312054496239601,0.028421380686984313,-0.0526316403924038,-0.12574624906714457,-0.014940514396554439,-0.24838054646150448,-0.05188632551597859,-0.02541607334270576
2141,9.707978099992031,0.10116599596408218,0.027906058494854592,0.13204421129976934,0.10371477346187583,0.04254738814081356,0.028353064984273302,-0.053757828837487566,-0.12597181251380543,-0.015054890247737727,-0.2463517244961461,-0.04725175904635516,-0.024887877429087064
2142,9.712276599995675,0.10146065892144125,0.0280181485509462,0.1316546740228188,0.10346743243339884,0.04197325329212376,0.028284234849965527,-0.05487472730935898,-0.12617625789083808,-0.015166856720939488,-0.24430021125190982,-0.04261316730291832,-0.02435929073452481
2143,9.716330199997174,0.10176500530658997,0.028126989454086114,0.1312266287906902,0.10321502836761533,0.04139823664302753,0.02821490127406617,-0.055982233689810305,-0.12635956909541388,-0.015276412324422985,-0.24222646057459524,-0.037971457840798736,-0.023830383440609323
2144,9.720463899997412,0.10203167757374731,0.028189753946190617,0.13084190813734933,0.10295760425178549,0.040822434483078415,0.028145075251793186,-0.05708024793148138,-0.12652173416309348,-0.015383555885858359,-0.24013092875876693,-0.03332753934004103,-0.023301224422646444
2145,9.724742999998853,0.10234370714828019,0.028215669581722835,0.13042078060849827,0.1026952035226865,0.04024594314581019,0.028074767782122617,-0.05816867206861424,-0.12666274527230958,-0.015488286546216583,-0.23801407444297895,-0.028682321409054745,-0.02277188122935927
2146,9.728682899993146,0.10266679342936275,0.028232045337541114,0.13004580183645686,0.10242787005712889,0.039668858989848024,0.02800398986636285,-0.05924741022733288,-0.12678259874795347,-0.015590603753570529,-0.23587635850492975,-0.02403671438797849,-0.022242420063423494
2147,9.73295259999577,0.10299382666809574,0.02822432526466372,0.12969597990486129,0.1021556481624279,0.039091278380006984,0.02793275250675817,-0.060316368635448134,-0.12688129506406548,-0.015690507256807134,-0.2337182439565734,-0.01939162915200914,-0.02171290576284693
2148,9.737095799995586,0.10335980495163494,0.02822659117949162,0.1293285238488304,0.10187858256683253,0.038513297668382046,0.027861066705122006,-0.06137545563178772,-0.12695883884563,-0.01578799709925467,-0.23154019583921404,-0.014747976914747165,-0.02118340178320329
2149,9.741459099997885,0.10372196640508215,0.02826836478374465,0.12891848857708987,0.10159671840991466,0.03793501317543359,0.027788943461500376,-0.062424581675051834,-0.1270152388694751,-0.01588307361222903,-0.22934268111860864,-0.010106669031609289,-0.020653970180730043
2150,9.745754199990188,0.1070176605976829,0.027144535862007553,0.1301805142928751,0.10131010123292059,0.03735652117107216,0.027716393772865913,-0.06346365935219395,-0.12705050806427753,-0.015975737408503086,-0.2271261685801015,-0.0054686168033594735,-0.020124671596299527
2151,9.74963469999784,0.10753809724737401,0.027220913423011025,0.13003023424848653,0.1010187769690872,0.03677791785574653,0.027643428631842822,-0.06449260338632717,-0.12706466350967346,-0.016065989375703294,-0.2248911287238151,-0.0008347312798092066,-0.019595565240272214
2152,9.753791499999352,0.10798634153866621,0.027346048045347203,0.12981406917257104,0.10072279193392517,0.036199299341538885,0.027570059025463077,-0.06551133064415622,-0.12705772643447538,-0.01615383066963761,-0.2226380336599214,0.0037940769362623376,-0.019066708878240347
2153,9.75796819999232,0.10843117865501671,0.027393888905175363,0.12942150041456157,0.10042219281547089,0.03562076163327092,0.027496295933954296,-0.06651976014293572,-0.1270297222139965,-0.01623926270755904,-0.22036735700401835,0.008416897884917939,-0.01853815881766968
2154,9.7621938999946,0.10881496020598772,0.027343714468031972,0.12900729639406705,0.10011702666450913,0.035042400609624755,0.027422150329559594,-0.06751781305695567,-0.12698068036648405,-0.016322287161369006,-0.21807957377263446,0.013032822444551723,-0.018009969895446603
2155,9.766311200000928,0.1091782362230456,0.027206264157571193,0.12861976025217983,0.09980734088476823,0.0344643120042828,0.027347633175389668,-0.06850541272355487,-0.12691063454866292,-0.016402905950764674,-0.21577516027888533,0.01764094252700853,-0.017482195466337478
2156,9.770734099991389,0.10955359086927641,0.0270630866802476,0.12824615373663034,0.09949318322309013,0.03388659138709088,0.02727275542430738,-0.06948248464866288,-0.12681962255039103,-0.0164811212363346,-0.21345459402830544,0.022240351272283767,-0.01695488739236645
2157,9.778714100000798,0.11033377020956951,0.026769077303222158,0.12765168969589105,0.09917460175957685,0.033309334145248656,0.027197528017845057,-0.07044895651187127,-0.12670768628842896,-0.01655693541260697,-0.2111183536148772,0.026830143242754623,-0.016428096033117432
2158,9.782983299999614,0.1107483976542695,0.02662288092400037,0.12734230501304097,0.09885164489771582,0.03273263546453142,0.027121961885154804,-0.0714047581710349,-0.12657487179932622,-0.016630351101054795,-0.20876691861728078,0.031409414616893845,-0.015901870236965526
2159,9.787282499994037,0.11120537280663258,0.026477915017143812,0.12700768851079217,0.09852436135448683,0.032156590310547364,0.02704606794199195,-0.07234982166640459,-0.12642122923142723,-0.01670137114306234,-0.20640076949538821,0.03597726338241754,-0.015376257333242521
2160,9.791349499995704,0.11163380800766068,0.02628323925285734,0.12670109455882075,0.09819280015045248,0.03158129341003439,0.026969857089731826,-0.0732840812242927,-0.12624681283599942,-0.016769998592857296,-0.20402038748702445,0.040532789528818794,-0.014851303125340748
2161,9.795395099994494,0.11207871035050126,0.026078864669779423,0.12647148182880033,0.0978570105998345,0.031006839232200645,0.02689334021441997,-0.0742074732602726,-0.12605168095748667,-0.016836236710413014,-0.20162625450501648,0.04507509523923941,-0.014327051884758963
2162,9.803899099992124,0.11286696820413988,0.025643032493975045,0.12607342676272604,0.09751704230057782,0.030433321970112465,0.026816528185855882,-0.07511993638191398,-0.1258358960228916,-0.016900088954325286,-0.19921885303455275,0.04960328508163241,-0.013803546346093362
2163,9.8079163999937,0.11330602441053594,0.025420064843862868,0.1258573913889767,0.0971729451244039,0.029860835522133602,0.02673943185671025,-0.07602141139105555,-0.12559952453028966,-0.016961558974668053,-0.19679866603087462,0.054116466199168684,-0.013280827702976354
2164,9.81202339999436,0.11375102744944902,0.02517338914047757,0.12570198563451424,0.09682476920685543,0.029289473473419512,0.02666206206167579,-0.07691184128561684,-0.1253426370364782,-0.017020650605832566,-0.19436617681732102,0.05861374849984116,-0.012758935604965216
2165,9.8163091000024,0.11418440267902627,0.0248786371176152,0.12554104824161239,0.09647256493733453,0.028719329077470872,0.026584429616651795,-0.07779117126095032,-0.125065308143765,-0.01707736785935441,-0.19192186898374786,0.06309424484522075,-0.01223790815538218
2166,9.820602899999358,0.1146561914790333,0.024598626376841973,0.125374445548981,0.09611638294913606,0.028150495237750126,0.02650654531796249,-0.07865934871073552,-0.12476761648590069,-0.017131714916732738,-0.1894662262853435,0.06755707123831801,-0.011717781910107026
2167,9.824494000000414,0.11513528283664087,0.02431426734657749,0.12526244283361757,0.09575627410947794,0.027583064489364914,0.02642841994160921,-0.07951632322741746,-0.12444964471315884,-0.017183696122246076,-0.18699973254186109,0.07200134701050535,-0.01119859187732261
2168,9.828767200000584,0.11557927580079864,0.024029314136010133,0.125173023998585,0.09539228950953055,0.02701712898082225,0.026350064242556297,-0.08036204660219116,-0.12411147947656946,-0.01723331597576917,-0.18452287153728816,0.07642619500745489,-0.010680371518213265
2169,9.832960200001253,0.11601415995658154,0.02376468243458385,0.12505981010285627,0.09502448045444745,0.02645278045585752,0.02627148895405065,-0.08119647282453449,-0.12375321141131027,-0.01728057912559533,-0.18203612691997478,0.08083074177404771,-0.01016315274861554
2170,9.837138799994136,0.11648805770919324,0.023511630861338756,0.12492815874358862,0.09465289845339882,0.025890110235342233,0.02619270478697476,-0.08201955808129154,-0.12337493511926124,-0.017325490361268698,-0.17953998210324096,0.08521411773821098,-0.009646965941620124
2171,9.84139819999109,0.11698874271462532,0.02319849775261045,0.12482630008345456,0.09427759520960956,0.02532920919927424,0.026113722429233127,-0.0828312607553086,-0.12297674915072775,-0.01736805460643091,-0.17703492016648273,0.08957545739363941,-0.009131839931123382
2172,9.849641399996472,0.1180000242410037,0.022553553413378766,0.12469108899867791,0.09389862261040469,0.02477016776885419,0.026034552545171962,-0.08363154142362497,-0.12255875598533703,-0.017408276911686685,-0.17452142375679638,0.09391389948135831,-0.008617802016326193
2173,9.853701899992302,0.11849656666998,0.022235007657345603,0.12464240718559633,0.09351603271726419,0.0242130758886519,0.025955205775032266,-0.08442036285522132,-0.12212106201211365,-0.017446162447492843,-0.1719999749911392,0.09822858717008628,-0.008104877967177354
2174,9.858066300002974,0.11897169616346834,0.02191666531462281,0.12464044185308358,0.09312987775588918,0.023658023008866415,0.02587569273443611,-0.08519769000832805,-0.12166377750873995,-0.017481716497075164,-0.16947105535904494,0.10251866823535635,-0.007593092030758279
2175,9.86213300000236,0.11952017063203965,0.021574518440566383,0.12466845528638767,0.09274021010628154,0.02310509806768345,0.02579602401390598,-0.08596349002729596,-0.12118701662000832,-0.017514944449377415,-0.1669351456259128,0.10678329523735497,-0.007082466938605191
2176,9.8663380999933,0.12001660460172221,0.021213590771874943,0.12469277689765274,0.0923470822928389,0.022554389473733776,0.02571621017841683,-0.08671773223903227,-0.12069089733547043,-0.01754585179204696,-0.16439272573688815,0.11102162569743851,-0.006573023914964512
2177,9.870592999999644,0.12048031447354794,0.020877267972898107,0.12475265876799035,0.09195054697446725,0.022005985088656223,0.025636261766980598,-0.08746038814900502,-0.12017554146629013,-0.01757444410446136,-0.1618442747213526,0.1152328222732876,-0.006064782685976575
2178,9.874762699997518,0.12094145925092895,0.020543812659040633,0.12483895960697429,0.0915506569347128,0.02145997220976886,0.02555618929226308,-0.08819143143681889,-0.11964107462130595,-0.01760072705080025,-0.15929027059804207,0.11941605293266003,-0.0055577614897822985
2179,9.878767799993511,0.12142860651919896,0.020177505985305027,0.12492202444735864,0.09114746507191504,0.020916437552851823,0.025476003240232893,-0.08891083795136544,-0.11908762618231018,-0.017624706373166727,-0.15673119028081034,0.12357049112570313,-0.005051977087546952
2180,9.888197799999034,0.12249870414551564,0.019439583396090414,0.125053107643975,0.09074102438938281,0.0203754672350455,0.0253957140698423,-0.08961858570555031,-0.11851532927855099,-0.01764638788476256,-0.1541675094850539,0.12769531595578731,-0.00454744477539462
2181,9.894053399999391,0.1230411237090956,0.019097184721315073,0.12509265811301376,0.09033138798559497,0.019837146757867533,0.02531533221273957,-0.09031465487060032,-0.11792432076046515,-0.01766577746312142,-0.15159970263481434,0.13178971234882317,-0.004044178397246401
2182,9.899575000003097,0.12407345464169285,0.01837986962965093,0.1252105713272143,0.0899186090444279,0.019301560990352087,0.025234868073012787,-0.0909990277699537,-0.11731474117264852,-0.017682881043404375,-0.14902824277057394,0.1358528712210246,-0.0035421903585549546
2183,9.904821499992975,0.12465427986900143,0.018033068199419043,0.1253264352813576,0.08950274082541197,0.018768794152314982,0.025154332026964776,-0.09167168887273673,-0.11668673472607125,-0.017697704611761816,-0.14645360145775946,0.13988398964508153,-0.0030414916409274534
2184,9.912263899997924,0.1257605640845472,0.01739077278050346,0.1255026546972267,0.08908383665401888,0.018238929797747883,0.025073734422918704,-0.09233262478682991,-0.11604044926954452,-0.017710254198765905,-0.14387624869596888,0.14388227101470635,-0.002542091817628534
2185,9.916205999994418,0.12630789079849655,0.01707169593525646,0.12562779978922922,0.08866194991198188,0.017712050798344956,0.02499308558105403,-0.09298182425152665,-0.11537603626044744,-0.017720535872917685,-0.1412966528289357,0.147846925207519,-0.002043999069954304
2186,9.920237400001495,0.12685258176851816,0.01674227627365413,0.12579005316215613,0.0882371340276506,0.01718823932716521,0.024912395793272313,-0.09361927812978849,-0.1146936507347223,-0.01772855573423287,-0.13871528045524495,0.15177716874623595,-0.001547220204467987
2187,9.924445399999968,0.12730216598985045,0.016379926765008334,0.12595462543019503,0.08780944246638207,0.016667576842433876,0.024831675323092387,-0.09424497940010025,-0.11399345127614591,-0.017734319907910242,-0.1361325963398155,0.1556722249581292,-0.0010517606710873139
2188,9.928526599993347,0.12772559308167314,0.01603581628795543,0.126091063187933,0.08737892872096995,0.01615014407148619,0.0247509344055745,-0.09485892314792908,-0.11327559998488494,-0.01773783453808672,-0.13354906332616298,0.15953132413272197,-0.0005576245820132813
2189,9.932555499995942,0.12815548169486538,0.015681471507438156,0.1262403298644636,0.08694564630211364,0.01563602099485675,0.024670183247273086,-0.0954611065567906,-0.11254026244534386,-0.017739105781682914,-0.130965142249458,0.16335370367768873,-6.481473148944224e-05
2190,9.94102810000186,0.12904261209153198,0.015019384911396544,0.12664278930504724,0.0865096487289293,0.015125286830517599,0.024589432026217647,-0.0960515288989256,-0.11178760769331324,-0.017738139802343105,-0.12838129185039238,0.16713860827292823,0.00042666738361957397
2191,9.945155199995495,0.12938639170583535,0.014669411058349813,0.12680582908621846,0.08607098951950376,0.01461802001826824,0.024508690891921304,-0.09663019152559074,-0.11101780818242676,-0.01773494276447347,-0.12579796868986645,0.1708852900227785,0.0009168215424420705
2192,9.949294999998529,0.1297499514738041,0.014273091601525893,0.1270046266046294,0.0856297221814929,0.01411429820428069,0.02442796996541648,-0.09719709785696663,-0.1102310397499351,-0.017729520827382352,-0.12321562706450932,0.17459300860634322,0.001405648777918032
2193,9.953588899996248,0.13004325660632804,0.01391106218962537,0.1271581466979202,0.08518590020276595,0.013614198225802615,0.02434727933931729,-0.09775225337168725,-0.1094274815818053,-0.017721880139526188,-0.12063471892304442,0.178261031425899,0.0018931513538352682
2194,9.95780289999675,0.13036899969211724,0.013538860139160827,0.12734268001545815,0.08473957704209772,0.013117796096021508,0.0242666290779081,-0.09829566559599488,-0.10860731617715488,-0.01771202683286475,-0.11805569378351244,0.1818886337533545,0.002379332741096042
2195,9.961997399994289,0.13069111080785523,0.013189473550420482,0.12756517331619607,0.08429080611991012,0.012625166989092837,0.02418602921725787,-0.09882734409252444,-0.10777072931202936,-0.017699967017329198,-0.11547899865136337,0.185475098874734,0.002864197593227705
2196,9.96599939999578,0.1309665792224387,0.012876466979281636,0.12778810629382256,0.08383964080906468,0.012136385225335073,0.024105489765359638,-0.09934730044872093,-0.10691791000253172,-0.01768570677540653,-0.11290507793842852,0.18901971823265767,0.0033477517211512845
2197,9.9704378000024,0.13114848083128613,0.012487410442684928,0.12800601834283445,0.0833861344257075,0.011651524256594447,0.02402502070229458,-0.09985554826489423,-0.10604905046731387,-0.017669252156843857,-0.11033437338278382,0.1925217915667926,0.003830002067222371
2198,9.974778899995728,0.13137243609903676,0.012185676735066337,0.12823369801714382,0.08293034022016794,0.011170656651782266,0.023944631980419868,-0.10035210314191471,-0.10516434608943898,-0.017650609173475704,-0.10776732396951519,0.19598062705224903,0.004310956678559067
2199,9.978639099994323,0.13158531735197043,0.011862538716639325,0.12847377631776283,0.08247231136791332,0.010693854082587611,0.02386433352457977,-0.10083698266855416,-0.10426399537762439,-0.017629783794177727,-0.10520436585239719,0.1993955414358971,0.004790624679672128
2200,9.983258499996737,0.13179818237253163,0.011542674617675297,0.12873645391468602,0.0820121009605608,0.010221187309368164,0.02378413523233942,-0.10131020640847624,-0.10334819992687512,-0.017606781939950026,-0.10264593227649452,0.20276586017057954,0.0052690162444128325
2201,9.98740369999723,0.13202291530427124,0.011285050575988357,0.12893728834195517,0.08154976199694863,0.009752726167221915,0.0237040469742407,-0.10177179588688104,-0.10241716437851763,-0.017581609479133037,-0.10009245350169702,0.20609091754719608,0.005746142567254519
2202,9.991255400003864,0.13222682612439515,0.011035866565830362,0.12915952469805772,0.08108534737426762,0.009288539552242486,0.023624078594079532,-0.10222177457680771,-0.10147109637964409,-0.017554272222759106,-0.09754435672719848,0.20937005682463677,0.006222015833924078
2203,9.996689899999184,0.13244672282768974,0.010765464799265084,0.1294286353890535,0.08061890987925396,0.00882869540796072,0.023544239909203818,-0.10266016788509937,-0.10051020654197669,-0.017524775920042687,-0.09500206601692887,0.21260263035754184,0.0066966491914000744
2204,10.00043739999819,0.13259743388627354,0.010496497624871797,0.12962697060430428,0.08015050217944443,0.00837326071197509,0.023464540710831424,-0.10308700313803466,-0.09953470840016149,-0.01749312625401208,-0.09246600222594878,0.21578799972186588,0.0071700567172944705
2205,10.004365799992229,0.13276305229868895,0.010300215417296537,0.12984374685267602,0.07968017681449534,0.00792230146277348,0.023384990764387454,-0.10350230956663031,-0.09854481836950182,-0.017459328837285584,-0.08993658292781481,0.2189255358382254,0.007642253388635315
2206,10.007906300001196,0.13299959038454032,0.010107385745615318,0.13013774689427712,0.07920798618756708,0.007475882666748821,0.02330559980986009,-0.10390611829161844,-0.09754075570314104,-0.017423389207994806,-0.08741422234292458,0.22201461909300932,0.008113255050068003
2207,10.016780899997684,0.1334661005335172,0.009713648085826131,0.13065962497301317,0.07873398255677595,0.007034068325411027,0.023226377562174334,-0.10429846230810325,-0.09652274244870428,-0.01738531282585777,-0.08489933126784938,0.22505463945723234,0.008583078381493126
2208,10.020799099991564,0.13367848236944285,0.009561290429633745,0.13090823559451484,0.07825821802671486,0.006596921422797586,0.023147333711582868,-0.10467937646990166,-0.09549100340440958,-0.017345105068404452,-0.08239231700566288,0.22804499660311203,0.009051740865159188
2209,10.028752500002156,0.13404615548027207,0.009329383596937649,0.13136691818704432,0.07778074454004422,0.006164503913085141,0.023068477924073367,-0.10504889747357227,-0.0944457660746585,-0.017302771227357273,-0.07989358329727357,0.23098510001835182,0.009519260752228791
2210,10.03316160000395,0.1342239365484345,0.00921560990210372,0.13152933690961796,0.07730161386915455,0.0057368767084044125,0.022989819841791586,-0.10540706384213672,-0.09338726062511635,-0.017258316505169038,-0.0774035302537682,0.23387436911811216,0.009985657028837148
2211,10.037218600002234,0.1344150061004637,0.009092244766530904,0.1316691212551108,0.07682087760790171,0.005314099666860713,0.02291136908347938,-0.10575391590849859,-0.09231571983729261,-0.017211746011720583,-0.07492255428977357,0.236712233354654,0.010450949381662052
2212,10.041255399992224,0.13456664825343176,0.008988052778892442,0.1317781245159394,0.07633858716341627,0.004896231580762273,0.022833135244926854,-0.10608949579856441,-0.09123137906263254,-0.017163064761180444,-0.07245104805784358,0.23949813232463893,0.010915158163024694
2213,10.04719820000173,0.13472986361776995,0.008884875156045679,0.13190435597186154,0.0758547937479884,0.004483330165058549,0.022755127899437937,-0.10641384741407167,-0.09013447617613003,-0.017112277669028675,-0.06998940038387806,0.24223151587407213,0.011378304355540941
2214,10.054329399994458,0.13498660377751032,0.008737908520231718,0.13211254848407028,0.07536954837103034,0.004075452045990624,0.02267735659830858,-0.10672701641512816,-0.08902525152947266,-0.017059389549246906,-0.06753799620358021,0.24491184420087217,0.011840409536342914
2215,10.060138100001495,0.13510459808547293,0.008640798638390188,0.13222810051693246,0.07488290183111729,0.0036726527499557535,0.022599830871316774,-0.10702905020246778,-0.087903947903729,-0.017004405111676474,-0.0650972164999586,0.2475385879550536,0.012301495840890983
2216,10.066513400000986,0.13537094570271999,0.008536568636631015,0.13236226790328945,0.07439490470810821,0.003274986692588044,0.02252256022722366,-0.10731999789942713,-0.08677081046158887,-0.0169473289595464,-0.06266743824187991,0.25011122833651,0.012761585926396488
2217,10.070595299999695,0.13547837746054128,0.008493647914815586,0.13240176719839006,0.07390560735534793,0.002882507168057228,0.02244555415428495,-0.10759991033364767,-0.08562608669916785,-0.016888165587172942,-0.0602490343236783,0.2526292571903854,0.013220702934875707
2218,10.075098300003448,0.1355030202303095,0.008435909069203553,0.13243133161305076,0.07341505989195168,0.0024952663385874544,0.022368822120771913,-0.10786884001850781,-0.08447002639738764,-0.01682691937783241,-0.057842373505827445,0.25509217710002374,0.013678870455855778
2219,10.078982899998664,0.13561678053470697,0.00840227092259261,0.13243621620657783,0.07292331219517338,0.002113315224197962,0.022292373575501147,-0.10812684113428904,-0.08330288157294286,-0.0167635946018086,-0.05544782035668049,0.2574995014774853,0.014136112488753499
2220,10.08324979999452,0.13575346124185367,0.00839617473557526,0.1324308560038914,0.07243041389285888,0.0017367036926674612,0.022216217948372294,-0.10837396950908006,-0.08212490642886605,-0.016698195414616243,-0.05306573519528313,0.25985075465161955,0.014592453404948077
2221,10.087213699996935,0.13593722857188184,0.008406564965530449,0.13240673526818064,0.07193641435598523,0.0013654804497239695,0.022140364650912958,-0.10861028259942371,-0.08093635730470239,-0.016630725855401856,-0.0506964740352644,0.2621454719536835,0.01504791790956908
2222,10.091471699997784,0.13612328149569936,0.008410357870048403,0.13237715558039734,0.0714413626912872,0.000999693029461825,0.022064823076830012,-0.10883583947071149,-0.07973749262630513,-0.01656118984552323,-0.048340388529809916,0.2643831998004961,0.015502531003020965
2223,10.095877600004314,0.13629567600505751,0.008398648607232953,0.13232464269644736,0.07094530773397242,0.0006393877849875376,0.02198960260256641,-0.10905070077733067,-0.0785285728552628,-0.01648959118730869,-0.045997825917722,0.266563495775121,0.01595631794226575
2224,10.100401999996391,0.13644025361838605,0.008392598307528415,0.13226937599199365,0.07044829804052631,0.0002846098792960914,0.021914712587862716,-0.10925492874256944,-0.07730986043796911,-0.016415933562997077,-0.043669128970571014,0.2686859287050698,0.01640930420188541
2225,10.106050299989874,0.13657096696785642,0.008395063907864077,0.13225389326577594,0.06995038188160829,-6.459672362072778e-05,0.021840162376322494,-0.10944858713828527,-0.07608161975434642,-0.016340220533859286,-0.04135463594094211,0.2707500787380217,0.016861515434945736
2226,10.110681699996348,0.13671551180568423,0.008407069954288094,0.13222506480342858,0.06945160723504025,-0.0004081892674324577,0.021765961295980747,-0.10963174126434133,-0.07484411706623398,-0.016262455539502296,-0.03905468051178123,0.27275553741505176,0.017312977433683596
2227,10.115694299995084,0.13695423408995014,0.008424340945926121,0.13218068542062045,0.0689520217788885,-0.0007461262118930628,0.021692118659874544,-0.10980445792781639,-0.07359762046545247,-0.016182641897356256,-0.03676959174684382,0.2747019077413632,0.017763716090039645
2228,10.120306800003164,0.13705410427060447,0.008457288475849882,0.13221113943058455,0.06845167288464035,-0.001078367241027594,0.0216186437666151,-0.10996680542199347,-0.07234239982155592,-0.016100782802345146,-0.03449969404224992,0.27658880425452,0.018213757356058454
2229,10.1244841000007,0.13714707492373457,0.008488870394761075,0.1322020031880874,0.06795060761047625,-0.001404873271081035,0.02154554590096046,-0.11011885350513252,-0.07107872672928164,-0.01601688132674151,-0.03224530707914901,0.27841585309017675,0.01866312720417818
2230,10.132359399998675,0.13730965598528194,0.008558328243593375,0.13218937762940136,0.06744887269463859,-0.0017256064582280154,0.021472834334387923,-0.11026067337903234,-0.06980687445570956,-0.01593094042020567,-0.030006745777497387,0.2801826920453069,0.019111851587431852
2231,10.136451099999247,0.13745741572189846,0.00866082378719506,0.1322002538166175,0.06694651454889801,-0.0020405302060421114,0.021400518325665325,-0.11039233766738653,-0.06852711788714248,-0.015842962910009698,-0.02778432025095106,0.28188897063892543,0.019559956399582454
2232,10.14092520000122,0.1375615403830724,0.008705675715247144,0.1321956517991024,0.0664435792521176,-0.002349609172723513,0.02132860712142015,-0.11051392039393845,-0.06723973347571878,-0.01575295150144639,-0.025578335762876308,0.28353435017030426,0.020007467435213908
2233,10.146297200000843,0.1376776402655953,0.008746906183878056,0.13216613700431626,0.06594011254391613,-0.0026528092780838857,0.021257109956705635,-0.11062549696044051,-0.06594499918576832,-0.0156609087784233,-0.02338909268348051,0.2851185037746795,0.02045441034980024
2234,10.149745999995504,0.13778610758904436,0.008792254144965933,0.1321802246197334,0.0654361598184313,-0.0029500977102873025,0.02118603605556287,-0.11072714412442324,-0.06464319443992299,-0.01556683720424183,-0.02121688644806514,0.28664111647645324,0.02090081061977515
2235,10.157429799990496,0.1379993763633127,0.008876596218766174,0.13221141087695001,0.06493176611818355,-0.0032414429323461727,0.0211153946315781,-0.11081893997677951,-0.0633346000649934,-0.015470739122561368,-0.019062007516403,0.28810188523988867,0.021346693502624192
2236,10.161762699994142,0.13809390766999916,0.00889423810725219,0.13222701017997518,0.06442697612804156,-0.0035268146883711358,0.021045194888434388,-0.11090096391916882,-0.062019498237623066,-0.015372616758548315,-0.016924741333241365,0.289500519017299,0.021792083997021674
2237,10.165745299993432,0.13819433343025114,0.008906962557637425,0.13225380723132768,0.06392183416929069,-0.0038061840095739386,0.02097544602045689,-0.11097329664124586,-0.06069817242973148,-0.015272472220209773,-0.01480536828993278,0.2908367387947309,0.022237006803034386
2238,10.170579899990116,0.13829281346326647,0.00889030597334716,0.1322942860215598,0.06341638419380498,-0.0040795232200223925,0.020906157213151023,-0.11103602009771844,-0.05937090735375759,-0.015170307499911443,-0.01270416368719495,0.2921102776351442,0.02268148628241414
2239,10.17459389999567,0.13833629426513697,0.008878631765073471,0.1323228825618459,0.06291066977832353,-0.00434680594214655,0.020837337643732617,-0.11108921748523916,-0.058037988907714624,-0.015066124476079227,-0.010621397699001216,0.2933208807190925,0.023125546419001074
2240,10.178601999999955,0.13843497575046906,0.008845192682439034,0.13237106390948772,0.06240473411883242,-0.004608007101995277,0.020768996481649357,-0.11113297321913616,-0.05669970412006756,-0.014959924915083994,-0.008557335337602848,0.2944683053829054,0.02356921077925963
2241,10.182938400001149,0.13851266807249382,0.008807114821382233,0.1324197277948337,0.06189862002505279,-0.004863102934242466,0.020701142889092757,-0.11116737290998785,-0.055356341094444234,-0.014851710473308747,-0.006512236419684076,0.2955523211543768,0.02401250247296915
2242,10.187025399995036,0.13860799475238808,0.008782864609640681,0.13244392611397438,0.061392369915035605,-0.005112070986942167,0.02063378602149991,-0.1111925033400465,-0.0540081889541911,-0.01474148269939731,-0.004486355533650687,0.2965727097859616,0.02445544411409079
2243,10.191116799993324,0.13871558288678754,0.00877216265253098,0.13246524788331762,0.06088602580986376,-0.0053548901260319645,0.020566935028044204,-0.11120845243951635,-0.0526555377867849,-0.014629243036683691,-0.0024799420080528476,0.297529265285485,0.024898057781832305
2244,10.199108999993769,0.13897345498068656,0.008849361609754185,0.13261793339729339,0.060379629328461894,-0.005591540539583968,0.02050059905211412,-0.11121530926269112,-0.05129867858811137,-0.014514992825801175,-0.0004932398811426627,0.29842179394436813,0.025340364981932307
2245,10.203835399996024,0.13910098962858256,0.008874847303474336,0.13272475271297243,0.05987322168251423,-0.005822003741802856,0.020434787231779435,-0.11121316396395586,-0.0499379032066223,-0.014398733307469984,0.0014735121284331857,0.2992501143633759,0.025782386608185187
2246,10.2079614999966,0.13921856936822208,0.008898257168413293,0.13283314910878152,0.059366843671491136,-0.0060462625767704805,0.020369508700243955,-0.11120210777365819,-0.048573504287382094,-0.014280465625462332,0.0034200806498055096,0.3000140574758929,0.026224142904228014
2247,10.21251339999435,0.13931837908274883,0.008920959156866986,0.13293279597248647,0.05886053567778515,-0.006264301221936569,0.020304772586283954,-0.11118223297385323,-0.047205775216014816,-0.014160190829743544,0.00534623768691935,0.30071346656873443,0.026665653425610523
2248,10.216566599992802,0.13940549464708588,0.008908752609982654,0.13303491551730615,0.05835433766195697,-0.006476105191355117,0.020240588014671552,-0.11115363287392739,-0.045835010062562846,-0.01403790987978784,0.007251760644435476,0.30134819730050044,0.027106937002169103
2249,10.220425499996054,0.13946965039396098,0.008898304819490901,0.13315229681768803,0.057848289158091704,-0.006681661338666116,0.020176964106582367,-0.11111640178610595,-0.0444615035252681,-0.013913623648067247,0.009136432352496922,0.30191811771748,0.027548011700725596
2250,10.224448900000423,0.1395429423527374,0.008898808148504207,0.1332749650537812,0.05734242926926586,-0.006880957859822287,0.020113909979986588,-0.11107063500084863,-0.043085550874286914,-0.01378733292371208,0.011000041090360945,0.30242310826711505,0.027988894788131474
2251,10.228534399997445,0.1396071486286918,0.008874202289405192,0.13339144278613002,0.056836796663125404,-0.007073984295560547,0.020051434750022742,-0.11101642876213769,-0.0417074478953496,-0.013659038416341205,0.012842380608896978,0.3028630618090308,0.028429602694677508
2252,10.235283200003323,0.1396619477305992,0.008851337735539165,0.1335239989047972,0.05633142956757552,-0.007260731533617974,0.019989547529353363,-0.1109538802426641,-0.04032749083337565,-0.013528740760060304,0.014663250151951293,0.3032378836236419,0.028870150977889107
2253,10.23909219999041,0.1397244273254445,0.008887890873440002,0.1336332890299279,0.0558263657665822,-0.007441191810692115,0.019928257428501822,-0.11088308751891748,-0.03894597633605545,-0.013396440517626207,0.016462454476579146,0.30354749141834525,0.02931055428672706
2254,10.242950500003644,0.13982381210602352,0.008848445068770064,0.13375705827545223,0.05532164259608614,-0.007615358714145514,0.019867573556169568,-0.11080414954618469,-0.03756320139740931,-0.01326213818477528,0.01823980387214531,0.30379181533131056,0.02975082632621332
2255,10.246791800003848,0.1399047102964666,0.008794149530591974,0.13387286087599198,0.054817296940029514,-0.007783227183454359,0.019807505019533142,-0.11071716613346154,-0.03617946330133455,-0.013125834194713816,0.01999511417829407,0.3039707979328796,0.0301909798225011
2256,10.251425099995686,0.13998448934174015,0.00871525164924231,0.13402843661811834,0.054313365226496414,-0.007944793511401262,0.019748060924520194,-0.11062223791828225,-0.03479505956515124,-0.012987528922768261,0.021728206801789902,0.3040843942245866,0.030631026488408424
2257,10.256065800000217,0.1400992062061638,0.008618971239651007,0.13415512344032757,0.05380988342396749,-0.008100055345012173,0.019689250376063755,-0.11051946634147168,-0.03341028788315716,-0.012847222691193039,0.023438908732230125,0.304132571635812,0.031070976989433997
2258,10.260089899995364,0.14021252279609883,0.008528533027180873,0.13430251849347277,0.053306887037689085,-0.008249011686237524,0.019631082478334033,-0.11040895362182458,-0.032025446070202676,-0.012704915774133683,0.025127052556631013,0.3041153100180813,0.03151084091027391
2259,10.263867300003769,0.14036815797273053,0.008436070498223314,0.13443298860831387,0.05280441110615765,-0.008391662892377767,0.019573566334947043,-0.11029080273071704,-0.03064083200529593,-0.01256060840274285,0.026792476472889015,0.30403260163702034,0.03195062672185729
2260,10.26819770000293,0.14055488619286938,0.008351961916618252,0.13457329627566206,0.052302490197719584,-0.008528010676253504,0.019516711049149312,-0.11016511736665574,-0.02925674357524865,-0.012414300770446716,0.028435024302118864,0.3038844511619795,0.032390341748918985
2261,10.27217529999325,0.14077475081144308,0.008279616811789606,0.13479753916903417,0.05180115840728689,-0.008658058106120413,0.01946052572397806,-0.1100320019297701,-0.027873478618372926,-0.012265993038359197,0.03005454549987065,0.3036708756533404,0.032829992138127075
2262,10.2764024999924,0.14098429433386434,0.008189320626539239,0.13496168237785816,0.05130044935316899,-0.008781809605329186,0.019405019462396138,-0.10989156149625186,-0.026491334868239364,-0.012115685340841311,0.03165089516622795,0.30339190454751697,0.03326958282678281
2263,10.280817699996987,0.1411469270230821,0.008078783463651302,0.13512648998224946,0.050800396174020816,-0.008899270951730768,0.019350201367401017,-0.10974390179274726,-0.025110609897506787,-0.011963377791202911,0.03322393405478919,0.30304757963966455,0.03370911751210993
2264,10.287010799991547,0.14150604939892164,0.007821143049411734,0.13542200073753313,0.0503010315259076,-0.009010449276827254,0.019296080542107245,-0.10958912917070715,-0.023731601061833786,-0.011809070487543882,0.03477352858053429,0.3026379550641135,0.03414859862115034
2265,10.291248599998651,0.14168871519397333,0.00767487513757144,0.13557400985318585,0.049802387579486816,-0.00911535306466883,0.019242666089801755,-0.10942735058070005,-0.02235460544388232,-0.011652763518731903,0.03629955082657911,0.3021630972725433,0.03458802728128278
2266,10.29529769999499,0.1418997750789047,0.007535917113867757,0.13581052663569368,0.04930449601730772,-0.009213992150497124,0.019189967113971428,-0.10925867354669368,-0.0209799197974235,-0.011494456970513841,0.037801878549820096,0.30162308500990986,0.03502740329138039
2267,10.2994034000003,0.1420732562976718,0.007389548818703108,0.13600694024026017,0.04880738803122851,-0.009306377719135426,0.019137992718302292,-0.10908320614030936,-0.019607840491555544,-0.011334150931757709,0.039280395185471814,0.30101800928814226,0.035466725093622996
2268,10.303492999999436,0.14225908878403645,0.00722659463596239,0.13620615886228277,0.04831109431995116,-0.009392522303126326,0.019086752006649766,-0.10890105695505418,-0.01823866345504376,-0.011171845500822047,0.04073498985049998,0.30034797335762703,0.03590598974597949
2269,10.307928700000048,0.1424630292518241,0.007074833023067006,0.13642640663025365,0.047815645086673735,-0.009472439780617311,0.01903625408297939,-0.10871233508053527,-0.016872684120792375,-0.011007540792049613,0.04216555734595293,0.299613092676496,0.03634519289537544
2270,10.314681599993492,0.14263898384199183,0.00689008943233602,0.1366413278395891,0.04732107003686025,-0.009546145372994898,0.018986508051277353,-0.10851715007666174,-0.015510197370458056,-0.010841236942382048,0.04357199815819431,0.29881349487773545,0.03678432875156054
2271,10.318865900000674,0.142819049979132,0.006725815217788032,0.13687042271158148,0.04682739837612814,-0.009613655642267927,0.018937523015430245,-0.10831561194783965,-0.014151497479214783,-0.010672934118092128,0.04495421845903982,0.29794931973413286,0.03722339006169024
2272,10.324659199992311,0.1431394689622221,0.006421326916572387,0.13726549105318422,0.04633465880825326,-0.009674988488200687,0.01888930807907348,-0.10810783111716488,-0.012796878060679862,-0.010502632521630242,0.04631213010480137,0.2970207191210766,0.037662368085635486
2273,10.330927100003464,0.1433021324925654,0.006249121305290588,0.1374906373936958,0.04584287953329239,-0.00973016314519664,0.018841872345407875,-0.10789391840061882,-0.011446632012010653,-0.010330332398581617,0.04764565063424219,0.29602785697722717,0.03810125257203413
2274,10.334600799993495,0.14344478301167932,0.006081935795902367,0.1377255839010882,0.0453520882458234,-0.009779200178933483,0.018795224916983787,-0.10767398498127166,-0.010101051459181555,-0.010156034044730792,0.048954703265446396,0.2949709092630787,0.03854003173509687
2275,10.33815229999891,0.14356701678423922,0.005841527170883315,0.1379478432724258,0.04486231213330301,-0.009822121482750364,0.018749374895452336,-0.10744814238349813,-0.008760427702450712,-0.009979737813229752,0.05023921689160671,0.2938500639174267,0.03897869223218048
2276,10.346121099995798,0.14396705778959992,0.005405604143966847,0.13844616585072553,0.04437357787454227,-0.00985895027378805,0.0187043313812832,-0.10721650244721037,-0.007425051162025852,-0.009801444121866095,0.05149912607573375,0.292665520811763,0.03941721914214064
2277,10.350529199989978,0.14411351009631115,0.005203867742399643,0.1386554205761555,0.043885911638299566,-0.009889711088882973,0.018660103473448503,-0.10697917730211254,-0.006095211323938594,-0.009621153460427488,0.052734371044290906,0.29141749170261744,0.039855595944476276
2278,10.355617199995322,0.14423389161762068,0.004972045580395669,0.138891473812809,0.04339933908199108,-0.009914429780216087,0.018616700269072414,-0.1067362793419826,-0.004771196686136444,-0.009438866398158652,0.0539448976797587,0.29010620018186667,0.04029380449927712
2279,10.359894499997608,0.14438909872076772,0.004720474017178646,0.1391029599519283,0.04291388535051857,-0.009933133510717515,0.018574130863046052,-0.10648792119898635,-0.0034532947048016255,-0.009254583591307102,0.0551306575121329,0.28873188162502794,0.040731825027985634
2280,10.36377349999384,0.14454516681760157,0.00448201763354388,0.13945035290639526,0.04242957507521431,-0.009945850749227998,0.018532404347607404,-0.10623421571802891,-0.0021417917409058125,-0.009068305790753795,0.056291607709360716,0.28729478313755863,0.04116963609498381
2281,10.36724680000043,0.14474596985750884,0.004187872464369491,0.13975184010135416,0.04194643237290311,-0.009952611265418165,0.018491529811885905,-0.10597527593114799,-0.0008369730070096998,-0.008880033849724793,0.05742771106671934,0.2857951634991818,0.04160721459001527
2282,10.370800399992731,0.14474596985750884,0.004187872464369491,0.13975184010135416,0.0414644808450814,-0.009953446124466764,0.018451516341411414,-0.10571121503195374,0.00046087748568371146,-0.008689768731579985,0.058538935995141136,0.28423329310625656,0.0420445357114521
2283,10.37448199999926,0.1450732446732371,0.0035702403770935132,0.14041787903630235,0.04098374357721297,-0.009948387681498945,0.01841237301758717,-0.1054421463501197,0.0017514769800133078,-0.008497511517674894,0.05962525650849015,0.2826094539122125,0.04248157295041595
2284,10.378746399990632,0.14520612991118184,0.003263034023010007,0.1407372388346489,0.04050424313814125,-0.009937469575785755,0.01837410891712639,-0.10516818332593002,0.0030345440252728434,-0.008303263415291544,0.060686652209794245,0.28092393936606924,0.042918298075762355
2285,10.38341959999525,0.145322568212616,0.0029645035083881617,0.14109235229077846,0.04002600157961797,-0.009920726724706033,0.01833673311145221,-0.10488943948488762,0.004309798529344087,-0.008107025765634348,0.06172310827643759,0.2791770543490612,0.04335468111993698
2286,10.38716640000348,0.14546215597174142,0.002694234706941393,0.14142411279500094,0.03954904043594797,-0.009898195317471952,0.018300254666060736,-0.10460602841238811,0.005576961810541595,-0.00790880005188691,0.06273461544431767,0.27736911510938855,0.04379069036571182
2287,10.391138399994816,0.14560589576642138,0.0024767964176766882,0.1417281676299086,0.03907338072374995,-0.009869912808619513,0.01826468263984688,-0.10431806372846401,0.0068357566491606715,-0.007708587907325668,0.06372116999097208,0.27550044919511585,0.04422629233380902
2288,10.397653699998044,0.14579495711046775,0.002325781032802541,0.14205620640125952,0.03859904294183278,-0.009835917911265275,0.018230026084392822,-0.10402565906260323,0.008085907338720144,-0.0075063911234862345,0.0646827737176799,0.2735713953852378,0.04466145177141946
2289,10.405212700003176,0.14614145964712008,0.0019325091411287396,0.14278850891954267,0.038126047071187226,-0.009796250590130708,0.018196294043218837,-0.10372892802864624,0.00932713973689166,-0.007302211658378246,0.0656194339305437,0.2715823036189336,0.04509613164162284
2290,10.410641599999508,0.14628795762719898,0.0017313328344185225,0.14308981068305046,0.03765441257509252,-0.009750952054335576,0.018163495550996302,-0.10342798419976577,0.010559181316107325,-0.007096051644744528,0.06653116342055748,0.26953353492303184,0.045530293113715675
2291,10.416881099998136,0.14658354823075792,0.0013706876222467825,0.14371897816803297,0.03718415839933762,-0.00970006474996188,0.018131639632722674,-0.10312294108353362,0.011781761213837574,-0.006887913398360398,0.06741798044266624,0.26742546133770656,0.04596389555445274
2292,10.421763299993472,0.14674418823950966,0.0011998619203435566,0.14402070124098298,0.036715302972556416,-0.00964363235238985,0.018100735302858224,-0.10281391209707914,0.012994610282531354,-0.0066777994263689,0.06827990869382296,0.2652584658404266,0.04639689652020738
2293,10.42930649999471,0.1470535266554853,0.0007516639212624271,0.14452714670200506,0.036247864206676375,-0.009581699758407586,0.018070791564424427,-0.10250101054234405,0.014197461139210728,-0.006465712435647653,0.06911697729004866,0.2630329422681814,0.04682925175005582
2294,10.433401899994353,0.14718912333335596,0.0005918387818780613,0.1448194218503567,0.03578185949747994,-0.009514313078095903,0.01804181740806391,-0.10218434958143725,0.01539004821471213,-0.006251655341203036,0.06992922074250159,0.26074929523800583,0.047260915159790126
2295,10.437084799996228,0.14734275820786294,0.00041395386766240015,0.14508195818432917,0.0353173057252781,-0.009441519626489935,0.018013821811061936,-0.10186404221209448,0.01657210780256661,-0.006035631274587395,0.0707166789325616,0.2584079400658261,0.047691838836863856
2296,10.44134189999022,0.1474781140169389,0.00025529035103427286,0.14532428020790625,0.03485421925569578,-0.009363367915019167,0.01798681373632927,-0.10154020124324703,0.01774337810751145,-0.00581764359233494,0.07147939708593583,0.25600930268364813,0.04812197303627412
2297,10.445521799993005,0.14764734155399603,0.00010985153085946685,0.14554167059489898,0.034392615940568715,-0.00927990764272754,0.017960802131346452,-0.10121293927070392,0.01890359929362564,-0.005597695884412009,0.0722174257457916,0.25355381955511,0.048551266177383166
2298,10.449651599992649,0.1477878653427542,-6.376503615793637e-05,0.14577433427769462,0.03393251111895123,-0.009191189687275335,0.017935795927069422,-0.10088236865295167,0.020052513532081765,-0.005375791982677335,0.0729308207449233,0.2510419375894232,0.048979664841682195
2299,10.45372829999542,0.14792562993167416,-0.00023531950616166065,0.14599045823281148,0.033473919618234385,-0.009097266095724586,0.017911804036796434,-0.10054860148707642,0.02118986504850693,-0.005151935969347965,0.07361964317695978,0.2484741140537221,0.04940711377149961
2300,10.457740999991074,0.14807382706766062,-0.0004552463428337643,0.14618857608809094,0.033016855755374004,-0.00899819007510982,0.017888835354996323,-0.10021174958481285,0.022315400169945602,-0.004926132185466466,0.07428395936661895,0.24585081648384494,0.0498335558696557
2301,10.462585799992668,0.1481991876369745,-0.0006355350249656836,0.1463706759464229,0.03256133333822797,-0.008894015982795926,0.01786689875609808,-0.09987192444872392,0.023428867371417233,-0.004698385239365009,0.07492384083901582,0.2431725225935689,0.05025893220006502
2302,10.467437699990114,0.1483221784175037,-0.0008381858860298675,0.14653744111657044,0.032107365667002105,-0.008784799316624983,0.017846003093241778,-0.09952923724851616,0.024530017322061726,-0.004468700015121948,0.07553936428803093,0.24043972018232174,0.05068318198928728
2303,10.47241909999866,0.1484421973785826,-0.0010324030438877748,0.1467074559527257,0.031654965535804075,-0.008670596704853865,0.017826157196990912,-0.09918379879749466,0.025618602930865816,-0.004237081681006487,0.07613061154374624,0.2376529070413923,0.05110624262902754
2304,10.476430900002017,0.14856910553556837,-0.0012361665401542307,0.14687455118669773,0.03120414523430469,-0.008551465895884446,0.017807369874006298,-0.0988357195291619,0.026694379391963566,-0.004003535697907047,0.07669766953895567,0.23481259085866216,0.05152804967958584
2305,10.481128300001728,0.14869147695109952,-0.0014379063467808532,0.14704141169279555,0.030754916549506017,-0.008427465747788281,0.017789649905681635,-0.09848510947396472,0.027757104229504274,-0.0037680678277389303,0.07724063027475825,0.23191928912188142,0.05194853687425595
2306,10.484725899994372,0.14881557071430587,-0.001655051549016292,0.14719429310857987,0.0303072907676158,-0.008298656217627733,0.01777300604674082,-0.09813207823619398,0.02880653734208107,-0.003530684141826907,0.07775959078524172,0.22897352902051113,0.052367636124672365
2307,10.489983699997538,0.14894526389298618,-0.0018569388416817215,0.14733327412197667,0.02986127867602763,-0.008165098350575484,0.01775744702379729,-0.09777673497104103,0.02984244104671371,-0.003291391029258359,0.07825465310126356,0.22597584734615334,0.052785277527104
2308,10.499564400000963,0.14935799604196773,-0.002429820636579252,0.14783438552382627,0.02941689056540614,-0.008026854268834503,0.017742981533875407,-0.09741918836181544,0.030864580122379123,-0.0030501952052025953,0.07872592421333693,0.22292679039159238,0.05320138936969279
2309,10.503668699995616,0.14945828355871643,-0.0026811177302166183,0.14798513692133133,0.02897413623187645,-0.007883987160360447,0.017729618242894034,-0.09705954659732868,0.03187272185308349,-0.0028071037191919872,0.07917351603362993,0.21982691384847047,0.05361589814063494
2310,10.508931199990911,0.14957026311677868,-0.002880919375837227,0.14818032299588738,0.028533024979317152,-0.007736561267388538,0.017717365784112423,-0.09669791734944838,0.032866636070469926,-0.002562123963360601,0.07959754535708578,0.21667678270361967,0.05402872853730225
2311,10.512956899998244,0.1497355273638491,-0.003018995320984907,0.1484432716915141,0.028093565621756172,-0.007584641874767,0.01770623275653875,-0.09633440775082729,0.03384609519595572,-0.002315263680636015,0.07999813382167233,0.21347697113407185,0.05443980347630083
2312,10.516919599991525,0.149843633583706,-0.0031931180179510747,0.1486743041413887,0.02765576648586869,-0.007428295298099202,0.017696227723301542,-0.09596912437281138,0.03481087428239315,-0.002066530972880024,0.08037540786776887,0.210228062400769,0.054849044104463736
2313,10.5211752000032,0.14992072342718615,-0.0033351532626536267,0.1488874680891955,0.02721963541357629,-0.007267588871696646,0.017687359209984287,-0.09560217320353094,0.035760751055247814,-0.0018159343089739284,0.08072949869669908,0.206930648740997,0.055256369810773615
