,time,x,y,z,vx,vy,vz,ax,ay,az,jx,jy,jz
2327,9.35499589999381,0.008531625938153419,-0.002620464451923622,0.018002820757490837,0.007791197351707703,0.009789298859389886,0.0001739383989726561,0.014056777465085657,0.09433813023246364,-0.05146858487994201,0.013444569778054206,0.22552858149283603,-0.21731583410979097
2328,9.359686899988446,0.00855067396672542,-0.002609448758025783,0.018015144091223356,0.007848135085201961,0.010172617766460236,-3.595639740093803e-05,0.014111405891583361,0.09524797065223399,-0.05234855713638592,0.013503718334625504,0.22442682069815392,-0.21789509643610014
2329,9.363762099994346,0.00855663051328707,-0.0026097508637573565,0.018022470482252424,0.007905294800699075,0.010559607020123358,-0.0002494142648088081,0.01416627723056912,0.09615327977095786,-0.05323082787459814,0.013563416763655507,0.22328679707613858,-0.21845200395705047
2330,9.368322799986345,0.00856973356355301,-0.0026014230383523055,0.01801697922994201,0.00796267750382136,0.010950247990228375,-0.0004664443162731646,0.014221393516618969,0.09705390287174184,-0.05411530627665237,0.013623632956893755,0.22210850690190564,-0.21898633435836343
2331,9.37239459999546,0.008584037787697367,-0.0025970052477450973,0.01802676164225324,0.008020284207647608,0.01134452142107255,-0.0006870552960011247,0.014276756650483993,0.09794968523490329,-0.0550019006299577,0.01368433448008663,0.2208919531756676,-0.2194978678010249
2332,9.3761480999965,0.008584037787697367,-0.0025970052477450973,0.01802676164225324,0.008078115932146064,0.0117424074314435,-0.0009112555757884618,0.014332368397887216,0.09884047216520682,-0.05589051833733538,0.01374548857582858,0.2196371456588599,-0.2199863869757781
2333,9.380430099990916,0.008584037787697367,-0.0025970052477450973,0.01802676164225324,0.00813617370360292,0.012143885514771588,-0.0011390531514642495,0.014388230388335711,0.09972610901924635,-0.05678106592731557,0.013807062166363031,0.21834410090904433,-0.2204516771573714
2334,9.385760599994684,0.008593355762103018,-0.002611707944966055,0.018030554413651277,0.008194458554046463,0.012548934539393077,-0.0013704556393772868,0.014444344113947684,0.10060644123296754,-0.05767344906465343,0.013869021856335902,0.2170128423135709,-0.22089352625854844
2335,9.391034699990996,0.008607574890071206,-0.002592166926640399,0.018022917859067705,0.008252971520666917,0.012957532748924618,-0.0016054702729251917,0.014500710928294252,0.10148131434932547,-0.05856757256106347,0.013931333935504848,0.2156434001219803,-0.22131172488376671
2336,9.395026899990626,0.008607574890071206,-0.002592166926640399,0.018022917859067705,0.008311713645232125,0.0133696577627496,-0.0018441038991270408,0.01455733204525562,0.10235057404607238,-0.05946334038617128,0.013993964381407533,0.2142358114771282,-0.2217060663826323
2337,9.398542999988422,0.008616076462825542,-0.00261840015650152,0.01806963019492189,0.008370685973499077,0.013785286576616908,-0.0020863629752404292,0.014614208537891414,0.10321406616366957,-0.06036065567868159,0.014056878861992313,0.21279012044501366,-0.2220763469030365
2338,9.402318499996907,0.0085673120670248,-0.002612999139944514,0.018024954491506383,0.008429889554621445,0.014204395563352576,-0.0023322535654238183,0.014671341337324825,0.10407163673331835,-0.06125942075776141,0.014120042738214916,0.21130637804329344,-0.22242236544398056
2339,9.4061834999884,0.0085997067622127,-0.0026051042930561037,0.018025122563470223,0.008489325440553195,0.014626960473684806,-0.002581781337445035,0.014728731231640372,0.1049231320051041,-0.06215953713463702,0.014183421066604793,0.2097846422684643,-0.22274392390807463
2340,9.410749699993175,0.008608380966100372,-0.0026058665272878233,0.018026513301915244,0.008548994685448409,0.015052956437182798,-0.0028349515594367903,0.014786378864795063,0.10576839847624804,-0.06306090552440331,0.014246978601804962,0.20822497812169666,-0.22304082715369897
2341,9.414357999994536,0.008620656088815204,-0.002619234324019122,0.01802961648822771,0.008608898345057368,0.015482357963309885,-0.003091769096700076,0.01484428473554273,0.1066072829194612,-0.06396342585804446,0.014310679799089334,0.20662745763330265,-0.2233128830468138
2342,9.41790509999555,0.008637501100372359,-0.002629702469394506,0.018033950819004625,0.00866903747611899,0.015915138942591375,-0.0033522384085562943,0.014902449196371398,0.10743963241139534,-0.06486699729466487,0.014374488816861607,0.2049921598858226,-0.22355990251240349
2343,9.422034999995958,0.008722651134063217,-0.0026685622012426967,0.018058122854910257,0.008729413135749691,0.016351272647897507,-0.0036163635452489706,0.014960872452453654,0.10826529436118511,-0.06577151823392868,0.01443836951914014,0.20331917103571404,-0.22378169958554256
2344,9.42597259998729,0.008743838493987778,-0.00268054544041667,0.018061544178644102,0.008790026380828707,0.01679073173584189,-0.0038841481448958987,0.015019554560609839,0.1090841165390759,-0.06667688632870614,0.014502285478033302,0.20160858433362747,-0.22397809146206918
2345,9.4301936999982,0.008752422898272381,-0.0026827464938026994,0.018054828762218457,0.008850878267380007,0.01723348824829577,-0.004155595430492556,0.015078495428283933,0.109895947105132,-0.06758299849792554,0.014566199976209875,0.1998605001432529,-0.22414889854885414
2346,9.434176599999772,0.00876792460741719,-0.002675468733528065,0.018052817390969582,0.00891196984995086,0.017679513614018347,-0.004430708206967621,0.015137694812532035,0.11070063463801914,-0.0684897509396292,0.014630076009369263,0.19807502595872245,-0.22429394451365217
2347,9.43848069998785,0.008773186307827502,-0.0026806813142982605,0.018041782675286906,0.00897330218098715,0.01812877865040347,-0.004709488858291408,0.01519715231902319,0.11149802816385604,-0.0693970391442319,0.014693876288716374,0.1962522764205536,-0.22441305633452294
2348,9.442744399988442,0.008771590514565315,-0.002676772630190297,0.018028532072217177,0.009034876310205518,0.018581253565342903,-0.004991939344638048,0.015256867401052547,0.11228797718512892,-0.07030475790797977,0.0147575632434461,0.1943923733301182,-0.22450606434880807
2349,9.446794699993916,0.00871708079403076,-0.0026462451985190373,0.018004764470972132,0.009096693283962476,0.019036907959206456,-0.005278061199602212,0.015316839358566732,0.11307033170966345,-0.07121280134660814,0.014821099023242532,0.19249544566262236,-0.22457280230165014
2350,9.450915699999314,0.008708812503216302,-0.002637863603934095,0.01798870755803082,0.00915875414462052,0.01949571082693906,-0.005567855527471181,0.015377067337201374,0.11384494227964802,-0.07212106290919677,0.014884445500798055,0.19056162957858402,-0.2246131073940402
2351,9.455068799987204,0.008713745930036458,-0.0026411695802487432,0.017979694876717956,0.009221059929911395,0.01995763056027496,-0.005861323000553086,0.015437550327330797,0.11461166000070239,-0.07302943539222048,0.014947564274357627,0.18859106843379445,-0.22462682033038023
2352,9.45923349999066,0.00871435535786647,-0.002644399170805053,0.01796265552938712,0.00928361167229651,0.020422634950069234,-0.006158463856562108,0.015498287163129844,0.1153703365709854,-0.07393781095379305,0.015010416670293604,0.18658391278774936,-0.22461378536554716
2353,9.463487799992436,0.00872149228663484,-0.002642439836976905,0.01795568499365136,0.009346410398324567,0.020890691188746698,-0.006459277896061425,0.01555927652164778,0.11612082431033519,-0.07484608112810281,0.015072963745716568,0.1845403204105358,-0.22457385035144536
2354,9.467657699991832,0.008728319893919364,-0.002649657807938706,0.017953726485877695,0.009409457127986404,0.021361765872868366,-0.006763764479964705,0.015620516921894244,0.11686297618943536,-0.07575413684003796,0.01513516629112775,0.1824604562881617,-0.2245068667830352
2355,9.472009099990828,0.008733740953723722,-0.00265510684607956,0.017943408704000248,0.009472752874067165,0.021835825005815664,-0.007071922527096911,0.015682006723937186,0.11759664585900079,-0.07666186841999945,0.015196984833118677,0.18034449262631572,-0.22441268984382567
2356,9.475395699992076,0.008733740953723722,-0.00265510684607956,0.017943408704000248,0.00953629864149578,0.02231283400059238,-0.007383750511815165,0.0157437441280128,0.11832168767897755,-0.07756916561889914,0.015258379637123766,0.1781926088525457,-0.22429117845081703
2357,9.47992259998864,0.008760042592375082,-0.0026916863872590477,0.017988860865641318,0.009600095426691787,0.022792757682744382,-0.007699246461690443,0.01580572717364753,0.11903795674775072,-0.07847591762334055,0.015319310710231729,0.17600499161684446,-0.22414219529888227
2358,9.484561399993254,0.008807033327385694,-0.002703479655823839,0.01796950788080827,0.009664144216909554,0.023275560293397148,-0.008018407955250838,0.01586795373879221,0.119745308931353,-0.07938201307098008,0.015379737804061645,0.1737818347906303,-0.22396560690457418
2359,9.488655099994505,0.008833076630492646,-0.0027115048020445714,0.017956041476492813,0.009728445989579967,0.023761205492411057,-0.008341232119787129,0.01593042153896849,0.12044360089266797,-0.08028734006606614,0.015439620417709634,0.171523339464111,-0.22376128364934597
2360,9.493142799998168,0.008839495094157414,-0.0027178882007586652,0.01795777418398273,0.009793001711649632,0.024249656361654524,-0.008667715629221367,0.01599312812642769,0.12113269012062214,-0.08119178619515367,0.015498917800772187,0.16922971394202124,-0.22352909982217248
2361,9.496934199996758,0.008829146155343574,-0.0027188093317612703,0.017955654397027298,0.009857812338917677,0.02474087540839483,-0.008997854702039189,0.016056070889322184,0.12181243495935924,-0.08209523854299208,0.015557588956452168,0.16690117373772353,-0.2232689336615602
2362,9.50119409999752,0.008822797471946477,-0.0027241166688368283,0.017944872024120904,0.009922878815370214,0.025234824568806553,-0.009331645099286464,0.01611924705088966,0.12248269463738982,-0.08299758370858383,0.015615592644753573,0.16453794156566331,-0.2229806673969338
2363,9.5045223999914,0.008822797471946477,-0.0027241166688368283,0.017944872024120904,0.009988202072512489,0.025731465211597523,-0.009669082122630988,0.016182653668650297,0.12314332929670936,-0.08389870782141107,0.01567288738577117,0.16214024733216909,-0.22266418728938658
2364,9.508055399986915,0.008822797471946477,-0.0027241166688368283,0.017944872024120904,0.0100537830286988,0.026230758141752172,-0.010010160612489901,0.016246287633617074,0.12379420002187792,-0.08479849655782742,0.01572943146308114,0.1597083281245884,-0.2223193836717818
2365,9.51248879999912,0.008957382410449629,-0.002738545931525346,0.01803813929349339,0.010119622588460199,0.02673266360439206,-0.010354874946223482,0.01631014566951956,0.12443516886905405,-0.08569683515761232,0.015785182927238822,0.15724242819875106,-0.2219461509881926
2366,9.51740099999006,0.008788626952342584,-0.0027103174100377944,0.01795742523158941,0.010185721641830082,0.027237141288753347,-0.010703219036395987,0.016374224332041463,0.12506609889497547,-0.08659360844068488,0.015840099599389774,0.15474279896475002,-0.22154438783266842
2367,9.5238718999899,0.008869329515525373,-0.002730494100494921,0.017984759729854596,0.010252081063667708,0.027744150332280913,-0.011055186329104195,0.016438520008072284,0.12568685418588002,-0.08748870082397474,0.01589413907500036,0.15220969897103256,-0.221113996987316
2368,9.52803529999801,0.008881733086605146,-0.0027430203769587707,0.01799430093250955,0.010318701712979647,0.028253649324839026,-0.011410769802374317,0.0165030289149732,0.12629729988635954,-0.08838199633844732,0.015947258727714006,0.14964339388679482,-0.2206548854596836
2369,9.532154599990465,0.008881733086605146,-0.0027430203769587707,0.01799430093250955,0.01038558443223923,0.028765596313038252,-0.011769961964627923,0.016567747099857436,0.12689730222814005,-0.08927337864628065,0.015999415713339328,0.1470441564826724,-0.22016696451943743
2370,9.536350599999423,0.009026433150816514,-0.002768466243607031,0.018074078995431127,0.010452730046704122,0.029279948804678338,-0.012132754853217513,0.016632670438885482,0.12748672855878113,-0.09016273105819121,0.016050566973976374,0.14441226660972098,-0.2196501497343199
2371,9.5405471999984,0.008966167806516436,-0.0027720109660327443,0.017997237912519018,0.01052013936373207,0.029796663773306545,-0.012499140033032284,0.016697794636575537,0.12806544737028744,-0.09104993655090546,0.01610066924228721,0.14174801117668087,-0.21910436100537797
2372,9.544627099996433,0.008984784971049205,-0.002766043602461215,0.017968790375551824,0.010587813172094878,0.030315697662891314,-0.012869108595174657,0.016763115225129483,0.12863332832762553,-0.09193487778477429,0.01614967904591708,0.13905168412552119,-0.21852952260145142
2373,9.548662599991076,0.009012469127133759,-0.0027687072028929516,0.017937571363405094,0.010655752241290646,0.030837006392610906,-0.013242651155708158,0.016828627563774887,0.12919024229713885,-0.09281743712152768,0.016197552712072252,0.13632358640525796,-0.21792556319290915
2374,9.5519784999924,0.009025815369288608,-0.002765294674616923,0.017900256313053864,0.010723957320854328,0.031360545361756385,-0.013619757854477218,0.016894326838123443,0.12973606137485466,-0.09369749664216631,0.01624424637226053,0.13356402594404249,-0.21729241588462442
2375,9.555517599990708,0.009047464055977115,-0.0027614643670018906,0.017854552051238558,0.010792429139666672,0.031886269454748484,-0.01400041835399947,0.016960208059546407,0.1302706589146759,-0.09457493816498673,0.016289715967200448,0.1307733176195154,-0.21663001824817785
2376,9.559518799986108,0.00905982160744548,-0.0027459235351789723,0.017792063464386946,0.010861168405261596,0.03241413304626773,-0.014384621838431092,0.017026266064567506,0.13079390955645098,-0.09544964326373738,0.016333917251905226,0.1279517832274242,-0.21593831235327712
2377,9.563712899995153,0.009086068416988072,-0.0027315748745056264,0.017735543458474654,0.010930175803132084,0.03294409000649738,-0.014772357012605772,0.017092495514273817,0.13130568925391511,-0.09632149328590188,0.016376805800947292,0.12509975144850108,-0.21521724479838217
2378,9.567076299994367,0.009086068416988072,-0.0027315748745056264,0.017735543458474654,0.010999451996034623,0.033476093706478804,-0.01516361210114793,0.017158890893745164,0.13180587530249607,-0.09719036937110581,0.01641833701390927,0.12221755781359915,-0.2144667667405253
2379,9.5704926999897,0.009086068416988072,-0.0027315748745056264,0.017735543458474654,0.0110689976232922,0.03401009702357878,-0.01555837484766067,0.017225446511502613,0.13229434636697693,-0.09805615246964383,0.016458466121027113,0.11930554466708512,-0.21368683392431587
2380,9.574759799987078,0.009259877030556689,-0.002729523014465249,0.017771929827524836,0.011138813300095916,0.03454605234706809,-0.015956632513988905,0.017292156498976696,0.13277098250900837,-0.0989187233611233,0.016497148189031037,0.11636406112848774,-0.2128774067101187
2381,9.582527399994431,0.009211068872946485,-0.0026907629464121697,0.017448502338067374,0.0112088996168053,0.035083911583810815,-0.016358371879558128,0.017359014809996083,0.13323566521446295,-0.09977796267322073,0.016534338127189956,0.11339346305240147,-0.21203845010139727
2382,9.586123199987924,0.009256635159180748,-0.0026849724592013314,0.01737726321224281,0.011279257138247354,0.03562362616406378,-0.016763579240789337,0.017426015220297245,0.13368827742062445,-0.10063375090054742,0.016569990693564945,0.11039411298664463,-0.2111699337712115
2383,9.590733499993805,0.00931214662731195,-0.0026817350533963236,0.017293360609464195,0.011349886403014419,0.03616514704738565,-0.017172240410590567,0.017493151327055867,0.13412870354320572,-0.10148596842362062,0.016604060501477225,0.10736638012867182,-0.21027183208786038
2384,9.5945742999902,0.009369934421149442,-0.0026714380094936484,0.017217459993075585,0.011420787922760904,0.03670842472865486,-0.017584340717925487,0.017560416548440753,0.13455682950318887,-0.10233449552793636,0.016636502026195925,0.10431064028024077,-0.20934412413965978
2385,9.598938199997065,0.00942502772757577,-0.0026728390694959305,0.017148936193439306,0.011491962181499005,0.03725340924419574,-0.017999865007459353,0.01762780412319093,0.13497254275348125,-0.10317921242314032,0.01666726961185069,0.10122727580033493,-0.20838679375884678
2386,9.602335399991716,0.00942502772757577,-0.0026728390694959305,0.017148936193439306,0.011563409634893473,0.03780005017801227,-0.018418797639282735,0.017695307110216663,0.13537573230537941,-0.10401999926229291,0.016696317478574117,0.09811667555634339,-0.20739982954460243
2387,9.605755599986878,0.009605933759051841,-0.002702456069865898,0.017167889532707648,0.011635130709555503,0.03834829666812869,-0.018841122488713304,0.01776291838822517,0.13576628875483343,-0.1048567361612252,0.01672359972987891,0.09497923487350014,-0.20638322488518424
2388,9.609778799989726,0.009584354366362407,-0.0026855502772121925,0.016948563452410047,0.011707125802335868,0.03889809741303626,-0.019266822946175974,0.017830630655371844,0.13614410430850382,-0.10568930321798217,0.016749070360274555,0.09181535548258558,-0.20533697797915962
2389,9.613796899997396,0.009645909514562435,-0.0026684006661063823,0.016901302596550434,0.011779395279617449,0.039449400678245504,-0.019695881917161668,0.01789843642893776,0.13650907280960425,-0.10651758053234929,0.016772683263128113,0.08862544546589397,-0.20426109185573108
2390,9.61796719999984,0.009702594404466714,-0.002646659442122108,0.016834800121784937,0.011851939476607249,0.0400021543029429,-0.02012828182226497,0.01796632804503439,0.13686108976352404,-0.10734144822545925,0.016794392238773572,0.08540991920147005,-0.20315557439414492
2391,9.62196989999211,0.009732435942987904,-0.0026395712751478674,0.01675900623613824,0.01192475869662794,0.0405563057067512,-0.020564004597300966,0.018034297658336307,0.13720005236322302,-0.10816078645947522,0.016814151002874,0.08216919730561874,-0.2020204383421758
2392,9.626007799990475,0.009757899313123004,-0.0026146319999783203,0.016688522008703487,0.011997853210408933,0.04111180189659267,-0.021003031693501543,0.01810233724184284,0.1375258595143911,-0.10897547545734666,0.016831913195040533,0.07890370657369297,-0.20085570133367986
2393,9.630348399994546,0.009790726412247347,-0.002584618156884238,0.016625968424112427,0.012071223255377125,0.04166858947365435,-0.02144534407779126,0.018170438586669464,0.13783841186036602,-0.10978539552263396,0.016847632387712187,0.07561387991916545,-0.19966138590520907
2394,9.634380599993165,0.00982850762129459,-0.002549545718054388,0.01657537690952855,0.01214486903494744,0.042226614640454456,-0.021890922233143,0.018238593301869884,0.13813761180680267,-0.1105904270593977,0.016861262095300176,0.07230015631099093,-0.1984375195116815
2395,9.639689499992528,0.00986240210361691,-0.0025114114320941906,0.01651842914766512,0.01221879071781327,0.04278582320800889,-0.022339746159013685,0.018306792814289853,0.13842336354608822,-0.11139045059214908,0.016872755783600247,0.06896298070926578,-0.19718413454110037
2396,9.643052499988698,0.009902347891530572,-0.0024659500459427953,0.01646749076500085,0.012292988437236922,0.043346160603097,-0.02279179537186039,0.018375028368453658,0.13869557308149494,-0.1121853467858569,0.016882066879476344,0.06560280399919186,-0.19590126832831464
2397,9.647106899996288,0.009944135911156048,-0.0024220169258333526,0.016423484834454424,0.012367462290340216,0.04390757187562569,-0.02324704890573722,0.018443291026484225,0.13895414825106375,-0.11297499646600723,0.01688914878081866,0.06222008292335261,-0.1945889631678149
2398,9.651321199999074,0.01000249582342083,-0.0023664891159017928,0.01639523648175821,0.012442212337395373,0.04447000170609065,-0.023705485312973177,0.018511571668057922,0.1391989987512114,-0.11375928063871166,0.016893954866778978,0.058815280012309554,-0.19324726632555764
2399,9.655469899997115,0.010052222044972855,-0.0023164005947122106,0.01636262269825922,0.01251723860111632,0.045033394413133754,-0.0241670826649313,0.018579860990395113,0.13943003616005414,-0.1145380805108603,0.016896438508285937,0.0553888635135282,-0.19187623004981233
2400,9.65971159999026,0.010124006265945241,-0.002261826796248199,0.016344153358819464,0.012592541065950652,0.045597693961195306,-0.024631818552849107,0.018648149508287543,0.13964717396044124,-0.1153112775103157,0.016896553078842667,0.05194130731864327,-0.1904759115810258
2401,9.663893299992196,0.01017865385790863,-0.002195602854563857,0.01631300103532072,0.012668119677372342,0.04616284396825997,-0.02509967008876051,0.01871642755416364,0.13985032756269042,-0.1160787533061439,0.016894251965609057,0.048473090889072604,-0.1890463731606991
2402,9.667893599995296,0.010236843312982033,-0.0021349352217766688,0.016300959883230617,0.012743974341175348,0.046728787713695104,-0.025570613906499378,0.018784685278192777,0.14003941432701958,-0.11684038982887918,0.016889488580770703,0.04498469917999067,-0.18758768203927303
2403,9.672047299987751,0.01028843966080803,-0.0020970057415551926,0.0162526371773392,0.012820104922768263,0.04729546814618055,-0.02604462616278494,0.018852912648429462,0.14021435358566775,-0.11759606929081846,0.01688221637319625,0.04147662256267299,-0.18609991048301747
2404,9.67597699999169,0.010353164587461834,-0.0020368913838666775,0.016229092034914364,0.012896511246470115,0.047862827891728355,-0.02652168253838918,0.01892109945099859,0.14037506666469882,-0.11834567420634143,0.016872388840384694,0.037949356745223164,-0.18458313577992014
2405,9.679441899992526,0.010353164587461834,-0.0020368913838666775,0.016229092034914364,0.012973193094807435,0.04843080926179113,-0.02700175823938629,0.018989235290322957,0.14052147690548103,-0.11908908741225194,0.016859959540703875,0.034403402691694875,-0.18303744024457044
2406,9.68265089999477,0.010353164587461834,-0.0020368913838666775,0.016229092034914364,0.013050150207812786,0.04899935426145746,-0.027484827998484375,0.01905730958939415,0.14065350968583668,-0.11982619208813675,0.01684488210592127,0.03083926653962153,-0.18146291122203423
2407,9.687104799988449,0.010548476146109032,-0.001978484989028921,0.016296859579807563,0.01312738228232484,0.04956840459773307,-0.027970866076439536,0.019125311590087946,0.14077109244085595,-0.12055687177673768,0.01682711025402778,0.02725745951596681,-0.17985964109071553
2408,9.690500899989274,0.010548476146109032,-0.001978484989028921,0.016296859579807563,0.01320488897129017,0.05013790168790628,-0.028459846263552413,0.01919323035352549,0.1408741546833684,-0.12128101040433256,0.016806597802354856,0.023658497851509912,-0.17822772726420152
2409,9.694690999996965,0.010643154557428897,-0.0018563051015388166,0.016218098682039786,0.013282669883066913,0.050707786667996614,-0.028951741881247186,0.019261054760481434,0.14096262802406564,-0.1219984923011202,0.016783298680985156,0.02004290269367993,-0.1765672721920873
2410,9.698054199994658,0.010643154557428897,-0.0018563051015388166,0.016218098682039786,0.013360724580730524,0.05127800040128496,-0.029446525783732937,0.019328773511840272,0.14103644619126984,-0.12270920222160568,0.016757166946456594,0.016411200017854444,-0.1748783833597769
2411,9.701630699986708,0.010704314588472623,-0.001724058496644925,0.016106360257454835,0.013439052581381708,0.051848483486924,-0.029944170359747443,0.019396375129101993,0.1410955450503408,-0.12341302536498214,0.016728156795759366,0.012763920537137832,-0.17316117328725672
2412,9.704873700000462,0.010704314588472623,-0.001724058496644925,0.016106360257454835,0.013517653355456741,0.05241917626862751,-0.030444647534383334,0.01946384795493833,0.14113986262271588,-0.12410984739550514,0.016696222580625305,0.009101599610635504,-0.17141575952683819
2413,9.709088399991742,0.010846979896242033,-0.0016286714184521325,0.01602245472077761,0.01359652632604026,0.05299001884343676,-0.030947928770996783,0.01953118015380081,0.1411693391045758,-0.12479955446285551,0.016661318822108608,0.00542477715024069,-0.16964226465986804
2414,9.713374899991322,0.010942100886246253,-0.0014845690484822805,0.015926035410572345,0.013675670868180743,0.053560951070562315,-0.03145398507319886,0.01959835971258184,0.14118391688513104,-0.12548203322248638,0.016623400225456705,0.0017339975259509735,-0.16784081629240374
2415,9.71786199999042,0.011035033356091465,-0.0014245872881967526,0.01589630883613135,0.013755086308208807,0.054131912580299535,-0.0319627869869296,0.019665374441329996,0.1411835405645236,-0.12615717085594977,0.016582421695269595,-0.0019701905302677556,-0.16601154704985302
2416,9.72198919999937,0.011149113300497842,-0.0013529879714697375,0.015866645069868564,0.013834771923058552,0.054702842783016396,-0.032474304602614544,0.019732211974020714,0.14116815697133728,-0.12682485509119887,0.01653833835094571,-0.005687234022051649,-0.16415459457057596
2417,9.726096399987,0.011241633386633476,-0.0012647474201558306,0.015846189330841094,0.01391472693959212,0.055273680878211974,-0.032988507557403735,0.01979885976938342,0.14113771517971047,-0.12748497422286273,0.016491105542412118,-0.009416575787624785,-0.16227010149844853
2418,9.73026659998868,0.01134618386476456,-0.0011965741897904541,0.015805593500705085,0.013994950533927727,0.05584436586364381,-0.033505365037493136,0.01986530511178642,0.14109216652604445,-0.1281374171324887,0.016440678866136666,-0.013157654600181316,-0.16035821547438744
2419,9.73445659999561,0.011404258841891349,-0.0011232880438160836,0.015775062325837978,0.014075441830771316,0.05641483654452242,-0.034024845780528244,0.019931535112180696,0.1410314646253013,-0.12878207330874855,0.01638701418141931,-0.016909905269644067,-0.15841908912683592
2420,9.738607799998135,0.011465819180879622,-0.0010356830356793197,0.015728098991962303,0.014156199902751956,0.056985031542771375,-0.03454691807808961,0.019997536709103723,0.14095556538688597,-0.12941883286760378,0.016330067626959474,-0.020672758745779278,-0.15645288006120997
2421,9.74278869999398,0.011527892357760841,-0.0009583231779235412,0.015684367846598993,0.014237223769761179,0.05755488930635114,-0.03507154977826032,0.020063296669744494,0.14086442703010643,-0.13004758657242474,0.016269795637696143,-0.024445642222646655,-0.15445975084830504
2422,9.74690249998821,0.011585289939682768,-0.0008730125556085786,0.015642494901567515,0.014318512398296452,0.05812434811864517,-0.03559870828827528,0.020128801591070927,0.14075801009920713,-0.13066822585406035,0.016206154961916897,-0.028227979244363422,-0.1524398690116629
2423,9.751038999995217,0.011656808290869824,-0.0007747196657633158,0.015591678753606054,0.014400064700809114,0.05869334610790597,-0.03612836057725204,0.020194037901020857,0.14063627747797053,-0.1312806428308536,0.016139102678632066,-0.032019189812160495,-0.15039340701389853
2424,9.755177299986826,0.01172062053976211,-0.0006756474282319594,0.015549375421683798,0.014481879535056918,0.05926182125675936,-0.03666047317900288,0.020258991859757713,0.14049919440388098,-0.1318847303285995,0.016068596215209598,-0.035818690492708465,-0.14832054224198735
2425,9.758569899990109,0.01172062053976211,-0.0006756474282319594,0.015549375421683798,0.0145639557034614,0.05982971141176539,-0.03719501219492808,0.02032364956099201,0.14034672848184576,-0.1324803819004409,0.015994593365265933,-0.039625894527690574,-0.1462214569915136
2426,9.762274599997909,0.01172062053976211,-0.0006756474282319594,0.015549375421683798,0.014646291952470351,0.060396954293033926,-0.03773194329699014,0.020387996933369817,0.14017884969746758,-0.13306749184669892,0.01591705230680797,-0.04344021194459921,-0.1440963384498809
2427,9.768365899988568,0.011870602707323347,-0.0003219463457863369,0.015378050873628453,0.014728886971925594,0.060963487503892695,-0.03827123173076876,0.02045201974192935,0.13999553042986362,-0.1336459552346338,0.015835931620620688,-0.047261049668731965,-0.14194537867848686
2428,9.77200269998866,0.012005509527749288,-0.00017090430400703408,0.0153435012999956,0.014811739394436361,0.06152924854060567,-0.03881284231859643,0.020515703589626722,0.13979674546402648,-0.13421566791813275,0.01575119030889485,-0.051087811636362716,-0.13976877459386342
2429,9.776529599999776,0.012098441071436119,-4.203257189321205e-05,0.015297264320570924,0.014894847794758507,0.06209417480213989,-0.03935673946277428,0.020579033918932035,0.13958247200272128,-0.13477652655731998,0.015662787814088804,-0.05491989890906296,-0.1375667279477849
2430,9.779981399988174,0.012098441071436119,-4.203257189321205e-05,0.015297264320570924,0.014978210689179778,0.06265820359997891,-0.039902887148867784,0.0206419960134969,0.13935268967791564,-0.13532842863808495,0.015570684038018307,-0.058756709789148286,-0.13533944530634717
2431,9.784083899998222,0.012297919985637848,5.5302153657482835e-05,0.015269665051377545,0.015061826534911421,0.06322127216798114,-0.040451248949081954,0.02070457499989442,0.13910738056173805,-0.1358712724915248,0.015474839361167872,-0.06259763993622441,-0.1330871380280213
2432,9.788175599998794,0.012417911588502608,0.0003697789815444901,0.015102512719892637,0.015145693729486386,0.0637833176722811,-0.041001788025715816,0.02076675584943267,0.13884652917696055,-0.1364049573132967,0.015375214662216873,-0.06644208248480671,-0.13081002224068522
2433,9.791791999989073,0.012417911588502608,0.0003697789815444901,0.015102512719892637,0.015229810610164353,0.06434427722123143,-0.04155446713469589,0.020828523380042697,0.13857012250700115,-0.13692938318287584,0.015271771337773117,-0.07028942816298663,-0.12850831881763533
2434,9.795271499999217,0.012417911588502608,0.0003697789815444901,0.015102512719892637,0.015314175453343796,0.06490408787538367,-0.042109248629188266,0.020889862258242062,0.13827815000544205,-0.13744445108271555,0.015164471322306514,-0.07413906541211833,-0.12618225335258193
2435,9.798686299996916,0.012417911588502608,0.0003697789815444901,0.015102512719892637,0.01539878647398138,0.06546268665750614,-0.04266609446328867,0.020950757001174984,0.1379706036050604,-0.1379500629173049,0.015053277108275077,-0.07799038050749789,-0.12383205613363173
2436,9.802095899998676,0.012633025569017346,0.00047570135997764874,0.015070160243634396,0.015483641825019125,0.06602001056263686,-0.04322496619579031,0.02101119197872989,0.13764747772636785,-0.138446121532121,0.014938151766435141,-0.08184275768000736,-0.12145796211626197
2437,9.806039799994323,0.012820696672936092,0.000867605904295417,0.01475453827445035,0.015568739596819599,0.06657599656816952,-0.04378582499402918,0.021071151415735314,0.1373087692856557,-0.13893253073247072,0.0148190589663274,-0.08569557923869565,-0.11906021089529036
2438,9.809539999987464,0.012820696672936092,0.000867605904295417,0.01475453827445035,0.01565407781660944,0.06713058164397058,-0.044348631637806585,0.021130619394234947,0.13695447770254152,-0.13940919530222004,0.014695962996930186,-0.08954822569426774,-0.11663904667584486
2439,9.81277649999538,0.012820696672936092,0.000867605904295417,0.01475453827445035,0.015739654447931642,0.06768370276252555,-0.04491334652338828,0.02118957985584277,0.13658460490701438,-0.13987602102240548,0.014568828787470976,-0.09340007588345312,-0.11419471824333922
2440,9.8160535999923,0.012820696672936092,0.000867605904295417,0.01475453827445035,0.015825467390106818,0.06823529690911254,-0.04547992966758007,0.02124801660417917,0.13619915534597524,-0.14033291468972392,0.014437621928386877,-0.09725050709422375,-0.11172747893245899
2441,9.819822999997996,0.012971710200273542,0.0010003933556343297,0.014690346920604745,0.015911514477703653,0.06878530109200061,-0.04604834071187942,0.02130591330738874,0.1357981359892691,-0.14077978413489578,0.014302308692424468,-0.10109889519183153,-0.10923758659516361
2442,9.82396239999798,0.013260306737603561,0.0014658549487074637,0.01438678431662199,0.01599779348001896,0.06933365235267173,-0.04661853892670234,0.021363253500740573,0.13538155633520493,-0.14121653824089755,0.014162856055869154,-0.10494461474563516,-0.10672530356770982
2443,9.828348499999263,0.013397738455641859,0.0016212799793041046,0.01429991886426168,0.016084302100567483,0.06988028777606384,-0.04719048321568502,0.021420020589311816,0.13494942841556018,-0.1416430869610605,0.014019231719893919,-0.10878703915668561,-0.10419089663670174
2444,9.832103499997174,0.01351469667055594,0.001752299089996924,0.014171997942376087,0.016171037976581846,0.070425144500833,-0.04776413212005954,0.021476197850755194,0.13450176680006715,-0.14205934133703138,0.013871404132016997,-0.11262554078603915,-0.101634637004174
2445,9.835508799995296,0.01351469667055594,0.001752299089996924,0.014171997942376087,0.016257998678522914,0.07096815972963261,-0.04833944382310332,0.02153176843815119,0.13403858860037815,-0.14246521351659056,0.013719342507657833,-0.11645949108376667,-0.09905680025171412
2446,9.839574699988589,0.013646430568026073,0.0018730084254143938,0.014108834055220554,0.016345181709601014,0.07150927073940759,-0.048916376154661434,0.021586715382945595,0.13355991347350774,-0.14286061677132292,0.013563016851780324,-0.12028826071862786,-0.09645766630363119
2447,9.842937199995504,0.013892023254348839,0.00221167883205625,0.01385482096111537,0.016432584505308195,0.07204841489170093,-0.04949488659574127,0.02164102159797298,0.13306576362474945,-0.14324546551413783,0.013402397980612124,-0.12411121970837788,-0.09383751938917734
2448,9.847111799987031,0.014136268812078433,0.0023705691502059313,0.013734230693353737,0.016520204432961837,0.07258552964297041,-0.05007493228317866,0.021694669880566494,0.13255616381006466,-0.14361967531663514,0.013237457543428468,-0.1279277375506742,-0.0911966480038294
2449,9.851165899992338,0.014298994533781492,0.0025191441855662,0.013622208036312332,0.016608038791259844,0.07312055255491365,-0.05065647001437464,0.02174764291575469,0.13203114133794058,-0.14398316292631239,0.013068168044388748,-0.13173718335455128,-0.08853534486963804
2450,9.854827299990577,0.014298994533781492,0.0025191441855662,0.013622208036312332,0.016696084809847803,0.07365342130479909,-0.05123945625210207,0.021799923279545753,0.13149072607071643,-0.14433584628360988,0.012894502864413956,-0.1355389259724311,-0.08585390689465261
2451,9.858275199992931,0.014298994533781492,0.0025191441855662,0.013622208036312332,0.016784339648898472,0.07418407369580067,-0.05182384712938106,0.021851493442299617,0.1309349504253748,-0.14467764453879062,0.012716436283092832,-0.13933233413263493,-0.08315263513143002
2452,9.86163059998944,0.014298994533781492,0.0025191441855662,0.013622208036312332,0.016872800398703786,0.07471244766733405,-0.05240959845442256,0.021902335772188142,0.13036384937379628,-0.1450084780686513,0.012533943500604166,-0.14311677657236277,-0.08043183473463611
2453,9.864918399995076,0.014298994533781492,0.0025191441855662,0.013622208036312332,0.0169614640792797,0.07523848130539203,-0.05299666571563919,0.02195243253874368,0.1297774604424748,-0.14532826849306024,0.012347000659642561,-0.1468916221711069,-0.07769181491774733
2454,9.868218099989464,0.01444654969121864,0.002706118777151332,0.013529327599413608,0.01705032763998429,0.07576211285287718,-0.05358500408672286,0.022001765916496156,0.12917582371169173,-0.14563693869131863,0.01215558486733477,-0.15065624008446504,-0.07493288890886164
2455,9.871932699999888,0.01489560040907955,0.003318967419915557,0.012881374175334411,0.017139387959149356,0.07628328071992949,-0.054174568431788465,0.022050317988698793,0.12855898181414596,-0.14593441281834144,0.011959674217133521,-0.15440999987831888,-0.07215537390562735
2456,9.876045299999532,0.015127578431052755,0.003573872571565608,0.01279230155556887,0.017228641843725905,0.07680192349424733,-0.0547653133105833,0.022098070751142493,0.12792697993303803,-0.1462206163206536,0.01175924781067551,-0.1581522716633435,-0.06935959102929955
2457,9.879397099997732,0.015127578431052755,0.003573872571565608,0.01279230155556887,0.017318086028943754,0.07731797995139954,-0.05535719298376109,0.022145006116058973,0.12727986579960723,-0.14649547595219808,0.011554285779590065,-0.16188242622981253,-0.06654586527793326
2458,9.882717899992713,0.015127578431052755,0.003573872571565608,0.01279230155556887,0.01740771717798566,0.07783138906512599,-0.05595016141822035,0.022191105916112626,0.12661768969012005,-0.14675891978995192,0.011344769307244797,-0.1655998351826637,-0.06371452547872267
2459,9.88626599998679,0.015273076109652763,0.0037405472421012972,0.012681299214957711,0.017497531881676357,0.07834209001762443,-0.056544172292506294,0.022236351908481004,0.12594050442230878,-0.1470108772493479,0.011130680650414317,-0.1693038710767899,-0.06086590423949679
2460,9.889725099987118,0.015273076109652763,0.0037405472421012972,0.012681299214957711,0.017587526658186917,0.0788500222098217,-0.05713917900227554,0.022280725779023847,0.12524836535125983,-0.14725127909949715,0.01091200316085801,-0.17299390755252084,-0.058000337899381554
2461,9.89309030000004,0.015273076109652763,0.0037405472421012972,0.012681299214957711,0.017677697952754715,0.079355125271627,-0.057735134665822335,0.022324209146540402,0.12454133036475143,-0.1474800574782087,0.010688721306792574,-0.17666931947125883,-0.05511816647863853
2462,9.897063199998229,0.015715653138053207,0.004157451186544271,0.012392527667377085,0.017768042137419338,0.07985733907216536,-0.0583319921296658,0.02236678356711477,0.1238194598780407,-0.1476971459068019,0.010460820694244961,-0.18032948305123295,-0.05221973362769055
2463,9.901335899994592,0.01603113997588514,0.004837274351217421,0.011869195005278351,0.017858555510774796,0.08035660372998894,-0.05892970397419713,0.022408430538548955,0.12308281682809863,-0.14790247930470962,0.010228288088271155,-0.18397377600333545,-0.0493053865753451
2464,9.9054080999922,0.01613108122677353,0.00505965165234682,0.011678334919573406,0.017949234297738342,0.0808528596232643,-0.05952822251938596,0.022449131504883275,0.12233146666729218,-0.14809599400386853,0.009991111434026137,-0.1876015776670053,-0.04637547607622613
2465,9.90944999999192,0.016293812248756676,0.005336579991504211,0.011523762428234883,0.018040074649336227,0.0813460473999329,-0.060127499830544565,0.02248886786100367,0.1215654773565136,-0.14827762776289385,0.009749279877670302,-0.19121226914612247,-0.043430356357425585
2466,9.913600599989875,0.016455170034968724,0.00560539456764936,0.011373476114602689,0.01813107264250667,0.08183610798784277,-0.06072748772414917,0.022527620957335445,0.12078491935775736,-0.14844731978103537,0.009502783787097416,-0.19480523344487663,-0.04047038506438597
2467,9.917100899998331,0.016455170034968724,0.00560539456764936,0.011373476114602689,0.018222224279920495,0.0823229826048492,-0.061328137773717276,0.022565372104622793,0.11998986562614494,-0.14860501071191137,0.009251614772469122,-0.19837985560357427,-0.0374959232060255
2468,9.920566699991468,0.016455170034968724,0.00560539456764936,0.011373476114602689,0.018313525489819748,0.0828066127688823,-0.06192940131574017,0.02260210257879351,0.11918039160139726,-0.14875064267701743,0.008995765706540947,-0.20193552283434754,-0.0345073350991175
2469,9.925698199993349,0.017137209154836006,0.006388903577314104,0.010926460224769022,0.01840497212587473,0.08328694030797927,-0.06253122945566972,0.022637793625908238,0.11835657519875536,-0.1488841592790076,0.008735230744764602,-0.2054716246567294,-0.031504988311935836
2470,9.930157199996756,0.01719605259811263,0.006668774882177264,0.010748291585290483,0.0184965599670598,0.0837639073702789,-0.06313357307395887,0.022672426467193564,0.11751849679935011,-0.14900550561474582,0.008470005345151356,-0.20898755303305852,-0.028489253607178508
2471,9.934517099987715,0.017373004527173934,0.006938234892354999,0.010513742575446487,0.018588284717548403,0.08423745643397684,-0.06373638283215514,0.022705982304158188,0.11666623924002156,-0.14911462828812383,0.008200086287881204,-0.2124827025036774,-0.025460504884181587
2472,9.938769899992622,0.017551545807038785,0.007185441823738558,0.010308076841902195,0.01868014200662764,0.0847075303172393,-0.06433960917904612,0.02273844232379119,0.11579988780258899,-0.14921147542264376,0.007925471694642496,-0.21595647032188653,-0.02241911912043599
2473,9.942062399990393,0.017551545807038785,0.007185441823738558,0.010308076841902195,0.018772127388632764,0.08517407218807288,-0.06494320235685563,0.022769787703841474,0.11491953020257299,-0.14929599667376264,0.007646161047686587,-0.21940825658861754,-0.019365476312419652
2474,9.945830199998454,0.017551545807038785,0.007185441823738558,0.010308076841902195,0.018864236342901936,0.08563702557414825,-0.06554711240748957,0.022799999618177386,0.11402525657737114,-0.1493681432409957,0.007362155208582083,-0.2228374643867889,-0.0162999594157579
2475,9.951297599996906,0.01921514167365092,0.00796694877360012,0.009969277160720358,0.0189564642737515,0.08609633437257516,-0.06615128917882981,0.022829059242225336,0.11311715947388824,-0.14942786787977558,0.00707345643665326,-0.22624349991530673,-0.013222954284724968
2476,9.955403799991473,0.018634615816906386,0.008303621807331506,0.009450860868330295,0.019048806510472097,0.0865519428596272,-0.06675568233107503,0.02285694775848629,0.11219533383562291,-0.14947512491306422,0.006780068407087177,-0.22962577262267356,-0.01013484961109974
2477,9.959570299994084,0.018810925541830087,0.00862660971918144,0.009223174743640811,0.01914125830734585,0.08700379570041382,-0.06736024134312697,0.022883646362128997,0.111259876989212,-0.14950987024271473,0.006481996228694013,-0.23298369534016775,-0.0070360368623889336
2478,9.964095099989208,0.019110783384749103,0.008966005916396154,0.009015908690172712,0.019233814843684947,0.08745183795849784,-0.06796491551902142,0.02290913626665869,0.11031088863043437,-0.1495320613605802,0.006179246461305224,-0.23631668441455708,-0.003926910219431075
2479,9.967890599989914,0.019329235101719307,0.009289230046535918,0.008799691787356248,0.019326471223891892,0.08789601510545582,-0.06856965399440218,0.022933398709659904,0.10934847080967705,-0.14954165735936642,0.0058718271327941425,-0.23962415984030866,-0.0008078665133947531
2480,9.971332999994049,0.019329235101719307,0.009289230046535918,0.008799691787356248,0.019419222477541815,0.08833627303037922,-0.06917440574303708,0.02295641495861214,0.1083727279168662,-0.14953861894322537,0.005559747755703669,-0.2429055453912568,0.002320694837815216
2481,9.974678999991738,0.019329235101719307,0.009289230046535918,0.008799691787356248,0.01951206355948714,0.08877255804931389,-0.06977911958337467,0.022978166316776787,0.10738376666586498,-0.14952290843808785,0.005243019343465709,-0.2461602687516909,0.005458371893729916
2482,9.979188999990583,0.019933267280620802,0.009645027814031829,0.008683152656765374,0.019604989349984954,0.08920481691463548,-0.07038374418514072,0.022998634129154004,0.10638169607834122,-0.14949448980173233,0.004921654426197082,-0.24938776164682572,0.008604760256052819
2483,9.98438389999501,0.020282728672503116,0.010870211857584211,0.007817160111527485,0.01969799465484725,0.08963299682435859,-0.07098822807597359,0.023017799788507952,0.10536662746710777,-0.1494533286335873,0.004595667066056755,-0.25258745997261733,0.011759453133946579
2484,9.988550499998382,0.02047088898421424,0.01116213834904953,0.007542399233563198,0.01979107420561436,0.09005704543137719,-0.07159251964809694,0.023035644741458854,0.10433867441893863,-0.14939939218426476,0.004265072872149275,-0.2557588039248872,0.014922041409855938
2485,9.992812999989836,0.02062996121710025,0.011559057483325154,0.007230209047790268,0.01988422265975184,0.09047691085263468,-0.07219656716502897,0.023052150494640176,0.10329795277686371,-0.14933264936482288,0.003929889014959442,-0.25890123812771915,0.018092113705852494
2486,9.997038699992116,0.020821727287411346,0.012010307619598027,0.006982525684693886,0.019977434600871105,0.09089254167822139,-0.0728003187683274,0.023067298620919156,0.10224458062194619,-0.1492530707557558,0.003590134240303337,-0.26201421176109296,0.021269256450486922
2487,10.001131499986514,0.02101721009286177,0.012386052042547155,0.006783460734050876,0.020070704538974138,0.09130388698039785,-0.07340372248436905,0.023081070765678745,0.10117867825454474,-0.1491606286157099,0.0032458288827809396,-0.26509717868771987,0.02445305394613414
2488,10.004657299999964,0.02101721009286177,0.012386052042547155,0.006783460734050876,0.020164026910722516,0.09171089632254184,-0.07400672623116282,0.023093448653159092,0.10010036817506396,-0.14905529688992356,0.0028969948787157273,-0.26814959757904167,0.02764308843681669
2489,10.008079699997324,0.02101721009286177,0.012386052042547155,0.006783460734050876,0.0202573960797311,0.09211351976801699,-0.07460927782519547,0.023104414092856598,0.09900977506419649,-0.14893705121838857,0.0025436557785667923,-0.2711709320403571,0.0308389401764916
2490,10.01161729999876,0.02101721009286177,0.012386052042547155,0.006783460734050876,0.020350806336886622,0.09251170788896071,-0.07521132498830897,0.02311394898597854,0.09790702576266061,-0.14880586894373063,0.0021858367587991824,-0.2741606507350404,0.034040187497785854
2491,10.01584079999884,0.02130278713636572,0.012781178405360196,0.0066356245907516365,0.02044425190069139,0.09290541177499015,-0.07581281535460799,0.023122035331951115,0.09679224925043733,-0.14866172911880793,0.001823564633198324,-0.27711822750781756,0.03724640688116564
2492,10.019617499987362,0.0219000499164983,0.014202807148375504,0.0061337670941639865,0.020537726917632323,0.0932945830418243,-0.07641369647739636,0.023128655234978698,0.09566557662551092,-0.1485046125140261,0.0014568678636145721,-0.28004314150706244,0.0404571730245244
2493,10.02289199999359,0.022166060631657932,0.014593763536123221,0.005904214377108205,0.02063122546257562,0.09367917383982043,-0.07701391583614145,0.023133790910652204,0.09452714108211713,-0.14833450162436795,0.0010857765701241138,-0.28293487730607964,0.043672058913174314
2494,10.026389299993753,0.022166060631657932,0.014593763536123221,0.005904214377108205,0.020724741539187398,0.09405913686242268,-0.07761342084346497,0.02313742469260424,0.09337707788850311,-0.14815138067613667,0.0007103225405926631,-0.2857929250233385,0.046890635890226046
2495,10.030362399993464,0.022567177507344965,0.015056517637713136,0.005801836083032937,0.02081826908038053,0.09443442535452068,-0.07821215885215894,0.023139539039208734,0.09221552436420326,-0.14795523563341115,0.000330539239628613,-0.2886167804416254,0.05011247372734143
2496,10.034680999990089,0.02298649935578041,0.015950409538478316,0.00534936103599362,0.020911801948787955,0.09480499312071596,-0.07881007716222582,0.023140116540322636,0.09104261985683526,-0.14774605420421177,-5.3538183087452495e-05,-0.2914059451260794,0.05333714069584365
2497,10.038554599988856,0.0233193240923608,0.016388529709087694,0.005124904616018899,0.02100533393726274,0.0951707945334945,-0.07940712302794178,0.023139139924067246,0.08985850571842076,-0.14752382584637605,-0.00044187288510975063,-0.29415992654107476,0.05656420363816951
2498,10.042013699989184,0.0233193240923608,0.016388529709087694,0.005124904616018899,0.021098858769404972,0.09553178454130339,-0.08000324366494233,0.023136592063646686,0.08866332528123567,-0.14728854177314343,-0.0008344263241834047,-0.2968782381659161,0.059793228039648205
2499,10.045691199993598,0.023602261894936697,0.01682575206212154,0.004886644172096674,0.021192370100115744,0.09588791867652946,-0.08059838625732901,0.023132455984200804,0.08745722383319494,-0.14704019495844864,-0.001231158251862001,-0.29956039960931286,0.06302377810059118
2500,10.050874900000052,0.024267899836346828,0.017726996136326778,0.004275936146580533,0.021285861516178405,0.0962391530633785,-0.08119249796479572,0.02312671486968982,0.08624034859277636,-0.1467787801419216,-0.0016320267077986604,-0.3022059367225997,0.0662554168086772
2501,10.0552033999993,0.02455277186031882,0.018231814878141257,0.0038948168687725658,0.021379326536867235,0.09658544442565234,-0.08178552592977317,0.02311935206980798,0.08501284868348874,-0.14650429383359287,-0.0020369880147224017,-0.3048143817116711,0.06948770601161738
2502,10.059459799987962,0.024875403787015322,0.01870701381989934,0.003507031970718029,0.021472758614583743,0.09692675009442157,-0.08237741728459076,0.023110351106923537,0.08377487510788965,-0.14621673431830315,-0.002445996774111282,-0.3073852732475963,0.07272020649008427
2503,10.063555299988366,0.0251479097181226,0.01917586074797405,0.003011027856041357,0.021566151135520732,0.09726302801559189,-0.08296811915865444,0.02309969568304211,0.08252658072115861,-0.14591610165981542,-0.002859005862573481,-0.30991815657588156,0.0759524780308899
2504,10.067750599991996,0.02549893148813142,0.019695121616784723,0.002579234524031141,0.021659497420354303,0.09759423675736209,-0.08355757868563993,0.023087369686790607,0.0812681202042313,-0.14560239770462868,-0.003275966428947174,-0.31241258362434476,0.0791840795003972
2505,10.072168399987277,0.025702070064369215,0.02026480006921999,0.0021561890948935585,0.021752790724964,0.09792033551757238,-0.08414574301069991,0.02307335720041885,0.07999965003650118,-0.14527562608549366,-0.003696827892129729,-0.3148681131095711,0.08241456891814906
2506,10.07632689998718,0.025876455098840224,0.02076852680403816,0.0015724766365296677,0.021846024241181154,0.0982412841309407,-0.08473255929768402,0.023057642506815763,0.07872132846809375,-0.14493579222462952,-0.004121537939646383,-0.3172843106419193,0.08564350353069974
2507,10.080504999990808,0.02606925000903952,0.021370516918511474,0.0009889665729545148,0.021939191097565543,0.09855704307618521,-0.0853179747363702,0.023040210096537082,0.07743331549171911,-0.14458290333664112,-0.004550042526968229,-0.3196607488290469,0.08887043988563283
2508,10.084525799989931,0.02632361695347293,0.02188248707094172,0.0003615061125715075,0.0220322843602105,0.0988675734830316,-0.08590193654970625,0.023021044674841666,0.07613577281410934,-0.14421696843113666,-0.0049822858775889515,-0.3219970073779231,0.09209493390575021
2509,10.088685099995928,0.02650764766782271,0.022429948750185915,-0.00019640586987307686,0.02212529703357659,0.09917283713910359,-0.08648439200106037,0.02300013116873328,0.07482886382704652,-0.14383799831504596,-0.005418210483869403,-0.32429267319530003,0.09531654096341628
2510,10.092118399988976,0.02650764766782271,0.022429948750185915,-0.00019640586987307686,0.022218222061354036,0.09947279649669437,-0.0870652884014798,0.022977454734004643,0.07351275357798794,-0.14344600559464055,-0.005857757108658724,-0.32654734048661066,0.09853481595504163
2511,10.095611599987024,0.02650764766782271,0.022429948750185915,-0.00019640586987307686,0.02231105232735381,0.09976741467941742,-0.08764457311695618,0.022953000762280462,0.07218760874029423,-0.14304100467725522,-0.006300864787700321,-0.3287606108532651,0.10174931337569061
2512,10.09983699998702,0.02676469609241621,0.02301660096161563,-0.0006603438276137046,0.0224037806564274,0.10005665548873492,-0.08822219357569647,0.022926754888056153,0.07085359758306702,-0.1426230117727108,-0.006747470832830598,-0.33093209338831675,0.10495958739379725
2513,10.105290699997568,0.02693534059220782,0.024981781504043538,-0.0026048575264449258,0.022496399815415215,0.10034048341036213,-0.08879809727539806,0.022898702995729055,0.0695108899406027,-0.14219204489443718,-0.007197510835977954,-0.33306140477046825,0.10816519192597311
2514,10.109637599991402,0.027020621606933196,0.025643204684720262,-0.003198335255913166,0.022588902514123668,0.10061886362054638,-0.08937223179052725,0.02286883122661893,0.06815965718146973,-0.1417481238602961,-0.0076509186739691,-0.33514816935638736,0.11136568071189158
2515,10.11366599999019,0.02712650808697226,0.026371662854367126,-0.0038050352033763483,0.0226812814063309,0.10089176199221907,-0.08994454477960033,0.022837125985974576,0.06680007217721581,-0.14129127029310354,-0.008107626514149313,-0.3371920192713052,0.1145606073892327
2516,10.11716749999323,0.02712650808697226,0.026371662854367126,-0.0038050352033763483,0.022773529090821112,0.10115914510101891,-0.090514983992466,0.0228035739499632,0.06543230927071225,-0.14082150762085172,-0.008567564820822842,-0.33919259449786904,0.11774952556867226
2517,10.120546499994816,0.02712650808697226,0.026371662854367126,-0.0038050352033763483,0.022865638112447493,0.10142098023118491,-0.09108349727758806,0.022768162072639115,0.06405654424414199,-0.14033886107662952,-0.00903066236251921,-0.3411495429632214,0.12093198890889958
2518,10.124095199993462,0.02730967362495464,0.0271205897761708,-0.004232587490499104,0.02295760096322364,0.10167723538131744,-0.09165003258932683,0.022730877592888183,0.06267295428663891,-0.1398433576982418,-0.00949684622009073,-0.34306252062428066,0.12410755119164835
2519,10.128076299995882,0.027323531843501603,0.028666005599455528,-0.00545304514218973,0.02304941008344351,0.10192787927000593,-0.09221453799521817,0.02269170804134448,0.06128171796158585,-0.1393350263275266,-0.009966041795646136,-0.3449311915511957,0.1272757663967249
2520,10.132361799987848,0.02711663142452389,0.029447004640305467,-0.006034553993902426,0.023141057862829818,0.10217288134132146,-0.09277696168324909,0.022650641247275723,0.059883015173578934,-0.1388138976093707,-0.010438172822324704,-0.3467552280089505,0.13043618877701896
2521,10.136412499996368,0.027173755420562513,0.030306387435009182,-0.006566166901137528,0.02323253664171104,0.10241221177017332,-0.09333725196912941,0.022607665345433986,0.05847702713506571,-0.13828000399042403,-0.010913161374914805,-0.34853431053709405,0.1335883729334814
2522,10.139992099997473,0.027173755420562513,0.030306387435009182,-0.006566166901137528,0.023323838712226878,0.10264584146752832,-0.09389535730355884,0.022562768782868257,0.05706393633266449,-0.1377333797175122,-0.011390927881320291,-0.3502681280275728,0.13673187389005403
2523,10.14361439998902,0.027511919374150037,0.031148406769798152,-0.00683294280467946,0.023414956319562235,0.10287374208549153,-0.09445122627948802,0.022515940325695292,0.05564392649317266,-0.13717406083574796,-0.011871391134877656,-0.3519563778006398,0.13986624716853688
2524,10.147306799990474,0.02723234440913329,0.03267344154505168,-0.008030892172639907,0.023505881663209594,0.10309588602224715,-0.09500480763937226,0.022467169065825278,0.05421718254927239,-0.13660208518634073,-0.012354468307526408,-0.35359876567881837,0.1429910488633774
2525,10.151165799994487,0.02723234440913329,0.03267344154505168,-0.008030892172639907,0.02359660689825962,0.10331224642685843,-0.09555605028241676,0.02241644442763872,0.05278389060494191,-0.13601749240410554,-0.012840074963834647,-0.35519500605889454,0.1461058357163677
2526,10.155136599991238,0.027378041756277213,0.03361358641718248,-0.008256879692276387,0.023687124136719806,0.1035227972039258,-0.09610490327181208,0.022363756174610935,0.051344237900580784,-0.13542032391467068,-0.013328125075881327,-0.3567448219819144,0.149210165191234
2527,10.159361199999694,0.026848362581499273,0.03522611389154594,-0.009444358300716604,0.023777425448861085,0.10372751301810165,-0.09665131584195871,0.022309094415880432,0.04989841277785756,-0.13481062293138454,-0.013818531038996135,-0.3582479452011619,0.15230359554810352
2528,10.162756999998235,0.026848362581499273,0.03522611389154594,-0.009444358300716604,0.023867502864592202,0.103926369298461,-0.09719523740567933,0.02225244961275751,0.048446604644288356,-0.13418843445192197,-0.014311203688357421,-0.3597041162480975,0.15538568591783397
2529,10.169770499996956,0.027166017572392807,0.03604280097508745,-0.009722385643746275,0.023957348374861707,0.1041193422427265,-0.09773661756141701,0.022193812585169552,0.04698900393755474,-0.13355380525459118,-0.014806052316448106,-0.36111308449623725,0.15845599637618976
2530,10.173787499996251,0.026584402695737218,0.03765438084337118,-0.010830818933631945,0.0240469539330872,0.1043064088213472,-0.0982754061004179,0.02213317451803942,0.04552580208956913,-0.13290678389434155,-0.015302984691368971,-0.3624746082229512,0.16151408801784967
2531,10.177247899991926,0.0264925832857605,0.03848227780379737,-0.011348497404181934,0.024136311456611638,0.10448754678142957,-0.09881155301389694,0.022070526967593124,0.04405719149029661,-0.13224742069847323,-0.015801907076008155,-0.36378845466916204,0.16455952303023128
2532,10.181071299986796,0.02617313281915177,0.03935878214213636,-0.011948812684113396,0.02422541282818648,0.1046627346505196,-0.0993450085001855,0.02200586186759332,0.04258336545134138,-0.1315757677620498,-0.016302724248065153,-0.3650544000969256,0.1675918647671172
2533,10.184595799990348,0.026042282843676524,0.04016669656437212,-0.012458960208141807,0.02431424989748143,0.10483195174023516,-0.0998757229718598,0.021939171535495024,0.04110451816930648,-0.13089187894301454,-0.016805339520927196,-0.3662722298448726,0.17061067782206835
2534,10.18875949998619,0.02583855972192781,0.040956209558705596,-0.01301481642981997,0.024402814482620442,0.10499517814974792,-0.10040364706284836,0.021870448678519873,0.03962084468893557,-0.13019580985701118,-0.017309654765395126,-0.3674417383814951,0.1736155281016107
2535,10.19242989999475,0.02583855972192781,0.040956209558705596,-0.01301481642981997,0.02449109837174369,0.10515239476911448,-0.10092873163551812,0.021799686399645423,0.03813254086604547,-0.12948761787190988,-0.017815570432255474,-0.3685627293562587,0.17660598289818252
2536,10.196877099995618,0.025177135972651976,0.04259733112887815,-0.013958529958160144,0.02457909332459517,0.10530358328245601,-0.10145092778773794,0.021726878203505898,0.03663980333025857,-0.12876736210203943,-0.01832298557569491,-0.36963501564852597,0.17958161096282793
2537,10.201044299989007,0.02494882382892231,0.043346714218809985,-0.014506051271722487,0.024666791074135552,0.10544872617098557,-0.10197018685991892,0.021652018002200835,0.0351428294475438,-0.12803510340212654,-0.018831797877552844,-0.370658419414272,0.18254198257762277
2538,10.205026599986011,0.024640617905330717,0.04410890558150719,-0.014935034823552497,0.024754183328179948,0.10558780671588247,-0.10248646044203018,0.021575100121008012,0.03364181728257515,-0.12729090436094348,-0.01934190367240731,-0.3716327721305798,0.18548666962781876
2539,10.209341499998118,0.024371217413372667,0.04481174694521534,-0.015429540952971993,0.024841261771060233,0.10572080900101287,-0.10299970038058931,0.02149611930399705,0.03213696556091676,-0.12653482929466542,-0.01985319797348866,-0.37255791463789684,0.18841524567369167
2540,10.213671499994234,0.02409876991226637,0.04556630355848551,-0.015922330688770466,0.024928018065311443,0.10584771791549599,-0.1035098587856263,0.02141507071954014,0.03062847363104376,-0.1257669442399385,-0.02036557449941518,-0.37343369718003955,0.19132728602207955
2541,10.217795499993372,0.02382613900751517,0.046318415667330054,-0.016349969417716242,0.025014443853381838,0.10596851915611567,-0.10401688803761973,0.021331949965716482,0.029116541426207926,-0.12498731694665997,-0.020878925701744055,-0.37425997944193373,0.19422236779759677
2542,10.221910399995975,0.02353278531836226,0.047032783645924676,-0.016801726065598595,0.02510053075936615,0.10608319922957676,-0.10452074079440384,0.02124675307560689,0.027601369426157478,-0.12419601687047174,-0.021393142793330683,-0.37503663058507847,0.1971000700135099
2543,10.22598289999587,0.023176278425693163,0.04783117114007627,-0.017238450997745854,0.025186270390761455,0.10619174545460579,-0.10502136999804498,0.021159476522475146,0.02608315861872036,-0.12339311516496883,-0.021908115777488735,-0.375763529280721,0.19995997364226337
2544,10.230233499998576,0.022885463939143192,0.04867196816157271,-0.01764481233344673,0.0252716543402452,0.10629414596389494,-0.10551872888168622,0.021070117224832575,0.024562110461260382,-0.1225786846736237,-0.02242373347794278,-0.37644056374073176,0.20280166168564256
2545,10.234441199994762,0.02261439908746074,0.049478468883721885,-0.018056806622295113,0.02535667418747493,0.106390389705889,-0.10601277097635808,0.02097867255138238,0.023038426842015593,-0.12175279992142765,-0.022939883569564893,-0.37706763174616825,0.20562471924456127
2546,10.238557599994238,0.022201555931833303,0.05034159112721163,-0.018508642306960674,0.02544132150090927,0.10648046644641446,-0.10650345011775476,0.02088514032584039,0.0215123100413283,-0.1209155371062508,-0.023456452609886127,-0.3776446406735175,0.20842873358846067
2547,10.242981799994595,0.021784826924931614,0.05123364333530817,-0.018968108071500588,0.025525587839649727,0.10656436677015123,-0.10699072045297489,0.020789518831628686,0.019983962692776105,-0.12006697408992281,-0.023973326071373195,-0.3781715075186076,0.2112132942243074
2548,10.246914499992272,0.02140569598681637,0.05210877719554419,-0.01936296165455258,0.02560946475530283,0.10664208208194717,-0.10747453644722586,0.020691806816438826,0.018453587744213257,-0.11920719038903554,-0.024490388374459982,-0.37864815891818043,0.2139779929651792
2549,10.250990499989712,0.020943159350595,0.0530061904759506,-0.019807767165488217,0.025692943793861965,0.1067136046079747,-0.10795485289049073,0.020592003496661487,0.016921388418731843,-0.11833626716546965,-0.02500752292132315,-0.37907453116911716,0.2167224239984257
2550,10.255387400000473,0.020512133122417286,0.053845477493651386,-0.020219751154061442,0.025776016497608387,0.1067789273967291,-0.10843162490415645,0.020490108561679297,0.015387568175552344,-0.11745428721664683,-0.025524612130390718,-0.37945057024530976,0.21944618395339202
2551,10.259493799996562,0.020087151419374002,0.05464556674521931,-0.020659781367003204,0.025858674407030723,0.10683804431986779,-0.1089048079476027,0.020386122178019623,0.013852330670853168,-0.11656133496550995,-0.026041537471571834,-0.37977623181216935,0.22214887196869343
2552,10.263670399988769,0.019597850002403702,0.055229766046082096,-0.021169236053572238,0.02594090906276241,0.1068909500728908,-0.10937435782475015,0.020280044993364117,0.012315879718548754,-0.11565749645023327,-0.02655817950219552,-0.38005148123876403,0.22483008975902852
2553,10.267826199997216,0.019342780472535792,0.05618731710080012,-0.0214577678078035,0.026022712007536423,0.10693764017566243,-0.1098402306905675,0.020171878140412,0.010778419251025835,-0.11474285931366485,-0.027074417903645592,-0.3802762936075778,0.22748944168151877
2554,10.271858899999645,0.01887342773731188,0.05673141281791703,-0.021937799694035705,0.02610407478815678,0.10697811097277458,-0.11030238305753576,0.020061623240594177,0.009240153279847481,-0.11381751279250274,-0.027590131518678486,-0.380450653721884,0.23012653480156472
2555,10.27620009999373,0.018474717282066525,0.05736573779083016,-0.02228631060856448,0.026184988957486246,0.10701235963375219,-0.1107607718020692,0.019949282407635213,0.007701285856434568,-0.11288154770620679,-0.028105198389410183,-0.380574556110728,0.2327409789582066
2556,10.28030579999904,0.01810643237284298,0.05799648815997608,-0.022644198668699555,0.026265446076449574,0.10704038415310048,-0.111215354170892,0.01983485825096015,0.006162021032734391,-0.11193505644564859,-0.028619495795957902,-0.38064800503151336,0.2353323868289792
2557,10.284407499988449,0.017737074271231952,0.058559485692215064,-0.023035358990667585,0.026345437716051762,0.1070621833501944,-0.1116660877873691,0.019718353878943284,0.004622562821886148,-0.11097813296150119,-0.029132900295721693,-0.38067101447018953,0.23790037399425124
2558,10.288547299991478,0.017412422469224836,0.059126290836278655,-0.02344304521307553,0.02642495545941065,0.10707775686901064,-0.11211293065779031,0.019599772901996087,0.00308311515889297,-0.11001087275237116,-0.029645287763290694,-0.3806436081390383,0.24044455900103778
2559,10.292762599987327,0.01717800376540198,0.05974289746615942,-0.023779022495786485,0.026503990903803103,0.10708710517770227,-0.11255584117760627,0.019479119435491587,0.0015438818613102245,-0.10903337285267478,-0.030156533430958123,-0.38056581947205625,0.24296456342627507
2560,10.296947099996032,0.016893481958904565,0.0602197453550956,-0.024230973000029885,0.026582535662724192,0.10709022956801667,-0.11299477813761505,0.019356398102522637,5.066589959817302e-06,-0.10804573182025992,-0.03066651192982894,-0.3804376916179302,0.24546001193954828
2561,10.30117569999129,0.01663389879204129,0.06063801247259024,-0.02469653558260676,0.0266605813679586,0.10708713215455644,-0.11342970073009853,0.019231614036491495,-0.0015331271903198192,-0.10704804972377574,-0.031175097331503407,-0.38025927743060617,0.2479305323652629
2562,10.304593999986537,0.01663389879204129,0.06063801247259024,-0.02469653558260676,0.026738119671663688,0.107077815873884,-0.11386056855490695,0.019104772883528087,-0.003070496249878346,-0.10604042812979184,-0.03168216319031917,-0.38003063945745147,0.25037575574424975
2563,10.308158399988317,0.01663389879204129,0.06063801247259024,-0.02469653558260676,0.02681514224846351,0.10706228448347005,-0.11428734162549024,0.018975880804734332,-0.00460683763340305,-0.10502297008966942,-0.03218758258613447,-0.3797518499250096,0.25279531639479386
2564,10.31223539999337,0.017914370902878056,0.06141389591426629,-0.024891280232578646,0.026891640797552973,0.10704054256048642,-0.1147099803748748,0.01884494447825216,-0.006141948699003587,-0.10399578012618683,-0.03269122816763439,-0.37942299072235114,0.25518885197307606
2565,10.31746189999103,0.016180877194521538,0.06224748036575317,-0.026388188120971066,0.026967607044811402,0.10701259550044319,-0.1151284456615848,0.018711971101152757,-0.007675627157222261,-0.10295896421992169,-0.03319297219614172,-0.37904415338202385,0.25755600353301933
2566,10.321779199992308,0.01615291675914027,0.06256904144553682,-0.026866288768810025,0.027043032744924842,0.10697844951567032,-0.11554269877550769,0.018576968391144928,-0.009207671109960174,-0.10191262979539187,-0.03369268658991363,-0.3786154390586058,0.2598964155855305
2567,10.32533509998757,0.01615291675914027,0.06256904144553682,-0.026866288768810025,0.027117909683516336,0.10693811163364428,-0.11595270144370319,0.018439944588100353,-0.01073787908930953,-0.10085688570695808,-0.034190242968904785,-0.37813695850486434,0.26220973615712867
2568,10.328766799997538,0.01615291675914027,0.06256904144553682,-0.026866288768810025,0.027192229679283364,0.10689158969516033,-0.11635841583615462,0.01830090845539379,-0.012266050096282469,-0.0997918422244907,-0.0346855126999776,-0.3776088320455248,0.2644956168479528
2569,10.332928099989658,0.017449973637054868,0.06309683798634944,-0.02721147704343757,0.02726598458614164,0.1068388923523506,-0.11675980457146148,0.01815986928105615,-0.01379198363942677,-0.09871761101880384,-0.03517836694253975,-0.3770311895486533,0.2667537128891417
2570,10.337360599995009,0.016131755719752904,0.063952426938746,-0.02831271767567619,0.02733916629537455,0.10678002906654845,-0.11715683072247253,0.018016836878738524,-0.015315479773318881,-0.09763430514685957,-0.03566867669458862,-0.3764041703946592,0.2689836831995775
2571,10.342592199987848,0.015922255559175768,0.06486951681047305,-0.029311318159063352,0.02741176673778751,0.10671501010599903,-0.1175494578218586,0.01787182158848534,-0.016836339136924693,-0.0965420390367445,-0.03615631283914223,-0.3757279234429242,0.2711851904419851
2572,10.347148899993044,0.015973132395977238,0.06529649150210547,-0.02993930124941491,0.027483777885866468,0.10664384654341677,-0.11793764986762466,0.017724834277314912,-0.01835436299181849,-0.09544092847242178,-0.03664114619103569,-0.37500260699606336,0.27335790107837893
2573,10.350838099999237,0.016076276796362907,0.06593977407327177,-0.030455112093135762,0.02755519175593982,0.10656655025339051,-0.1183213713285606,0.017575886339605808,-0.019869353260250553,-0.09433109057826056,-0.037123047544061843,-0.37422838876182485,0.27550148542484953
2574,10.355141499996536,0.016114753580544407,0.06660051787284485,-0.03098267133153125,0.02762600041034284,0.10648313390963679,-0.11870058714963057,0.01742498969728746,-0.021381112563053955,-0.09321264380334596,-0.0376018877184348,-0.37340544581263824,0.2776156177056807
2575,10.359802899998613,0.016114934920874537,0.0672562050682107,-0.03148303534751241,0.027696195959583864,0.10639361098210165,-0.11907526275729896,0.017272156799833686,-0.02288944425738118,-0.0920857079055719,-0.038077537608554424,-0.3725339645428182,0.27969997610679065
2576,10.363811199989868,0.016282945982865647,0.06826981226521127,-0.03200513046840172,0.02776577056451136,0.10629799573391166,-0.1194453640647926,0.017117400624057713,-0.024394152474261098,-0.09095040393551974,-0.038549868231049625,-0.3716141406234329,0.281754242828489
2577,10.367376999987757,0.016282945982865647,0.06826981226521127,-0.03200513046840172,0.027834716438480924,0.10619630321817447,-0.11981085747729811,0.01696073467370745,-0.025895042155966937,-0.0898068542201257,-0.0390187507730776,-0.37064617895484925,0.28377810413754173
2578,10.370633699989412,0.016282945982865647,0.06826981226521127,-0.03200513046840172,0.027903025849521323,0.10608854927462905,-0.12017170989709372,0.016802172978859876,-0.027391919093185977,-0.08865518234613998,-0.03948405664085616,-0.36963029361696337,0.28577125041853707
2579,10.373990599997342,0.016282945982865647,0.06826981226521127,-0.03200513046840172,0.027970691122498774,0.10597475052614669,-0.12052788872861449,0.016641730095113466,-0.028884589961981726,-0.08749551314338025,-0.03994565750840628,-0.36856670781712825,0.28773337622454637
2580,10.377952699986054,0.016275093335797686,0.0691753945167365,-0.03240891923835228,0.028037704641278645,0.1058549243750836,-0.12087936188345061,0.016479421102577687,-0.03037286236053934,-0.086327972667782,-0.04040342536648163,-0.3674556538357894,0.28966418032707103
2581,10.382305999999517,0.01591108203288811,0.07084175330456374,-0.03395794751523284,0.02810405885088376,0.10572908899948523,-0.12122609778527743,0.01631526160465867,-0.03185654484568511,-0.08515268818424855,-0.0408572325716617,-0.36629737296984044,0.29156336576526826
2582,10.386755499988794,0.01601351472402767,0.07136153896674977,-0.034458757573808375,0.02816974625964833,0.10559726334914327,-0.12156806537471675,0.016149267726640253,-0.033335446969170957,-0.08396978814930406,-0.04130695189558457,-0.3650921154737132,0.2934306398944496
2583,10.390691499997049,0.015877230548087772,0.07203915211676748,-0.03505062411651531,0.028234759441366792,0.10545946714150664,-0.12190523411412817,0.01598145611405958,-0.03480937931371482,-0.0827794021935525,-0.041752456574295674,-0.36384014049821517,0.2952657144338476
2584,10.394218199988243,0.015877230548087772,0.07203915211676748,-0.03505062411651531,0.028299091037436722,0.10531572085744755,-0.12223757399232979,0.01581184393087673,-0.036278153528787896,-0.08158166110394534,-0.04219362035768836,-0.3625417160271317,0.297068305513642
2585,10.39838639998925,0.015837107178406862,0.07267130748798131,-0.03563144583114071,0.028362733758994913,0.10516604573688405,-0.1225650555292476,0.015640448857437754,-0.03774158236613985,-0.08037669680586083,-0.04263031755901203,-0.3611971188116057,0.2988381337212417
2586,10.402127099994686,0.015743276201332472,0.07357487174417,-0.0366808430960412,0.02842568038904578,0.10501046377425996,-0.12288764978049269,0.01546728908823082,-0.03919947971505322,-0.07916464234499772,-0.0430624231044233,-0.3598066343023132,0.30057492414681636
2587,10.405557999998564,0.012987449617722168,0.07247904873856954,-0.03757828390158481,0.028487923784581246,0.10484899771388227,-0.12320532834186605,0.015292383329435104,-0.0406516606373183,-0.07794563186908635,-0.04348981258255559,-0.35837055657945033,0.3022784064280715
2588,10.409760299997288,0.00972332989799013,0.07065730452423648,-0.03916645191816851,0.028549456878691093,0.10468167104511744,-0.12351806335379008,0.015115750796262234,-0.04209794140191979,-0.0767198006094204,-0.04391236229408274,-0.3568891882805504,0.30394831479426077
2589,10.413964999999736,0.010211059073365034,0.07150363508597991,-0.039574573433845746,0.028610272682662904,0.104508507997448,-0.12382582750566574,0.014937411210090212,-0.04353813951942666,-0.07548728486221222,-0.04432994930125177,-0.35536284052614936,0.3055843881094302
2590,10.417916399994285,0.010549842299035222,0.07217474523554193,-0.04005763122131958,0.028670364288070543,0.10432953353539051,-0.12412859404015437,0.014757384795389804,-0.044972073776076864,-0.0742482219697752,-0.044742451477359974,-0.35379183284332094,0.30718636991488973
2591,10.421283799994852,0.010549842299035222,0.07217474523554193,-0.04005763122131958,0.028729724868850268,0.10414477335327575,-0.12442633675738257,0.014575692276443482,-0.04639956426754842,-0.07300275030153668,-0.045149747556151545,-0.3521764930871002,0.3087540084709059
2592,10.424683699995512,0.010549842299035222,0.07217474523554193,-0.04005763122131958,0.028788347683363524,0.10395425386989221,-0.12471903001906987,0.014392354873857212,-0.04782043243240839,-0.07175100923488523,-0.04555171718110857,-0.3505171573598181,0.3102870567976132
2593,10.428013999990071,0.010549842299035222,0.07217474523554193,-0.04005763122131958,0.028846226076445394,0.10375800222299403,-0.1250066487525776,0.01420739430086548,-0.04923450108523174,-0.07049313913585482,-0.04594824095461142,-0.3488141699283673,0.31178527271513773
2594,10.431478999991668,0.010549842299035222,0.07217474523554193,-0.04005763122131958,0.028903353481437855,0.10355604626367522,-0.12528916845487864,0.014020832759430099,-0.050641594449381704,-0.06922928133964916,-0.0463392004869434,-0.3470678831394201,0.3132484188829294
2595,10.434617299993988,0.010549842299035222,0.07217474523554193,-0.04005763122131958,0.02895972342220683,0.10334841455061174,-0.12556656519644704,0.013832692936133432,-0.052041538189443466,-0.06795957813100902,-0.04672447844511473,-0.34527865733262225,0.31467626283829886
2596,10.43864229999599,0.010411189603044818,0.0723250788509331,-0.04075594454194142,0.029015329515142185,0.10313513634417296,-0.1258388156250672,0.013642997997866745,-0.05343415944330302,-0.0666841727244256,-0.04710395860148097,-0.34344686075178404,0.3160685770341565
2597,10.442775199990136,0.010490159632378388,0.07435269676300987,-0.0438516418716435,0.029070165471139733,0.10291624160040472,-0.12610589696956165,0.013451771587314401,-0.054819286853863454,-0.06540320924420351,-0.04747752588213083,-0.3415728694540913,0.317425138875952
2598,10.446072399994591,0.010490159632378388,0.07435269676300987,-0.0438516418716435,0.029124225097564488,0.10269176096488555,-0.12636778704343649,0.013259037818234867,-0.05619675060039063,-0.06411683270437636,-0.04784506641501812,-0.3396570672173603,0.31874573075781043
2599,10.449485499993898,0.010490159632378388,0.07435269676300987,-0.0438516418716435,0.029177502300194072,0.10246172576645732,-0.12662446424844376,0.013064821270539524,-0.057566382429480395,-0.06282518898847853,-0.04820646757781267,-0.3376998454453616,0.3200301400978642
2600,10.452903999990667,0.010490159632378388,0.07435269676300987,-0.0438516418716435,0.02922999108514149,0.10222616801083198,-0.12687590757806072,0.01286914698517043,-0.05892801568563946,-0.06152842482917595,-0.04856161804544552,-0.33570160307123875,0.32127815937277915
2601,10.456565399988904,0.010246410948965582,0.07417846865192805,-0.04484741577665992,0.029281685560756516,0.10198512037407606,-0.1271220966208857,0.012672040458778303,-0.06028148534147201,-0.06022668778775927,-0.048910407837323616,-0.3336627464590461,0.3224895861514721
2602,10.460332099988593,0.010703599707234966,0.07538289091276368,-0.04681144891987318,0.029332579939504836,0.10173861619597459,-0.12736301156394997,0.012473527638202211,-0.06162662802746464,-0.05892012623350236,-0.0492527283641894,-0.33158368930343063,0.32366422312801435
2603,10.463987099996302,0.01730360028190961,0.08072227501239876,-0.045330778717414075,0.029382668539824203,0.101486689473276,-0.12759863319594522,0.012273634914752363,-0.06296328206136236,-0.05760888932288965,-0.0495884724746014,-0.32946485252748253,0.32480187815372047
2604,10.46782359998906,0.017540571948971937,0.08110635151266711,-0.04603780374584171,0.02943194578795644,0.10122937485281991,-0.1278289429103659,0.012072389118297567,-0.06429128747712821,-0.05629312697871611,-0.04991753450101134,-0.3273066641787798,0.3259023642684192
2605,10.472149799999896,0.017793725970209676,0.08146144775067664,-0.04664290779088983,0.029480406219754608,0.10096670762454917,-0.12805392270856608,0.011869817511158978,-0.06561048605347934,-0.05497298986906318,-0.050239810305413496,-0.3251095593236537,0.3269654997309047
2606,10.476115299999949,0.017944944271980328,0.08176484152966984,-0.04733806514950946,0.029528044482464523,0.10069872371440834,-0.12827355520273048,0.011665947781811912,-0.06692072134199241,-0.05364862938615386,-0.05055519732454188,-0.3228739799397038,0.3279911080485669
2607,10.48038729999098,0.018217939503438224,0.08224771737761775,-0.047751163297395594,0.029574855336479848,0.1004254596771301,-0.12848782361875966,0.011460808038397656,-0.06822183869477161,-0.05232019762508976,-0.050863594614591515,-0.3206003748065902,0.32897901800619894
2608,10.484580099990126,0.018492532669354213,0.0824299147098984,-0.048331009321549406,0.029620833657070002,0.10014695268891145,-0.1286967117990691,0.011254426802047305,-0.06951368529167266,-0.05098784736247347,-0.05116490289543961,-0.31828919939513267,0.3299290636939806
2609,10.48816639999859,0.018492532669354213,0.0824299147098984,-0.048331009321549406,0.029665974436080177,0.09986324053998157,-0.12890020420530224,0.01104683300001981,-0.0707961101670763,-0.04965173203491946,-0.05145902459434299,-0.3159409157547457,0.3308410845346355
2610,10.49162939999951,0.018492532669354213,0.0824299147098984,-0.048331009321549406,0.02971027278360273,0.09957436162706226,-0.12909828592095612,0.010838055958656435,-0.07206896423620456,-0.04831200571745686,-0.05174586388908823,-0.3135559923992414,0.3317149253097615
2611,10.49642889999086,0.019186529298265587,0.083628812910475,-0.049857041103159555,0.029753723929619388,0.0992803549457232,-0.12929094265391883,0.010628125396153957,-0.07333210032097287,-0.04696882310182764,-0.052025326750571324,-0.3111349041910315,0.33255043618533336
2612,10.500929099987845,0.019454149975431382,0.08399457223023563,-0.050404025219344575,0.02979632322561358,0.0989812600826334,-0.129478160738918,0.010417071415159018,-0.07458537317537174,-0.04562233947468351,-0.052297320984784,-0.3086781322237611,0.3333474727363765
2613,10.50523379999504,0.01964240807088993,0.08431631891971662,-0.051046765437563035,0.029838066146152083,0.09867711720771084,-0.12965992713988098,0.010204924495186174,-0.07582863951037153,-0.04427271069568516,-0.05256175627418388,-0.30618616370340557,0.33410589597080925
2614,10.50932239998656,0.01994351850570755,0.08469325285495034,-0.051665937389046325,0.02987894829043518,0.09836796706617161,-0.12983622945220616,0.009991715484862248,-0.07706175801834453,-0.04292009317550721,-0.052818544218425856,-0.3036594918278643,0.3348255723524553
2615,10.513548299990362,0.02025782681129789,0.0851309605845833,-0.05229994323125729,0.029918965383814528,0.09805385097048071,-0.13000705590494546,0.009777475593999697,-0.07828458939699799,-0.041564643853752185,-0.05306759837443263,-0.3010986156650857,0.33550637382322523
2616,10.51788659999147,0.020506512162905475,0.08563235697794823,-0.05296672732355498,0.02995811327927804,0.09773481079220646,-0.13017239536289824,0.009562236385501827,-0.07949699637281184,-0.04020652017677674,-0.05330883429578262,-0.2985040400297571,0.3361481778244695
2617,10.52203519998875,0.02082772465119015,0.08622723494681991,-0.05361087832501003,0.029996387958900975,0.09741088895378021,-0.130332237328616,0.009346029767102733,-0.08069884372397536,-0.03884588007543352,-0.05354216957139381,-0.2958762753585929,0.33675086731750314
2618,10.526253999996698,0.02119278948045915,0.08682140141290078,-0.05425218680401978,0.030033785535262914,0.09708212842016332,-0.13048657194431776,0.009128887982944953,-0.08188999830281779,-0.0374828819427317,-0.053767523863482436,-0.29321583758425657,0.33731433080330314
2619,10.530300099999296,0.02149623176426522,0.08737908008446656,-0.055001673897567965,0.03007030225282978,0.09674857269042392,-0.1306353899937153,0.008910843604997895,-0.08307032905772749,-0.036117684611419634,-0.05398481894477591,-0.2905232480079516,0.33783846234137743
2620,10.53370799998811,0.02149623176426522,0.08737908008446656,-0.055001673897567965,0.030105934489300205,0.0964102657892258,-0.13077868290374836,0.008691929524320246,-0.0842397070545547,-0.034750447331492636,-0.05419397873495949,-0.2877990331707166,0.33832316156780584
2621,10.537045999997645,0.02149623176426522,0.08737908008446656,-0.055001673897567965,0.030140678756915264,0.09606725225823158,-0.13091644274622952,0.008472178942169603,-0.08539800549749313,-0.03338132974762931,-0.054394929336337085,-0.2850437247234602,0.338768333712451
2622,10.54044939999585,0.02149623176426522,0.08737908008446656,-0.055001673897567965,0.030174531703730988,0.09571957714742219,-0.13104866223939846,0.008251625360962644,-0.08654509974943524,-0.03201049187655967,-0.054587599068686626,-0.2822578592957718,0.3391738896153404
2623,10.54384049998771,0.02149623176426522,0.08737908008446656,-0.055001673897567965,0.03020749011485314,0.09536728600633543,-0.13117533474938495,0.008030302575089207,-0.08768086735179642,-0.03063809408436845,-0.05477191850329119,-0.27944197836354306,0.3395397457422208
2624,10.547385999991093,0.02205655735873374,0.08802443776571914,-0.05564196910726921,0.03023955091363364,0.09501042487522572,-0.1312964542915803,0.007808244661583834,-0.08880518804380325,-0.029264297063736695,-0.05494782049612687,-0.2765966281154379,0.3398658241992872
2625,10.551214599996456,0.02368675567443633,0.09042506635692359,-0.05867669652220369,0.03027071116282799,0.0946490402761476,-0.1314120155319172,0.00758548597065841,-0.08991794378124186,-0.027889261811124954,-0.05511524022018907,-0.2737223593182471,0.3401520527470873
2626,10.55464149999898,0.02368675567443633,0.09042506635692359,-0.05867669652220369,0.030300968065713252,0.09428317920396515,-0.13152201378805725,0.0073620611160995905,-0.09101901875466223,-0.026513149603901633,-0.05527411519693945,-0.27081972718116376,0.34039836481360364
2627,10.558416599989869,0.02368675567443633,0.09042506635692359,-0.05867669652220369,0.030330318967165967,0.09391288911728943,-0.13162644503048637,0.0071380049655348065,-0.09210829940703368,-0.025136121977419774,-0.05542438532685632,-0.2678892912190141,0.340604699506514
2628,10.563645399990492,0.025258153889602637,0.09190053761519706,-0.06100297534974439,0.03035876135469937,0.09353821792934572,-0.13172530588351855,0.0069133526305706385,-0.09318567445084822,-0.023758340702045615,-0.05556599291907187,-0.2649316151144825,0.34077100162463214
2629,10.567864599986931,0.02573848983313545,0.0923988668371637,-0.061750210125034524,0.03038629285945928,0.09315921399877311,-0.13181859362620685,0.00668813945680747,-0.09425103488466832,-0.022379967760142293,-0.055698882720079716,-0.2619472665793691,0.34089722166853015
2630,10.571906699988176,0.026244142934129334,0.09294379854519874,-0.06247442538108196,0.030412911257178158,0.09277592612035881,-0.1319063061931613,0.0064624010137344,-0.09530427400911566,-0.021001165323012175,-0.055823001941496427,-0.2589368172149214,0.3409833158503453
2631,10.575335499990617,0.026244142934129334,0.09294379854519874,-0.06247442538108196,0.030438614469086793,0.0923884035157095,-0.1319884421752726,0.006236173084508413,-0.09634528744229719,-0.01962209572780113,-0.05593830028686172,-0.2559008423712789,0.3410292461027724
2632,10.578866899988498,0.026244142934129334,0.09294379854519874,-0.06247442538108196,0.030463400562783273,0.09199669582386173,-0.1320650008203414,0.006009491655621941,-0.09737397313466489,-0.018242921454368018,-0.056044729977462106,-0.2528399210060724,0.34103498008724314
2633,10.583031399990432,0.026856025325865958,0.09346256970108038,-0.0630359995994996,0.030487267753058704,0.09160085309183436,-0.13213598203361243,0.005782392906463025,-0.09839023138330585,-0.01686380510212269,-0.05614224577716392,-0.24975463554221658,0.3410004912012955
2634,10.586596599998302,0.026856025325865958,0.09346256970108038,-0.0630359995994996,0.030510214402679352,0.09120092576512494,-0.13220138637821371,0.005554913198772322,-0.09939396484565925,-0.01548490936683582,-0.05623080501624207,-0.24664557172493604,0.34092575858513247
2635,10.590687699994303,0.02796155263219953,0.09442249939353854,-0.06414954486323494,0.030532239023124626,0.09079696467815249,-0.13226121507550012,0.005327089066001259,-0.1003850785526574,-0.014106397017423701,-0.05631036761419115,-0.24351331847806312,0.3408107671273708
2636,10.594711199999438,0.02885510131202611,0.09530736993844957,-0.0652724009276343,0.030553340275280377,0.09038902104464837,-0.1323154700053011,0.005098957202575717,-0.10136347992128736,-0.012728430872711308,-0.05638089610150576,-0.24035846775964845,0.34065550746998186
2637,10.598995999986071,0.029449520699814376,0.09574911350368842,-0.06582548444191309,0.030573516970087117,0.08997714644799802,-0.13236415370607188,0.004870554453069679,-0.1023290787665703,-0.011351173778176802,-0.056442355640417906,-0.23718161441692437,0.340459976012429
2638,10.60338229998888,0.029951099294300013,0.09623605964739501,-0.06630851674705324,0.03059276806914281,0.08956139283153544,-0.13240726937494843,0.004641917801293318,-0.10328178731295597,-0.00997478858268071,-0.05649471404457966,-0.23398335604066392,0.3402241749150037
2639,10.607640499991248,0.03041870556489716,0.09665822622768512,-0.06679931257626603,0.030611092685259966,0.0891418124887931,-0.13244482086770698,0.004413084359300024,-0.10422152020513033,-0.008599438115183025,-0.056537941797680194,-0.23076429281897726,0.3399481121013627
2640,10.61164399998961,0.030919767776236774,0.09713289969161244,-0.06727101373452932,0.03062849008297673,0.08871845805370934,-0.13247681269862843,0.004184091356316931,-0.10514819451823415,-0.007225285161451428,-0.05657201207098643,-0.22752502739058728,0.33963180126027004
2641,10.615427499986254,0.030919767776236774,0.09713289969161244,-0.06727101373452932,0.030644959679021647,0.08829138249079516,-0.1325032500402681,0.003954976127603574,-0.10606172976749062,-0.005852492440763794,-0.05659690073979741,-0.2242661646976255,0.33927526184654444
2642,10.619772599995486,0.031564477251147936,0.09760604395390687,-0.06770236711741426,0.03066050104273201,0.0878606390852629,-0.13252413872313237,0.003725776103243341,-0.10696204791723991,-0.004481222582608173,-0.05661258639880284,-0.22098831183798964,0.33887851908121797
2643,10.623778999986826,0.03256413984606411,0.09846041728263365,-0.06871002675674838,0.03067511389642558,0.08742628143311897,-0.1325394852352614,0.0034965287968724184,-0.1078490733893789,-0.0031116381033833755,-0.05661905037633688,-0.21769207791730386,0.3384416039509085
2644,10.628011999986484,0.03308485056527228,0.0988953707056353,-0.06925018306042753,0.030688798115725408,0.08698836343122346,-0.1325492967217175,0.00326727179435096,-0.10872273307120403,-0.0017439013831033851,-0.0566162767475189,-0.21437807390052255,0.3379645532064093
2645,10.632227099995362,0.03376878555953676,0.0994101928686057,-0.06969236253955373,0.030701553729837353,0.08654693926731934,-0.1325535809839784,0.0030380427423812102,-0.10958295632265595,-0.00037817464210870036,-0.05660425234627357,-0.21104691246321958,0.33744740936049683
2646,10.636190099990928,0.03428904270898779,0.09985971243077556,-0.07020469887349648,0.03071338092177999,0.08610206341003365,-0.1325523464792361,0.002808879337077388,-0.11042967498296519,0.0009853800822122707,-0.05658296677622345,-0.20769920784260512,0.3368902206849585
2647,10.639990099996794,0.034906684496302805,0.10039058097531275,-0.07075579990185042,0.03072428002856676,0.08565379059885302,-0.1325456023196003,0.0025798193124921646,-0.11126282337669799,0.0023466009586886787,-0.056552412420447506,-0.204335575688312,0.3362930412068428
2648,10.643483699997889,0.03546463221281147,0.10082577822733406,-0.07136148430402833,0.030734251541340234,0.08520217583407563,-0.13253335827120616,0.0023509004291046008,-0.1120823383192005,0.0037053263856164777,-0.056512584450099865,-0.20095663291299412,0.33565593070393673
2649,10.647034699999494,0.03606931830155314,0.1012862332404889,-0.07188206433841611,0.03074329610545829,0.0847472743667424,-0.1325156247532276,0.002122160462274418,-0.11288815912144026,0.00506139501398838,-0.056463480831883545,-0.1975629975427797,0.3349789546994744
2650,10.655434199987212,0.03727415893433651,0.1022197036711224,-0.0730938122388153,0.03075141452053195,0.08428914168854956,-0.13249241283679544,0.0018936371906674945,-0.11368022759424413,0.006414645770701478,-0.05640510233437469,-0.1941552885676216,0.33426218445608086
2651,10.659680899989326,0.03787180122368895,0.10270185112030035,-0.07368546681264809,0.03075860774041484,0.08382783352174494,-0.13246373424382096,0.001665368384657504,-0.11445848805193214,0.0077649178817395135,-0.056337452533193444,-0.19073412579158747,0.33350569696895654
2652,10.66355109999131,0.03841494161840017,0.10316428019236969,-0.07436236055703696,0.030764876873144158,0.08336340580901036,-0.1324296013457247,0.001437391794708633,-0.11522288731534733,0.009112050895326792,-0.056260537815018156,-0.18730012968313187,0.3327095749583064
2653,10.66779769999266,0.03893116677069876,0.10360011885798998,-0.0750651665574354,0.03077022318083309,0.08289591470333252,-0.13239002716207213,0.0012097451397443243,-0.11597337471428211,0.010455884705050798,-0.056174367380440716,-0.183853921225392,0.33187390686101825
2654,10.672151099992334,0.03940321199431909,0.10405026888030632,-0.07575765649380135,0.030774648079514598,0.08242541655786471,-0.1323450253591164,0.0009824660955069947,-0.11670990208930095,0.011796259572950541,-0.05607895324566073,-0.18039612176654915,0.33099878682159223
2655,10.676190599988333,0.03983974114048076,0.10451238242510563,-0.07647694456814412,0.030778153138936455,0.08195196791578173,-0.13229461024824898,0.0007555922829136883,-0.1174324237929592,0.0131330161525677,-0.05597431024301732,-0.176927352870299,0.3300843146823245
2656,10.680428399995437,0.04023962860428563,0.10492971346016695,-0.07721363421858088,0.030780740082307738,0.0814756255001303,-0.13223879678435763,0.0005291612564126382,-0.1181408966904181,0.014465995511957546,-0.055860456020357566,-0.17344823616647356,0.3291305959727508
2657,10.683673199993793,0.04023962860428563,0.10492971346016695,-0.07721363421858088,0.030782410785996646,0.08099644620367759,-0.13217760056409308,0.00030321049234569844,-0.11883528015945594,0.01579503915665672,-0.055737411039241805,-0.16995939320185757,0.32813774189835226
2658,10.687239499995483,0.04023962860428563,0.10492971346016695,-0.07721363421858088,0.030783167279179645,0.08051448707876029,-0.1321110378240442,7.777737732160969e-05,-0.11951553608987638,0.017119989052604926,-0.05560519857198671,-0.16646144529124263,0.3271058693285271
2659,10.691265099987504,0.04071086082381676,0.10537568413944952,-0.07790636639351384,0.030783011743442203,0.08002980532713647,-0.13203912543882138,-0.00014710080339494725,-0.12018162888231472,0.018440687649017618,-0.05546384469754712,-0.16295501336876186,0.32603510078383136
2660,10.69544309999037,0.041325821096042485,0.10615436591786671,-0.07936653317265219,0.030781946512331203,0.07954245828984302,-0.1319618809190481,-0.0003713868774735644,-0.12083352544644352,0.019756977901206833,-0.05531337829623861,-0.15944071783954805,0.324925564422495
2661,10.698871799992048,0.041325821096042485,0.10615436591786671,-0.07936653317265219,0.0307799740708592,0.07905250343706097,-0.13187932240926056,-0.0005950437970826491,-0.12147119519857895,0.021068703293347237,-0.05515383104330318,-0.1559191784317576,0.3237773940262147
2662,10.702410399986547,0.04168810402861818,0.10659278463537988,-0.0800427232754966,0.030777097054960696,0.07855999835799077,-0.13179146868571645,-0.0008180346504233725,-0.12209461005869005,0.022375707861184518,-0.054985237401321274,-0.1523910140490027,0.32259072898522656
2663,10.705730199988466,0.04168810402861818,0.10659278463537988,-0.0800427232754966,0.030773318250900576,0.07806500075074016,-0.13169833915411291,-0.0010403226732281156,-0.12270374444681288,0.023677836214683216,-0.05480763461147409,-0.14885684262323423,0.32136571428266414
2664,10.709195299990824,0.04168810402861818,0.10659278463537988,-0.0800427232754966,0.030768640594634678,0.07756756841222733,-0.13159995384721462,-0.0012618712602185268,-0.12329857527887125,0.024974933560611125,-0.05462106268366063,-0.14531728096811708,0.3201025004782074
2665,10.71335989999352,0.04238607439114487,0.10748149099230263,-0.08134558306281749,0.03076306717112265,0.07706775922810194,-0.13149633342239217,-0.0014826439765183257,-0.12387908196190561,0.02626684572505744,-0.05442556438547475,-0.1417729446329407,0.31880124369102636
2666,10.717645999990054,0.04301267250628579,0.10851178078677307,-0.08347733330642912,0.030756601213593318,0.07656563116268619,-0.13138749915907064,-0.0017026045690160135,-0.12444524638871254,0.027553419175881857,-0.054221185230048055,-0.13822444775710732,0.31746210558202614
2667,10.722107499997946,0.0432442381553669,0.10885639531570114,-0.08413925111121415,0.03074924610276278,0.07606124224893798,-0.13127347295608838,-0.0019217169776726873,-0.12499705293189721,0.028834501045091665,-0.05400797346276516,-0.1346724029252395,0.31608525333539755
2668,10.726113599987002,0.04346245618526107,0.1091926486441594,-0.0848294770929606,0.030741005366005558,0.0755546505784389,-0.13115427732896634,-0.0021399453467701784,-0.12553448843734175,0.030109939151144193,-0.053785980046857994,-0.13111742102294976,0.31467085963947883
2669,10.729634999996051,0.04346245618526107,0.1091926486441594,-0.0848294770929606,0.03073188267647922,0.07504591429140955,-0.13102993540708843,-0.002357254036094764,-0.12605754221709226,0.031379582021171665,-0.05355525864788693,-0.12756011109331344,0.3132191026669334
2670,10.733180699986406,0.04346245618526107,0.1091926486441594,-0.0848294770929606,0.03072188185220274,0.07453509156675481,-0.13090047093079352,-0.0025736076320517394,-0.12656620604166677,0.03264327891312576,-0.053315865617117125,-0.12400108019408605,0.3117301660542485
2671,10.737444299986237,0.04386205520262993,0.10957266614186713,-0.08543494222156539,0.03071100685508914,0.07402224061214108,-0.13076590824837891,-0.0027889709587061743,-0.12706047413178767,0.033900879837838974,-0.05306785997379885,-0.12044093325570678,0.3102042388805578
2672,10.741690299997572,0.044360729295296504,0.11008324163717018,-0.086764322981136,0.030699261789932823,0.07350741965410773,-0.13062627231301643,-0.003003309088745218,-0.12754034314954169,0.03515223558100008,-0.052811303386361516,-0.11688027294012893,0.3086415156457908
2673,10.746484199989936,0.04512560055801116,0.11063064529766786,-0.08800924006408936,0.03068665090335189,0.07299068692821481,-0.13048158867958046,-0.0032165873543573663,-0.12800581218897064,0.03639719772504088,-0.052546260152531214,-0.11331969950051782,0.30704219624815254
2674,10.750892999989446,0.045549597546986446,0.1108602110552975,-0.08857775648991201,0.03067317858268592,0.07247210066922953,-0.130331883501388,-0.0034287713580241617,-0.12845688276609646,0.03763561867093175,-0.05227279717838202,-0.10975981064185629,0.3054064859609399
2675,10.755194999990636,0.045961888146408045,0.1110477166619937,-0.08914765460593141,0.030658849354849426,0.0719517191013537,-0.13017718352685034,-0.003639826983219839,-0.12889355880838485,0.0388673516598834,-0.05199098395633213,-0.10620120138249758,0.30373459540869974
2676,10.759182499998133,0.0463536230820418,0.11124196718024236,-0.08971893719654744,0.030643667885141328,0.07142960042849412,-0.13001751609603615,-0.0038497204050144725,-0.12931584664365178,0.04009225079495207,-0.05170089254209633,-0.10264446391670544,0.302026740542734
2677,10.763643399986904,0.04673307172041372,0.11143640419131605,-0.09023787719515479,0.03062763897601076,0.07090580282457826,-0.12985290913714706,-0.0040584181005762455,-0.12972375498841693,0.04131017106254529,-0.05140259753060708,-0.09909018747822132,0.30028314261595557
2678,10.76801039998827,0.047023286937853896,0.11161414582757832,-0.09074682396833644,0.030610767565779587,0.07038038442391774,-0.12968339116290636,-0.004265886859568515,-0.1301172949357084,0.04252096835382545,-0.05109617603091663,-0.0955389582048985,0.2985040281570998
2679,10.772070999999414,0.04733876893677972,0.11180488639915771,-0.09121656945261801,0.030593058727322178,0.06985340331162194,-0.12950899126686097,-0.00447209379443742,-0.13049647994232336,0.04372449948600848,-0.05078170764009387,-0.0919913590044425,0.2966896289442956
2680,10.776353299996115,0.04761390509323554,0.1119907767293152,-0.09167559006659041,0.03057451766670303,0.06932491751406343,-0.1293297391195983,-0.0046770063505858096,-0.13086132581554968,0.04492062222355521,-0.05045927441612941,-0.08844796942129732,0.2948401819779998
2681,10.78032269999676,0.04784602147444201,0.11215174950013722,-0.09214284800751102,0.030555149721772663,0.06879498498939732,-0.12914566496487775,-0.0048805923164293025,-0.13121185069935287,0.04610919529925298,-0.05012896084986341,-0.08490936550471577,0.29295592945329973
2682,10.78497459999926,0.04802465706405248,0.11227765927898103,-0.09253939051677687,0.030534960360722257,0.06826366361813678,-0.12895679961567671,-0.0050828198333304235,-0.13154807506003308,0.04729007843518547,-0.049790853835950964,-0.08137611967805261,0.29103711873158955
2683,10.788540499997907,0.04817318640779397,0.11241932948660562,-0.09290128996927427,0.030513955180597418,0.06773101119378679,-0.1287631744501517,-0.005283657405406788,-0.1318700216713578,0.048463132363587944,-0.04944504264288027,-0.07784880060931786,0.289084002311623
2684,10.792952799994964,0.048343435190803356,0.11258505867653146,-0.09322158588321576,0.03049213990577167,0.06719708541353778,-0.12856482140751488,-0.005483073909209393,-0.13217771559917466,0.049628218847585365,-0.049091618882059575,-0.07432797308302778,0.287096837799948
2685,10.797262499996576,0.0485132825200672,0.11277167583244108,-0.09351072875432831,0.030469520386380122,0.0666619438690213,-0.1283617729838274,-0.0056810386032671596,-0.13247118418550877,0.05078520070181082,-0.0487306764759891,-0.07081419787339106,0.2850758878807278
2686,10.801146699988749,0.04863626103605543,0.11296030900359007,-0.09378348954044585,0.030446102596713858,0.06612564403712946,-0.12815406222771003,-0.005877521137493927,-0.1327504570321499,0.05193394181290179,-0.04836231162553478,-0.06730803161886663,0.2830214202849525
2687,10.80533459999424,0.04871300697280982,0.11312808873447901,-0.09402446429927935,0.030421892633575854,0.06558824327090047,-0.12794172273597162,-0.006072491562454236,-0.13301556598373446,0.05307430715987188,-0.04798662277632088,-0.06381002669812996,0.28093370775904497
2688,10.809522099996684,0.048773212052313976,0.11328677147672166,-0.09428769566352911,0.03039689671459922,0.06504979879047298,-0.1277247886491563,-0.0062659203384843026,-0.13326654511032815,0.05420616283435559,-0.04760371058425929,-0.06032073110748411,0.2788130280328678
2689,10.813715599986608,0.04878835483054553,0.11340806138998191,-0.09462420360957434,0.03037112117652841,0.06451036767411103,-0.12750329464700916,-0.006457778344664645,-0.1335034306895153,0.05532937606072375,-0.047213677880233416,-0.05684068833975148,0.27665966378713686
2690,10.817859599992516,0.048796595125750505,0.11357820102604664,-0.09492976061211596,0.030344572473463855,0.06397000684930151,-0.1272772759438617,-0.006648036887640912,-0.13372626118800052,0.05644381521606714,-0.04681662963395548,-0.05337043726468174,0.2744739026202473
2691,10.821828599990113,0.048798766615783466,0.11374853193064181,-0.09523263093350882,0.030317257175070746,0.06342877308392639,-0.1270467682839371,-0.0068366677102895505,-0.13393507724272932,0.05754934985004593,-0.04641267291701599,-0.049910512010910534,0.272256037014515
2692,10.826270299992755,0.04884951705167263,0.11391826919740933,-0.0955757714884523,0.030289181964752585,0.06288672297751172,-0.12681180793657582,-0.007023643000225009,-0.13412992164153395,0.05864585070460282,-0.04600191686514509,-0.046461441849503016,0.2700063643018386
2693,10.829816799989205,0.04884951705167263,0.11391826919740933,-0.0955757714884523,0.030260353637790185,0.06234391295255589,-0.12657243169138258,-0.007208935398145232,-0.1343108393033103,0.05973318973353711,-0.045584472639705324,-0.04302375107911622,0.26772518662878664
2694,10.83331289999478,0.04884951705167263,0.11391826919740933,-0.0955757714884523,0.0302307790994469,0.061800399245938956,-0.12632867685329507,-0.007392518006012341,-0.13447787725773297,0.060811240121937726,-0.04516045338843594,-0.03959795891281314,0.2654128109211151
2695,10.837286199996017,0.04896325774978503,0.11407540231007757,-0.09592542280019813,0.030200465363040857,0.06125623790041501,-0.12608058123757523,-0.007574364395065467,-0.13463108462451573,0.06187987630547263,-0.04472997420546899,-0.03618457936656153,0.2630695488477201
2696,10.840887999991535,0.04896325774978503,0.11407540231007757,-0.09592542280019813,0.030169419547984917,0.060711484756189635,-0.12582818316472383,-0.007754448613662783,-0.13477051259222472,0.06293897398953259,-0.04429315209063806,-0.032784121149449924,0.2606957167840284
2697,10.844570799992653,0.04900527101540295,0.1144135057190085,-0.09679392518115794,0.03013764887779509,0.060166195442584024,-0.12557152145531905,-0.0079327451949499,-0.13489621439665114,0.06398841016822698,-0.04385010590810058,-0.029397087555652457,0.2582916357748305
2698,10.848070799998824,0.04909623677341883,0.11472056016980839,-0.09789466293555488,0.030105160678068305,0.059620425369787455,-0.12531063542477902,-0.008109229164351894,-0.13500824529874975,0.06502806314322929,-0.043400956344294986,-0.026023976358174054,0.2558576314965602
2699,10.851578999994672,0.04916309875360063,0.11486780699167813,-0.09846420471792494,0.030071962374430408,0.059074229720699735,-0.1250455648780487,-0.00828387604688628,-0.13510666256215043,0.06605781254247027,-0.042945825865254375,-0.022665279704406526,0.2533940342190262
2700,10.855662799993295,0.04926671604712997,0.11501061347470656,-0.09900414200444663,0.030038061490455074,0.05852766344286548,-0.12477635010421052,-0.008456661874294384,-0.1351915254302492,0.06707753933867626,-0.04248483867329868,-0.019321484013525955,0.2509011787665986
2701,10.859924199990928,0.04935068338085018,0.1150871159078277,-0.09965083816042887,0.030003465645554544,0.05798078124050191,-0.12450303187101973,-0.008627563191988633,-0.13526289510288644,0.06808712586775018,-0.04201812066312745,-0.01599306987576099,0.2483794044788564
2702,10.86365859999205,0.04943617241283844,0.11513393934888898,-0.10030542290657679,0.029968182552842823,0.05743363756662201,-0.12422565141936497,-0.008796557065813398,-0.13532083471262105,0.06908645584699319,-0.041545799377335865,-0.01268051195356093,0.24582905517069828
2703,10.867835599987302,0.049523592694620956,0.11517040794049722,-0.10095902756703201,0.029932220016972093,0.05688628661525471,-0.123944250457656,-0.008963621088617073,-0.13536540930060764,0.07007541439316468,-0.04106800396137651,-0.009384278884692017,0.2432504790919233
2704,10.871458899986465,0.049523592694620956,0.11517040794049722,-0.10095902756703201,0.029895585931942994,0.0563387823137637,-0.1236588711561399,-0.009128733386633248,-0.13539668579208494,0.07105388804037846,-0.04058486511799012,-0.006104833187289885,0.24064402888628475
2705,10.875671999994664,0.049376867936905766,0.11503745288210715,-0.10175534515818799,0.029858288278889616,0.055791178315266365,-0.12336955614114554,-0.009291872625668949,-0.13541473297148324,0.0720217647578329,-0.04009651506112852,-0.002842631166895465,0.23801006155002163
2706,10.880025299993576,0.04977973438764961,0.11518983014412126,-0.10284167530739802,0.02982033512384017,0.05524352799115418,-0.12307634848925705,-0.009453018017097943,-0.13541962145715997,0.07297893396737262,-0.03960308746939298,0.00040187717449893324,0.23534893838987292
2707,10.88418829999864,0.04998317659048013,0.11512666888552305,-0.10345545679828948,0.02978173461545437,0.054695884423715944,-0.12277929172141569,-0.00961214932365727,-0.13541142367577072,0.07392528656087949,-0.03910471743901135,0.0036282482273672914,0.23266102498057956
2708,10.887726699991616,0.04998317659048013,0.11512666888552305,-0.10345545679828948,0.029742494982738246,0.054148300398865284,-0.12247842979695076,-0.009769246865045222,-0.13539021383628402,0.07486071491749044,-0.038601541436377375,0.006836044861505868,0.2299466911218779
2709,10.890990199986843,0.04998317659048013,0.11512666888552305,-0.10345545679828948,0.029702624532737216,0.05360082839897398,-0.12217380710754036,-0.00992429152331916,-0.135356067903648,0.0757851129206399,-0.038093697250175806,0.0100248365108027,0.22720631079498932
2710,10.89435199998843,0.04998317659048013,0.11512666888552305,-0.10345545679828948,0.029662131648208294,0.05305352059581217,-0.12186546847110298,-0.010077264748091574,-0.13530906357211764,0.07669837597492517,-0.037581323943117265,0.013194199255896478,0.22444026211861015
2711,10.898311299999476,0.04960187061874057,0.11489810717507055,-0.10423641662400712,0.02962102478527228,0.05250642884359666,-0.12155345912562078,-0.01022814856152289,-0.13524928023825175,0.07760040102279273,-0.037064561803306584,0.01634371590470134,0.22164892730440733
2712,10.901925499987556,0.04995071831354234,0.11489561973065877,-0.10562429960425695,0.029579312471046722,0.05195960467214896,-0.12123782472289563,-0.01037692556310967,-0.13517679897358834,0.0784910865610429,-0.03654355229526894,0.01947297607077476,0.21883269261202387
2713,10.905340399986017,0.05022321211449822,0.11482393178090283,-0.10614350624758195,0.029537003301260578,0.05141309928016437,-0.12091861132223869,-0.01052357893426687,-0.13509170249700642,0.07937033265715078,-0.036018438010657954,0.02258157624950639,0.21599194830359764
2714,10.908754199990652,0.05022321211449822,0.11482393178090283,-0.10614350624758195,0.029494105937851733,0.05086696352859332,-0.12059586538409454,-0.010668092442702988,-0.13499407514678266,0.08023804096540145,-0.03548936261867011,0.025669119892106386,0.21312708859779797
2715,10.912261199991915,0.05022321211449822,0.11482393178090283,-0.10614350624758195,0.02945062910654828,0.05032124793413644,-0.12026963376360009,-0.010810450446587077,-0.13488400285235283,0.08109411474283708,-0.03495647081618984,0.028735217477372562,0.21023851162338342
2716,10.91662949998863,0.04952403874391943,0.114565804669821,-0.10682033114380515,0.029406581594434298,0.04977600266285456,-0.11993996370407822,-0.010950637898506671,-0.13476157310578601,0.08193845886501408,-0.03441990827768969,0.0317794865812163,0.2073266193722847
2717,10.92167119999067,0.050160285694021985,0.1145431702924813,-0.10791577853338614,0.029361972247500985,0.049231277523895126,-0.11960690283046731,-0.0110886403492158,-0.1346268749329808,0.08277097984156787,-0.03387982160490998,0.03480155194392788,0.2043918176522156
2718,10.925836700000218,0.049307872555707705,0.11435668615001385,-0.10853081232611979,0.02931680996818415,0.04868712196333601,-0.11927049914268713,-0.011224443951172355,-0.13447999886459178,0.0835915858315832,-0.03333635827634237,0.03780104553516254,0.20143451603881468
2719,10.929288299987093,0.049307872555707705,0.11435668615001385,-0.10853081232611979,0.029271103712888998,0.04814358505814761,-0.1189308010089426,-0.011358035461864178,-0.13432103690669525,0.08440018665876825,-0.03278966659654172,0.04077760661662938,0.19845512782732155
2720,10.932479499999316,0.049307872555707705,0.11435668615001385,-0.10853081232611979,0.02922486248950302,0.04760071551027422,-0.11858785715896628,-0.011489402246923325,-0.13415008251120372,0.08519669382643032,-0.032239895645290666,0.04373088180246591,0.19545406998379164
2721,10.936422599988871,0.049206265269682914,0.11434268253839874,-0.1089794912966237,0.029178095354897855,0.04705856164083574,-0.11824171667720068,-0.011618532283028128,-0.13396723054603696,0.08598102053225097,-0.03168719522664103,0.04666052511728174,0.19243176309585322
2722,10.94035909998638,0.04948099250513234,0.11456717311728223,-0.1095901294964642,0.029130811412421027,0.04651717138445059,-0.11789242899592085,-0.011745414160592755,-0.13377257726506003,0.08675308168285922,-0.031131715817856405,0.049566198051855706,0.18938863132301095
2723,10.944514799994067,0.049191492640633695,0.11432795563930627,-0.1102021548673343,0.02908301980937861,0.04597659228368107,-0.1175400438882974,-0.01187003708624408,-0.13356622027779746,0.08751279390820102,-0.03057360851827989,0.05244756961647163,0.18632510234650035
2724,10.948017899994738,0.049444548791337646,0.11452300584154029,-0.11048762895186924,0.029034729734509688,0.04543687148360179,-0.11718461146140091,-0.011992390885085663,-0.133348258518934,0.08826007557570364,-0.030013024998151075,0.05530431639187857,0.183241607318697
2725,10.951483599987114,0.04986639824274555,0.11457243937759377,-0.11090973516297693,0.028985950415453376,0.04489805572649218,-0.11682618214914822,-0.012112466002748859,-0.13311879221761216,0.08899484680423339,-0.02945011744739609,0.05813612257786226,0.18013858081208445
2726,10.954684899988932,0.04986639824274555,0.11457243937759377,-0.11090973516297693,0.028936691116209307,0.04436019134665353,-0.11646480670519181,-0.012230253507231132,-0.13287792286653669,0.08971702947784489,-0.02888503852441444,0.06094268003941504,0.17701646076778543
2727,10.95838989999902,0.04986639824274555,0.11457243937759377,-0.11090973516297693,0.02888696113459246,0.0438233242653513,-0.11610053619575328,-0.012345745090521852,-0.1326257531908951,0.09042654725932026,-0.0283179413048864,0.06372368835049236,0.17387568844365972
2728,10.963927099990542,0.04965278198587797,0.1145628825569645,-0.11238735938530545,0.02883676979968327,0.0432874999858832,-0.11573342199240183,-0.012458933070015898,-0.13236238711710444,0.09112332560349598,-0.027748979230624582,0.06647885483534503,0.17071670836197309
2729,10.968472599997767,0.049377240145736044,0.11434871203485672,-0.11310931420334182,0.028786126469273803,0.04275276358877363,-0.11536351576477906,-0.012569810389715538,-0.13208792974139388,0.09180729177037562,-0.027178306058493144,0.06920789460741693,0.16753996825664116
2730,10.972406099986983,0.049353937096846566,0.11426951124545799,-0.1137209675363425,0.02873504052731087,0.04221915972709477,-0.11499086947327093,-0.012678370621221116,-0.13180248729823277,0.09247837483802641,-0.02660607580941782,0.07191053060579872,0.16434591902005102
2731,10.97613189999538,0.04934112632719492,0.11426200898357385,-0.11424138797026281,0.028683521381336688,0.04168673262191513,-0.1146155353616278,-0.012784607964511153,-0.13150616712861418,0.093136505715258,-0.02603244271750996,0.07458649362922946,0.16113501464946423
2732,10.98042729998997,0.049360127246687445,0.11423219003189244,-0.11481097452033598,0.028631578459928093,0.04115552605787597,-0.11423756594953358,-0.012888517248512605,-0.13119907764820443,0.09378161715408144,-0.025457561179327348,0.07723552236763807,0.1579077121930038
2733,10.984591699991142,0.04935681116953798,0.11415514500103331,-0.11533124938782463,0.028579221210135206,0.04062558337889642,-0.11385701402512445,-0.012990093931462023,-0.1308813283153684,0.09441364376194715,-0.024881585703294594,0.07985736343121726,0.15466447169522843
2734,10.988601799996104,0.049363071268687324,0.1140461916821438,-0.11589188332416737,0.02852645909492052,0.04009694748400775,-0.11347393263745816,-0.013089334101058522,-0.1305530295990812,0.09503252201376026,-0.02430467085930547,0.08245177137702357,0.15140575614229707
2735,10.992873399998643,0.04933608790902445,0.11394788101254143,-0.1163811803210187,0.028473301590599152,0.0395696608233175,-0.1130883750889345,-0.013186234474409586,-0.13021429294673584,0.09563819026367236,-0.02372697122852926,0.08501850873309767,0.148132031406728
2736,10.997023799995077,0.04935079281606336,0.11388142423096989,-0.1168268513695476,0.028419758184280986,0.039043765394103626,-0.11270039492766887,-0.013280792397770852,-0.12986523075185716,0.09623058875664785,-0.023148641353442894,0.08755734602010003,0.14484376619175568
2737,11.001130599994212,0.04934044488713757,0.11371508722171285,-0.1172864337573381,0.028365838371315327,0.03851930273703929,-0.11231004593981868,-0.013373005846081022,-0.1295059563217326,0.09680965963980324,-0.022569835688110544,0.09006806177045851,0.14154143197528973
2738,11.00532199999725,0.049335562754882094,0.1135598994581741,-0.1177269613846821,0.028311551652738774,0.03799631393254866,-0.11191738214186422,-0.013462873422293159,-0.1291365838449707,0.09737534697351762,-0.021990708548732068,0.09255044254502542,0.13822550295348063
2739,11.00964119999844,0.04934124726806844,0.1133947053345499,-0.1181240501818718,0.028256907532727246,0.03747483959729418,-0.11152245777284454,-0.013550394356503749,-0.12875722835899664,0.09792759674231266,-0.02141141406448134,0.09500428294724202,0.13489645598389557
2740,11.013821799992002,0.04928173850336632,0.11320951282477412,-0.11855694143205217,0.028201915516052934,0.03695491988079551,-0.1111253272865491,-0.01363556850488091,-0.12836800571749446,0.0984663568655005,-0.020832106128655395,0.0974293856348089,0.13155477052830877
2741,11.017969900000026,0.04924436899820134,0.11307093301538439,-0.11892779935102847,0.028146585105546917,0.03643659446218033,-0.11072604534366623,-0.013718396348393315,-0.1279690325578062,0.09899157720759712,-0.020252938350154764,0.09982556132886182,0.12820092859510918
2742,11.021985399987898,0.04921280931534614,0.11293658359801755,-0.11928746161848866,0.02809092579956832,0.03591990254706747,-0.11032466680388947,-0.013798878991341431,-0.1275604262682969,0.09950320958849998,-0.019674064005315177,0.10219262882065266,0.12483541468132907
2743,11.026133899998968,0.04913422569359878,0.11276689235716608,-0.1196768472180392,0.028034947089480865,0.035404882864582286,-0.10992124671798345,-0.013877018159692769,-0.12714230495569492,0.1000012077934284,-0.019095635990110518,0.10453041497573642,0.12145871571429635
2744,11.03131969999231,0.04906294294246461,0.11259967062645099,-0.12003874938470334,0.02797865845713761,0.03489157366450464,-0.10951584031980988,-0.013952816199222886,-0.12671478741241843,0.10048552758262541,-0.018517806772746462,0.10683875473566631,0.11807132099291341
2745,11.039727799987304,0.04886292479801135,0.11231324781316393,-0.12079393307390097,0.027922069372374684,0.034380012714549636,-0.10910850301831485,-0.014026276073464008,-0.1262779930838975,0.10095612670081962,-0.01794072834666392,0.10911749111719923,0.1146737221285663
2746,11.044063399996958,0.04878917894334371,0.11221790648557092,-0.1211397654515938,0.02786518929051484,0.0338702372977811,-0.10869929038947883,-0.014097401361463193,-0.12583204203590212,0.10141296488644606,-0.01736455218397114,0.11136647520901538,0.11126641298566817
2747,11.048065799986944,0.0486622491044287,0.1120836758074089,-0.12155835077777215,0.027808027649881648,0.033362284210157814,-0.10828825816823053,-0.014166196255352044,-0.12537705492188508,0.10185600388062443,-0.016789429189322854,0.11358556616595632,0.1078498896218401
2748,11.051707599996009,0.04853216167391802,0.11197759088486157,-0.12193681359970222,0.027750593869325078,0.032856189758212334,-0.10787546224032526,-0.014232665557729946,-0.12491315295035098,0.10228520743589305,-0.016215509654264364,0.11577463120078683,0.10442465022773259
2749,11.05597429999034,0.04848037132457915,0.11188192850529553,-0.12230831591632696,0.02769289734575916,0.032351989756862445,-0.10746095863418863,-0.014296814678862981,-0.12444045785226164,0.10270054132469723,-0.01564294321205804,0.11793354557348651,0.10099119506649112
2750,11.06030369999644,0.048418196039146634,0.11177674668448445,-0.12269772689103518,0.027634947451712612,0.03184971952735501,-0.10704480351272627,-0.014358649633700744,-0.12395909184848827,0.10310197334763072,-0.01507187879300945,0.12006219257807724,0.09755002641286893
2751,11.063967899986892,0.04840906714132571,0.11170917392101824,-0.1231081470751057,0.027576753532893208,0.03134941389534185,-0.10662705316510096,-0.014418177038713316,-0.12346917761732075,0.10348947334142874,-0.014502464580309788,0.12216046352699418,0.09410164849199043
2752,11.068164699987392,0.0483714386283862,0.11162156628845149,-0.12353180317706464,0.027518324905766542,0.03085110718908724,-0.10620776399847755,-0.01447540410855074,-0.12297083826204452,0.1038630131867117,-0.013934847966410932,0.1242282577330089,0.09064656741776919
2753,11.07163049999508,0.0483714386283862,0.11162156628845149,-0.12353180317706464,0.027459670855149915,0.030354833237806782,-0.10578699252973674,-0.014530338652527433,-0.12246419727859417,0.10422256681547805,-0.013369175509948962,0.12626548248871397,0.08718529113098387
2754,11.076059799990617,0.04835339294059335,0.11155706231325163,-0.12389676707356394,0.02740080063182206,0.029860625370137183,-0.10536479537715861,-0.014582989070933998,-0.1219493785232938,0.1045681102183451,-0.012805592893231674,0.12827205304357917,0.08371832933701503
2755,11.079685899996548,0.04835339294059335,0.11155706231325163,-0.12389676707356394,0.027341723450149322,0.029368516412736672,-0.10494122925207712,-0.014633364351178905,-0.12142650618069326,0.10489962145153638,-0.012244244880305113,0.1302478925785906,0.0802461934432464
2756,11.083998399990378,0.048216431434230954,0.1113213281357382,-0.12479769759719661,0.027282448485729045,0.028878538689015694,-0.10451635095050671,-0.014681474063762587,-0.12089570473150972,0.10521708064361439,-0.01168527527561356,0.1321929321784847,0.07676939649613403
2757,11.088848299987148,0.04800528668317999,0.11109063637676223,-0.12577715264708803,0.027222984873050696,0.02839072401799736,-0.10409021734474183,-0.01472732835808653,-0.12035709892068491,0.10552047000195731,-0.011128826883267067,0.13410711080158902,0.07328845311794618
2758,11.092865599988729,0.04791098954743793,0.11099014520863429,-0.12622420123037517,0.02716334170317557,0.0279051037133072,-0.10366288537493028,-0.014770937958100088,-0.11981081372556784,0.10580977381897859,-0.010575041466930253,0.13599037524728314,0.06980387944317809
2759,11.096974599990062,0.04782810617045979,0.11088389339932574,-0.12668479132879257,0.027103528021435678,0.02742170858229169,-0.10323441204062137,-0.0148123141577878,-0.11925697432423199,0.10608497847808869,-0.01002405971034551,0.1378426801210949,0.06631619305464502
2760,11.101210199994966,0.04766373552467127,0.11068479117702668,-0.12717966016469207,0.02704355282515243,0.026940568925265057,-0.10280485439228966,-0.014851468816499989,-0.11869570606393604,0.10634607245939769,-0.00947602117850336,0.13966398779744688,0.06282591291925785
2761,11.105472699986422,0.04753691209395614,0.11053434267124887,-0.1276043702088074,0.026983425061375743,0.0264617145348839,-0.10237426952283535,-0.014888414354129584,-0.11812713442973809,0.10659304634515777,-0.008931064279472243,0.1414542683800697,0.059333559323484275
2762,11.11015779999434,0.04745294753683381,0.11041609431036707,-0.12800803507445818,0.026923153624644074,0.02598517469564879,-0.10194271455906248,-0.014923163746138142,-0.11755138501327292,0.10682589282494413,-0.008389326226899392,0.14321349966009952,0.05583965380849893
2763,11.113719499990111,0.04745294753683381,0.11041609431036707,-0.12800803507445818,0.02686274735476609,0.025510978183532273,-0.10151024665313586,-0.014955730518434041,-0.11696858348170097,0.1070446067005722,-0.007850943003194073,0.14494166707187722,0.05234471910502603
2764,11.11798299998918,0.04736981095896683,0.11032394609884065,-0.12842715295864957,0.026802215034624464,0.025039153265732604,-0.10107692297401814,-0.014986128742105838,-0.1163788555468391,0.10724918489075,-0.007316049323403871,0.14663876364646827,0.048849279067877865
2765,11.122155699995346,0.047234452939189236,0.11005608303927783,-0.1291505314825642,0.026741565388002448,0.02456972770055246,-0.10064280069888822,-0.015014373028013792,-0.11578232693448264,0.10743962643546445,-0.00678477859979431,0.14830478996292246,0.04535385861019226
2766,11.126292399989325,0.047104776894546535,0.10984364236463898,-0.12955143123632315,0.02668080707743378,0.024102728737401772,-0.10020793700454249,-0.015040478521242618,-0.11517912335392788,0.10761593250010068,-0.006257262907141565,0.14993975409729252,0.041858983637372615
2767,11.129759099989316,0.047104776894546535,0.10984364236463898,-0.12955143123632315,0.026619948702076436,0.023638183116923818,-0.09977238905877966,-0.015064460895418599,-0.11456937046770356,0.10777810637929336,-0.005733632948747594,0.15154367156943194,0.03836518098073438
2768,11.1344262999919,0.04698449702749575,0.10951412588203606,-0.13030096660104323,0.026558998795610734,0.023176117071243597,-0.09933621401177026,-0.015086336346894177,-0.11395319386151993,0.10792615350050819,-0.005214018023186456,0.1531165652875928,0.03487297833086162
