,time,x,y,z,vx,vy,vz,ax,ay,az,jx,jy,jz
4513,20.55397609999636,0.0802895777256991,0.006529885122961747,0.0273521122734603,-0.016270529140396405,-0.06148573574326746,0.04642755819156321,0.035016524669371475,0.23659620275680657,-0.11856304838765759,0.14424478281241712,0.24811925743513985,-0.44779547375278755
4514,20.55826759999036,0.08023959083499929,0.006479611255570621,0.027350618265767585,-0.01610936214484149,-0.06040420130090037,0.045882237087690715,0.035670765561739565,0.23772362221682194,-0.12060561067488022,0.14278744505141827,0.24629415362792326,-0.44807429332475013
4515,20.56468369999493,0.08011961287942963,0.006344483331992629,0.027337482185823884,-0.01594522783510707,-0.059317543969532156,0.04532759916382611,0.0363183207842174,0.23884271953185862,-0.12264935345654494,0.14131121238036423,0.24447414284478952,-0.44831538821218353
4516,20.568674999987707,0.08003706727868923,0.006283013985465938,0.027330329436220272,-0.01577815689170349,-0.05822580171541868,0.044763639468920535,0.03695910511922157,0.23995351673485252,-0.12469410423614025,0.13981640869835896,0.24265875113448337,-0.44851849890341794
4517,20.57268739999563,0.07996722453997969,0.006223485344193924,0.0273412775553918,-0.015608180379579275,-0.05712901241006987,0.04419035384070759,0.03759303483030594,0.24105603369381287,-0.12673968934462485,0.1383033605369673,0.24084749797358948,-0.4486833676980558
4518,20.57670169998892,0.07988643154057179,0.006149400980439319,0.027343689217217675,-0.015435329741328227,-0.05602721384011982,0.043607738910980874,0.03822002767384391,0.24215028808243017,-0.12878593394870927,0.13677239699859003,0.23903989648516108,-0.44880973878650937
4519,20.580692199990157,0.07979099810507562,0.006067931794446837,0.027344227519069838,-0.015259636790344725,-0.05492044371732775,0.04301579211083359,0.03884000291042947,0.24323629535167318,-0.1308326620594907,0.13522384969461929,0.2372354536594525,-0.4488973583302521
4520,20.584929899996496,0.07968283813023423,0.005975012089205661,0.02733813144562148,-0.015081133703928537,-0.053808739688705066,0.042414511675858496,0.03945288131599639,0.24431406870238517,-0.13287969654144424,0.13365805268337608,0.235433670576696,-0.44894597454276075
4521,20.589581699998234,0.07958157086571552,0.0059073854597836515,0.02734293541910512,-0.014899853016340434,-0.052692139346764075,0.04180389665130672,0.0400585851926547,0.2453836190588874,-0.13492685912177368,0.13207534240783345,0.2336340426318623,-0.4489553377711232
4522,20.59372199999052,0.07949259016246568,0.0058214203046200366,0.027359927880051836,-0.014715827611809866,-0.05157068023988353,0.04118394689720378,0.040657038379243636,0.24644495504359903,-0.13697397040012582,0.13047605763312775,0.23183605976134403,-0.4489252005782912
4523,20.597524799988605,0.07940581792546073,0.005728302688970608,0.027377649886562567,-0.014529090717495998,-0.05044439988278659,0.0405546630934214,0.04124816626160002,0.24749808295268264,-0.1390208498586705,0.12886053938386102,0.23003920667150185,-0.4488553178259548
4524,20.601631799989264,0.07929637101077858,0.005639512085538194,0.027403493777054474,-0.014339675896403468,-0.04931333576712653,0.0399160467447033,0.04183189578254127,0.2485430067327243,-0.14106731587254945,0.1272291308811963,0.2282429630690118,-0.4487454467580124
4525,20.609869299994894,0.07913429615907609,0.005450050001507798,0.027489715655036856,-0.014147617040254207,-0.04817752537217565,0.03926810018564371,0.04240815545156237,0.24957972795845643,-0.14311318572069717,0.12558217747974815,0.2264468038929525,-0.4485953470846161
4526,20.613951199993608,0.07906533605862928,0.005364609903321196,0.02753338708541563,-0.013952948362316652,-0.04703700617561264,0.03861082658561669,0.04297687535424628,0.25060824581153074,-0.14515827559703798,0.1239200266042703,0.22465019954856963,-0.4484047810667645
4527,20.618249499995727,0.0789974124636302,0.005269110684546277,0.027558007411665676,-0.013755704390193694,-0.04589181566440408,0.03794422995365476,0.04353798716138691,0.25162855706035087,-0.14720240062206197,0.12224302768614195,0.22285261614265445,-0.4481735136014183
4528,20.624587499987683,0.0789577959772186,0.005168819217962361,0.027581176283898903,-0.013555919958570663,-0.04474199134577519,0.037268315143275096,0.04409142413782391,0.2526406560409726,-0.14924537485478306,0.12055153209965397,0.22105351572047424,-0.44790131230711455
4529,20.628381799993804,0.07891286253209942,0.005076807895635882,0.027575244589694556,-0.013353630201924566,-0.04358757075826502,0.036583087857251693,0.04463712115098861,0.25364453463907877,-0.15128701130508132,0.1188458930980963,0.21925235650419214,-0.4475879476100542
4530,20.63256439998804,0.07890213632569637,0.004982218070829687,0.02759860563332372,-0.01314887054719591,-0.04242859148286136,0.03588855465233185,0.04517501467916036,0.2546401822730373,-0.15332712194643283,0.1171264657496477,0.2174485931327132,-0.4472331928306368
4531,20.636993499996606,0.0788895122385058,0.0048875876094957305,0.027604087476511347,-0.012941676706424493,-0.04126509115421045,0.03518472294389509,0.04570504281943234,0.25562758587804796,-0.1553655177290297,0.11539360687306838,0.21564167690289343,-0.4468368242704155
4532,20.64115139999194,0.07886484614499976,0.004797485178963288,0.027605042411446144,-0.012732084669350462,-0.04009710747189685,0.034471601010552785,0.04622714529538599,0.25660672989138394,-0.15740200859329284,0.11364767497319658,0.2138310560120477,-0.4463986212994457
4533,20.64924039998732,0.07881107505076738,0.004655008474944861,0.02763023381747496,-0.012520130695981962,-0.038924678211788445,0.03374919799868697,0.04674126346447309,0.25757759623873305,-0.15943640348378021,0.11188903017625051,0.21201617580169171,-0.44591836644399596
4534,20.653547800000524,0.0787676518272098,0.0045492299933434545,0.02765079729315544,-0.01230585130913069,-0.03774784123744193,0.033017523926926355,0.04724734032510481,0.2585401643216417,-0.1614685103634932,0.11011803416493571,0.21019647900245425,-0.4453958454745904
4535,20.657705499994336,0.07869845715468654,0.004478273624018747,0.027668924097422838,-0.012089283286916663,-0.03656663451156374,0.032276589690557515,0.047745320523446905,0.2594944110060671,-0.1634981362285822,0.1083350501133592,0.20837140598009274,-0.444830847494353
4536,20.66208659998665,0.07864210883796983,0.00439636031778052,0.02769540670505062,-0.011870463655243574,-0.03538109610752126,0.031526407065869136,0.0482351503599201,0.2604403106120435,-0.165525087123454,0.10654044262175132,0.20654039498254634,-0.44422316502762754
4537,20.666692699989653,0.07859606485797856,0.0043173582526447206,0.027746427953309918,-0.01164942968024606,-0.03419126422089932,0.030766988714427686,0.04871677779540504,0.2613778349044636,-0.1675491681562827,0.10473457765099621,0.20470288238795875,-0.4435725941088443
4538,20.6726450999995,0.07850536952346322,0.004152800991981246,0.027799608282276546,-0.011426218860710264,-0.03299717718109718,0.02999834818728286,0.04919015245715142,0.262306953084984,-0.16957018351492545,0.1029178224569717,0.20285830295360469,-0.4428789343716056
4539,20.677513999995423,0.0784572801499847,0.0040730011305471535,0.027814870821888844,-0.011200868920468982,-0.0317988734629609,0.029220499929101067,0.049655225644390504,0.2632276317850559,-0.17158793648324341,0.10109054552469918,0.20100609006565318,-0.44214198913795877
4540,20.68168889998924,0.0784279127416585,0.004019817124577256,0.02779881661617932,-0.010973417800772798,-0.030596391698446048,0.028433459282225206,0.05011195033365065,0.26413983506008915,-0.17360222945782985,0.09925311650230474,0.19914567598969982,-0.441361565507823
4541,20.685467899995277,0.07840591158717637,0.003969878802253672,0.027745791404180355,-0.010743903652638572,-0.02938977068830577,0.027637242490659054,0.050560281183775,0.26504352438474993,-0.17561286396514586,0.09740590613479243,0.1972764921220001,-0.4405374744485387
4542,20.689116199995624,0.07840475937384225,0.003915913708059649,0.02771039497362339,-0.010512364829176626,-0.028179049413798812,0.026831866703974375,0.051000174540640715,0.26593865864939714,-0.1776196406790647,0.09554928619762953,0.1953979692413361,-0.4396695308845086
4543,20.693172499988577,0.07839047855765056,0.003873352902382491,0.027654005782284864,-0.010278839877898,-0.026964267048412517,0.02601734998113891,0.051431588441579135,0.2668251941576603,-0.17962235943882482,0.09368362943014524,0.1935095377614483,-0.4387575537868965
4544,20.697514999992563,0.0784150218181342,0.0038462515891786674,0.027593482997393375,-0.010043367533003191,-0.025745462969595633,0.025193711294263364,0.051854482619495934,0.2677030846251618,-0.181620819267393,0.0918093094687437,0.1916106279839627,-0.4378013662633531
4545,20.70188860000053,0.0784192865824837,0.0038143770154354098,0.027524649807260337,-0.00980598670765379,-0.024522676770495865,0.024360970532265484,0.052268818506690684,0.26857228117938636,-0.1836148183902382,0.08992670077993262,0.1897006703517427,-0.4368007956477361
4546,20.705903499998385,0.07841543726792594,0.0037797430990318065,0.027496602041887957,-0.00956673648622846,-0.023295948271697044,0.023519148504449267,0.052674559238375496,0.26943273236070114,-0.1856041542545161,0.08803617859316835,0.18777909570259674,-0.43575567358979095
4547,20.710062499987544,0.0784011145628657,0.0037483924503301964,0.027442093923921624,-0.009325656116564614,-0.022065317532950653,0.022668266943997414,0.053071669655892,0.2702843841245266,-0.1875886235486658,0.08613811883351884,0.1858453355232703,-0.43466583614475673
4548,20.71428259999084,0.07838491366964545,0.003728561169338859,0.02741903224595083,-0.009082785002187175,-0.02083082486489638,0.021808348511375173,0.05346011630962601,0.2711271798446607,-0.1895680222224186,0.08423289805414583,0.18389882220365228,-0.43353112386286763
4549,20.71834809999564,0.078361946222591,0.003706543099327674,0.027376433009560552,-0.008838162694525803,-0.019592510840766426,0.020939416797643724,0.05383986746161909,0.2719610603177561,-0.19154214550721949,0.08232089336860805,0.18193898929112365,-0.43235138187871375
4550,20.72264309998718,0.07834964127092331,0.003671502338066414,0.027375575626784623,-0.008591828885121961,-0.01835041630806842,0.02006149632768122,0.05421089308787662,0.2727859637689491,-0.19351078793706142,0.08040248238298689,0.1799652717449777,-0.43112646000042826
4551,20.73096289999376,0.07832906621580231,0.003610572227182392,0.02731256099499653,-0.008343823397827214,-0.017104582400241795,0.01917461256330955,0.05457316488037128,0.27360182585864395,-0.19547374336973192,0.07847804312783621,0.17797710619084176,-0.4298562127986696
4552,20.73909920000005,0.07831630186645315,0.0035377385201124222,0.027259340633312798,-0.008094186180994157,-0.015855050548282415,0.01827879190632496,0.05492665624874118,0.27440857969045135,-0.19743080500847177,0.0765479539899582,0.1759739311750283,-0.4285404996953624
4553,20.74380649998784,0.07828599003864663,0.00350163782841467,0.027207722888704308,-0.007842957299661323,-0.014601862492330354,0.01737406170143076,0.055271342321681946,0.27520615582028213,-0.19938176542404448,0.07461259364400691,0.17395518741874422,-0.42717918505216085
4554,20.747871599989598,0.07829089634250133,0.003448400399908676,0.027179470440534897,-0.007590176927733495,-0.01334506029321564,0.016460450239070282,0.05560719994803243,0.27599448226659484,-0.20132641657721556,0.0726723409839219,0.17192031807208627,-0.4257721382585993
4555,20.75172649999149,0.0782537550848225,0.0034239753782441965,0.02712282623297991,-0.007335885340158844,-0.012084686343956753,0.015537986758158321,0.055934207697553286,0.2767734845217946,-0.20326454984164105,0.07072757505419482,0.16986876896774947,-0.42431923381989606
4556,20.755893099994864,0.07821466715520171,0.0033957538855989267,0.027073345737879378,-0.007080122905104289,-0.010820783381206603,0.014606701448709195,0.056252345861397664,0.2775430855647819,-0.20519595602716303,0.06877867498097084,0.16779998887437553,-0.4228203514443728
4557,20.76015259999258,0.0782096327179985,0.003406367029303191,0.027022543206027073,-0.006822930076130435,-0.009553394496640786,0.013666625454359642,0.0565615964522733,0.27830320587464724,-0.20712042540351042,0.06682601990298807,0.16571342974946812,-0.42127537613045185
4558,20.765363599988632,0.07817912157954846,0.0033848536724448612,0.026989488139179812,-0.006564347384367486,-0.00828256314828291,0.012717790874784692,0.056861943204295176,0.2790537634455095,-0.20903774772440345,0.06486998890235723,0.16360854699180274,-0.4196841982531944
4559,20.76870329999656,0.07815259299263456,0.003347618085629367,0.026963379632309818,-0.0063044154306935085,-0.007008333171761847,0.011760230768004688,0.05715337157252819,0.2797946738024962,-0.21094771225205958,0.06291096093518478,0.1614847996932574,-0.41804671365034424
4560,20.77316449998761,0.07811679758238874,0.0033187248854218082,0.026933447360373154,-0.00604317487791648,-0.005730748791495639,0.010793979152581687,0.05743586873221926,0.2805258500188631,-0.2128501077820984,0.06094931476204305,0.1593416508899905,-0.41636282370784183
4561,20.776948599988827,0.07810229558389276,0.0033008126002562112,0.026915862889101767,-0.005780666442961473,-0.004449854631796918,0.009819071009703414,0.05770942357771859,0.2812472027342509,-0.21474472266884376,0.058985428878291064,0.15717856781289227,-0.4146324354447726
4562,20.780757599990466,0.0780869719886207,0.0032679141881351076,0.026912619713722413,-0.005516930889064384,-0.0031656957278947324,0.008835542285152891,0.05797402672108953,0.2819586401740757,-0.2166313448510214,0.057019681444249425,0.15499502213723582,-0.4128554615977138
4563,20.78509309999936,0.07807523784040094,0.0032281365829972763,0.026925362712527958,-0.005252009017973623,-0.0018783175368676474,0.007843429891162003,0.05822967049040616,0.2826600681700498,-0.2185097618778492,0.055052450215233716,0.15279049023145433,-0.411031820704445
4564,20.789211799987243,0.0780469383332687,0.003196190609150473,0.0269176020890382,-0.004985941662161179,-0.0005877659484829978,0.006842771708147195,0.058476348927738314,0.2833513901818306,-0.22037976093551706,0.05308411247145067,0.15056445340497157,-0.4091614371869831
4565,20.793451499994266,0.07804969002464864,0.0031408554753787855,0.026909145827622192,-0.00471876967704448,0.0007059127040628548,0.0058336065863255245,0.05871405778682356,0.28403250731979257,-0.22224112887405328,0.05111504494776195,0.14831639815501152,-0.4072442414339054
4566,20.79761189999408,0.07805736460315232,0.003086035060325363,0.026918325793479775,-0.004450533933220427,0.002002671633508369,0.0048159743472092715,0.058942794530425176,0.2847033183689186,-0.22409365223457398,0.04914562376332041,0.14604581641231254,-0.40528016988192256
4567,20.801706699989158,0.07802897872750728,0.003024706039547179,0.02688607708317364,-0.004181275308713033,0.0033024635879998683,0.003789915784977323,0.05916255832737588,0.28536371981380343,-0.22593711727691204,0.04717622435108429,0.1437522057856727,-0.4032691650966661
4568,20.805833699996583,0.07802917800329463,0.002973887013594577,0.026870937374615798,-0.003911034681236073,0.00460524084067885,0.0027554726677215652,0.05937335004930666,0.2860136058647646,-0.2277713100076227,0.045207221387215016,0.14143506980525136,-0.4012111758526545
4569,20.80989779999072,0.07802826711154125,0.002904453704330615,0.026847974808265673,-0.0036398529204721233,0.005910955179388613,0.0017126877385665567,0.05957517226706004,0.28665286848505794,-0.22959601620836204,0.04323898872036481,0.1390939181645535,-0.39910615721240195
4570,20.814064499994856,0.07802472805510274,0.002863117531382833,0.02680873672031784,-0.0033677708803694275,0.007219557896505221,0.000661604716660753,0.05976802924678725,0.28728139741919095,-0.23141102146463496,0.04127189930086018,0.1367282669610215,-0.39695407060463167
4571,20.81825269998808,0.07803862036710148,0.002814682278558419,0.026797628969723514,-0.00309482939145797,0.008530999778897803,-0.00039773170196243514,0.05995192694572898,0.28789908022232813,-0.23321611119490718,0.03930632510978799,0.13433763893516124,-0.3947548839015548
4572,20.82248360000085,0.07803512478559357,0.0027654413093671647,0.02674267371859739,-0.0028210692531862014,0.009845231098023169,-0.0014652758436554442,0.06012687300767937,0.2885058022907817,-0.23501107068007598,0.03734263708799091,0.1319215637081285,-0.3925085714951795
4573,20.82673679999425,0.07806434416072897,0.0027417405571384733,0.026710271116826716,-0.0025465312262798216,0.011162201600159707,-0.0025409810565608895,0.060292876758132934,0.2891014468935812,-0.23679568509329568,0.03538120506497954,0.12947957801770194,-0.39021511437261375
4574,20.830763399993884,0.07807263410927191,0.002708738195047372,0.026670046324663927,-0.002271256025124024,0.01248186049678547,-0.0036247997101510813,0.06044994919911389,0.28968589520511473,-0.2385697395301534,0.03342239768776877,0.12701122595256895,-0.3878745001903264
4575,20.83511099999305,0.07805810518902569,0.0026745205182033324,0.026612922561737896,-0.0019952843101706166,0.01380415645510533,-0.004716683194904354,0.060598103003687724,0.29025902633883516,-0.24033301903919113,0.031466582349646395,0.12451605918485069,-0.38548672334733153
4576,20.840278699994087,0.07805346730269365,0.002644919719141838,0.026595831163851197,-0.0017186566803714175,0.01512903758873202,-0.0058165819221198236,0.060737352510154496,0.29082071738202364,-0.24208530865276764,0.029514125118882358,0.12199363720079251,-0.38305178505725973
4577,20.847151299996767,0.07801887114367186,0.002548307659694931,0.02656295712782173,-0.0014414136656393272,0.016456451448525852,-0.006924445323872153,0.060867713715923866,0.2913708434316022,-0.24382639341825438,0.02756539066738755,0.11944352752954579,-0.3805696934192821
4578,20.8514135999867,0.07799205732469276,0.002498227957805348,0.026549753759535975,-0.0011635957193384741,0.017786345013597826,-0.008040221853107902,0.06098920427107186,0.2919092776309865,-0.24555605842956013,0.025620742199331126,0.11686530596996692,-0.37804046348785186
4579,20.856010499992408,0.07796623479276975,0.0024355309899079416,0.026544923576839127,-0.0008852432108048456,0.019118664682480906,-0.009163858983885026,0.061101843471578945,0.2924358912079701,-0.24727408885897667,0.023680541379725695,0.11425855681536,-0.37546411734122864
4580,20.860190599996717,0.07792692035441523,0.00237468897070827,0.026513639829168743,-0.000606396417898809,0.02045335626447427,-0.010295303211757027,0.06120565225224935,0.29295055351363114,-0.24898026998934078,0.021745148262990243,0.11162287307608963,-0.3728406841487501
4581,20.86447169999883,0.07791437670117035,0.0023150504377709475,0.026495435875331538,-0.00032709551959094087,0.02179036497116519,-0.011434500054303251,0.0613006531793113,0.2934531320622521,-0.25067438724650654,0.019814921221500963,0.10895785669998981,-0.37017020023681546
4582,20.86849519998941,0.07790694799665485,0.002247974665235597,0.02645912369853873,-4.738058858256709e-05,0.023129635408133033,-0.012581394051806806,0.061386870442697895,0.2939434925722426,-0.25235622623212167,0.017890216874140594,0.10626311879049645,-0.3674527091535445
4583,20.87246289999166,0.07789007187816273,0.002166337599051991,0.026412366013192246,0.00023270841603758154,0.02447111156684,-0.013735928768081548,0.061464329848008696,0.294421499008054,-0.2540255727567012,0.015971390014857402,0.10353827982243073,-0.3646882617320758
4584,20.876730399992084,0.07787670627532765,0.0020983163809612285,0.026377731744660755,0.0005131316560991999,0.025814736816712966,-0.01489804679144954,0.06153305880815191,0.29488701362307373,-0.25568221287299225,0.014058793541245214,0.10078296985536157,-0.36187691615247014
4585,20.881198599992786,0.07787983830489482,0.0020322073484750998,0.026350226804169898,0.0007938494216173229,0.02716045389742099,-0.016067689735870347,0.0615930863346671,0.29533989700348906,-0.2573259329096234,0.012152778383156291,0.09799682874447502,-0.35901873800218603
4586,20.885211699991487,0.07788051834814866,0.0019577509832702927,0.026320836902614175,0.001074822138018921,0.028508204911352884,-0.0172447982422236,0.06164444302872858,0.29578000811310756,-0.2589565195050325,0.010253693431359229,0.09517950634887877,-0.35611380033509227
4587,20.889279199996963,0.07786632424213513,0.0018783003070194984,0.02629219090556861,0.0013560103733277745,0.029857931316299297,-0.018429311979746274,0.06168716107182956,0.29620720433912684,-0.2605737596416676,0.008361885466254325,0.09233066273726984,-0.3531621837289835
4588,20.893228599990834,0.07785988279085107,0.0018110397371273411,0.026279004720939206,0.0016373748453062278,0.031209573918343572,-0.019621169647626044,0.06172127421614696,0.2966213415388407,-0.2621774406804534,0.006477699086659353,0.08944996839089396,-0.35016397634156665
4589,20.8977065999934,0.07786806193114432,0.0017568826744495546,0.02626624797098092,0.0019188764285524237,0.0325630728649656,-0.020820308976752026,0.061746817774586835,0.29702227408726917,-0.2637673503955151,0.004601476638679212,0.08653710440372629,-0.34711927396488534
4590,20.901897099989583,0.07785036737684613,0.0017000685602535585,0.02623087704530827,0.0022004761615516165,0.03391836763836264,-0.02202666673162411,0.06176382861051055,0.2974098549257001,-0.26534327700915317,0.002733558144673174,0.08359176267980346,-0.34402818007815117
4591,20.905731599996216,0.07783737791675369,0.0016588406312025821,0.026234803360686742,0.002482135253680171,0.03527539704899142,-0.02324017871242209,0.06177234512714242,0.2977839356111282,-0.2669050092270609,0.000874281232333981,0.0806136461276368,-0.3408908058989505
4592,20.91010739999183,0.07783864033516566,0.0016204107270701732,0.02621629547311988,0.0027638150921608464,0.03663409922933554,-0.024460779757235828,0.061772407256659244,0.2981443663665786,-0.2684523362737769,-0.000976018936106652,0.07760246885163703,-0.33770727043279486
4593,20.91418069999781,0.07784627675314823,0.0015869986632172847,0.02620444429399492,0.0030454772489679643,0.037994411627902194,-0.02568840374445755,0.061764056448962296,0.2984909961323,-0.26998504792836464,-0.0028170097345311326,0.07455795634048146,-0.33447770052098513
4594,20.91831359999196,0.07786631269075245,0.0015710521418878622,0.026222340415464368,0.003327083487681075,0.03935627100345226,-0.02692298359533751,0.061747335660132664,0.29882367261781323,-0.2715029345603111,-0.004648361143432281,0.07147984565235425,-0.3312022308867576
4595,20.922974000000977,0.07785002218030362,0.0015419360686107712,0.026205022712068256,0.0036085957702857415,0.0407196134194677,-0.028164451276703938,0.06172228934057104,0.2991422423547998,-0.2730057871656366,-0.006469745820237015,0.06836788559699153,-0.3278810041796805
4596,20.9267453999928,0.07785708456932866,0.0015001915551702055,0.026198198563484088,0.0038899762639200515,0.04208437423886031,-0.029412737803848257,0.061688963422822866,0.299446550750816,-0.27449339740320483,-0.008280839169441258,0.0652218369144636,-0.32451417101827235
4597,20.93099949999305,0.07786131499047264,0.0014667797205192687,0.02618539757984869,0.00417118734756548,0.04345048811892527,-0.030667773243576422,0.06164740530908953,0.2997364421438172,-0.27596555763122443,-0.010081319412539484,0.062041472450627376,-0.32110189003081296
4598,20.93539869999222,0.0778575296890051,0.0014352496728495842,0.026159249806719014,0.004452191618680714,0.04481788900654325,-0.031929486717427305,0.061597663858426646,0.30001175985747713,-0.2774220609439329,-0.011870867657731923,0.05882657732918239,-0.317644327894317
4599,20.939329599990742,0.07786380364554078,0.0013906671221632968,0.02616196999616665,0.0047329518997770775,0.04618651013363471,-0.03319780640505904,0.06153978937363071,0.30027234625728694,-0.27886270120845597,-0.01364916796939205,0.0555769491202637,-0.31414165937164135
4600,20.94373009999981,0.07784020410080124,0.0013491462901819645,0.0261394445137957,0.005013431244934184,0.04755628401287008,-0.03447265954780408,0.06147383358781507,0.3005180428074186,-0.2802872731018309,-0.015415907437276537,0.05229239800550596,-0.31059406734669837
4601,20.94744309999805,0.0778422043093858,0.0012969240190641945,0.026136465441812574,0.005293592946254437,0.04892714243363947,-0.03575397245239393,0.061399849650676325,0.3007486901283363,-0.2816955721481857,-0.017170776245459624,0.04897274693951371,-0.3070017428577456
4602,20.95170099999814,0.07784988275734983,0.0012671542946113012,0.02615273914821891,0.005573400540255042,0.05029901645828542,-0.03704167049485405,0.06131789211445202,0.3009641280551406,-0.28308739475606587,-0.018913467740973373,0.04561783180767424,-0.3033648851287232
4603,20.95635069999844,0.07782074838293505,0.001227336651347307,0.026143090607344027,0.005852817814196145,0.051671836418602055,-0.038335678124569846,0.06122801691957112,0.301164195696629,-0.2844625382558995,-0.02064367850213499,0.042227501580249426,-0.2996837015986134
4604,20.960248499992304,0.07780940864899313,0.001181083943211503,0.026139874266529046,0.006131808812343761,0.05304553191260391,-0.03963591886852415,0.061130281379998354,0.3013487314950562,-0.2858208009375932,-0.022361108406541964,0.03880161846268397,-0.29595840794879547
4605,20.96423899999354,0.07780118866302693,0.001117192764017771,0.02613955683799241,0.006410337842166131,0.054420031801567355,-0.0409423153357071,0.06102474416827362,0.3015175732865771,-0.28716198208824834,-0.02406546069871558,0.03534005804206801,-0.292189228128371
4606,20.96822070000053,0.07779229885439462,0.001066857725220654,0.02612466474896419,0.006688369480462204,0.05579526420734795,-0.04225478922169879,0.06091146530024742,0.3016705583623553,-0.28848588202998876,-0.025756442057372764,0.03184270942969294,-0.28837639437743456
4607,20.97316189999401,0.0777971790224926,0.0010136432826593777,0.026106187471558556,0.006965868579420901,0.0571711565099766,-0.04357326131342514,0.06079050611951379,0.30180752353032164,-0.28979230215789104,-0.027433762662306016,0.028309475399640245,-0.2845201472482676
4608,20.977455999993253,0.07781155977861391,0.0009525989708553176,0.026106791330625354,0.007242800272609842,0.05854763534553765,-0.044897651494087525,0.060661929281542105,0.3019283051775649,-0.29108104497800663,-0.029097136260850795,0.02474027252334367,-0.2806207356244347
4609,20.98131160000048,0.07781343048826384,0.0008793752847676991,0.02609504021466409,0.007519129980892173,0.05992462660433171,-0.04622787874826638,0.060525798737509386,0.3020327393333379,-0.2923519141454647,-0.030746280233919527,0.021135031300065815,-0.2766784167377597
4610,20.985115899995435,0.07781697400426371,0.0008049526940085944,0.02608090581821371,0.00779482341827023,0.06130205542932644,-0.04756386116719945,0.0603821797178348,0.3021206617326632,-0.29360471450264614,-0.03238091566158091,0.017493696283231212,-0.27269345618315827
4611,20.98925619998772,0.0778121404306385,0.000711677630081628,0.026056811613457166,0.008069846597654704,0.06267984621489779,-0.04890551595423486,0.06023113871541854,0.30219190788052164,-0.294839252117419,-0.03400076738816285,0.013816226202558894,-0.26866612793130407
4612,20.993512999993985,0.07778722533702238,0.0006224595909026257,0.026028200749927136,0.008344165836558014,0.06405792260586442,-0.05025275943045932,0.06007274346858717,0.3022463131166021,-0.2960553343214256,-0.03560556408685715,0.010102594081938436,-0.2645967143391089
4613,20.9991258999944,0.07779917136614013,0.0005253806383735024,0.026013871591224886,0.008617747762710607,0.06543620749681778,-0.051605507040501666,0.05990706294374743,0.3022837126805929,-0.29725276974841197,-0.037195038323803706,0.006352787352994523,-0.26048550615799765
4614,21.003244699997595,0.07780624212315941,0.0004106370827161443,0.02598886059351646,0.00889055931959886,0.06681462303175088,-0.05296367335851219,0.05973416731775077,0.3023039417779952,-0.2984313683725892,-0.038768926621631665,0.002566807964286022,-0.2563328025399582
4615,21.00684389998787,0.07781194801697945,0.0003034942032395954,0.025951197068555205,0.009162567771923301,0.06819309060398795,-0.05432717209431798,0.05955412795997099,0.3023068356464389,-0.2995909415470155,-0.040326969522434794,-0.0012553275139134032,-0.25213891104134795
4616,21.01020809999318,0.07781814827886824,0.0001773268215782854,0.025934558570770674,0.009433740710975812,0.06957153085641767,-0.05569591609975447,0.05936701741409775,0.3022922296224801,-0.30073130204198795,-0.04186891165015799,-0.005113587789305125,-0.2479041476244394
4617,21.01433909998741,0.07780352256418525,6.261356371292365e-05,0.025915771081148953,0.009704046059934636,0.07094986368203232,-0.05706981737517336,0.05917290937964859,0.3022599592088581,-0.30185226408343496,-0.0433945017723718,-0.0090079267517767,-0.24362883665668925
4618,21.01851939999324,0.07778489055803108,-3.476005678280886e-05,0.025868098675768357,0.00997345207907592,0.0723280082247747,-0.05844878707612681,0.058971878693202244,0.3022098601421913,-0.30295364339129943,-0.044903492861411314,-0.01293828338218411,-0.23931331090771446
4619,21.02259839999897,0.07776819148611584,-0.00015255556015118902,0.025855996526388557,0.010241927370900525,0.07370588288069468,-0.059832735520227734,0.05876400130935597,0.30214176846108926,-0.3040352572179053,-0.04639564215485571,-0.016904581665753746,-0.23495791154396034
4620,21.026935899993987,0.07774690603141186,-0.00026296126153872414,0.025841974881415687,0.010509440885174876,0.07508340529941793,-0.061221572194186176,0.05854935428140979,0.30205552057466045,-0.30509692438629693,-0.04787071121532459,-0.020906730510151635,-0.23056298812104667
4621,21.030707999991137,0.07772772535246335,-0.0003519198334138193,0.0258240857593959,0.010775961923884666,0.07646049238592817,-0.06261520576102159,0.058328015741780634,0.3019509533313943,-0.30613846532854316,-0.049328465989567166,-0.024944623668266296,-0.22612889857377838
4622,21.038699999990055,0.07768289085459361,-0.000527702206039528,0.025781634120264137,0.011041460146100204,0.07783706030266503,-0.06401354406745084,0.058100064882149596,0.3018279040883945,-0.30715970212399524,-0.050768676866820156,-0.029018139665750425,-0.22165600920380804
4623,21.044186099999934,0.0776953838440817,-0.0006445035875562844,0.025795722569270787,0.011305905572752253,0.07921302447193869,-0.0654164941514516,0.057865581933345386,0.3016862107809417,-0.308160458537489,-0.05219111873640967,-0.03312714173336534,-0.21714469466493916
4624,21.047793099991395,0.07767450001188769,-0.000715584617132846,0.025775647620563443,0.011569268591317104,0.08058829957866312,-0.06682396225000102,0.057624648144967164,0.3015257119923632,-0.30914056005747986,-0.05359557104457252,-0.0372714777441708,-0.21259533794605878
4625,21.05154689999472,0.07769959154758219,-0.0007890686014945608,0.025761724932738695,0.011831519960409771,0.08196279957340917,-0.06823585380698965,0.05737734576475011,0.3013462470241853,-0.3100998339340988,-0.05498181785047205,-0.04145098015560151,-0.20800833035168884
4626,21.055915199991432,0.0776986623551162,-0.0008454001117936273,0.02573396322707389,0.012092630814284201,0.08333643767577953,-0.06965207348131021,0.0571237580176775,0.3011476559665464,-0.3110381092171195,-0.0563496478813835,-0.04566546595647024,-0.20338407148014617
4627,21.060263599996688,0.07772245890384119,-0.0009053106973002553,0.02571261913094018,0.0123525726672394,0.08470912637810632,-0.07107252515512016,0.056863969084842786,0.30092977976884894,-0.3119552167938254,-0.0576988545870242,-0.04991473661893621,-0.1987229691993023
4628,21.064156899999944,0.07775233235269276,-0.0009690711866351154,0.025678164099439252,0.012611317417930382,0.08608077744947194,-0.07249711194227763,0.05659806408206512,0.3006924603106247,-0.3128509894267651,-0.05902923619300342,-0.05419857805547632,-0.19402543961993546
4629,21.06826619998901,0.07777235153759017,-0.0010213916702688426,0.025638925017990623,0.012868837353582765,0.08745130194005403,-0.07392573619695005,0.05632612903826196,0.3004355404725917,-0.31372526179138516,-0.060340595753366484,-0.058516760580894944,-0.1892919070666689
4630,21.072464099997887,0.07780621678865733,-0.0010620049827058226,0.02561442469511066,0.013125105154109981,0.08882061018579505,-0.07535829952239513,0.05604825087358236,0.3001588642078765,-0.3145778705135302,-0.06163274120220817,-0.06286903887940677,-0.18452280404648927
4631,21.0767543999973,0.07782923416160785,-0.001120019422898685,0.02558807022442031,0.013380093896132018,0.09018861181339728,-0.07679470277991388,0.05576451737730512,0.29986227661337794,-0.31540865420679903,-0.06290548540432969,-0.06725515197682592,-0.17971857121484028
4632,21.081758899992565,0.07782890881013114,-0.0011758745351101191,0.025560306713095483,0.013633777056894595,0.09155521574564351,-0.07823484609797499,0.05547501718550555,0.29954562400124884,-0.3162174535097442,-0.06415864620491388,-0.07167482321789338,-0.1748796573392879
4633,21.08566019999853,0.0778094217476425,-0.0012321432930243515,0.025553546872040273,0.013886128518087721,0.09292033020704418,-0.07967862888151049,0.055179839758494706,0.29920875397047386,-0.3170041111229039,-0.06539204647819301,-0.07612776024877299,-0.17000651926075389
4634,21.08926349999092,0.07776675513606668,-0.0012927282184414586,0.025529180495245715,0.014137122569562637,0.09428386272981122,-0.08112594982138191,0.054879075358035254,0.2988515154785194,-0.3177684718456556,-0.066605514175084,-0.08061365500474486,-0.1650996218523163
4635,21.093273699996644,0.07773327595765422,-0.0013687766428580402,0.025522006185116613,0.014386733912946072,0.09564572016015915,-0.08257670690401606,0.05457281502433868,0.2984737589130327,-0.31851038261287956,-0.06779888236976549,-0.08513218370312323,-0.1601594379755747
4636,21.09749229998852,0.07767414957432661,-0.0014439513870906555,0.02547289717836465,0.014634937665150866,0.0970058086649334,-0.08403079742120947,0.054261150552848456,0.2980753361635659,-0.31922969253142325,-0.06897198930517198,-0.08968300684142427,-0.15518644843458013
4637,21.101569699996617,0.07764826851453267,-0.001519801073758371,0.025451170177383516,0.014881709361782037,0.0983640337385657,-0.08548811798010039,0.05394417447081371,0.29765610069330123,-0.3199262529163558,-0.07012467843737927,-0.09426576920080823,-0.15018114192733087
4638,21.10583419998875,0.07764133079755174,-0.0016128429159122484,0.025424216785178477,0.015127024960437404,0.09972030021035685,-0.08694856451330728,0.05362198001365823,0.2972159076107529,-0.3205999173270005,-0.0712567984788561,-0.09888009985481788,-0.14514401499483504
4639,21.110496699999203,0.07763366933720713,-0.0016941905486253354,0.025402005137601838,0.015370860843901785,0.10107451225208693,-0.08841203228923293,0.05329466110114968,0.2967546137414218,-0.32125054160273325,-0.07236820344055699,-0.10352561218343433,-0.14007557196774237
4640,21.11418709999998,0.07764028262335057,-0.0017817546825711658,0.02537669240423147,0.01561319382323383,0.10242657338595308,-0.08987841592253282,0.05296231231337434,0.2962720776993795,-0.3218779838985359,-0.07345875267283104,-0.1082019038924695,-0.1349763249105479
4641,21.118459199991776,0.07765564447105157,-0.0018678627229792798,0.025364956206589823,0.015854001140744565,0.10377638649283523,-0.09134760938474637,0.0526250288665223,0.2957681599587577,-0.3224821047202934,-0.07452831090512257,-0.11290855703831347,-0.12984679356337128
4642,21.122554899993705,0.07767515046469893,-0.0019539704075226274,0.02535464581138038,0.016093260472866806,0.10512385382088908,-0.09281950601509004,0.052282906588488574,0.2952427229251195,-0.32306276695982383,-0.07557674828443882,-0.1176451380580522,-0.12468750528131607
4643,21.126774899996235,0.07768837396755687,-0.002030569866983289,0.025330253485042285,0.016330949932914614,0.10646887699446612,-0.0942939985314111,0.051936041894295515,0.2946956310066886,-0.323619835929629,-0.07660394041256018,-0.12241119780496988,-0.11949899497141389
4644,21.131076399993617,0.07772637926896875,-0.002112660267535928,0.025310375839771075,0.016567048073731966,0.10781135702335978,-0.09577097904130111,0.05158453176134223,0.2941267506854102,-0.32415317939735766,-0.07760976838196847,-0.12720627158944786,-0.11428180502716054
4645,21.13495399999374,0.07775439284199626,-0.0021577370993466696,0.02531235720781688,0.01680153389022996,0.10915119431237638,-0.09725033905336776,0.05122847370448658,0.2935359505878187,-0.3246626676199695,-0.0785941188104694,-0.13202987922527074,-0.10903648526065131
4646,21.13910539999779,0.07777541661512359,-0.002204999998118174,0.025295039689033166,0.01703438682181177,0.11048828867122999,-0.09873196948866406,0.050867965750965714,0.29292310155568785,-0.3251481733775887,-0.07955688387448526,-0.13688152508134818,-0.1037635928323242
4647,21.14366549999977,0.07779135111283061,-0.002249610840698257,0.025288689021282538,0.017265586754684658,0.1118225393247605,-0.10021576069227285,0.05050310641516108,0.29228807671644086,-0.3256095720070336,-0.08049796134099442,-0.1417606981388598,-0.0984636921783206
4648,21.147490599993034,0.0777748546871255,-0.0022849261924020535,0.025271147692979667,0.017495114024058407,0.11315384492347387,-0.10170160244504511,0.05013399467321423,0.29163075155329327,-0.32604674143501045,-0.08141725459809457,-0.14666687205382883,-0.09313735493547394
4649,21.15177149999363,0.07776273289879596,-0.00230402333078452,0.025257378007859585,0.017722949416229403,0.11448210355440283,-0.10318938397549066,0.04976072993749966,0.2909510039751052,-0.32645956221096156,-0.08231467268416602,-0.15159950522512694,-0.08778515986393769
4650,21.1557199999952,0.07773333597557787,-0.0023211669878726543,0.02525792854479533,0.017949074170549643,0.11580721275228623,-0.10467899397181958,0.049383412030960944,0.2902487143859179,-0.3268479175395578,-0.08319013031561222,-0.1565580408679126,-0.08240769276746555
4651,21.16033289999177,0.07770854069198588,-0.002329288829066114,0.025243670656499746,0.018173469981280044,0.11712906951106612,-0.10617032059413319,0.04900214116131683,0.2895237657541529,-0.3272116933128231,-0.08404354791315438,-0.16154190709250338,-0.07700554641135668
4652,21.16429570000037,0.0776978134465946,-0.0023514791302832886,0.02523300610240561,0.018396118999327436,0.1184475702957009,-0.1076632514867624,0.04861701789514354,0.2887760436814483,-0.3275507781418793,-0.08487485162665778,-0.16655051698868004,-0.07157932043807991
4653,21.173266899990267,0.07768198073770419,-0.002331785948999005,0.025187439751507987,0.018617003833864578,0.11976261105429332,-0.1091576737907518,0.048228143131840026,0.2880054364711073,-0.32786506338829796,-0.08568397335846743,-0.17158326871541948,-0.06612962128059258
4654,21.18336559999443,0.07771112067810548,-0.002341850324398527,0.025174794021643757,0.018836107553832596,0.12107408723053191,-0.11065347415648713,0.047835618077482475,0.2872118351961317,-0.32815444319505027,-0.08647085078523173,-0.17663954559605072,-0.06065706207336951
4655,21.18743399999221,0.07773272424208773,-0.0023418262182768206,0.02519169717235779,0.01905341368932537,0.12238189377644333,-0.11215053875646466,0.04743954421857508,0.2863951337668169,-0.3284188145170422,-0.08723542737819352,-0.18171871621882732,-0.05516226256115921
4656,21.19094859999313,0.07773524550151273,-0.0023427895609092436,0.025188358696104134,0.01926890623285536,0.12368592516545344,-0.11364875329820112,0.04704002329570369,0.28555522899788266,-0.32865807715122713,-0.08797765242192807,-0.18682013454290758,-0.04964584900548488
4657,21.1945357999939,0.07772427595158349,-0.002362100184985337,0.025185555493956527,0.01948256964050033,0.12498607540575404,-0.11514800303728255,0.0466371572770995,0.2846920206751138,-0.3288721337662849,-0.08869748103150782,-0.19194314000973142,-0.04410845408890897
4658,21.198317699992916,0.0777287210459907,-0.0023756635444131644,0.02519821852271428,0.01969438883293051,0.12628223805397365,-0.11664817279055013,0.04623104833211993,0.2838054116214883,-0.3290608899318567,-0.08939487416807441,-0.1970870576597808,-0.03855071681708065
4659,21.201805499993498,0.07772338009373973,-0.002390432623643867,0.02520207399542221,0.019904349196315684,0.12757430622914964,-0.11814914694942108,0.04582179880465384,0.28289530776276717,-0.3292242541473258,-0.09006979865279838,-0.20225119825470797,-0.032973282418586596
4660,21.205737399999634,0.0777048673566838,-0.002412885386175814,0.025178782684383415,0.020112436583111955,0.1288621726269996,-0.11965080949334234,0.04540951118645826,0.28196161819252175,-0.3293621378701322,-0.09072222717920762,-0.20743485840481535,-0.02737680224262631
4661,21.21011469999212,0.07770717963322975,-0.0024407965314694547,0.02517264670565346,0.020318637312727754,0.13014572953448894,-0.12115304400337494,0.044994288090433966,0.281004255236577,-0.3294744555436141,-0.09135213832386603,-0.21263732070186767,-0.02176193365453439
4662,21.214418099989416,0.07769794381844815,-0.0024701886283863147,0.02514149330268088,0.02052293817206894,0.131424868844692,-0.12265573367590703,0.044576232223847156,0.28002313451684446,-0.3295611246243661,-0.09195951655538419,-0.21785785385721507,-0.016129339929172603
4663,21.21848250000039,0.07769964372069454,-0.002519589438037696,0.025121580168686302,0.020725326415962666,0.13269948207194388,-0.12415876133649233,0.0441554463615045,0.27901817501452,-0.32962206560910556,-0.09254435224174459,-0.2230957128452035,-0.010479690142215873
4664,21.22256399999605,0.07767655707136518,-0.0025916466294926156,0.025091257984123348,0.02092578976745976,0.13396946036728022,-0.12566200945381173,0.04373203331888962,0.27798929913262244,-0.3296572020610369,-0.09310664165592421,-0.22835013905184887,-0.004813659059356791
4665,21.22675829999207,0.07769320351188026,-0.0026190935740271017,0.025084150935519647,0.02112431641801535,0.13523469453416262,-0.1271653601537553,0.04330609592526862,0.27693643275784846,-0.32966646063570587,-0.09364638697979795,-0.23362036042874798,0.0008680729765457537
4666,21.234339999995427,0.07770310316875582,-0.002693549902856847,0.025057611581235786,0.021320895027547533,0.1364950750444868,-0.12866869523362232,0.042877736996772726,0.2758595053217202,-0.32964977110633364,-0.0941635963063071,-0.23890559165219766,0.0065648201603474045
4667,21.23878239998885,0.07772509583034992,-0.0027159928262447818,0.0250509635382454,0.02151551472437396,0.13775049205486992,-0.13017189617643699,0.04244705930946594,0.2747584498610033,-0.32960706638862075,-0.09465828363987734,-0.24420503428749132,0.012275891341501418
4668,21.244283899999573,0.07775613582492022,-0.0027145697026222677,0.025057362217958956,0.02170816510502623,0.13900083542321331,-0.13167484416537778,0.04201416557240551,0.2736332030773681,-0.32953828256501255,-0.09513046889507139,-0.24951787695836036,0.018000590142915992
4669,21.247926299998653,0.07778179755824027,-0.002722025763068903,0.0250375617359107,0.021898836233942075,0.14024599472553737,-0.1331774200983177,0.041579158400703094,0.27248370539627076,-0.3294433589084165,-0.09558017789346239,-0.25484329552152585,0.02373821508175704
4670,21.25178189999133,0.07780929756775733,-0.0027294411437663994,0.02503564052198902,0.022087518643035244,0.14148585927308469,-0.134679504602473,0.041142140288594864,0.2713099010250299,-0.3293222379053616,-0.09600744235871433,-0.26018045324632455,0.029488059692166776
4671,21.256106799992267,0.07781830533525673,-0.0027037523099454775,0.025012681680469256,0.02227420333114305,0.1427203181296878,-0.13618097804915774,0.04070321358252881,0.27011173801007676,-0.32917486527859,-0.09641229990985725,-0.2655285009993737,0.035249412649867695
4672,21.260189499997068,0.07784064844923116,-0.0026847875016619274,0.024973272527657908,0.022458881763351753,0.1439492601293973,-0.13768172056864184,0.04026248045427731,0.26888916829335463,-0.3290011900090729,-0.09679479405274538,-0.2708865774342332,0.04102155789862066
4673,21.26436069999181,0.07785816076243271,-0.0026603803903025957,0.024914782535190576,0.0226415458701997,0.14517257389436694,-0.1391816120651098,0.03982004287408315,0.2676421477678444,-0.32880116435744217,-0.09715497416968708,-0.27625380918602177,0.04680377477850515
4674,21.268252099995152,0.07787546414753974,-0.0026135035792340224,0.02488103562220599,0.022822188046758278,0.14639014785299193,-0.14068053223171753,0.039376002583847484,0.26637063633219643,-0.3285747438848318,-0.09749289550723601,-0.2816293110709424,0.05259533815598892
4675,21.27262169998721,0.07791438730112525,-0.0025781654931650477,0.024813674088358998,0.02300080115159083,0.1476018702582966,-0.14217836056574393,0.03893046107036809,0.265074597944445,-0.3283218874731211,-0.0978086191621344,-0.2870121862906731,0.05839551855575377
4676,21.27696959998866,0.0779809636576341,-0.0025433304578661793,0.024743659673143414,0.023177378505589617,0.1488076292065673,-0.14367497638383434,0.03848351953863648,0.26375400067478366,-0.3280425573445711,-0.09810221206539897,-0.2924015266415731,0.06420358229424311
4677,21.28114849999838,0.07801834986839634,-0.0025041866526016483,0.024671999399677045,0.0233519138906911,0.15000731265622558,-0.14517025883733267,0.03803527888520215,0.26240881675738015,-0.3277367190808478,-0.09837374696454185,-0.2977964127286561,0.0700187916148965
4678,21.285451699994155,0.07810235230228353,-0.002463191714391263,0.024590744986845395,0.02352440154846985,0.15120080844693798,-0.14666408692769942,0.03758583967161256,0.2610390226412084,-0.3274043416414219,-0.09862330240391906,-0.30319591418427794,0.07584040482503546
4679,21.28924869999173,0.078172135479199,-0.002441745702373901,0.024505737949848838,0.023694836178611345,0.15238800431895708,-0.14815633952201201,0.03713530209793741,0.2596445990398762,-0.3270453973813377,-0.0988509627032004,-0.30859908989148566,0.08166767643436455
4680,21.293253699986963,0.07827418164101319,-0.0023986091241257573,0.024428272696311048,0.023863212937264042,0.15356878793268885,-0.14964689536854456,0.03668376597638595,0.25822553098042816,-0.326659862068343,-0.09905681793395518,-0.3140049882119716,0.08749985729505129
4681,21.29783039999893,0.07836787451351518,-0.0023649914441955296,0.02435584610717755,0.02402952743527121,0.15474304688848103,-0.15113563311242334,0.03623133070502577,0.2567818078511034,-0.3262477148993733,-0.09924096389434915,-0.3194126472185746,0.09333619474334691
4682,21.30177749998984,0.078514703316689,-0.0023538241468219912,0.024283173397336977,0.024193775736282824,0.1559106687466265,-0.1526224313113559,0.03577809524161183,0.2553134234480261,-0.3258089385163817,-0.09940350208194841,-0.32482109493226863,0.09917593274270997
4683,21.306033199987723,0.07865859770627803,-0.002330081307498718,0.024183771516696234,0.024355954354748095,0.15707154104757629,-0.15410716845143102,0.03532415807753431,0.2538203760208074,-0.32534351902150804,-0.0995445396646269,-0.3302293495635759,0.10501831202839403
4684,21.310067099999287,0.07883595020677676,-0.002300907685647067,0.024072159440366545,0.024516060253789326,0.15822555133235655,-0.15558972296298665,0.034869617211894015,0.25230266831703685,-0.3248514459915802,-0.09966418944957463,-0.3356364197583417,0.11086257025346008
4685,21.314110299994358,0.07903584472095829,-0.002269215759257023,0.023923083968195175,0.024674090842957633,0.15937258716318467,-0.1570699732365421,0.034414570125714014,0.2507603076256425,-0.32433271249194184,-0.09976256985040519,-0.34104130484780654,0.1167079421361746
4686,21.31882809998933,0.07927008909668208,-0.002240937569216195,0.023752281283723004,0.024830043975871085,0.16051253614427974,-0.15854779763879295,0.033959113756296344,0.24919330581909985,-0.323787315089599,-0.09983980485236142,-0.3464429951029103,0.12255365960875252
4687,21.322607599999174,0.0794684690565954,-0.002179422345093377,0.023510153925341323,0.024983917947735766,0.16164528594286334,-0.16002307452866554,0.033503344471732706,0.247601679394469,-0.32321525386568106,-0.09989602397561949,-0.3518404719927592,0.12839895196740483
4688,21.32675449999806,0.07974168473529288,-0.0021515083030406506,0.0232978228006298,0.025135711492750595,0.16277072431034462,-0.16149568227342773,0.033047358045578,0.24598544951324208,-0.32261653242720867,-0.0999313622366921,-0.35723270844718696,0.13424304602364878
4689,21.33091649999551,0.07997502706943513,-0.0021130174723469593,0.023008502718241522,0.025285423781396598,0.16388873910368404,-0.16296549926485251,0.0325912496316957,0.24434464203998185,-0.3219911579181641,-0.09994596010793327,-0.36261866912333807,0.14008516625683906
4690,21.338924999989104,0.08056237116754021,-0.002039630891491191,0.022357492697592483,0.025433054417611366,0.1649992183069299,-0.16443240393543074,0.03213511373928383,0.2426792875797343,-0.321339141029857,-0.09993996347514707,-0.36799731067619823,0.1459245349678775
4691,21.34307329999865,0.08087213579028553,-0.002046654544499725,0.022000243075100418,0.02557860343584948,0.16610205005292195,-0.16589627477462981,0.03167904420809031,0.2409894215141955,-0.32066049601058083,-0.09991352359330373,-0.3733675820329968,0.15176037243405816
4692,21.34760749999259,0.08122310178824994,-0.0020959534319244457,0.021623733916431243,0.02572207129802966,0.16719712264515685,-0.16735699034519563,0.03122313418382651,0.23927508403661482,-0.31995524067455294,-0.09986679704036751,-0.37872842467140533,0.15759189706500515
4693,21.351677799990284,0.0815753535889442,-0.0021717462166490242,0.02123512613294982,0.025863458890369506,0.16828432457980994,-0.1688144292994936,0.030767476093787688,0.23753632018541837,-0.3192233964101352,-0.09979994566924182,-0.38407877290145376,0.16341832555965918
4694,21.355817499992558,0.08194178415988561,-0.0023076787897783075,0.02082613940739021,0.026002767520108758,0.169363544567907,-0.17026847039588475,0.030312161622688967,0.23577317987653354,-0.31846498818733066,-0.09971313655783838,-0.38941755415108337,0.16923887306426788
4695,21.360196499997983,0.08230675878825251,-0.0024838491699972877,0.020440137106070202,0.026139998912122153,0.17043467155764047,-0.171718992515133,0.02985728168872549,0.23398571793439885,-0.3176800445645526,-0.09960654195727724,-0.3947436892552546,0.17505275333133427
4696,21.36414549998881,0.08265036149829467,-0.002718759628094154,0.020009712647963383,0.026275155205422993,0.17149759475682297,-0.17316587467684078,0.029402926419865617,0.23217399412164297,-0.3168685976946627,-0.09948033923822576,-0.40005609274852555,0.18085917887947722
4697,21.36841999999888,0.08297565292689514,-0.003001564257922759,0.01958562040863779,0.026408238949558377,0.17255220365547227,-0.17460899605590902,0.02894918513038597,0.2303380731674181,-0.3160306833302738,-0.09933471083538585,-0.4053536731610159,0.18665736115415793
4698,21.37380509999639,0.08330359107680384,-0.0033175809280935552,0.019131800740782922,0.02653925310089732,0.17359838804852204,-0.1760482359990191,0.028496146297656975,0.22847802479437218,-0.3151663408283143,-0.09916984419013937,-0.4106353333176695,0.19244651068922658
4699,21.37751179999032,0.0836804095630567,-0.003652108304593351,0.018628139305588095,0.02666820101881293,0.17463603805865188,-0.17748347404113166,0.028043897539187353,0.22659392374424686,-0.3142756131538477,-0.09898593169136315,-0.41589997064072837,0.1982258372692439
4700,21.38118050000048,0.08408394611438866,-0.0040794299007734704,0.018111790783813933,0.02679508646175973,0.17566504415923137,-0.17891458992199968,0.027592525589936013,0.2246858498020876,-0.3133585468831447,-0.098783170614426,-0.4211464774553287,0.20399455009253104
4701,21.38511079999444,0.0845068236751746,-0.004622504116565554,0.017550630870103695,0.026919913583247447,0.1766852971973713,-0.18034146360269232,0.027142116279899844,0.22275388781905162,-0.31241519220600505,-0.09856176305838131,-0.4263737412981277,0.20975185793490012
4702,21.38934039999731,0.08497731066566257,-0.005153133551302782,0.016922630152258405,0.02704268692771244,0.17769668841707642,-0.1817639752821268,0.026692754511985713,0.22079812773379853,-0.3114456029273267,-0.09832191588136924,-0.43158064522886774,0.21549696931401785
4703,21.39449639999657,0.0855315405548258,-0.005675463958794982,0.016300952026379417,0.02716341142628788,0.17869910948249307,-0.18318200541360385,0.02624452424017503,0.21881866459245133,-0.31044983646791796,-0.09806384063424342,-0.4367660681447836,0.22122909265435337
4704,21.398208300000988,0.08604889863645607,-0.006243988442032432,0.015591685994855954,0.027282092392473815,0.17969245250124577,-0.18459543472134338,0.0257975084479891,0.21681559856711463,-0.3094279538645522,-0.09778775349243796,-0.4419288850977561,0.22694743645266172
4705,21.402059399988502,0.08660953732217254,-0.006815155359425831,0.014785817093920996,0.027398735517708626,0.18067661004785646,-0.1860041442170166,0.02535178912726355,0.21478903497293902,-0.30838001976926344,-0.097493875186091,-0.4470679676141161,0.23265120944395493
4706,21.40573589999985,0.08721720736687355,-0.007388330946294175,0.013951289095772326,0.027513346866843185,0.18165147518723967,-0.18740801521627168,0.02490744725723994,0.21273908428371863,-0.30730610244788126,-0.0971824309284424,-0.45218218401700067,0.2383396207679104
4707,21.410007899990887,0.08783610193354809,-0.007956676506379982,0.013044972751150304,0.02762593287351922,0.1826169414982673,-0.18880692935524893,0.02446456278398273,0.2106658621460104,-0.3062062737778018,-0.09685365034252419,-0.45727039975116324,0.24401188013566893
4708,21.4139725999994,0.08851145005063998,-0.008528586617905893,0.012161011997558466,0.02773650033545349,0.18357290309739627,-0.19020076860708235,0.02402321460012963,0.20856948939176506,-0.3050806092449922,-0.09650776738616304,-0.4623314777101379,0.249667197996974
4709,21.41866919999302,0.08928621144183393,-0.009151414029171925,0.011250593220203739,0.027845056409629237,0.18451925466235328,-0.19158941529838397,0.023583480524983245,0.2064500920494587,-0.30392918794022733,-0.09614502027531567,-0.4673642785656542,0.2553047857076039
4710,21.4243404000008,0.08997081915852115,-0.00975761585985052,0.010183834804245938,0.02795160860739657,0.18545589145586963,-0.19297275212570866,0.023145437284951775,0.20430780135371446,-0.3027520925545592,-0.09576565140575843,-0.4723676610991974,0.26092385569704785
4711,21.428620499995304,0.0906973451590144,-0.010264511814254293,0.009081032566010543,0.028056164789483244,0.18638270934945908,-0.19435066217199592,0.02270916049434656,0.20214275375340457,-0.30154940937401836,-0.09536990727315377,-0.4773404825356064,0.2665236216363774
4712,21.432634599987068,0.09146405048423333,-0.010772346323458772,0.007997021968681996,0.02815873316091734,0.18729960484723088,-0.19572302892298418,0.022274724636544098,0.19995509091822364,-0.3003212282735476,-0.09495803839151686,-0.48228159887860117,0.2721032986062619
4713,21.439707099998486,0.09305347864025314,-0.011410595910833795,0.005643990848018554,0.028259322265863314,0.18820647510973054,-0.1970897362835948,0.02184220304552004,0.19774495974372452,-0.29906764271016645,-0.09453029921010672,-0.48718986524813407,0.27766210326508023
4714,21.444753899995703,0.0938674099239126,-0.01165412285094377,0.004329231047563744,0.028357940982372983,0.1891032179778011,-0.19845066859428134,0.021411667887762508,0.19551251235480724,-0.29778874971536656,-0.09408694802876741,-0.49206413621945716,0.28319925401707724
4715,21.44935599999735,0.09470524926295228,-0.011775673303686316,0.0029817325324132927,0.028454598517053082,0.1899897319964573,-0.19980571064733982,0.02098319014457194,0.1932579061076521,-0.2964846498867395,-0.09362824691174512,-0.4969032661637951,0.2887139711805174
4716,21.45398719998775,0.09559393649815386,-0.011634681764528901,0.0016678919462913438,0.028549304399651153,0.1908659164387659,-0.20115474770317612,0.020556839594754628,0.19098130359009094,-0.2951554473788335,-0.09315446160000787,-0.501706109590517,0.2942054771557861
4717,21.457928599993465,0.09657858821931634,-0.011431953754561979,0.0002760724987209233,0.028642068477561542,0.1917316713297255,-0.20249766550652706,0.020132684797717095,0.18868287262040925,-0.29380124989323936,-0.092665861422095,-0.5064715214906975,0.2996729965933903
4718,21.461664899994503,0.09749935434176264,-0.011117890314936726,-0.0011381087905349692,0.028732900910253347,0.19258689747013724,-0.20383435030263122,0.01971079307696823,0.18636278624457195,-0.2924221686679047,-0.09216271920352594,-0.5111983576819548,0.30511575656180867
4719,21.465840299992124,0.09839971067635073,-0.010577550822260884,-0.002653172888155975,0.028821812163622024,0.19343149646045948,-0.20516468885334618,0.019291230504035962,0.1840212227318677,-0.2910183184656783,-0.09164531117479735,-0.5158854751544506,0.31053298671514273
4720,21.46924969999236,0.09935128501088797,-0.009917357965967611,-0.003979986997716295,0.028908813004266627,0.19426537072463837,-0.20648856845320854,0.01887406188280516,0.181658365568967,-0.289589817562086,-0.09111391687799895,-0.5205317324179408,0.3159239194605206
4721,21.472795999987284,0.10024114384744419,-0.009118327908786968,-0.005495885164875494,0.0289939144936944,0.19508842353390685,-0.20780587694543265,0.018459350734283363,0.17927440345238962,-0.2881367877323375,-0.09056881907207943,-0.5251359898497598,0.32128779012520287
4722,21.4801257999934,0.10192448478545409,-0.0071726171065891004,-0.008339321844568029,0.029077127982454702,0.1959005590305441,-0.2091165027378448,0.018047159281800656,0.17686953027937735,-0.2866593542375657,-0.0900103036367948,-0.5296971100436243,0.32662383712334037
4723,21.48376439999265,0.10192448478545409,-0.0071726171065891004,-0.008339321844568029,0.029158465104204098,0.19670168225158902,-0.2104203348187485,0.01763754843665005,0.17444394513716868,-0.28515764581029984,-0.08943865947537191,-0.5342139581591383,0.331931302122334
4724,21.488604899990605,0.10346084877039606,-0.004975020249077096,-0.011178891427447645,0.029237937769704632,0.1974916991525015,-0.21171726277271824,0.017230577784174562,0.17199785229067205,-0.28363179463917404,-0.08885417841592079,-0.5386854022718842,0.33720943020874755
4725,21.49287799999001,0.1042773902080926,-0.003661927589151214,-0.01250136337216595,0.0293155581607574,0.19827051663076337,-0.2130071767963184,0.016826305570307117,0.1695314611685351,-0.28208193635287515,-0.08825715511163042,-0.5431103137239818,0.34245747005372473
4726,21.497829999992973,0.10496883738923364,-0.0023401188104778766,-0.013907160307430565,0.029391338724073172,0.1990380425494117,-0.21428996771374387,0.016424788688569072,0.16704498634760864,-0.28050821000333126,-0.08764788693978323,-0.5474875674749962,0.34767467407786345
4727,21.501734999998007,0.10575306712262927,-0.0010674159262370343,-0.01507786590808258,0.0294652921650823,0.19979418576049687,-0.21556552699237955,0.01602608266753316,0.16453864753580347,-0.27891075804814414,-0.08702667389962424,-0.5518160424530795,0.35286029861549906
4728,21.506200599993463,0.10643150467771964,0.00012530913868012984,-0.016428269988337567,0.029537431441685975,0.2005388561284576,-0.21683374675827455,0.01563024165875642,0.1620126695533389,-0.27728972633226856,-0.08639381850912091,-0.5560946219062248,0.358013604078349
4729,21.510150099988092,0.10719006929233708,0.0013454837942736535,-0.017740682564492623,0.029607769757950902,0.2012719645534069,-0.21809451981152703,0.015237318425188365,0.1594672823123828,-0.2756452640689405,-0.08574962570065102,-0.5603221937535156,0.36313385511846974
4730,21.51426399999764,0.10789952139067639,0.0024230757255927805,-0.01886864463062149,0.029676320557749453,0.20199342299432163,-0.2193477396415764,0.01484736433005956,0.15690272079508333,-0.27397752381985574,-0.08509440271565613,-0.5644976509362496,0.36822032079047756
4731,21.519378099997997,0.10860689753148822,0.003543533209197284,-0.020119967839587128,0.029743097518347816,0.20270314449212917,-0.22059330044239872,0.01446042932625551,0.15431922502999323,-0.2722866614746012,-0.08442845899830005,-0.5686198917688224,0.37327227471298674
4732,21.52781459999096,0.11003432495069787,0.005513358512278551,-0.022520186882180722,0.02980811454394428,0.20340104319268482,-0.22183109712760393,0.01407656194618048,0.15171704006688794,-0.27057283622934253,-0.08375210608817213,-0.5726878202892521,0.3782889952292199
4733,21.53219469999021,0.11070608071902235,0.006385137353331782,-0.023684100848612055,0.029871385759159787,0.20408703436963224,-0.2230610253454313,0.013695809292115836,0.14909641594997977,-0.26883621056477236,-0.08306565751207588,-0.5767003466092278,0.38326976556674314
4734,21.536717700000736,0.11143790630222837,0.007268544472271876,-0.024852640411442157,0.029932925502482957,0.2047610344471396,-0.22428298149363995,0.013318217027077334,0.14645760768952992,-0.26707695022332295,-0.08236942867494391,-0.5806563872635622,0.38821387399628043
4735,21.541394699990636,0.1122045362879074,0.008077319103583504,-0.025912086605197233,0.029992748319671754,0.20542296102250449,-0.22549686273429181,0.01294382936617559,0.1438008752318608,-0.2652952241856471,-0.0816637367499207,-0.5845548655589305,0.3931206139895605
4736,21.548288699996192,0.11367500635331154,0.009473691698922013,-0.028017751875354976,0.03005086895711406,0.20607273288862113,-0.22670256700842423,0.01257268906848376,0.14112648342777218,-0.2634912046463716,-0.08094890056765557,-0.5883947119217734,0.397989284376153
4737,21.55227859999286,0.11447720311030622,0.010135274463839914,-0.029103357360245764,0.030107302355149346,0.20671027005630233,-0.22789999305061093,0.012204837429416226,0.13843470199936447,-0.26166506698912806,-0.08022524050484886,-0.5921748642452438,0.40281918949924767
4738,21.55590339998889,0.11522603613751542,0.010763208623336214,-0.030117297307292592,0.0301620636413538,0.20733549377644814,-0.22908904040340644,0.011840314273621939,0.13572580550527338,-0.2598169897608679,-0.07949307837209452,-0.5958942682350793,0.4076096393703319
4739,21.5599147999892,0.11597229342892515,0.01137721837774717,-0.031172925014027294,0.030215168123791405,0.2079483265620542,-0.2302696094316704,0.011479157948395905,0.13300007330432034,-0.25794715464546664,-0.07875273730106264,-0.5995518777542822,0.4123599498227215
4740,21.56423079999513,0.11673698818005335,0.012054403370170028,-0.03222538419818175,0.030266631284233392,0.20854869221005198,-0.2314416013367671,0.011121405317612066,0.13025778951758446,-0.2560557464366229,-0.07800454163106635,-0.603146655166491,0.4170694426638993
4741,21.572274799997103,0.11814939795844565,0.013492568318358702,-0.03421807080399395,0.030316468771348505,0.20913651582297302,-0.23260491817063822,0.01076709175618056,0.12749924298890236,-0.2541429530100604,-0.07724881679505743,-0.606677571677926,0.4217374458266171
4742,21.57659969999804,0.11888634263760792,0.014223690068676752,-0.035256081527284884,0.0303646963938666,0.20971172383043002,-0.23375946284974522,0.010416251145032165,0.12472472724380314,-0.2522089652950381,-0.07648588920509582,-0.6101436076777907,0.4263632935187194
4743,21.580630799988285,0.11950330617767846,0.015000136622363276,-0.036320288385520934,0.030411330113718202,0.21027424401040726,-0.23490513916887915,0.010068915866632479,0.12193454044688525,-0.2502539772451743,-0.07571608613733875,-0.61354375307701,0.430946326371645
4744,21.585101699994997,0.12011823602418858,0.015896407505743077,-0.037427928273074805,0.03045638603915249,0.21082400551035313,-0.23604185181483361,0.009725116801028206,0.1191289853576425,-0.24827818580859115,-0.07493973561659562,-0.6168770076451907,0.43548589158756523
4745,21.58922119998897,0.12079402562842458,0.01684582163272321,-0.03852717909548375,0.03049988041783615,0.2113609388680683,-0.23716950637993892,0.009384883322427665,0.11630836928474775,-0.2462817908973885,-0.0741571663004948,-0.6201423813456864,0.43998134308511616
4746,21.593345199988107,0.12129951242107771,0.017784766353569667,-0.03966984239391082,0.03054182962993566,0.211884976032383,-0.2382880093754525,0.009048243296317439,0.11347300403880332,-0.24426499535645343,-0.07336870736330954,-0.6233388946686496,0.4444320416436836
4747,21.59743909999088,0.12181572366001141,0.018934034453298724,-0.04079322306801919,0.030582250181185426,0.21239605038361625,-0.23939726824480356,0.008715223077116948,0.1106232058835684,-0.24222800493161342,-0.07257468837949001,-0.6264655789619489,0.4488373550462022
4748,21.60199319999083,0.12228445984913694,0.020187162862959292,-0.04196972279184029,0.030621158695944572,0.21289409675381157,-0.24049719137668865,0.00838584750637244,0.10775929548567345,-0.24017102823714034,-0.07177543920695045,-0.629521476759838,0.45319665822042987
4749,21.606435099995,0.12279846101361361,0.021491171438479915,-0.04309108019886862,0.03065857191024465,0.21337905144674196,-0.24158768811801562,0.008060139911491643,0.10488159786283278,-0.2380942767226125,-0.07097128987015931,-0.6325056421092616,0.45750933337865685
4750,21.610744499994325,0.12310304062070956,0.02284840980620168,-0.044351799798738635,0.030694506664830628,0.21385085225767783,-0.24266866878669427,0.007738122105020093,0.10199044233056602,-0.23599796463914272,-0.07016257044308079,-0.6354171408936844,0.4617747701558117
4751,21.6142744999961,0.12336253718888596,0.02418850322247928,-0.045515868004507666,0.03072897989819764,0.21430943849291068,-0.2437400446842725,0.00741981438445994,0.09908616244743905,-0.23388230900498014,-0.06934961093201623,-0.6382550511543299,0.465992365745924
4752,21.618564299991704,0.12366094106409808,0.02559439755618341,-0.04666916771420677,0.030762008639625815,0.21475475098902586,-0.24480172810841638,0.007105235532631851,0.09616909595883685,-0.23174752957049313,-0.06853274115839386,-0.6410184634087119,0.4701615250369048
4753,21.622641099995235,0.12392644851837677,0.027167392975189913,-0.04784571074459426,0.030793610002215612,0.21518673213191794,-0.24585363236523392,0.0067944028185803595,0.09323958473928114,-0.22959384878254083,-0.06771229064155526,-0.6437064809663425,0.4742816607436064
4754,21.62689669999236,0.12415275518248864,0.028602133830213927,-0.049022122892171074,0.030823801175926265,0.21560532587554154,-0.24689567178143976,0.006487331999022793,0.090297974733306,-0.22742149174824133,-0.06688858848158763,-0.6463182202415075,0.47835219353912506
4755,21.63333139999304,0.12434406805995568,0.03003736401329007,-0.0502039800370988,0.03085259942061979,0.21601047776039065,-0.24792776171635894,0.006184037320341691,0.08734461589490544,-0.22523068619814476,-0.06606196324225104,-0.6488528110629987,0.4823725521843102
4756,21.63779419999628,0.12453927080796655,0.031537614505370674,-0.05141365096903561,0.030880022059113253,0.21640213493170066,-0.24894981857376713,0.005884531521120388,0.08437986212556664,-0.22302166244881969,-0.06523274283405031,-0.6513093969806937,0.4863421736554461
4757,21.64201499999035,0.12466926641590034,0.03287108467407482,-0.05259519937407871,0.03090608647024183,0.21678024615736685,-0.24996175981356397,0.005588825835221199,0.08140407121090398,-0.22079465336486098,-0.06440125439750116,-0.6536871355688738,0.4902605032700723
4758,21.647386099997675,0.12510910017937563,0.035643979181996535,-0.05506508462032946,0.03093081008193529,0.21714476184557388,-0.2509635039632761,0.0052969299954053846,0.07841760475590887,-0.21854989432032826,-0.06356782418664067,-0.6559851987261739,0.49412699481090777
4759,21.65187659999356,0.12536807240222106,0.0369714724616222,-0.05631543045522191,0.030954210364310376,0.21749563406213043,-0.251954970629388,0.00500885223749383,0.07542082811883109,-0.21628762315962433,-0.06273277745283172,-0.6582027729720523,0.49794111064784663
4760,21.65609819999372,0.1254576589278906,0.03832141842363276,-0.05770177385722071,0.03097630482278162,0.2178328165475028,-0.2529360805084968,0.004724599305067159,0.07241411034370772,-0.21400808015782372,-0.06189643832891055,-0.6603390597396779,0.5017023218579959
4761,21.660755599994445,0.12572064388340437,0.03961103506455627,-0.058937253292305966,0.030997110991193202,0.2181562647335409,-0.2539067553982872,0.00444417645470374,0.06939782409155629,-0.2117115079804601,-0.0610591297137271,-0.6623932756651295,0.5054101083437211
4762,21.667023499991046,0.12585840137857587,0.04096486083863048,-0.0603825501805534,0.03101664642497443,0.21846593575989035,-0.2548669182083241,0.004167587461753839,0.06637234557024972,-0.2093981516427822,-0.060221173157127904,-0.6643646528728026,0.5090639589486697
4763,21.67285709999851,0.12629654377229152,0.0435017352237773,-0.06304952883575243,0.031034928694321437,0.21876178849008315,-0.25581649297066256,0.003894834626647922,0.06333805446309104,-0.20706825846848778,-0.05938288874543118,-0.6662524392569179,0.5126633715717431
4764,21.67715979999048,0.12643833816029584,0.044805738794940576,-0.06449042174821759,0.03105197537740772,0.21904378352730236,-0.25675540485027315,0.003625918781736895,0.06029533385610579,-0.2047220780479459,-0.05854459498744415,-0.6680558987590325,0.5162078532789882
4765,21.682006599992743,0.12661631472338605,0.04608321161452053,-0.06584689303276195,0.031067804053625966,0.21931188322981474,-0.25768358015528037,0.0033608392986617976,0.05724457016407078,-0.2023598621959169,-0.05770660870107212,-0.6697743116414484,0.5196969204133735
4766,21.685669799990137,0.12674704725693653,0.04732033957328842,-0.06734149907574481,0.031082432296863614,0.21956605172606583,-0.2586009463470116,0.003099594096250271,0.05418615305529829,-0.19998186490878028,-0.05686924490056825,-0.6714069747564212,0.5231300987024187
4767,21.689415199987707,0.12689455709879005,0.048668781439659116,-0.06884282296682499,0.0310958776688147,0.2198062549294315,-0.2595074320498521,0.0028421796489368407,0.05112047537519529,-0.19758834232128036,-0.05603281668447339,-0.6729532018110653,0.5265069233636502
4768,21.69380629999796,0.12708936159102796,0.049958123743588455,-0.07021603062485479,0.03110815771233065,0.22003246055261977,-0.26040296706090343,0.002588590995703861,0.04804793306861775,-0.19517955266280032,-0.055197635124294285,-0.6744123236278605,0.5298269392078518
4769,21.698241699996288,0.1272089658814068,0.05141789287387375,-0.07173212783752153,0.031119289944812323,0.22024463812171635,-0.26128748235944427,0.002338821749539716,0.044968925101040155,-0.19275575621317498,-0.054364009153969106,-0.6757836884006677,0.5330897007400847
4770,21.701880199994772,0.127429822474801,0.052783445275598605,-0.07303163410837771,0.031129291851645525,0.22044275898986818,-0.2621609101161935,0.0020928641074106436,0.041883853378560966,-0.1903172152580535,-0.0535322454601684,-0.677066661946164,0.5362947722584483
4771,21.705702799998107,0.12753422069897513,0.05440578504495383,-0.07456573889341883,0.03113818087968253,0.22062679635059881,-0.2630231837023718,0.0018507088607423153,0.038793122666765205,-0.18786419404382293,-0.05270264837347991,-0.6782606279506064,0.539441727950554
4772,21.710024100000737,0.127691351747285,0.05597395750450712,-0.07600178605784562,0.031145974430771987,0.22079672525075053,-0.26387423769855844,0.0016123454064070565,0.035697140508465924,-0.18539695873210266,-0.051875519760524826,-0.6793649882118318,0.5425301519876826
4773,21.714403699996183,0.12789632340197862,0.05763293644507804,-0.0774364319729454,0.031152689855339585,0.2209525226030486,-0.26471400790334243,0.0013777617582123756,0.03259631714034688,-0.18291577735382145,-0.0510511589170529,-0.6803791628764083,0.5455596386166055
4774,21.718236699991397,0.12792862507748728,0.05928549912129622,-0.07891521244974152,0.031158344446021776,0.2210941671982819,-0.2655424313417646,0.0011469445588862448,0.029491065408528944,-0.1804209197628872,-0.05022986246206375,-0.6813025906718462,0.5485297922490474
4775,21.722598199994536,0.12814384760703054,0.06116427765958628,-0.08025501851190049,0.031162955431354993,0.2212216397170948,-0.2663594462735491,0.0009198790925543441,0.02638180068308327,-0.17791265758945962,-0.04941192423300122,-0.6821347291337845,0.5514402275487674
4776,21.726903299990227,0.12819514204209384,0.06304708960050023,-0.08175510386436644,0.03116653996952267,0.22133492274138566,-0.2671649922011216,0.0006965492977042619,0.023268940771514417,-0.1753912641928368,-0.04859763518206729,-0.6828750548280723,0.5542905695162366
4777,21.73094909999054,0.12839243900956998,0.06492475346733889,-0.08306746869205056,0.031169115142162435,0.22143400076530767,-0.267959009877412,0.0004769377806314196,0.02015290583123715,-0.17285701461396763,-0.047787283273701485,-0.6835230635676649,0.5570804535708875
4778,21.735093700001016,0.12851816852435535,0.06694269352218855,-0.08446686625330564,0.031170697948235723,0.22151886020586742,-0.2687414413134421,0.000261025829361267,0.01703411828107095,-0.17031018552760122,-0.04698115338327088,-0.684078270624253,0.5598095256309172
4779,21.739238699999987,0.12871190171868344,0.06900414718871031,-0.08579372544074189,0.03117130529796212,0.22158948941311635,-0.269512229785694,4.8793428042083e-05,0.013913002711776699,-0.16775105519408368,-0.04617952719701569,-0.6845402109345458,0.56247744219062
4780,21.743739499986987,0.12905301931956992,0.0711296663766982,-0.08690179529735408,0.031170954006820857,0.22164587867993069,-0.27027131984325914,-0.00015978072819750042,0.010789985795660413,-0.16517990341081334,-0.04538268311329468,-0.6849084393011295,0.5650838703952312
4781,21.752553999991505,0.12908693264635462,0.07537416278378839,-0.08966626217552646,0.031169660789621828,0.2216880202513744,-0.2710186573147669,-0.00036471921793234757,0.007665496195269058,-0.16259701146336641,-0.04459089614517433,-0.6851825305878256,0.5676284881132615
4782,21.75689559998864,0.12886395197844047,0.07753948326239826,-0.09125849059465774,0.03116744225464837,0.22171590833364138,-0.2717541893150908,-0.0005660458776723471,0.0045399644712040615,-0.16000266207630431,-0.04380443782440506,-0.6853620799094757,0.570110984006304
4783,21.76033409999218,0.12888640826886782,0.07964587194900512,-0.09259026733782853,0.03116431489787387,0.2217295391025729,-0.2724778642518331,-0.0007637857856481317,0.0014138229890782903,-0.15739713936367397,-0.04302357610682715,-0.6854467028160863,0.5725310575962979
4784,21.76424189998943,0.1287909366215617,0.08183021450930339,-0.09406371417239971,0.031160295097254244,0.22172891071174658,-0.2731896318315844,-0.0009579652451577099,-0.001712494174357335,-0.15478072877921217,-0.04224857527924837,-0.6854360354712642,0.5748884193302319
4785,21.768623699987074,0.12878385080723004,0.084029107483772,-0.0953041215372904,0.031155399107098164,0.2217140233001339,-0.2738894430659585,-0.0011486117674809277,-0.00483855132589118,-0.15215371706626607,-0.041479695867834676,-0.6853297348248727,0.5771827906422703
4786,21.77268409999669,0.12854668125080632,0.08615334788244593,-0.09672839008326613,0.031149643052517207,0.2216848789993227,-0.2745772502774015,-0.0013357540543688798,-0.007963911251305418,-0.1495163922074419,-0.0407171945480545,-0.6851274787798465,0.5794139040132851
4787,21.77681119999033,0.12847908651450343,0.08816215860981562,-0.09801382028805142,0.0311430429239579,0.2216414819403005,-0.27525300710477313,-0.0015194219801155815,-0.011088135311580653,-0.14686904337399392,-0.03996132405621671,-0.6848289663531061,0.5815815030277847
4788,21.78082469999208,0.12821398180845592,0.09014634747276455,-0.0994889882925556,0.031135614571817762,0.22158383825979447,-0.275916668508698,-0.0016996465732194075,-0.014210783539823297,-0.14421196087496627,-0.03921233310264178,-0.6844339178305147,0.583685342428223
4789,21.78508279999369,0.12808966083942303,0.09197072879596825,-0.10074626416310961,0.031127373701147248,0.22151195610616564,-0.2765681907766848,-0.001876459997641989,-0.01733141473888809,-0.1415454361060987,-0.03847046628650489,-0.6839420749158178,0.5857251881666794
4790,21.79425969999284,0.1273342007828373,0.09548885235882447,-0.1037148368719572,0.031118335866439386,0.221425845644853,-0.277207531528011,-0.002049895533672437,-0.020449586579667858,-0.13886976149850933,-0.03773596401238877,-0.6833532008735114,0.5877008174538997
4791,21.8009325999883,0.12670690326679007,0.0987668584022185,-0.1064535127083467,0.03110851646650904,0.22132551906336465,-0.27783464971836996,-0.002219987558404942,-0.023564855700022418,-0.13618523046716569,-0.03700906240858327,-0.6826670806655826,0.5896120188056911
4792,21.80623509999714,0.12644839549612255,0.10035138070753437,-0.1077559683439544,0.03109793073946365,0.2212109905758149,-0.2784495056442796,-0.0023867715258379884,-0.02667677780431829,-0.13349213735915702,-0.03628999324716803,-0.6818835210820705,0.5914585920866595
4793,21.81047949999629,0.12615390492035589,0.10198307256755836,-0.10908543523555551,0.03108659375776716,0.22108227642700348,-0.27905206094725055,-0.0025502839466035785,-0.02978490776355063,-0.1307907774017803,-0.035578983865913724,-0.6810023508653946,0.5932403485512755
4794,21.814243699991493,0.12580090898402468,0.1036766117275912,-0.11039173496053893,0.03107452042339872,0.22093939489603354,-0.27964227861771235,-0.0027105623673350484,-0.032888799716018616,-0.12808144665045182,-0.03487625709203642,-0.6800234208284052,0.5949571108822646
4795,21.818557899998268,0.12544363739843462,0.10543342718196722,-0.1116588392409786,0.03106172546310779,0.22078236629946416,-0.28022012299869775,-0.0028676453496822283,-0.03598800716852532,-0.12536444193645688,-0.03418203116783848,-0.6789466039661068,0.5966087132263123
4796,21.8230188999878,0.12495259589817641,0.10714857342573783,-0.11304549926191056,0.031048223423767295,0.22061121299399558,-0.2807855597892852,-0.0030215724489828554,-0.039082083098072755,-0.12264006081454956,-0.033496519678268805,-0.6777717955610167,0.5981950012270796
4797,21.826973799994448,0.12454354782551812,0.10891882159203292,-0.11439542694556414,0.0310340286678265,0.22042595937868398,-0.2813385560477999,-0.003172384192599292,-0.04217058005402283,-0.119908601510416,-0.03281993148043397,-0.6764989132821166,0.599715832055519
4798,21.830740499994132,0.1240951027658941,0.11077194734901821,-0.11579676464796143,0.031019155368865098,0.22022663189668343,-0.28187908019477154,-0.003320122057929772,-0.04525305026069458,-0.11717036286801288,-0.03215247063509127,-0.6751278972773612,0.6011710744374886
4799,21.835153799998807,0.12374172988961274,0.11260174976955095,-0.11704962041432655,0.031003617507250038,0.22001325903651345,-0.2824071020156487,-0.003464828450103545,-0.048329045720368016,-0.11442564429679357,-0.031494336340153806,-0.6736587102597096,0.602560608678656
4800,21.83937009998772,0.12302731900409683,0.11459336153286406,-0.11854789838332898,0.030987428865896824,0.2197858713328511,-0.2829225926632696,-0.003606546679369424,-0.05139811831666468,-0.11167474571883422,-0.0308457228662366,-0.6720913375866466,0.6038843266866873
4801,21.843408599990653,0.12245596021871429,0.11651598770455439,-0.11993578883836957,0.03097060302613679,0.21954450136684545,-0.2834255246600873,-0.0037453209381873827,-0.05445981991827513,-0.10891796751587256,-0.03020681949427169,-0.6704257873331645,0.6051421319907178
4802,21.847580399989965,0.12209429373770966,0.11860174243347482,-0.12113654564458388,0.03095315336369172,0.21928918376595322,-0.2839158719001517,-0.0038811962780329603,-0.057513702483003186,-0.10615561047627144,-0.029577810455219223,-0.6686620903581767,0.6063339397581009
4803,21.853746699998737,0.12156624457379203,0.12062381625056262,-0.12239823744171857,0.030935093044756997,0.21901995520329445,-0.284393609650845,-0.004014218585924394,-0.060559318162096816,-0.1033879757419193,-0.02895887487190053,-0.66680030036434,0.6074596768084337
4804,21.857604499993613,0.1210440757275863,0.12261911884979175,-0.12368717206891672,0.030916435022194513,0.21873685439652737,-0.2848587145543715,-0.004144434560682487,-0.0635962194048352,-0.10061536475508075,-0.02835018670297817,-0.6648404939512592,0.6085192816248552
4805,21.861839799996236,0.12037202023012393,0.12466532976143274,-0.12507046987978665,0.03089719203183655,0.21843992210624089,-0.2853111646290025,-0.004271891688933356,-0.06662395906334136,-0.09783807920520986,-0.027751914689106868,-0.6627827706620512,0.6095127043626203
4806,21.86857500000042,0.11905917980173603,0.1286210976931632,-0.1277428428648808,0.030877376588901995,0.21812920113386294,-0.28575093927007567,-0.004396638220864325,-0.06964209049758958,-0.09505642097573798,-0.027164222301278202,-0.66062725302325,0.6104399068549471
4807,21.872762099999814,0.11832808513021019,0.1306381296370532,-0.1290818974111362,0.03085700098452587,0.21780473631908417,-0.28617801925074976,-0.004518723145743331,-0.0726501676805771,-0.09227069209084825,-0.02658726769138095,-0.6583740865780414,0.6113008626161447
4808,21.881633400000283,0.11653012658109196,0.13461161898881543,-0.1319715564144346,0.030836077282403253,0.21746657453679674,-0.2865923867225149,-0.004638196167212333,-0.07564774530362936,-0.08948119466224908,-0.026021203644997933,-0.6560234399128133,0.6120955568420214
4809,21.885506399994483,0.11575683415382343,0.13653813031340495,-0.13329008471499154,0.03081461731554854,0.2171147646935484,-0.28699402521545736,-0.0047551076783652595,-0.0786343788818083,-0.08668823083595918,-0.025466177536459092,-0.6535755046770126,0.6128239864075784
4810,21.893520499987066,0.11383730846277537,0.1405157474821195,-0.13618533722215628,0.03079263268317108,0.21674935772351175,-0.28738291963827944,-0.00486950873662116,-0.08160962485939247,-0.08389210273911629,-0.024922331286169407,-0.6510304955963033,0.6134861598619881
4811,21.89773839998816,0.11299561394072676,0.1424395319789448,-0.1374677799974484,0.030770134747668137,0.2163704065839683,-0.2877590562780736,-0.004981451038403316,-0.0845730407153987,-0.0810931124268218,-0.024389801320229155,-0.6483886504790224,0.6140820974208636
4812,21.90183689999685,0.11207571588295515,0.14448072481966237,-0.1389320851668608,0.030747134631736124,0.21597796625030646,-0.2881224227998504,-0.005090986893635148,-0.08752418506911439,-0.0782915618290338,-0.02386871853236275,-0.6456502302159299,0.6146118309558265
4813,21.905857099991408,0.11105535419261975,0.146379659952165,-0.14029234873316068,0.030723643215601087,0.2155720937105339,-0.2884730082458224,-0.0051981692000637935,-0.0904626177856097,-0.07548775269752113,-0.02335920824817129,-0.6428155187732498,0.6150754039813756
4814,21.910138299994287,0.11003799056672986,0.14835970837211027,-0.14183305128012536,0.030699671134369187,0.21515284795930467,-0.2888108030344434,-0.005303051417422331,-0.09338790008119947,-0.07268198655288988,-0.022861390191722734,-0.6398848231789984,0.6154728716390628
4815,21.91638739999325,0.10925440319561668,0.15011812813386144,-0.14305580531790207,0.030675228775497814,0.21472028999146217,-0.28913579895920494,-0.005405687541441697,-0.09629959462882381,-0.06987456463169466,-0.02237537845449271,-0.6368584735026053,0.6158043006789767
4816,21.92022289999295,0.10819591693539514,0.1519518916746979,-0.14456464615650916,0.030650326276388223,0.2142744827950978,-0.28944798918719084,-0.005506132077723408,-0.09919726566331687,-0.06706578783364693,-0.021901281466667605,-0.6337368228278313,0.6160697694385432
4817,21.92442189999565,0.10735223743745077,0.15381183151190667,-0.1459271648468409,0.030624973522100463,0.21381549134412717,-0.28974736825738967,-0.005604440015484255,-0.1020804790865331,-0.06425595666893211,-0.021439201970820648,-0.6305202472189908,0.6162693678186482
4818,21.929203299994697,0.10640107416273922,0.15549560160992548,-0.14741479454501438,0.03059918014319122,0.2133433825903854,-0.2900339320787651,-0.0057006668011841816,-0.10494880257229999,-0.06144537120564773,-0.02098923699797022,-0.6272091456804858,0.6164031972570887
4819,21.93364059999294,0.10560680079005623,0.1573101073329074,-0.14881934373520947,0.030572955513675025,0.21285822545524252,-0.2903076779280838,-0.005794868312048583,-0.1078018056711669,-0.05863433101737467,-0.020551477846028655,-0.6238039401096683,0.6164713706993601
4820,21.93880289999652,0.10406274796531613,0.16084647026257995,-0.1516751245238212,0.030546308749109054,0.21236009082074003,-0.2905686044475027,-0.005887100829496332,-0.1106390599149198,-0.05582313513089349,-0.020126010060648524,-0.6203050752430462,0.6164740125667942
4821,21.945052799987025,0.10320019398544593,0.1625628360076527,-0.1531643620700943,0.030519248704801903,0.21184905152025085,-0.29081671164191475,-0.005977421012484829,-0.11346013892083134,-0.05301208197405774,-0.019712913418472193,-0.6167130185958477,0.616411258722062
4822,21.94962210000085,0.10245703640309542,0.16433088436389215,-0.15464002846689787,0.030491783974146876,0.21132518232866418,-0.2910520008760538,-0.0060658858707834384,-0.11626461849561581,-0.05020146932383589,-0.019312261912789376,-0.6130282603949652,0.6162832564320534
4823,21.953249499987574,0.10175358888705312,0.1660998223052726,-0.15613076253638958,0.030463922887080015,0.21078855995209717,-0.2912744748713588,-0.006152552738186664,-0.11905207673905911,-0.0473915942545338,-0.01892412374160612,-0.6092513135053003,0.6160901643281534
4824,21.95753979998699,0.10088127740051149,0.16794728888612098,-0.15763567495398864,0.030435673508662997,0.21023926301713514,-0.2914841377025986,-0.006237479245678469,-0.12182209414729338,-0.04458275308620912,-0.01854856129812763,-0.6053827133495334,0.6158321523639286
4825,21.96175799999037,0.10006050357895012,0.1697222662606884,-0.1592303598389632,0.030407043637791238,0.20967737205960119,-0.2916809947942606,-0.006320723294559142,-0.12457425371568612,-0.041775241333289324,-0.018185631163656155,-0.601423017821346,0.6155094017702395
4826,21.965935299987905,0.09936319218825918,0.17160223076557368,-0.16065043188725436,0.03037804080602734,0.20910296951285878,-0.29186505291670317,-0.0064023430295460934,-0.12730814104131424,-0.03896935365340508,-0.017835384102904077,-0.5973728071921229,0.615122105007793
4827,21.970307899988256,0.0986082354985328,0.17349781020984986,-0.1621396166746845,0.030348672276559987,0.20851613969564967,-0.2920363201820747,-0.006482396811859936,-0.13002334442499255,-0.03616538379645025,-0.017497865061720824,-0.5932326840111639,0.6146704657171503
4828,21.97477939999953,0.0978357416013788,0.1753814181074845,-0.16355424733996993,0.030318945043288418,0.20791696879947003,-0.2921948060399978,-0.006560943192307239,-0.13271945497282642,-0.03336362455388018,-0.017173113167231246,-0.5890032729994353,0.6141546986662049
4829,21.978690999996616,0.0970866140897975,0.1772908683419845,-0.16502356331614734,0.030288865830032437,0.20730554487548689,-0.29234052127302157,-0.006638040884371344,-0.13539606669725918,-0.03056436770825959,-0.016861161730381703,-0.5846852209368977,0.6135750296951467
4830,21.98251679999521,0.09635914742604272,0.17911828337602703,-0.1663928135253122,0.030258441089867846,0.20668195782099696,-0.2924734779918411,-0.006713748737322554,-0.13805277661758567,-0.027767903983071118,-0.016562038250889102,-0.5802791965434448,0.6129316956589336
4831,21.98683859998709,0.0956274383499087,0.18102373341364666,-0.16783424484719223,0.030227677004587186,0.2060462993654303,-0.29259368963028615,-0.006788125709358998,-0.1406891848599027,-0.024974522992795675,-0.01627576442458689,-0.5757858903534937,0.6122249443672841
4832,21.99113909999141,0.09494577411510133,0.18284312840401498,-0.1692541924306173,0.030196579484285658,0.2053986630559012,-0.292701170940082,-0.006861230840789436,-0.14330489475646804,-0.022184513193275628,-0.01600235615316068,-0.5712060145842638,0.6114550345222155
4833,21.995303399991823,0.09432164263043528,0.18463290741552021,-0.1705770991938033,0.030165154167072016,0.20473914424230763,-0.2927959379853849,-0.0069331232272692575,-0.14589951294443942,-0.01939816183237186,-0.01574182355626518,-0.5665403029977891,0.6106222356531456
4834,21.999468399997568,0.09377007552479874,0.18644916492833263,-0.17197322621700853,0.030133406418904322,0.20406784006198106,-0.2928780081370928,-0.007003861993100862,-0.14847264946396482,-0.01661575490092552,-0.015494170986012959,-0.5617895107567089,0.6097268280495813
4835,22.0034764999873,0.09313666556850411,0.18814036416442115,-0.17334691264239058,0.030101341333550156,0.20338484942388943,-0.2929474000669326,-0.007073506264609543,-0.1510239178555952,-0.013837577084035319,-0.015259397043824464,-0.5569544142738878,0.6087691026914122
4836,22.00763999999617,0.09247762397235733,0.18987258679974683,-0.17472197757594604,0.030068963732670862,0.2026902729923967,-0.2930041337413247,-0.0071421151436059545,-0.15355293525699157,-0.011063911712661087,-0.015037494599627414,-0.5520358110559177,0.6077493611768248
4837,22.012298999994528,0.09180483432081733,0.19146037262235413,-0.17618347229231351,0.030036278166029287,0.20198421317058265,-0.2930482304150268,-0.007209747680946176,-0.1560593224988985,-0.008295040715564184,-0.01482845081339257,-0.5470345195405548,0.6066679156478597
4838,22.01626099999703,0.09127869758331916,0.19297907522785307,-0.17747354799650802,0.030003288911820535,0.20126677408312663,-0.29307971262455784,-0.007276462850200339,-0.15854270420035693,-0.005531244571595168,-0.01463224715899175,-0.5419513789281484,0.60552508871363
4839,22.023434399990947,0.09021313280858131,0.19586713999956337,-0.1802990247140128,0.029969999977125107,0.20053806155875906,-0.2930986041814058,-0.0073423195214407265,-0.16100270886312806,-0.0027728022623391847,-0.014448859450362922,-0.5367872490071178,0.6043212133712248
4840,22.027460400000564,0.08970343895695601,0.19727489160160877,-0.18172213496637973,0.02993641509848383,0.19979818311228498,-0.29310493016502187,-0.0074073764351601885,-0.16343896896530094,-1.999122512942183e-05,-0.014278257869966055,-0.5315430099735381,0.6030566329243179
4841,22.031026599986944,0.08927239026529464,0.1986552949840253,-0.18309126843571,0.02990253774259385,0.19904724792618284,-0.29309871691560174,-0.007471692176331621,-0.16585112105405728,0.0027269126935611835,-0.014120406999512178,-0.5262195622448935,0.6017317008995077
4842,22.03493799999705,0.0887758769807082,0.20000237018713576,-0.1845605045287883,0.02986837110712511,0.19828536683178224,-0.2930799920266574,-0.007535325148619142,-0.16823880583756687,0.00546763528433989,-0.013975265852947144,-0.5208178262680586,0.6003467809604139
4843,22.03894629998831,0.08836245216761286,0.20121731333862028,-0.1860245179702669,0.029833918121656373,0.19751265229002557,-0.29304878433737996,-0.007598333548751571,-0.17060166827598675,0.008201904020715758,-0.013842787911670512,-0.51533874232157,0.5989022468195527
4844,22.044222699987586,0.08800171849808726,0.20248599095162448,-0.18753544774384012,0.029799181448730033,0.1967292183718162,-0.29300512392479616,-0.007660775341068672,-0.17293935767153779,0.010929448104513023,-0.013722921161968858,-0.5097832703122532,0.5973984821480145
4845,22.04805909999413,0.08765996021239812,0.2037937488464335,-0.18894778525821296,0.029764163485024798,0.19593518073795838,-0.2929490420957214,-0.007722708232250548,-0.17525152775763256,0.013649998510866464,-0.013615608134641815,-0.5041523895662766,0.5958358804829679
4846,22.05232969998906,0.08738736123195903,0.20499735180731068,-0.1905272079995716,0.029728866362645524,0.19513065661869322,-0.29288057137850937,-0.007784189646240353,-0.17753783678702922,0.016363288032789115,-0.01352078594679807,-0.4984470986146992,0.5942148451330092
4847,22.055995499991692,0.08715274443927032,0.2062146335656623,-0.19205711483172955,0.029693291950529214,0.19431576479283524,-0.29279974551459975,-0.007845276699370468,-0.17979794761898626,0.01906905132530274,-0.013438386345797514,-0.4926684149735854,0.5925357890813855
4848,22.060323699988658,0.08684688171286324,0.20740563429784067,-0.19363229780440414,0.029657441855966287,0.1934906255665133,-0.2927065994498686,-0.007906026175702114,-0.18203152780539394,0.021767024949121642,-0.013368335755314797,-0.4868173749187567,0.5907991348871158
4849,22.066697299989755,0.08658652863239755,0.20865466979864722,-0.1951514018650613,0.029621317426236023,0.1926553607515203,-0.2926011693257837,-0.007966494502588376,-0.1842382496758581,0.024456947413880586,-0.013310555323498468,-0.4808950332552574,0.589005314584037
4850,22.070296799996868,0.08631289952044631,0.20987729905064875,-0.1967512529800053,0.029584919750354884,0.19181009364327672,-0.2924834924703678,-0.00802673772647038,-0.18641779042171278,0.02713855922089775,-0.013264960973198894,-0.4749024630816103,0.5871547695778069
4851,22.07429379998939,0.08604421003169321,0.21100897655508294,-0.198398103132941,0.02954824966093663,0.1909549489984141,-0.2923536073889722,-0.00808681148891629,-0.18856983217893747,0.029811602905463645,-0.013231463454237218,-0.4688407555489459,0.5852479505408875
4852,22.07903599999554,0.08582933681991696,0.2122714523200022,-0.1998654342669426,0.029511307736163176,0.1900900530119823,-0.2922115537548627,-0.008146771002912638,-0.19069406210995613,0.03247582307864706,-0.013209968397686683,-0.46271101961508165,0.5832853173055393
4853,22.082877499997267,0.0856520898826174,0.2135133369151001,-0.20135827070492718,0.029474094301864914,0.1892155332942871,-0.29205737239962004,-0.008206671029417238,-0.19279017248429434,0.03513096646860932,-0.013200376372136726,-0.45651438179363196,0.5812673387548525
4854,22.086844299992663,0.08541207834015552,0.21473000682723598,-0.20294729797360747,0.029436609433709262,0.18833151884736127,-0.2918911053033572,-0.008266565854182908,-0.19485786075807324,0.03777678196141803,-0.01320258294190927,-0.45025198589823,0.5791944927118468
4855,22.093480799987447,0.08503801400290367,0.21720889497079968,-0.2059869391202541,0.02939885295949585,0.18743814004107548,-0.29171279558475344,-0.008326509264861039,-0.19689682965231808,0.04041302064135198,-0.013216478727195785,-0.4439249927819468,0.5770672658266695
4856,22.09765029999835,0.0849174032934538,0.21852799467050524,-0.2075777732758657,0.029360824461556842,0.1865355285888943,-0.2915224874909099,-0.008386554528393942,-0.19890678723006022,0.04303943583068846,-0.013241949466082868,-0.4375345800719918,0.5748861534619195
4857,22.101625999988755,0.08488231412811406,0.21975233777570347,-0.20908515456113028,0.029322523279260902,0.1856238175232826,-0.29132022638702976,-0.008446754368704752,-0.20088744697221173,0.04565578312896479,-0.013278876078433295,-0.43108194189978416,0.5726516595761301
4858,22.105740399987557,0.08483419980193932,0.22092617176157497,-0.21058131590017828,0.02928394851161947,0.18470314117076736,-0.2911060587459254,-0.008507160944693365,-0.20283852785219073,0.04826182045170582,-0.013327134731588482,-0.42456828862648444,0.5703642966054367
4859,22.11029719999351,0.08485757204125138,0.22221445111783913,-0.21205374698023144,0.029245099019993868,0.18377363512666067,-0.2908800321373548,-0.008567825828546824,-0.20475975440927727,0.05085730806860967,-0.013386596907857578,-0.41799484656407715,0.5680245853434596
4860,22.114275699990685,0.08485981487611709,0.22343093604916525,-0.21354553579597535,0.029205973430901762,0.18283543622945064,-0.2906421952171897,-0.008628799984372328,-0.20665085682067943,0.05344200864118364,-0.013457129473757636,-0.41136285769209424,0.5656330548194254
4861,22.11835349998728,0.0849066145669452,0.22459530425062668,-0.21498229720896472,0.029166570138921332,0.18188868253486612,-0.29039259771641723,-0.008690133747160947,-0.20851157097228976,0.05601568725982264,-0.013538594750968578,-0.4046735793700719,0.56319024217456
4862,22.12260740000056,0.08497749940918062,0.22565249097165893,-0.2163660243804811,0.029126887309691582,0.18093351328962126,-0.2901312904299786,-0.00875187680208994,-0.21034163852811255,0.0585781114803225,-0.013630850588965916,-0.3979282840458349,0.5606966925367806
4863,22.126851399996667,0.08499919221779588,0.2267145826204551,-0.21780823908731992,0.02908692288300714,0.17997006890484632,-0.2898583252054466,-0.008814078164171313,-0.21214080699834317,0.061129051359820746,-0.013733750439293362,-0.3911282589597026,0.5581529588937177
4864,22.13108500000089,0.08505511149870643,0.22780405435378936,-0.21925615988296296,0.029046674576005894,0.17899849092921144,-0.28957375493154575,-0.008876786158254182,-0.2139088298060805,0.06366827949215755,-0.01384714343143682,-0.3842748058447127,0.5555596019641008
4865,22.135250899998937,0.08514676776220936,0.22886330539391586,-0.2206681682238222,0.029006139886447697,0.17801892202174965,-0.289277633526518,-0.008940048399388226,-0.2156454663526547,0.06619557104264967,-0.013970874450260583,-0.37736924062295735,0.5529171900675335
4866,22.139444499989622,0.08535648443725616,0.22995611990173914,-0.22196523309809105,0.028965316096082452,0.17703150592438666,-0.2889700159263355,-0.009003911773555385,-0.2173504820815535,0.06871070378227051,-0.01410478421496596,-0.3704128930981287,0.5502262989926939
4867,22.14357439999003,0.08550154767764595,0.2308618688955851,-0.22334380135099538,0.028924200274105624,0.17603638743418457,-0.2886509580727648,-0.009068422418776707,-0.21902364854092948,0.0712134581212287,-0.014248709359531854,-0.36340710664437287,0.5474875118639928
4868,22.147629899991443,0.08566173920541566,0.2317885330849806,-0.22474568182339857,0.0288827892806993,0.17503371237530543,-0.28832051690128296,-0.009133625706601084,-0.22066474344467138,0.07370361714193904,-0.014402482514596256,-0.3563532378915534,0.544701419006723
4869,22.151776999991853,0.08584715999798062,0.23279752925281633,-0.22610689543698198,0.028841079770656926,0.1740236275707002,-0.28797875032884807,-0.009199566223982356,-0.2222735507320234,0.07618096663137902,-0.014565932390736948,-0.3492526564070256,0.5418686178107341
4870,22.156098999999813,0.08597981613908208,0.23371472570527638,-0.22748786066012675,0.02879906819708983,0.17300628081353012,-0.28762571724152747,-0.009266287755551137,-0.22384986062573692,0.078645295112824,-0.01473888386310932,-0.3421067443740217,0.5389897125926651
4871,22.16011409999919,0.08609748818173527,0.23470274316473222,-0.2288689751799939,0.0287567508152137,0.171981820838328,-0.28726147748198616,-0.009333833266287473,-0.22539346968874097,0.08109639387695536,-0.01492115805739854,-0.33491689626674814,0.5360653144567665
4872,22.164216399993165,0.0861862753664369,0.23560270786459345,-0.23029133501325538,0.028714123686213087,0.17095039729190656,-0.28688609183683755,-0.00940224488460027,-0.2269041808793181,0.08353405701233538,-0.015112572437042867,-0.32768451852229663,0.5330960411543486
4873,22.168380099989008,0.08629788655218812,0.23644051238511862,-0.23167805031852076,0.028671182681181892,0.16991216070402188,-0.28649962202385915,-0.009471563885819212,-0.22838180360477053,0.08595808143524318,-0.015312940891684413,-0.32041102920947473,0.530082516941891
4874,22.17260669999814,0.08649230966918428,0.2373775037149613,-0.23303743611618624,0.028627923485137687,0.1688672624577989,-0.28610213067907636,-0.009541830676104632,-0.22982615377356333,0.08836826691886536,-0.01552207382680315,-0.3130978576946585,0.5270253724378492
4875,22.178741999989143,0.0865447187201356,0.23824329704597016,-0.23440245366471174,0.02858434160110776,0.167815854759925,-0.2856936813437169,-0.009613084776780653,-0.2312370538459303,0.09076441612183565,-0.015739778254489602,-0.30574644430477316,0.523925244478192
4876,22.182613400000264,0.08668539725383612,0.23912177203417953,-0.2357209903954444,0.028540432354284707,0.16675809061061722,-0.28527433845103767,-0.009685364809096654,-0.23261433288292993,0.09314633461611829,-0.015965857885311206,-0.2983582399875065,0.520782775970704
4877,22.18678039999213,0.0868400160132079,0.24005075267729634,-0.23705194020190168,0.02849619089624948,0.1656941237733708,-0.28484416731302625,-0.009758708479421887,-0.23395782659393763,0.0955138309142293,-0.016200113221226997,-0.29093470596886134,0.5175986157480891
4878,22.19092689998797,0.0870055885941967,0.24082660831016628,-0.2383035067918432,0.02845161220925968,0.16462410874449587,-0.2844032341069803,-0.009833152564877863,-0.2352673773825632,0.09786671649579023,-0.01644234164950509,-0.283477313408155,0.5143734184199097
4879,22.195505099996808,0.0872901823296605,0.24165569272934578,-0.2394923910425458,0.028406691110601224,0.16354820072244952,-0.2839516058619664,-0.00990873289941287,-0.23654283439098267,0.10020480583340911,-0.01669233753759692,-0.2759875430505715,0.5111078442233953
4880,22.20025209999585,0.08759751320504218,0.24246628001308781,-0.2406319048935693,0.028361422257001254,0.16246655557697112,-0.283489350445161,-0.009985484360322837,-0.23778405354267237,0.1025279164178833,-0.016949892328922012,-0.26846688487737297,0.5078025588731546
4881,22.204394999993383,0.08786015029482803,0.24322290212749798,-0.24182023635135813,0.028315800149100283,0.16137932981802786,-0.2830165365480786,-0.010063440855222528,-0.2389908975835354,0.10483586878271932,-0.01721479463951682,-0.2609168377538788,0.5044582334098245
4882,22.208636199997272,0.08822881230623633,0.24398612803679937,-0.2429051106748053,0.028269819135981374,0.16028668056457865,-0.28253323367268834,-0.01014263530947086,-0.24016323612141086,0.10712848652796489,-0.017486830355500853,-0.2533389090753186,0.501075544047686
4883,22.217963099988992,0.0896258793349977,0.24616970833540597,-0.24586763253185123,0.028223473419754168,0.1591887655131632,-0.282039512117423,-0.010223099654053757,-0.24130094566395663,0.10940559634334887,-0.017765782731313115,-0.24573461441066788,0.49765517202128245
4884,22.22281319998729,0.09010894943054078,0.2467888484337514,-0.2468501358453516,0.028176757060191633,0.1580857429063238,-0.2815354429630852,-0.010304864813927846,-0.24240390965489542,0.11166702803072512,-0.018051432488671623,-0.23810547714457408,0.4941978034310797
4885,22.226781699995627,0.09068429226372793,0.24734758696000791,-0.24773747289663353,0.0281296639794174,0.1569777715008667,-0.2810210980586543,-0.010387960696827995,-0.24347201850861555,0.11391261452581601,-0.01834355791620858,-0.2304530281174809,0.49070412908820477
4886,22.230973999990965,0.09131970591315651,0.24792412287654061,-0.24854063881179148,0.028082187966641557,0.1558650105359699,-0.2804965500069972,-0.010472416182541537,-0.24450516964311922,0.11614219191925235,-0.018641934969733685,-0.2227788052640615,0.4871748443583004
4887,22.235142699995777,0.0919117900490905,0.24846757504164546,-0.24933306808192715,0.028034322682942776,0.15474761970114587,-0.279961872150488,-0.0105582591126518,-0.2455032675113113,0.11835559947690559,-0.01894633737307791,-0.21508435325006964,0.4836106490045296
4888,22.2392167999933,0.09252189203024813,0.24892986239922557,-0.250163474313546,0.027986061666094464,0.1536257591040665,-0.27941713855653943,-0.010645516280753302,-0.24646622363062073,0.1205526796595084,-0.019256536719470096,-0.20737122310771688,0.48001224702976486
4889,22.243370799988043,0.09319920139791216,0.24937672596910068,-0.2509419453259531,0.027937398335432666,0.1524995892382584,-0.2788624240030487,-0.010734213423140807,-0.24739395661094887,0.12273327814156032,-0.019572302573398582,-0.19964097186968532,0.47638034651799843
4890,22.24752499999886,0.0938861743102459,0.24982624770216527,-0.25170231369811275,0.027888325996763653,0.15136927095067565,-0.27829780396376036,-0.010824375209974174,-0.24828639218093868,0.12489724382951534,-0.019893402572910234,-0.19189516220188477,0.4727156594750127
4891,22.251678399989032,0.09453672198676175,0.25024695364977023,-0.25235838369066754,0.027838837847308978,0.15023496540915862,-0.2777233545935468,-0.010916025236920713,-0.2491434632125621,0.12704442887924805,-0.020219602532299156,-0.18413536203506223,0.46901890166834753
4892,22.2559770999942,0.09514976669643233,0.2507036100447691,-0.2530476357641059,0.027788926980685864,0.14909683406978555,-0.2771391527136099,-0.011009186017276526,-0.24996510974402136,0.12917468871279722,-0.020550666545137455,-0.17636314419537255,0.4652907924666023
4893,22.26050279999617,0.09580208117198458,0.2510974311765708,-0.25367908742415,0.027738586391920686,0.14795503864412374,-0.27654527579660637,-0.011103878974568052,-0.25075127900096006,0.13128788203438363,-0.020886357087600338,-0.1685800860340182,0.46153205467810976
4894,22.26422779999848,0.09644745707683083,0.25150950685159157,-0.2543568274294975,0.027687808982493116,0.1468097410663879,-0.2759418019517029,-0.011200124435634836,-0.25150192541598076,0.1333838708456985,-0.021226435122038,-0.16078776905606484,0.4577434143890189
4895,22.268315799999986,0.09703690080518622,0.25190035711145886,-0.25505436199081,0.027636587565408766,0.14566110346051345,-0.2753288099095635,-0.011297941624194315,-0.25221701064646507,0.13546252046045937,-0.021570660200746865,-0.15298777854854145,0.4539256008008262
4896,22.27266639999289,0.09755887783198397,0.2522711784892428,-0.2557733497360808,0.027584914870297995,0.1445092881071526,-0.27470637900727307,-0.011397348654889177,-0.252896503590694,0.13752369951823074,-0.02191879056989285,-0.14518170320793264,0.4500793460673897
4897,22.27680169999076,0.0980839768358763,0.25266513619118947,-0.256487269355515,0.02753278354853859,0.14335445741060152,-0.2740745891732002,-0.011498362527817656,-0.2535403804022683,0.13956727999750693,-0.022270583273539608,-0.13737113476717094,0.4462053851314631
4898,22.28078209998785,0.09859887777132202,0.25303114392523185,-0.25722769549258345,0.027480186178400135,0.14219677386566767,-0.2734335209118013,-0.011600999123546831,-0.25414862450282627,0.1415931372280551,-0.022625794257734873,-0.12955766762223553,0.4423044555607866
4899,22.284820399989258,0.0990773648502527,0.25332965374522654,-0.2580915421379354,0.027427115270207907,0.1410364000244854,-0.2727832552883695,-0.01170527319860883,-0.2547212265930569,0.14360114990251605,-0.02298417847460826,-0.12174289845846312,0.4383772973837727
4900,22.2889981999906,0.09955982634320071,0.25362165456203184,-0.2590861510514849,0.027373563271524067,0.13987349846328767,-0.2721238739137301,-0.011811198381479551,-0.25525818466200817,0.14559120008726104,-0.02334548998643403,-0.11392842587667719,0.434424652924824
4901,22.29322300000058,0.1000519479649176,0.25389756114894396,-0.2600274464168352,0.027319522572344018,0.13870823174914235,-0.2714554589288848,-0.011918787169039415,-0.25575950399469083,0.14756317323250426,-0.023709482069612518,-0.10611585001924068,0.4304472666393229
4902,22.301621399994477,0.10097443783506048,0.25426280909493854,-0.2620821443679357,0.027264985510305817,0.13754076240665974,-0.2707780929896087,-0.012028050923515332,-0.25622519717797876,0.14951695818166863,-0.024075907318524378,-0.09830677219613766,0.42644588494832675
4903,22.306044599987217,0.10155729228116922,0.25441505610230397,-0.26306294931066093,0.027209944375910403,0.13637125288467924,-0.2700918592510053,-0.01213899986990297,-0.25665528410480826,0.15145244718000384,-0.024444517749212122,-0.09050279451118841,0.42242125607300324
4904,22.310019399999877,0.10202500751317327,0.2545050635061578,-0.26418581350088255,0.027154391417750365,0.13519986552294225,-0.26939684135202197,-0.012251643093868107,-0.25704979197667494,0.15336953588245564,-0.02481506490284372,-0.0827055194885017,0.4183741298688429
4905,22.31412989999808,0.10248013782753222,0.25460848661994423,-0.2652852105780513,0.027098318847744947,0.1340267625187588,-0.26869312339992824,-0.012365988540125723,-0.25740875530442914,0.1552681233607853,-0.02518729994891336,-0.07491654969926743,0.4143052576596854
4906,22.318503699993016,0.1030200527869422,0.25465366277998797,-0.2663894548719544,0.027041718846379077,0.13285210589367588,-0.26798078995476304,-0.012482043011295204,-0.25773221590737194,0.15714811210993854,-0.02556097378813482,-0.06713748738899158,0.41021539207159713
4907,22.32246640000085,0.10359127512117638,0.2546675994462475,-0.26748686644616904,0.02698458356794415,0.1316760574601548,-0.26725992601375353,-0.012599812167229874,-0.25802022291065607,0.15900940805366445,-0.025935837154983314,-0.05936993410527586,0.4061052868666405
4908,22.3266922999901,0.10412934187405894,0.254690689565475,-0.2686561452581706,0.02692690514577823,0.13049877878826582,-0.266530616995709,-0.012719300524818814,-0.25827283274099366,0.1608519205493842,-0.026311640719842117,-0.05161549032624306,0.4019756967765701
4909,22.330712199996924,0.10464430822887286,0.2546614994322848,-0.2698607994965786,0.02686867569750351,0.1293204311724072,-0.2657929487253916,-0.01284051145825874,-0.2584901091206748,0.1626755623923102,-0.026688135190710633,-0.043875755089708215,0.3978273773364944
4910,22.335009199989145,0.10522180923837764,0.25460374678188513,-0.2710258801508226,0.02680988733025891,0.12814117559805652,-0.26504700741786735,-0.012963447199793502,-0.25867212305990017,0.16448024981881557,-0.027065071414431225,-0.03615232562319517,0.3936610847185408
4911,22.33906929999648,0.10582056983148895,0.25451007569466233,-0.2722506246787559,0.026750532145925765,0.1269611727085617,-0.2642928796628408,-0.013088108840918588,-0.2588189528474309,0.16626590250905343,-0.027442200477392424,-0.028446796974897413,0.38947757556556106
4912,22.343276199986576,0.10639263983848468,0.2543723996059915,-0.27354139687791157,0.026690602246344453,0.1257805827719804,-0.2635306524089786,-0.01321449633404784,-0.2589306840395587,0.16803244358882713,-0.027819273805666758,-0.020760761645680775,0.3852776068249178
4913,22.34761289999005,0.10700663144275792,0.25423577814948517,-0.27477630988375296,0.026630089738519876,0.12459956564797532,-0.26276041294822533,-0.013342608494639339,-0.25900740944740147,0.1697797996307109,-0.028196043264542118,-0.01309580922222495,0.3810619355823882
4914,22.353249299994783,0.10759067993322727,0.25406285596768785,-0.27604638964574385,0.026568986739813692,0.12341828075477308,-0.26198224890011507,-0.013472443003777259,-0.25904922912252953,0.1715079006544228,-0.02857226125740604,-0.005453526011399715,0.37683131889622523
4915,22.35668509999232,0.10813883067862555,0.25389382856160436,-0.2772934302582198,0.026507285383121127,0.12223688703619445,-0.2611962481960808,-0.013603996411206297,-0.2590562503409292,0.1732166801264501,-0.02894768082394258,0.0021645053240293257,0.37258651363141426
4916,22.36059969999769,0.10863132608792873,0.253769121999509,-0.2785682875304808,0.026444977822030435,0.12105554292876325,-0.260402499063766,-0.01373726413881505,-0.25902858758531205,0.1749060749589281,-0.02932205573760236,0.009756706128271711,0.36832827629416226
4917,22.364293599996017,0.10920557588746246,0.2535638434161928,-0.2798121732294939,0.026382056235962965,0.11987440632890115,-0.2596010900113419,-0.013872240484564606,-0.25896636252577626,0.1765760255077722,-0.029695140602306654,0.017321502113867012,0.3640573628666554
4918,22.368356899998616,0.1097680224152998,0.2534257652507266,-0.281074084793346,0.026318512835291717,0.11869363456021588,-0.2587921098118336,-0.014008918626858387,-0.25886970399882797,0.17822647557006413,-0.03006669094834726,0.024857323721431814,0.3597745286421226
4919,22.37277929999982,0.11027770799061629,0.2532817595086232,-0.2822367399641632,0.026254339866436296,0.11751338434089029,-0.2579756474874592,-0.014147290629349146,-0.25873874798476904,0.17985737238069338,-0.030436463327444607,0.03236260647770804,0.35548052806024216
4920,22.376925299991854,0.11076111043562543,0.25311441710633753,-0.2833953765125874,0.026189529616932317,0.1163338117511789,-0.25715179229398677,-0.014287347446178753,-0.2585736375834584,0.18146866660825717,-0.030804215406927245,0.03983579135182296,0.35117611454292685
4921,22.38098699999682,0.11125107707440735,0.2529197928241613,-0.2845954414231995,0.02612407442047322,0.1151550722010194,-0.2563206337051101,-0.014429078927646291,-0.25837452298845653,0.18306031235021888,-0.031169706062996468,0.04727532510967244,0.3468620403305245
4922,22.384950399995432,0.11177243411593911,0.2528559909725699,-0.285714071446378,0.026057966661922706,0.11397732039776605,-0.2554822613968476,-0.014572473826299863,-0.25814156145956324,0.18463226712732683,-0.031532695473040454,0.054679660666340196,0.3425390563184696
4923,22.38923709999653,0.11225058079645417,0.2527253003448066,-0.28680042781670423,0.025991198782295943,0.11280071031405293,-0.25463676523196693,-0.01471751980344729,-0.2578749172937581,0.18618449187729494,-0.031892945206962973,0.062047257436466864,0.3382079118944243
4924,22.39341209999111,0.11271388924849146,0.25264406010624263,-0.28784980924100667,0.025923763283707563,0.1116253951557949,-0.2537842352444375,-0.014864203436080739,-0.257574761794552,0.18771695094774837,-0.032250218317492585,0.06937658168248376,0.33386935477594226
4925,22.397752399992896,0.11320923733496034,0.25252616211472584,-0.2889657792248918,0.02585565273428476,0.11045152733033357,-0.2529247616239139,-0.01501251022421013,-0.25724127323975915,0.18922961208843536,-0.032604279429438984,0.07666610686062797,0.32952413084869314
4926,22.401933599991025,0.11373086700696303,0.25245389129280854,-0.29003575211124066,0.02578685977304371,0.10927925841473576,-0.252058434700256,-0.015162424598600073,-0.25687463684770057,0.1907224464427079,-0.03295489482786388,0.08391431396465651,0.3251729840052823
4927,22.40589699998964,0.11429688813717699,0.2523798622168143,-0.2911300901315987,0.025717377114727595,0.10810873912425151,-0.251185344928088,-0.015313929928904995,-0.2564750447418511,0.19219542853827284,-0.03330183254513447,0.09111969186717798,0.3208166559847038
4928,22.409870499992397,0.11483800440502774,0.2522889383684415,-0.29221804203325724,0.025647197554604498,0.10694011928093934,-0.25030558287139865,-0.015467008532196888,-0.2560426959139409,0.19364853627721515,-0.03364486244682826,0.09828073765852179,0.31645588621246445
4929,22.414048799997545,0.1153062753725448,0.2522072726574401,-0.29334551045256485,0.025576313973223328,0.10577354778246492,-0.2494192391881855,-0.015621641681880115,-0.25557779618552234,0.1950817509252964,-0.03398375631645894,0.10539595698306656,0.31209141164141263
4930,22.418171599987545,0.11579184408942077,0.25211035329725995,-0.29446545250716005,0.025504719341126077,0.10460917257108003,-0.2485264046151465,-0.01577780961698747,-0.25508055816801717,0.1964950571005325,-0.03431828793899386,0.11246386437295104,0.3077239665933087
4931,22.422416499990504,0.11634861378633628,0.2519890759945691,-0.29558017310128865,0.025432406723514697,0.10344714060278846,-0.24762716995242373,-0.01593549155185149,-0.2545512012212553,0.19788844276105327,-0.034648233183134404,0.11948298357909136,0.30335428260117003
4932,22.42693869999493,0.11692938010450032,0.2518437181593943,-0.2966875926368477,0.025359369284870956,0.10228759781670536,-0.24672162604840242,-0.016094665686144982,-0.2539899514105175,0.19926189919224704,-0.034973370082331305,0.12645184789942993,0.29898308825242764
4933,22.431317099995795,0.11742102009822628,0.2516947645940821,-0.2977292178228092,0.02528560029352752,0.10113068910461673,-0.2458098637845687,-0.016255309215284557,-0.25339704146209613,0.20061542099319227,-0.03529347891450789,0.13336900050434336,0.2946111090329286
4934,22.435254299998636,0.11788367742727074,0.25155290426622856,-0.29890648734057457,0.025211093126188782,0.09997655828074588,-0.24489197406043028,-0.016417398341190898,-0.25277271071738616,0.20194900606238023,-0.03560834228046501,0.14023299475913797,0.29023906717181935
4935,22.439437799999723,0.11840265385697739,0.2513929569938206,-0.30005242627837175,0.0251358412723999,0.09882534805173375,-0.24396804777850264,-0.016580908283399278,-0.2521172050855207,0.2032626555827316,-0.035917745180942186,0.14704239454356138,0.2858676814873434
4936,22.443431599996984,0.11891519236028866,0.25112620733449603,-0.3011963189012717,0.025059838338962376,0.09767719998683967,-0.24303817582936443,-0.016745813290513833,-0.2514307769945659,0.20455637400591092,-0.036221475092310565,0.15379577456826124,0.2814976672335861
4937,22.448272099994934,0.11940642123998255,0.2509153315570838,-0.30231111214513656,0.024983078054294703,0.09653225448836908,-0.24210244907678552,-0.016912086651999034,-0.2507136853412867,0.20583016903594323,-0.03651932204087407,0.16049172068812353,0.27712973594820084
4938,22.452190799987875,0.11986857604365465,0.2507071449000126,-0.30350801411959977,0.024905554272736656,0.09539065076233393,-0.24116095834293205,-0.017079700710301814,-0.2499661954394982,0.20708405161213814,-0.03681107867575637,0.1671288302124243,0.2727645953011466
4939,22.46038169998792,0.1209085576517216,0.2501702556834501,-0.30571188472870914,0.02482726097879604,0.09425252678935203,-0.24021379439365273,-0.01724862687329753,-0.24918857896701738,0.20831803589132608,-0.03709654034035198,0.17370571221173106,0.2684029489444718
4940,22.46501770000032,0.12140927698834825,0.24988658433184738,-0.3067553496021464,0.024748192291336398,0.09311801929579205,-0.23926104792384867,-0.017418835627052872,-0.24838111391123066,0.2095321392294122,-0.03737550514232057,0.1802209878214908,0.26404549636317687
4941,22.4686001999944,0.12188727339568375,0.24959126714288363,-0.3077901781823714,0.02466834246770434,0.0919872637251703,-0.2383028095429296,-0.017590296548898605,-0.24754408451329263,0.21072638216225323,-0.037647774022104445,0.18667329054224252,0.25969293272719074
4942,22.47248959999706,0.12231836152789968,0.2493101764545524,-0.3088729091259697,0.02458770590779527,0.09086039420980556,-0.237339169760361,-0.01776297832080518,-0.24667778121097203,0.21190078838586307,-0.03791315081995009,0.1930612665363938,0.2553459487444935
4943,22.476942199995392,0.12271916909277307,0.24906155099039212,-0.3098463665925465,0.024506277158056325,0.08973754354273773,-0.23637021897130495,-0.017936848743053933,-0.24578250058016227,0.2130553847359509,-0.038171442341415264,0.1993835749215033,0.25100523051541995
4944,22.48888479999732,0.1238522207192093,0.2482482173227225,-0.3127815220816942,0.02442405091542521,0.0886188431499163,-0.2353960474423558,-0.018111874748196723,-0.2448585452750726,0.21419020116679777,-0.03842245842134431,0.20563888806001293,0.24667145938817753
4945,22.493447999993805,0.12407521764711876,0.24796050373447417,-0.31380427675348677,0.024341022031203655,0.08750442306266427,-0.23441674529737375,-0.018288022415296718,-0.24390622396711606,0.2153052707294769,-0.03866601198629518,0.211825891845374,0.24234531181561303
4946,22.497586499986937,0.1243931932823246,0.24775793887225486,-0.31458081378256453,0.024257185514864082,0.08639441189042356,-0.23343240250341968,-0.018465256984442884,-0.2429258512825116,0.2164006295494229,-0.03890191911540269,0.2179432859845135,0.23802745921326235
4947,22.501801099992008,0.12464197801454414,0.24758242184448107,-0.31553626940218227,0.024172536537788322,0.08528893679378835,-0.232443108856794,-0.018643542871530656,-0.24191774773861602,0.2174763168033557,-0.03912999909966355,0.22398978427658717,0.23371856781871542
4948,22.505924999990384,0.12492068607875922,0.24743361141951514,-0.31648097369692,0.024087070436937114,0.084188123457832,-0.23144895396918302,-0.018822843683301275,-0.2408822396790033,0.21853237469556397,-0.0393500744996293,0.22996411488796883,0.22941929855232715
4949,22.512468699991587,0.12512443933419787,0.24724699926512225,-0.3174032117483334,0.02400078271844934,0.08309209606573287,-0.23045002725391478,-0.019003122232632296,-0.23981965920730666,0.21956884843355481,-0.03956197120149448,0.2358650206234254,0.22513030687930566
4950,22.516175199998543,0.12536909301180774,0.24714831884295607,-0.3183320209550969,0.023913669061169845,0.0820009772727045,-0.22944641791232898,-0.019184340554071685,-0.2387303441198422,0.2205857862030745,-0.03976551847156813,0.24169125919342838,0.2208522426732099
4951,22.52008709999791,0.1254788322318007,0.24697757374973925,-0.3192272479616392,0.023825725320104782,0.08091488818023605,-0.22843821492026337,-0.019366459919607865,-0.23761463783703063,0.22158323914250613,-0.039960549009117594,0.24744160347755598,0.21658575008088754
4952,22.52447619999293,0.12562903423873062,0.24684945596757635,-0.32013120420313723,0.02373694752980354,0.07983394831064841,-0.22742550701465888,-0.019549440854668074,-0.23647288933363617,0.22256126131665122,-0.04014689899757456,0.25311484178394184,0.21233146738888373
4953,22.529375799989797,0.1258003514649883,0.2467734282990775,-0.32108132174561993,0.023647331907666307,0.07875827558197157,-0.22640838268028612,-0.01973324315433736,-0.23530545306783937,0.22351990968990074,-0.0403244081540943,0.2587097781047263,0.20809002689135173
4954,22.533639999994197,0.12601288498624144,0.24670445045961648,-0.32206249724161246,0.023556874857176415,0.0776879862831483,-0.225386930136596,-0.019917825899790506,-0.23411268890916226,0.2244592440988022,-0.040492919777459634,0.2642252323674682,0.20386205475949684
4955,22.539233999996213,0.12640763427546772,0.24666878933278935,-0.3239273020634989,0.02346557297105651,0.07662319504956926,-0.22436123732469596,-0.020103147474929122,-0.23289496206526333,0.2253793272240289,-0.04065228079432211,0.2696600406824766,0.19964817091258416
4956,22.543461499997647,0.12659569231579917,0.24666424383021518,-0.32489083881205383,0.023373423034347772,0.07556401483894455,-0.2233313918944534,-0.02028916558321609,-0.23165264300762187,0.22628022456175978,-0.040802341803774025,0.2750130555860223,0.19544898889054005
4957,22.547569799993653,0.12678418176941714,0.24666498724925004,-0.32593712000202696,0.02328042202741149,0.07451055690751647,-0.22229748119172973,-0.020475837264699637,-0.2303861073961291,0.2271620043944774,-0.0409429571202457,0.2802831462793897,0.19126511572817606
4958,22.553362099992228,0.1270216813846176,0.24669200569215904,-0.3269475173149032,0.02318656712885216,0.07346293078661838,-0.22125959224574857,-0.02066311891321917,-0.22909573600260486,0.22802473776119264,-0.041073984814723054,0.28546919886373484,0.1870971518310646
