,time,x,y,z,vx,vy,vz,ax,ay,az,jx,jy,jz
1745,7.550029000005452,-0.07426842625263944,-0.04148706207703668,-0.0027734477110478925,0.0058534312590564005,-0.009825020013526102,0.0023657393868330144,0.09639498058389066,0.008924735242863087,0.003939718735259193,0.15153869056478858,0.12290164840950155,-0.04540574961178728
1746,7.554188900001463,-0.0742358543381407,-0.04150551357025034,-0.0027521246853670044,0.006270605357757465,-0.009785393343486748,0.0023823311395083663,0.09704717233297006,0.00945633528688547,0.0037412399886277616,0.15092341830673786,0.12361330167639938,-0.04662176537737146
1747,7.558224199994584,-0.07421077565735498,-0.041511712841646516,-0.0027335649237153715,0.006690586126104336,-0.009743467522502646,0.002398055513237681,0.09769665824547309,0.0099909833506838,0.003537511782242978,0.15028480737197536,0.12431506071266242,-0.04783893893203359
1748,7.5624059999972815,-0.07418251982994044,-0.04152132340033459,-0.0027155936425557713,0.007113361665233431,-0.00969922949625064,0.0024128898462748177,0.09834333745690835,0.01052863646275777,0.0033285295755475157,0.1496227064602583,0.1250067698612979,-0.049057065082496125
1749,7.56648110000242,-0.0741532813311659,-0.04152739574423062,-0.0027009960425161787,0.00753891964046822,-0.009652666396795311,0.002426811459120518,0.09898710846266377,0.011069250982142979,0.0031142897161610438,0.1489369686851148,0.12568827399840826,-0.0502759378394759
1750,7.570936599993729,-0.07412461208334511,-0.04152499985863647,-0.00269404940727564,0.007967247278615319,-0.009603765545467489,0.0024397976583682515,0.09962786913706134,0.011612782600730146,0.0028947894432478725,0.1482274516451351,0.1263594185608475,-0.05149535044866543
1751,7.575194000004558,-0.07406629863038837,-0.041563239162507086,-0.0026853888724197904,0.00839833136534286,-0.00955251445573304,0.002451825740564497,0.10026551675271335,0.012159186345702677,0.00267002689074919,0.14749401749443994,0.12702004957398516,-0.0527150954219031
1752,7.5788636000070255,-0.07406629863038837,-0.041563239162507086,-0.0026853888724197904,0.008832158242642394,-0.009498900836051458,0.002462872996082864,0.10089994800017703,0.01270841658209303,0.0024400010904790737,0.1467365330123025,0.1276700136795739,-0.05393496456852696
1753,7.583387599996058,-0.07414473842764208,-0.04161738919402791,-0.002625430146304274,0.00926871380637558,-0.009442912592723812,0.002472916713011441,0.10153105900790377,0.013260427015458398,0.0022047119750834847,0.14595486967189852,0.12830915816371632,-0.05515474902690735
1754,7.587305900000501,-0.07399108348995075,-0.04155457701619392,-0.0026626652753787413,0.009707983503906895,-0.009384537832729505,0.0024819341810527772,0.10215874536247946,0.013815170694676124,0.001964160380861467,0.14514890370816178,0.1289373309849271,-0.05637423929615313
1755,7.5913791000057245,-0.07394029966463264,-0.04154809116856112,-0.0026758190854017467,0.01014995233182359,-0.009323764866551376,0.0024899026954358985,0.10278290212915185,0.014372600014859288,0.0017183480504477891,0.144318516184721,0.12955438080228548,-0.05759322526798643
1756,7.594652700005099,-0.07394029966463264,-0.04154809116856112,-0.0026758190854017467,0.010594604833744161,-0.009260582210988627,0.0024967995608397575,0.10340342387264091,0.014932666720392899,0.0014672776353562788,0.14346359305989428,0.13016015700367442,-0.0588114962587808
1757,7.598073400004068,-0.07394029966463264,-0.04154809116856112,-0.0026758190854017467,0.01104192509821651,-0.009194978591957063,0.002502602095327504,0.1040202046782284,0.015495321908091124,0.0012109526983831397,0.14258402525171648,0.1307545097341011,-0.0600288410417574
1758,7.602037000004202,-0.07401644533326891,-0.04158618844128827,-0.002614304271772703,0.011491896756706964,-0.009126942947276055,0.002507287634290956,0.10463313817312253,0.016060516030476063,0.0009493777158695823,0.14167970870197572,0.13133728992409485,-0.06124504787933416
1759,7.606244900001911,-0.07387885247846118,-0.0415603191236554,-0.002640240986770127,0.011944502981681237,-0.009056464429441713,0.002510833534404657,0.10524211754809373,0.016628198899178492,0.00068255807982311,0.14075054443923501,0.13190834931817677,-0.06245990455562337
1760,7.610957199998666,-0.07382914770410381,-0.04156859926568509,-0.00265716524283649,0.012399726484778505,-0.00898353240838568,0.0025132171775889087,0.10584703557937669,0.01719831968846092,0.0004105000998968243,0.13979643864081398,0.13246754050339646,-0.06367319840907255
1761,7.616784400001052,-0.07377353852341922,-0.041583343313132466,-0.002652778844458933,0.012857549515079727,-0.008908136474219064,0.0025144159749811486,0.10644778465083463,0.017770826938863303,0.0001332110052261397,0.13881730269370723,0.1330147169379309,-0.06488471636524347
1762,7.620724099993822,-0.07373938198444537,-0.04158811479617571,-0.002647794176626369,0.013317953857471318,-0.00883026643996099,0.0025144073709150385,0.10704425677638169,0.018345668560971654,-0.0001493010538776866,0.13781305325441645,0.13354973297974146,-0.0660942449697244
1763,7.624918000001344,-0.07370871766767975,-0.04159639664593901,-0.0026445341491463537,0.0137809208311053,-0.008749912344251282,0.0025131688469066517,0.10763634362265892,0.018922791839309817,-0.0004370270043777766,0.13678361230767316,0.13407244391528353,-0.06730157042117059
1764,7.628187499998603,-0.07370871766767975,-0.04159639664593901,-0.0026445341491463537,0.014246431287956966,-0.008667064454046745,0.002510677925647113,0.1082239365319595,0.01950214343635469,-0.0007299568491061457,0.13572890722402936,0.13458270598826416,-0.0685064786044681
1765,7.632777999999234,-0.07364450424925768,-0.04160651861515623,-0.002641719190671436,0.014714465611481146,-0.008581713267300492,0.002506912175001056,0.10880692654539828,0.020083669396675052,-0.0010280796655030265,0.1346488708162928,0.13508037642844145,-0.06970875512401602
1766,7.6374644000025,-0.07361255141605719,-0.04160795067278853,-0.002647555177403565,0.015185003715368036,-0.008493849515623828,0.0025018492120102583,0.10938520442632121,0.020667315151194073,-0.0013313836045014962,0.1335434413947834,0.13556531348046033,-0.07090818533712234
1767,7.64177170000039,-0.07357764212758881,-0.041608925604565375,-0.002647838594330555,0.01565802504239965,-0.00840346416693014,0.0024954667069018114,0.10995866068394942,0.021253025521575708,-0.001639855889557874,0.13241256282138822,0.13603737643271838,-0.07210455438750833
1768,7.645833600006881,-0.07354167100172634,-0.041602128977850185,-0.002655642577918208,0.016133508563407898,-0.00831054842806023,0.002487742387100196,0.11052718559725318,0.02184074472473517,-0.0019534828158283292,0.13125618456239083,0.13649642564625658,-0.07329764723891664
1769,7.649994999999762,-0.0735101344736169,-0.041593816454432525,-0.002661124429880906,0.01661143277633523,-0.008215093747388552,0.002478654041242613,0.11109066923905003,0.02243041637747373,-0.0022722497494921177,0.1300742617400533,0.13694232258366937,-0.07448724870881834
1770,7.654309100005776,-0.07345244838222337,-0.041583960306032466,-0.00265222338010787,0.017091775705398778,-0.00811709181740975,0.0024681795231969216,0.11164900150032206,0.023021983501237932,-0.0025961411272218357,0.12886675518292842,0.13737492983802768,-0.07567314350221403
1771,7.658389599993825,-0.07339467870740929,-0.041550687854167226,-0.0026524301959346607,0.017574514900359085,-0.00801653457730502,0.002456296756081523,0.1122020721147471,0.023615388527003307,-0.002925140455801061,0.12763363147488016,0.13779411116180926,-0.07685511624552425
1772,7.6617034999944735,-0.07339467870740929,-0.041550687854167226,-0.0026524301959346607,0.01805962743589437,-0.007913414215487724,0.002442983736286538,0.11274977068343876,0.02421057330028266,-0.0032592303118897186,0.12637486300278966,0.13819973149583015,-0.07803295152056405
1773,7.665308900002856,-0.07339467870740929,-0.041550687854167226,-0.0026524301959346607,0.018547089911081217,-0.007807723172127654,0.0024282185374956316,0.11329198669988991,0.024807479086259004,-0.0035983923419374963,0.1250904280029255,0.13859165699817214,-0.07920643389859688
1774,7.668976000000839,-0.07346838453638972,-0.04157918723504419,-0.0026078224319452453,0.01903687844898255,-0.007699454141653335,0.002411979314707842,0.11382860957511377,0.025406046575043178,-0.0039426072622456,0.12378031060595665,0.13896975507309972,-0.08037534797446269
1775,7.673032299993792,-0.07329961397620774,-0.041504709534811966,-0.0026718173401342965,0.019528968696343716,-0.007588600075231771,0.0023942443082587564,0.11435952866297755,0.02600621588705605,-0.004291854859177124,0.12244450088058594,0.13933389439996022,-0.08153947840077518
1776,7.676598499994725,-0.07325948056125778,-0.04151281879327352,-0.002704146763585059,0.02002333582339749,-0.007475154183225125,0.0023749918478403876,0.11488463328572317,0.02660792657853532,-0.004646113989516295,0.12108299487578261,0.1396839449620599,-0.08269860992218378
1777,7.680191399995238,-0.07325948056125778,-0.04151281879327352,-0.002704146763585059,0.020519954523778687,-0.0073591099376237624,0.0023542003565191105,0.11540381275966907,0.027211117647166844,-0.005005362580976823,0.1196957946615927,0.1400197780755103,-0.08385252740969584
1778,7.683597600000212,-0.07325948056125778,-0.04151281879327352,-0.002704146763585059,0.021018799014549217,-0.00724046107445517,0.0023318483547509947,0.11591695642108664,0.02781572753784028,-0.005369577632859576,0.11828290836850694,0.14034126641803885,-0.08500101589505392
1779,7.687961300005554,-0.07333913634385861,-0.041546680778249225,-0.002675699330765371,0.021519843036334422,-0.00711920159616817,0.002307914464393895,0.11642395365224578,0.028421694148529138,-0.005738735216859743,0.11684435022536542,0.14064828405775734,-0.08614386060516303
1780,7.691861200000858,-0.07313628846593363,-0.041448524529747365,-0.0027337275728519152,0.022023059853571433,-0.006995325773991894,0.0022823774127156407,0.11692469390762378,0.029028954836295046,-0.0061128104780236794,0.1153801405957786,0.14094070648188176,-0.0872808469965629
1781,7.695870700001251,-0.07309670305405318,-0.041449761038544405,-0.002774201682753828,0.02252842225487015,-0.00686882815026894,0.0022552160363976614,0.11741906674027079,0.029637446423416036,-0.006491777635855559,0.1138903060130444,0.14121841062539667,-0.08841176078994022
1782,7.700160799999139,-0.07305890791580362,-0.04144255151156304,-0.00278247443164818,0.023035902553487492,-0.006739703540762144,0.0022264092855334033,0.11790696182832552,0.03024710520363859,-0.00687560998557391,0.11237487921354151,0.14148127489965834,-0.089536388004677
1783,7.704429799996433,-0.07303066654641223,-0.04142247465433966,-0.0028038872030219505,0.02354547258791568,-0.006607947036934408,0.00219593622762086,0.11838826900167451,0.030857866948553195,-0.0072642798995181095,0.11083389916857991,0.1417291792209303,-0.09065451499343065
1784,7.7084152000024915,-0.07298145349819234,-0.04141208254478582,-0.0028138012802714062,0.024057103722585096,-0.006473554008201081,0.0021637760515485697,0.11886287826874922,0.031469666914093385,-0.00765775882870491,0.10926741111468978,0.1419620050388457,-0.09176592847674063
1785,7.713395700004185,-0.07295765464636045,-0.04139920333300209,-0.002836435146626434,0.024570766848682354,-0.006336520104154308,0.0021299080715744137,0.11933067984345365,0.032082439847157904,-0.008056017304535083,0.1076754665823309,0.1421796353647896,-0.0928704155776572
1786,7.716846900002565,-0.07292829878363877,-0.04138764999459857,-0.00285214275965326,0.025086432385084102,-0.006196841256758785,0.0020943117312965573,0.11979156417221605,0.032696119992355784,-0.00845902494065023,0.10605812342300398,0.1423819548001951,-0.09396776385638761
1787,7.720903599998564,-0.07292829878363877,-0.04138764999459857,-0.00285214275965326,0.02560407027940717,-0.006054513682518399,0.0020569666076158508,0.12024542196115791,0.033310641098873967,-0.00886675043493975,0.10441544583474568,0.14256884956474591,-0.09505776134495479
1788,7.725015200005146,-0.07303736653670616,-0.041417469198581136,-0.002842361860315724,0.02612365000917549,-0.0059095338846132045,0.002017852414689035,0.12069214420337417,0.033925936427467024,-0.009279161571697957,0.10274750438598933,0.14274020752447847,-0.09614019658186354
1789,7.729157900001155,-0.072831694636065,-0.04134342506476774,-0.002939488620293377,0.026645140583104097,-0.005761898655006186,0.001976949007872098,0.12113162220631796,0.03454193875756864,-0.00969622522393135,0.10105437603777422,0.14289591821977676,-0.09721485864676946
1790,7.735549200006062,-0.072831694636065,-0.04134342506476774,-0.002939488620293377,0.027168510542500735,-0.005611605076519239,0.0019342363876531329,0.12156374761928257,0.03515858039452455,-0.010117907355815999,0.09933614416428682,0.14303587289325195,-0.0982815371951464
1791,7.74143880000338,-0.07273908925844498,-0.04133091780833406,-0.00301516850062204,0.02769372796278534,-0.005458650524877831,0.0018896947035740423,0.12198841246097276,0.03577579317694652,-0.010544173025305014,0.09759289857171716,0.14315996451749916,-0.09934002249294814
1792,7.747624800002086,-0.07267074834087532,-0.04132077209305329,-0.0030241323633605176,0.028220760455127877,-0.005303032670723782,0.0018433042581404288,0.12240550914715788,0.036393508484186966,-0.010974986386886033,0.09582473551541416,0.14326808782272418,-0.10039010545125981
1793,7.752039400002104,-0.07263698593640956,-0.0413086602014403,-0.003038438489294553,0.02874957516820499,-0.00514474948159563,0.0017950455107190089,0.12281493051839916,0.03701165724393356,-0.011410310694488562,0.09403175771532436,0.1433601393242329,-0.10143157766093416
1794,7.756355699995765,-0.07259786674415954,-0.04130402745138584,-0.0030617486787354493,0.029280138790075617,-0.0049837992238760415,0.0017448990814218903,0.12321656986784403,0.03763016993992355,-0.011850108304541052,0.092214074369698,0.1434360173497759,-0.10246423142720823
1795,7.760352600002079,-0.07256732319560656,-0.04129767762823521,-0.003073517049299225,0.029812417550175822,-0.004820180464705731,0.001692845754977057,0.1236103209690805,0.0382489766197772,-0.012294340679177548,0.09037180116704815,0.14349562206674166,-0.10348785980429584
1796,7.76438190000772,-0.07254315200375952,-0.04128201481662009,-0.0030853984622423985,0.03034637722143318,-0.004653892073863365,0.0016388664845843944,0.12399607810404381,0.038868006902949885,-0.012742968389593717,0.08850506029634844,0.14353885550918963,-0.10450225662995151
1797,7.7685358000017,-0.0725179947168501,-0.0412735095482516,-0.0030859401360665145,0.030881983122500848,-0.004484933225610913,0.001582942395756607,0.12437373609096757,0.03948718998880236,-0.01319595111955203,0.08661398045545551,0.14356562160471684,-0.10550721656000102
1798,7.77278290000686,-0.07249408780901055,-0.04125618545870927,-0.003096953665747194,0.03141920012011149,-0.004313303400503915,0.0015250547901443788,0.12474319031237095,0.04010645466478857,-0.013653247669035952,0.0846986968577427,0.14357582620115006,-0.10650253510283426
1799,7.776796899997862,-0.07247055852831383,-0.041242711714945694,-0.003106187072270228,0.03195799263155123,-0.004139002387166108,0.0014651851493451354,0.12510433674307408,0.04072572931476064,-0.01411481595805285,0.08275935123693164,0.14356937709305628,-0.10748800865385617
1800,7.780898800003342,-0.07244767424174776,-0.04123013185148667,-0.0031052352222861205,0.03249832462725358,-0.003962030284027882,0.0014033151386947508,0.12545707197823447,0.041344941927390536,-0.014580613030585414,0.0807960918501094,0.14354618404806388,-0.10846343452989117
1801,7.784390000000712,-0.07239491336068431,-0.041209357129107435,-0.0030707224259101957,0.033040159633513484,-0.0037823875010280505,0.0013394266110415593,0.1258012932613968,0.0419640201047076,-0.015050595058691368,0.07880907347891902,0.1435061588329866,-0.10942861100353671
1802,7.787853999994695,-0.07237177535416185,-0.04120167818907146,-0.003070547996750897,0.033583460735321584,-0.003600074761278417,0.001273501610502016,0.1261368985125487,0.04258289107075126,-0.0155247173467512,0.07679845742891178,0.1434492152397429,-0.11038333733746203
1803,7.79258629999822,-0.07235368552580565,-0.041203204744897484,-0.003066797208990219,0.0341281905793183,-0.003415093102690614,0.0012055223761973611,0.12646378635617467,0.043201481680337835,-0.016002934335863663,0.07476441152705009,0.143375269111063,-0.11132741381864766
1804,7.796874799998477,-0.07233680034783205,-0.04120189270525448,-0.0030631839173047484,0.034674311376867765,-0.0032274438795647227,0.0011354713459706374,0.12678185614930038,0.043819718427940586,-0.01648519960838869,0.07270711011735105,0.14328423836597612,-0.1122606417925619
1805,7.800755999996909,-0.07231797660121266,-0.04120968907824201,-0.003058103084005879,0.03522178490725176,-0.0030371287641391843,0.0010633311600834144,0.12709100800951964,0.044437527456681954,-0.016971465892637455,0.07062673405466091,0.14317604302507092,-0.11318282369726959
1806,7.80468450000626,-0.07229717870108962,-0.04121404203089468,-0.0030464252696105346,0.03577057252098348,-0.0028441497481014864,0.0009890846648915796,0.1273911428429965,0.04505483456743738,-0.017461685067709263,0.06852347069655072,0.14305060523552096,-0.1140937630974694
1807,7.808338200004073,-0.07228223676855597,-0.04121899979352377,-0.003036894751411958,0.036320635143241145,-0.0026485091440591312,0.0009127149164995561,0.12768216237243468,0.045671565228049736,-0.017955808168474887,0.06639751389332423,0.14290784929586792,-0.11499326471845524
1808,7.812663599994266,-0.07226633340530074,-0.04122785501330237,-0.0030262656175751093,0.03687193327742106,-0.002450209586970402,0.0008342051843923072,0.1279639691650069,0.046287644582653366,-0.018453785390705944,0.06424906397612966,0.14274770168055456,-0.11588113447999744
1809,7.816674999994575,-0.072263079742767,-0.04122454244772048,-0.003026080671188808,0.03742442700881016,-0.002249254035534437,0.0007535389550444954,0.1282364666602356,0.046902997461106474,-0.018955566096349876,0.062078327743167586,0.14257009106419935,-0.11675717953013882
1810,7.820787999997265,-0.07224571324619676,-0.04123645248059428,-0.0030043430158801857,0.03797807600837807,-0.0020456457735401326,0.000670699935506164,0.12849955919781741,0.047517548388530784,-0.019461098818950008,0.05988551844398775,0.14237494834560582,-0.11762120827890196
1811,7.8244636000017636,-0.07224571324619676,-0.04123645248059428,-0.0030043430158801857,0.038532839536688554,-0.001839388411173402,0.0005856720569643121,0.12875315204538323,0.048131221594957155,-0.01997033126921014,0.057670855761868534,0.1421622066714995,-0.11847303043190381
1812,7.828824099997291,-0.0723357224422469,-0.041277502324692995,-0.0029528569711851143,0.03908867644793,-0.00163048588628232,0.000498439478279737,0.1289971514261851,0.0487439410250761,-0.020483210340703193,0.05543456579427294,0.14193180145998543,-0.11931245702387294
1813,7.83320609999646,-0.07223487473949286,-0.04121085803525443,-0.0029779116604121162,0.03964554519406453,-0.0014189424655996787,0.00040898658949851843,0.12923146454670198,0.04935563034809176,-0.020999682115723402,0.05317688103137561,0.1416836704237186,-0.12013930045206492
1814,7.837224899994908,-0.07220820765642648,-0.04121854347820072,-0.0029712902697373303,0.04020340382909525,-0.0012047627459224868,0.00031729801533752165,0.12945599962415597,0.04996621296767786,-0.021519691871281547,0.05089804033265587,0.1414177535927804,-0.12095337450957139
1815,7.841803799994523,-0.07219591413141045,-0.04120903956971846,-0.0029587142970510984,0.0407622100134513,-0.000987951655247969,0.00022335861864329905,0.12967066591393087,0.05057561203203441,-0.02204318408524279,0.048598288901552315,0.14113399333725296,-0.12175449441851957
1816,7.847690199996578,-0.07218198874703961,-0.041197176010160756,-0.0029433521562620335,0.04132192101849037,-0.0007685144538656074,0.0001271535038237714,0.1298753737368853,0.05118375044404368,-0.022570102442606547,0.04627787825817547,0.1408323343894845,-0.12254247686315801
1817,7.852261000007275,-0.07216666264435859,-0.041184292976815064,-0.002931890710647438,0.04188249373111812,-0.0005464567354047739,2.8668020252075167e-05,0.13007003450655139,0.051790550871523885,-0.023100389841927773,0.04393706621007517,0.14051272386603844,-0.12331714002282397
1818,7.856113400004688,-0.07215409106531379,-0.041171104953823714,-0.0029218068342437868,0.04244388465852405,-0.00032178442783751615,-7.211223435803544e-05,0.13025456075621006,0.05239593575757935,-0.023633988401879046,0.041576116821060535,0.1401751112893192,-0.12407830360478833
1819,7.860236599997734,-0.07213701738151819,-0.04115588374030471,-0.002905177708489504,0.04300604993303353,-9.450379443606996e-05,-0.0001752014106058408,0.1304288661658353,0.05299982733104573,-0.02417083946795294,0.03919530037807046,0.13981944860886736,-0.12482578887697288
1820,7.864190599997528,-0.07212792653954443,-0.041133195536970965,-0.0028860692848153967,0.0435689453170754,0.0001353785653153212,-0.0002806134040869684,0.13059286558889938,0.05360214761702877,-0.02471088361930411,0.036794893356093504,0.13944569022231665,-0.12555941870053566
1821,7.86779089999618,-0.07210936328566986,-0.041112272286722686,-0.0028707951646014893,0.044132526208264536,0.00036785571485469486,-0.00038836185210696744,0.13074647507903,0.054202818447534995,-0.025254060675730397,0.03437517838113685,0.1390537929960065,-0.1262790175623205
1822,7.872616199994809,-0.07210535078783947,-0.04109329519435708,-0.0028515221964337447,0.044696747644598765,0.0006029203797231728,-0.0004984601304257444,0.13088961191651155,0.05480176147219305,-0.025800309704792287,0.03193644419124447,0.1386437162852434,-0.1269844116071667
1823,7.876943299997947,-0.07209587507539923,-0.041075413166888196,-0.002844426620772486,0.0452615643097695,0.000840564946792681,-0.0006109213500334549,0.13102219463462153,0.055398898169064154,-0.026349569029070142,0.02947898559556567,0.1382154219542037,-0.12767542867007553
1824,7.880826399996295,-0.07208445564696786,-0.04105707532451749,-0.0028398375230447477,0.045826930538585435,0.0010807814635409793,-0.000725758353958446,0.1311441430457938,0.05599414985554014,-0.02690177623355838,0.027003103431475713,0.13776887439547109,-0.12835189830822955
1825,7.884825700006331,-0.07206810218847211,-0.041047038630597346,-0.0028318109826019084,0.04639280032250837,0.0013235616373743872,-0.0008429837141078348,0.13125537826759956,0.056587437699327725,-0.02745686817319593,0.024509104519750843,0.13730404054920192,-0.129013651832861
1826,7.888574099997641,-0.07205949623040948,-0.041036401525206746,-0.002833805276222309,0.046959127315300574,0.0015688968349985809,-0.000962609728141308,0.13135582274853724,0.057178682729516636,-0.028014780980532155,0.021997301617800488,0.13682088992191185,-0.12966052234096495
1827,7.891977999999653,-0.07205949623040948,-0.041036401525206746,-0.002833805276222309,0.047525864838783106,0.0018167780818378401,-0.0010846484163787268,0.13144540029362242,0.057767805847729815,-0.028575450073527707,0.019468013370960456,0.1363193946048775,-0.13029234474685247
1828,7.895418200001586,-0.07205949623040948,-0.041036401525206746,-0.002833805276222309,0.0480929658887041,0.0020671960615031093,-0.001209111518742116,0.1315240360897686,0.05835472783935383,-0.029138810163489577,0.016921564261851287,0.135799529292147,-0.1309089558135409
1829,7.898890800002846,-0.07205949623040948,-0.041036401525206746,-0.002833805276222309,0.04866038314071598,0.0023201411153092296,-0.0013360104917326096,0.1315916567309506,0.058939369384847756,-0.02970479526313962,0.01435828455780668,0.13526127129815224,-0.13151019418397678
1830,7.903674100001808,-0.07200384495239587,-0.04102395498047497,-0.0027841409073073135,0.04922806895646118,0.002575603241841686,-0.0014653565054429222,0.13164819024314206,0.059521651071128855,-0.030273338694815587,0.011778510256377692,0.13470460057491554,-0.13209590041208805
1831,7.908455299999332,-0.0719880522376077,-0.04104763599349642,-0.0027963355809973306,0.049795975389765386,0.0028335720965732116,-0.001597160440605919,0.131693566109018,0.06010149340303302,-0.030844373098803973,0.009182583028919134,0.13412949972884405,-0.132665916993661
1832,7.913140899996506,-0.07197257010763163,-0.041062820890223686,-0.0028025801225081016,0.05036405419293724,0.0030940369915305856,-0.0017314328856798452,0.1317277152924137,0.06067881681484791,-0.03141783044180398,0.006570850162265301,0.13353595403710508,-0.13322008839703878
1833,7.917003399998066,-0.07196630660836348,-0.04107621751639715,-0.0028048865886352503,0.050932256823173476,0.0033569868950119614,-0.001868184133970777,0.13175057026253134,0.06125354168191685,-0.03199364202552159,0.003943664498502924,0.132923951463576,-0.1337582610936373
1834,7.920959900002344,-0.0719548894244543,-0.04109213171666317,-0.0027991774256007967,0.0515005344490684,0.0036224104313550415,-0.002007424180792846,0.13176206501788676,0.06182558833231198,-0.032571738495392945,0.001301384372849924,0.13229348267436286,-0.1342802835882746
1835,7.924998799993773,-0.07193377136686781,-0.041104479804916036,-0.0028006126196084497,0.052068837957226714,0.0038902958807563994,-0.002149162720666793,0.13176213510998774,0.06239487705857415,-0.03315204984943649,-0.0013556264503507642,0.13164454105288198,-0.13478600644930774
1836,7.929160200001206,-0.07192842842175015,-0.041121875394501475,-0.002795611736354276,0.052637117958978595,0.004160631179142246,-0.0022934091445574105,0.13175071766673577,0.0629613281295176,-0.03373450544723292,-0.004026998843512335,0.1309771227144973,-0.13527528233857292
1837,7.935647100006463,-0.071921350486908,-0.04113882611865018,-0.0027806818030911345,0.05320532479719597,0.004433403918090883,-0.002440172537150404,0.13172775141554274,0.06352486180209704,-0.03431903401903231,-0.006712358383549525,0.13029122652070763,-0.13574796604112355
1838,7.939770600001793,-0.07190950467667664,-0.04115667254436327,-0.0027708364892072733,0.053773408553208696,0.004708601344807134,-0.0025894616741692165,0.13169317670615488,0.06408539833333544,-0.034905563674987525,-0.009411325421476838,0.12958685409287757,-0.13620391449476318
1839,7.945246400005999,-0.07189256930583571,-0.041182099722852784,-0.002756242953229901,0.0543413190538195,0.004986210362148988,-0.0027412850197323347,0.1316469355331745,0.06464285799231022,-0.03549402191451322,-0.012123515153847447,0.1288640098255069,-0.13664298681936848
1840,7.94995409999683,-0.0718857127045183,-0.04119729343886167,-0.002747016572777733,0.054909005878416385,0.0052662175287067296,-0.0028956507237515973,0.13158897155827126,0.06519716107219581,-0.03608433563576949,-0.014848537696019916,0.12812270089903305,-0.13706504434599803
1841,7.955829099999391,-0.0718857127045183,-0.04119729343886167,-0.002747016572777733,0.05547641836618124,0.005548609058934799,-0.003052566619372026,0.13151923013207506,0.06574822790236086,-0.03667643114526915,-0.01758599815723911,0.1273629372921608,-0.13746995064578368
1842,7.959506700004567,-0.07201583147978921,-0.04125276473023151,-0.0026876566613946674,0.056043505623392886,0.005833370823336614,-0.0032120402204536963,0.13143765831574253,0.06629597886051779,-0.03727023416760774,-0.02033549671751701,0.12658473179371335,-0.137857571558599
1843,7.963106900002458,-0.07188791477608655,-0.04122118560733678,-0.002684506753931274,0.05661021653082341,0.0061204883487025645,-0.0033740787190961667,0.13134420490218945,0.06684033438492243,-0.037865669855315066,-0.02309662870629838,0.12578810001400056,-0.13822777522150048
1844,7.967497300007379,-0.07188860620174141,-0.04124511921577792,-0.002675007222436134,0.05717649975122648,0.006409946818401395,-0.0035386889832059653,0.13123882043698207,0.06738121498662189,-0.03846266279882746,-0.025868984682895564,0.12497306039569979,-0.13858043209693782
1845,7.971696099994006,-0.07190117798393442,-0.04124724982264535,-0.0026516639916291792,0.0577423037369163,0.006701731072725186,-0.0037058775541076268,0.13112145723887933,0.06791854126174834,-0.03906113703657945,-0.02865215051867601,0.12413963422424401,-0.1389154150007293
1846,7.975063999998383,-0.07190423049202542,-0.04125128113273074,-0.00263192034520325,0.05830757673743546,0.006995825609288111,-0.0038756506441987642,0.1309920694200189,0.06845223390385638,-0.0396610160652142,-0.03144570748098519,0.12328784563771188,-0.13923259912979657
1847,7.979182199997012,-0.07190493120048672,-0.04125652245841869,-0.00261986022175567,0.05887226680731004,0.007292214583479158,-0.004048014134649675,0.13085061290573954,0.06898221371630148,-0.04026222284991166,-0.03424923231878706,0.12241772163621487,-0.139531862089654
1848,7.983202699993853,-0.07190416831353233,-0.041262354401105955,-0.0026089721675757105,0.05943632181389038,0.007590881808968974,-0.0042229735731479775,0.1306970454540324,0.0695084016246574,-0.04086467983483339,-0.03706229735000325,0.12152929209077706,-0.13981308392164793
1849,7.987324700006866,-0.0719039208216491,-0.0412694616032759,-0.002610486074721508,0.0599996894452763,0.00789181075827095,-0.004400534171688761,0.13053132667461353,0.07003071868917028,-0.04146830895368287,-0.03988447055053158,0.12062258975170384,-0.14007614712994138
1850,7.99163899999985,-0.0718986098598775,-0.041277339283124166,-0.0025961986164359284,0.06056231721832506,0.008194984563356702,-0.004580700804410711,0.1303534180476101,0.07054908611724685,-0.042073031640380266,-0.04271531564492369,0.11969765025643453,-0.14032093670823934
1851,7.997406399997999,-0.0718986098598775,-0.041277339283124166,-0.0025961986164359284,0.061124152486740406,0.008500386016326085,-0.004763478005478678,0.13016328294185336,0.07106342527597473,-0.04267876883985056,-0.04555439219870136,0.11875451213687502,-0.1405473401662499
1852,8.001742799999192,-0.07203529041469477,-0.04131485337767803,-0.0025437887488788946,0.06168514244924083,0.008807997570131846,-0.004948869967013146,0.129960886632771,0.0715736577046724,-0.043285441018923884,-0.04840125571229006,0.11779321682620553,-0.1407552475558776
1853,8.005890700005693,-0.07188517769448609,-0.041296791536614544,-0.00256401115303699,0.06224523415780546,0.009117801339358992,-0.005136880537067072,0.12974619631987253,0.07207970512746681,-0.04389296817734675,-0.05125545771654752,0.11681380866515946,-0.14094455149714394
1854,8.010152400005609,-0.07186699320724467,-0.04130486470986884,-0.002577287773407679,0.062804374525996,0.009429779101058983,-0.005327513217650575,0.12951918114382033,0.0725814894658963,-0.04450126985890302,-0.054116545869864516,0.11581633490776976,-0.14111514720383045
1855,8.014314800006105,-0.07186198949988437,-0.04131342428302221,-0.002585801827163065,0.06336251033735306,0.009743912295638793,-0.00552077116280391,0.12927981220307846,0.07307893285153674,-0.04511026516264332,-0.05698406405681412,0.11480084572657961,-0.14126693250883934
1856,8.018386399999144,-0.07185368451747087,-0.04132252852348157,-0.0025904663354477326,0.06391958825386494,0.010060182027804891,-0.005716657176719203,0.12902806257013227,0.07357195763864857,-0.04571987275422199,-0.05985755248832512,0.11376739421731365,-0.1413998078892667
1857,8.021962700004224,-0.0718393406661146,-0.041331475634086956,-0.0025938352295753545,0.0644755548245075,0.01037856906756221,-0.005915173711911403,0.128763907307272,0.07406048641684267,-0.04633001087734037,-0.0627365478033547,0.11271603640300627,-0.14151367649118388
1858,8.025171700006467,-0.0718393406661146,-0.041331475634086956,-0.0025938352295753545,0.06503035649385279,0.010699053851268183,-0.0061163228674388824,0.12848732348193473,0.0745444420237625,-0.04694059736529518,-0.06562058317203479,0.11164683123758393,-0.141608444154122
1859,8.029214099995443,-0.07196962740256813,-0.041374862996625204,-0.0025617077409172025,0.06558393961074509,0.011021616482741848,-0.00632010638717411,0.12819829018159878,0.07502374755778063,-0.04755154965263088,-0.06850918840026582,0.11055984060889709,-0.14168401943525552
1860,8.032644899998559,-0.07196962740256813,-0.041374862996625204,-0.0025617077409172025,0.06613625043704247,0.01134623673442809,-0.006526525658124832,0.12789678852822448,0.0754983263907073,-0.048162784786894904,-0.07140189003573084,0.10945512934119853,-0.1417403136332793
1861,8.036133600005996,-0.07196962740256813,-0.041374862996625204,-0.0025617077409172025,0.06668723515642139,0.01167289404861704,-0.0067355817088061605,0.12758280169223485,0.07596810218050876,-0.04877421944049449,-0.07429821147530188,0.10833276519706454,-0.1417772408119738
1862,8.041416000007303,-0.07172946074557744,-0.04138325109593135,-0.0026036969819182073,0.06723683988324243,0.012001567538718604,-0.006947275207663999,0.12725631490603065,0.0764329988840326,-0.04938576992265376,-0.07719767307381037,0.10719281887875677,-0.1417947178234539
1863,8.04479430000356,-0.07172946074557744,-0.04138325109593135,-0.0026036969819182073,0.06778501067147509,0.01233223599059207,-0.007161606461550183,0.126917315477033,0.0768929407697379,-0.04999735219146985,-0.08009979225415241,0.10603536402902142,-0.14179266433109675
1864,8.048303200004739,-0.07172946074557744,-0.04138325109593135,-0.0026036969819182073,0.06833169352367938,0.012664877863930793,-0.007378575414249755,0.12656579280024824,0.07734785243042765,-0.0506088818660669,-0.08300408361869907,0.1048604772313234,-0.14177100283214286
1865,8.053946600004565,-0.07164169575019164,-0.041446219812636305,-0.002632582665892629,0.06887683440004193,0.012999471293701943,-0.007598181645060786,0.1262017383703486,0.07779765879598084,-0.05122027423884665,-0.08591005906198099,0.10366823800951289,-0.141729658679965
1866,8.058055899993633,-0.07160886653552237,-0.04146415095878323,-0.00264280517830936,0.06942037922746463,0.013335994091641297,-0.007820424367427086,0.12582514579326368,0.07824228514608148,-0.05183144428783419,-0.08881722788461648,0.10245872882692203,-0.14166856010599993
1867,8.06235999999626,-0.07155269916911192,-0.0415004587995084,-0.0026393677486127717,0.06996227390870353,0.013674423747802976,-0.008045302427624178,0.12543601079727673,0.0786816571229417,-0.052442306689117694,-0.09172509690845121,0.10123203508488984,-0.14158763824133758
1868,8.06556640000781,-0.07155269916911192,-0.0415004587995084,-0.0026393677486127717,0.07050246433155569,0.014014737432164076,-0.008272814303498887,0.12503433124361993,0.07911570074401662,-0.05305277582938063,-0.09463317059287754,0.09998824512071336,-0.14148682713796168
1869,8.070260399996187,-0.07170812141252098,-0.04153841934072168,-0.002624250712606774,0.07104089637809234,0.014356911996284048,-0.008502958103262934,0.12462010713656418,0.07954434241470848,-0.05366276581852511,-0.0975409511523005,0.09872745020502297,-0.14136606378963523
1870,8.074968400003854,-0.0714773301668407,-0.041526594159704534,-0.002632978214569549,0.07157751593393585,0.014700923975018728,-0.00873573156434083,0.1241933406329985,0.07996750894105749,-0.054272190502384736,-0.10044793867471696,0.09744974453858073,-0.14122528815242594
1871,8.079244199994719,-0.07143265025016803,-0.0415412053480547,-0.0026489291166427367,0.07211226889757796,0.015046749588289018,-0.008971132052272408,0.12375403605149449,0.08038512754241708,-0.054880963475525145,-0.10335363124137414,0.09615522524850101,-0.14106444316486597
1872,8.083455400003004,-0.07137851176003657,-0.04154794116126431,-0.00264413845846376,0.07264510118973726,0.015394364742904017,-0.009209156559670416,0.12330219988085109,0.08079712586411096,-0.05548899809413042,-0.1062575250474735,0.09484399238389214,-0.14088347476774052
1873,8.087699199997587,-0.07134567933838054,-0.04155568548952237,-0.0026516401007924293,0.0731759587627532,0.015743745034438532,-0.009449801705233452,0.12283784078811548,0.08120343199006902,-0.056096207488973385,-0.10915911452388492,0.09351614891091826,-0.14068233192349944
1874,8.09189250000054,-0.07130390480998752,-0.041561428230993146,-0.002660161079085243,0.0737047876100143,0.016094865749164796,-0.009693063732814592,0.12236096962607547,0.08160397445543979,-0.056702504578468135,-0.1120578924598359,0.09217180070728066,-0.14046096663528607
1875,8.095560999994632,-0.07130390480998752,-0.041561428230993146,-0.002660161079085243,0.07423153377541764,0.016447701866038278,-0.009938938510546006,0.12187159944022039,0.08199868225917688,-0.05730780208180305,-0.11495335012653946,0.09081105655611761,-0.14021933396557795
1876,8.099824899996747,-0.0714334632742438,-0.041589717440622835,-0.002654936199146865,0.07475614336285766,0.01680222805873747,-0.010187421530019964,0.12136974547516659,0.08238748487659676,-0.05791201253215239,-0.11784497740172473,0.08943402813932205,-0.13995739205443314
1877,8.104304799999227,-0.07118405664895848,-0.041578850373217985,-0.0026833523634333606,0.07527856254574244,0.017158418697757485,-0.01043850790552649,0.1208554251805436,0.08277031227190532,-0.05851504828996471,-0.12073226289503287,0.08804083003027667,-0.13967510213733614
1878,8.108764300006442,-0.07112069015266698,-0.04160191839491138,-0.0027056868665770346,0.07579873757653485,0.017516247852557322,-0.010692192373348047,0.1203286582163364,0.08314709491069028,-0.059116821556326436,-0.12361469407424122,0.08663157968600618,-0.13937242856263854
1879,8.112491499996395,-0.07107732370747652,-0.041612769395259125,-0.002723432285465173,0.07631661479631591,0.017875689293760613,-0.010948469291111587,0.11978946645768056,0.08351776377237771,-0.059717244386399033,-0.12649175739227758,0.08520639743874671,-0.13904933880858883
1880,8.115890100001707,-0.07107732370747652,-0.041612769395259125,-0.002723432285465173,0.07683214064436776,0.018236716495409668,-0.011207332637198267,0.11923787399910711,0.08388225036264962,-0.060316228702928076,-0.12936293841498714,0.0837654064869323,-0.13870580349994568
1881,8.120777000003727,-0.07118873876176718,-0.04166319713196862,-0.00274510775810538,0.07734526166777363,0.018599302637272476,-0.011468776010211049,0.11867390715823395,0.0842404867258201,-0.06091368630982212,-0.1322277219496133,0.08230873288559915,-0.1383417964241698
1882,8.125011500000255,-0.0709382977274232,-0.04166970208359035,-0.002778883912023588,0.07785592453103239,0.018963420607202453,-0.011732792628500471,0.1180975944789009,0.08459240545716712,-0.06150952890579956,-0.1350855921739531,0.08083650553620805,-0.13795729454718866
1883,8.129121499994653,-0.07087877146868848,-0.04167940311159876,-0.0028075447258319453,0.07836407602568549,0.019329043003550612,-0.01199937532974886,0.11750896673374608,0.08493793971521767,-0.062103668098101285,-0.13793603276614752,0.07934885617588626,-0.13755227802872919
1884,8.133416700002272,-0.07080293270264663,-0.04168102541282669,-0.0028049020532718554,0.07886966307995354,0.01969614213762998,-0.012268516570613213,0.11690805692622067,0.08527702323398319,-0.06269601541626721,-0.14077852703506635,0.07784591936608957,-0.1371267302372127
1885,8.137488399996073,-0.07073748664803672,-0.04168625893755454,-0.0028264868635143915,0.0793726327683804,0.020064690036232073,-0.012540208426426955,0.11629490029203969,0.08560959033514293,-0.06328648232597486,-0.1436125580512466,0.07632783248068598,-0.13668063776420641
1886,8.141539100004593,-0.07066630687902144,-0.04169156175400802,-0.0028620483304631506,0.07987293232148232,0.02043465844419529,-0.012814442590960878,0.11566953430006592,0.08593557594017223,-0.06387498024293846,-0.14643760877834347,0.07479473569346151,-0.1362139904384258
1887,8.145636700006435,-0.07057074908815034,-0.041691041687846125,-0.0029062496717821235,0.0803705091353998,0.020806018827024993,-0.013091210376243532,0.11503199865262469,0.08625491558241345,-0.06446142054686642,-0.1492531622050521,0.0732467719650499,-0.1357267813392828
1888,8.149789300005068,-0.07050067995539509,-0.041703768969187024,-0.0029311787004988434,0.08086531078154968,0.021178742373565092,-0.013370502712441267,0.1143823352852477,0.08656754541908727,-0.06504571459547581,-0.15205870147745829,0.07168408702928727,-0.1352190068099734
1889,8.155529600000591,-0.07043116435662548,-0.04171409748142859,-0.0029616651624953284,0.08135728501627536,0.021552799998721065,-0.01365231014779822,0.11372058836584374,0.08687340224324161,-0.0656277737385616,-0.15485371003177528,0.07010682937899372,-0.13469066647009914
1890,8.160362900001928,-0.07032876490600044,-0.04173383224563824,-0.002987726926352412,0.08184637979049295,0.021928162346234053,-0.013936622848636532,0.11304680429329432,0.08717242349563588,-0.0662075093321184,-0.15763767172742493,0.06851515025118332,-0.13414176322781618
1891,8.164435400001821,-0.07024612735109242,-0.04174827915011922,-0.0030221782775972364,0.0823325432593311,0.022304799791505726,-0.014223430599416971,0.1123610316954726,0.08746454727655795,-0.06678483275251254,-0.1604100709804197,0.06690920361170413,-0.13357230329150566
1892,8.168815800003358,-0.07016215229549788,-0.04177900018772026,-0.003073823869362763,0.08281572379176139,0.022682682444473662,-0.01451272280286023,0.11166332142668403,0.08774971235757105,-0.06735965541070199,-0.16317039289700108,0.0652891461393104,-0.13298229618095964
1893,8.175446399996872,-0.07018830389032903,-0.0418197304237363,-0.0030898791732737055,0.08329586998021649,0.023061780152536966,-0.014804488480129097,0.11095372656452758,0.08802785819318845,-0.06793188876650182,-0.1659181234074917,0.06365513720916871,-0.13237175473807578
1894,8.179519800003618,-0.06986423840940784,-0.041785544485571396,-0.003203502945383313,0.08377293065019385,0.02344206250353175,-0.015098716271071738,0.1102323024061761,0.08829892493247361,-0.06850144434289283,-0.16865274940031755,0.06200733887580008,-0.1317406951370544
1895,8.183520299993688,-0.0697605792775782,-0.04180657080567323,-0.0032982183713723256,0.08424685486984278,0.023823498828756177,-0.015395394434526179,0.10949910646407472,0.08856285343056354,-0.06906823374037137,-0.1713737588561561,0.06034591585546092,-0.13108913689409202
1896,8.18760900000052,-0.06965285937204418,-0.041836451174189306,-0.0033643627249632466,0.0847175919595329,0.02420605820604473,-0.015694510848686238,0.10875419846105691,0.08881958526011313,-0.06963216865133824,-0.17408064098216605,0.05867103550796512,-0.13041710287656555
1897,8.191636600007769,-0.0695438023952796,-0.04187965339479517,-0.0034313099415842693,0.08518509150140166,0.024589709462891494,-0.015996053011529163,0.10799764032487759,0.08906906272265817,-0.07019316087452461,-0.17677288634625507,0.05698286781795005,-0.1297246193117007
1898,8.19509900000412,-0.0695438023952796,-0.04187965339479517,-0.0034313099415842693,0.08564930334887802,0.024974421179621974,-0.016300008041305176,0.10722949618216299,0.08931122885989494,-0.0707511223294524,-0.17944998701134168,0.055281585375589526,-0.12901171579471943
1899,8.19975980000163,-0.0695223363469757,-0.041918796108536945,-0.0034592906183412084,0.08611017763617959,0.02536016169261302,-0.016606362677089127,0.10644983235177682,0.08954602746487364,-0.07130596507092704,-0.18211143666956756,0.05356736335675714,-0.12827842529645922
1900,8.203366700006882,-0.0695223363469757,-0.041918796108536945,-0.0034592906183412084,0.08656766478778036,0.025746899097560588,-0.0169151032793943,0.1056587173376029,0.08977340309310342,-0.07185760130356034,-0.1847567307764154,0.051840379502643044,-0.12752478417045968
1901,8.2086782999977,-0.06928505295962091,-0.04192251917969274,-0.0035681862505673994,0.0870217155278469,0.02613460125279492,-0.017226215830848553,0.10485622182074397,0.08999330107356664,-0.07240594339632099,-0.18738536668468853,0.05010081409882731,-0.12675083215951058
1902,8.214162999996915,-0.068807835868025,-0.041879683181399806,-0.003730259579538825,0.0874722808896409,0.0265232357826428,-0.017539685936932878,0.10404241865113734,0.09020566751964006,-0.07295090389711076,-0.18999684377830697,0.048348849953813056,-0.1259566124016558
1903,8.222298599997885,-0.06844565584436635,-0.04189500974881204,-0.0039328445740480136,0.08791931222488561,0.0269127700808364,-0.017855498826782452,0.1032173828385877,0.09041044933992028,-0.07349239554736355,-0.19259066360587523,0.04658467237702314,-0.12514217143564765
1904,8.229552899996634,-0.06804099542495844,-0.04189341803177602,-0.004183921789409784,0.08836276121309375,0.027303171313968227,-0.018173639354050322,0.10238119154321856,0.09060759424895155,-0.0740303312966651,-0.19516633001397563,0.044808469156263846,-0.12430755920584656
1905,8.235803600007785,-0.06778710247954109,-0.04189489676098736,-0.004291925638688062,0.08880257987085409,0.027694406424991682,-0.018494091997833802,0.10153392406534346,0.09079705077785338,-0.07456462431739103,-0.1977233492801428,0.043020430534659475,-0.12345282906655937
1906,8.239673100004438,-0.06757293697449493,-0.04187377310545077,-0.004421602656879485,0.08923872056107411,0.02808644213676669,-0.0188168408636637,0.10067566183475843,0.09097876828484569,-0.07509518801936077,-0.2002612302454741,0.04122074918706177,-0.12257803778581039
1907,8.2447669999965,-0.06732627992822317,-0.04185731796275302,-0.00452994493403969,0.08967113600217584,0.02847924495564998,-0.019141869684556362,0.09980648839945754,0.09115269696566952,-0.07562193606450529,-0.2027794844468314,0.03940962019593833,-0.12168324554853929
1908,8.25010370000382,-0.06682810733502034,-0.04178964399932429,-0.004739807029381508,0.09009977927724272,0.02887278117512947,-0.019469161822128583,0.09892648941377341,0.09131878786390141,-0.07614478238154615,-0.2052776262485887,0.03758724102674441,-0.12076851595922045
1909,8.254505300006713,-0.06651680226136493,-0.041743455047947894,-0.004828871392040295,0.09052460384311518,0.029267016879502443,-0.019798700267775606,0.09803575262594473,0.09147699288115951,-0.0766636411806833,-0.20775517297388088,0.03575381150278246,-0.11983391604389823
1910,8.25870930000383,-0.06618362637978471,-0.0416639928895292,-0.004918164454408852,0.09094556353943246,0.029661917947597115,-0.020130467643912263,0.09713436786511294,0.09162726478719901,-0.07717842696828914,-0.2102116450353084,0.033909533779553525,-0.11887951625163301
1911,8.263272099997266,-0.06587358119647034,-0.04163631773078905,-0.005096307889126029,0.09136261259761799,0.030057450056537146,-0.02046444620527734,0.0962224270277507,0.09176955722989501,-0.07768905456160609,-0.2126465660650538,0.032054612318605645,-0.11790539045535178
1912,8.266585100005614,-0.06553753910358878,-0.04158301814771654,-0.005295195012686372,0.09177570564980574,0.030453578685548738,-0.020800617840301176,0.0953000240635253,0.09190382474511101,-0.07819543910344541,-0.21505946304436538,0.03018925386088364,-0.11691161595209752
1913,8.270862399993348,-0.06518172977305882,-0.04153841788657004,-0.005443678515072557,0.09218479773770483,0.030850269119809877,-0.02113896407253637,0.09436725496060024,0.09203002276645068,-0.07869749607688462,-0.21744986643236297,0.0283136673995856,-0.11589827346267251
1914,8.274218999998993,-0.06518172977305882,-0.04153841788657004,-0.005443678515072557,0.09258984432139984,0.031247486454341375,-0.021479466062151686,0.09342421773037829,0.09214810763489063,-0.07919514131996146,-0.21981731029412238,0.026428064152530874,-0.11486544713067028
1915,8.278894799994305,-0.06496395378031827,-0.04151071813072805,-0.005535895382697345,0.09299080128808426,0.03164519559793918,-0.02182210460748912,0.09247101239168903,0.09225803660829258,-0.07968829104036218,-0.22216133242799416,0.02453265753404475,-0.1138132245208909
1916,8.283860499999719,-0.06399987707930728,-0.04130963464539348,-0.005764270343470356,0.09338762496072477,0.032043361277147416,-0.022166860146684023,0.09150774095442409,0.09235976787079289,-0.08017686183010143,-0.22448147449211148,0.022627663126365,-0.11274169661713465
1917,8.28745259999414,-0.06399987707930728,-0.04130963464539348,-0.005764270343470356,0.09378027210665413,0.03244194804027138,-0.022513712759348246,0.09053450740262384,0.09245326054206718,-0.08066077068019127,-0.2267772821300429,0.020713298650575786,-0.11165095781936904
1918,8.292623999994248,-0.06362677436985852,-0.04125331036427378,-0.0058193656133525016,0.09416869994609019,0.03284092026143007,-0.02286264216831618,0.08955141767701957,0.09253847468646856,-0.08113993499529654,-0.2290483050955475,0.018789783937074384,-0.11054110594026414
1919,8.296084500005236,-0.06362677436985852,-0.04125331036427378,-0.0058193656133525016,0.09455286616057788,0.0332402421446477,-0.023213627741453538,0.08855857965703505,0.0926153713220376,-0.08161427260837431,-0.23129409737638948,0.01685734089557638,-0.10941224220109122
1920,8.300115499994718,-0.06271269421177658,-0.040959604422991895,-0.006175035713497297,0.09493272890135152,0.033639877727983686,-0.023566648493528804,0.08755610314225211,0.0926839124293821,-0.08208370179529495,-0.233514217317167,0.014916193484664927,-0.10826447122698026
1921,8.304533999995328,-0.061603744216335486,-0.0406603792600145,-0.006476801464439696,0.09530824679761464,0.0340397908877005,-0.023921683088147322,0.08654409983334453,0.09274406096042503,-0.0825481412894423,-0.2357082277411122,0.01296656768088994,-0.10709790104153168
1922,8.310310800006846,-0.0610642243479417,-0.04053500137134017,-0.006610485999880379,0.09567937896473515,0.034439945342468886,-0.024278709839747857,0.08552268331248487,0.09279578084701867,-0.08300751029629061,-0.23787569607082115,0.011008691447423016,-0.10591264306077819
1923,8.31435159999819,-0.0604606588428732,-0.040356944283977514,-0.006718672542798451,0.09604608501235351,0.03484030465760978,-0.024637706715661473,0.08449196902322839,0.09283903700942259,-0.08346172850795545,-0.24001619444787228,0.00904279470227408,-0.10470881208649233
1924,8.319150199997239,-0.059839175235179995,-0.040232237258556465,-0.006807326907894928,0.09640832505240224,0.03524083224937209,-0.02499865133823255,0.08345207424987804,0.09287379536464359,-0.08391071611771574,-0.2421292998512909,0.007069109286075696,-0.1034865262988351
1925,8.32295570000133,-0.059839175235179995,-0.040232237258556465,-0.006807326907894928,0.09676605970703443,0.035641491389246084,-0.025361520987001823,0.0824031180963351,0.09290002283463623,-0.08435439383450383,-0.2442145942148196,0.005087868929441179,-0.10224590724834114
1926,8.327334200002952,-0.05944078107609896,-0.04008200341130547,-0.006989999728506963,0.09711925011645896,0.03604224520831159,-0.02572629260095142,0.0813452214644413,0.09291768735436237,-0.08479268289736129,-0.24627166454295374,0.003099309219902742,-0.10098707984723576
1927,8.331128100006026,-0.05799440188699171,-0.03968148557726813,-0.00716408861007511,0.09746785794667993,0.036443056701620284,-0.02609294278081179,0.08027850703181778,0.09292675787970747,-0.08522550508985746,-0.2483001030257004,0.0011036675684359125,-0.09971017236007998
1928,8.335412800006452,-0.057367561942644966,-0.039515905943320856,-0.007300005585474377,0.09781184539713846,0.03684388873261134,-0.02646144779143048,0.07920309922920683,0.0929272043952523,-0.08565278275446815,-0.2502995071520213,-0.0008988168244233444,-0.09841531639373928
1929,8.339974600006826,-0.05669315451859493,-0.03933548600111136,-0.007390508070027191,0.09815117520825421,0.03724470403756004,-0.026831783564202495,0.07811912421732188,0.09291899792189827,-0.08607443880691096,-0.2522694798219194,-0.0029079030028623092,-0.09710264688667242
1930,8.346334999994724,-0.0552603780271719,-0.039000057456649265,-0.007653329466848272,0.0984858106688651,0.0376454652300587,-0.027203925699562127,0.07702670986321221,0.09290211052434444,-0.0864903967504345,-0.25420962945713077,-0.0049233482904694394,-0.09577230209753634
1931,8.349827099998947,-0.0552603780271719,-0.039000057456649265,-0.007653329466848272,0.0988157156235632,0.03804613480552936,-0.02757784946953596,0.07592598571614817,0.09287651531841501,-0.08690058069005872,-0.2561195701103822,-0.006944908325299901,-0.09442442359310416
1932,8.353332700004103,-0.0552603780271719,-0.039000057456649265,-0.007653329466848272,0.09914085447992554,0.038446675145768036,-0.02795352982035702,0.0748170829830334,0.09284218647823546,-0.08730491534676324,-0.2579989215731744,-0.008972337095321992,-0.09305915623549305
1933,8.357938999994076,-0.05466956509583709,-0.03886172745944546,-0.007729188592946993,0.09946119221563741,0.03884704852351974,-0.02833094137513974,0.07370013450334986,0.09279909924325559,-0.08770332607162082,-0.2598473094820524,-0.011005386974237643,-0.09167664816869918
1934,8.362271300007706,-0.052387598168881847,-0.03824033158422251,-0.008079947683235656,0.0997766943855062,0.039247217107083614,-0.02871005843661536,0.07257527472364267,0.09274722992511827,-0.08809573885987312,-0.2616643654233262,-0.01304380875767014,-0.09027705080443651
1935,8.367563599997084,-0.052387598168881847,-0.03824033158422251,-0.008079947683235656,0.10008732712836359,0.03964714296494759,-0.02909085498992775,0.07144263967155139,0.09268655591437239,-0.08848208036494534,-0.2634497270362016,-0.015087351699712226,-0.08886051880727631
1936,8.371064599996316,-0.05162159138584739,-0.03813136289233129,-0.008053330123830508,0.10039305717385434,0.04004678807045181,-0.029473304705489346,0.07030236692939486,0.09261705568702824,-0.08886227791239656,-0.2652030381142855,-0.017135763549827595,-0.08742721007908438
1937,8.375046200002544,-0.05009505699575786,-0.0376602985935013,-0.008230239088881673,0.10069385184910971,0.04044611430648039,-0.029857380941896786,0.06915459560731677,0.09253870881095387,-0.08923625951380325,-0.26692394870542874,-0.01918879059009878,-0.08597728574275344
1938,8.37934430000314,-0.05009505699575786,-0.0376602985935013,-0.008230239088881673,0.10098967908530355,0.04084508347018075,-0.030243056748906087,0.06799946631599917,0.09245149595211054,-0.08960395388057311,-0.26861211520986983,-0.021246177672814347,-0.0845109101252282
1939,8.383388100002776,-0.04938860048929605,-0.037546468681178176,-0.008333868931049659,0.10128050742408895,0.04124365727771001,-0.030630304870466977,0.06683712113895146,0.0923553988806261,-0.0899652904376868,-0.270267200476644,-0.023307668258388325,-0.08302825073982073
1940,8.388454800006002,-0.04938860048929605,-0.037546468681178176,-0.008333868931049659,0.10156630602391334,0.041641797369007735,-0.031019097747815957,0.0656677036043828,0.09225040047670485,-0.0903201993373643,-0.27188887389822447,-0.0253730044536047,-0.0815294782678146
1941,8.39200969999365,-0.04784987224839772,-0.0371567203384377,-0.008504879731040188,0.10184704466621064,0.04203946531259447,-0.031409407522627664,0.06449135865666573,0.09213648473637231,-0.090668611472653,-0.2734768115033621,-0.027441927050179726,-0.08001476653935609
1942,8.396081300001242,-0.04610311019862895,-0.03670070308473689,-0.008659761015449106,0.1021226937614687,0.04243662261039514,-0.0318012060402242,0.06330823262739885,0.09201363677705399,-0.09101045849093445,-0.2750306960480905,-0.029514175563634778,-0.07848429251363016
1943,8.400023399997735,-0.04526771404178847,-0.036549870060022784,-0.008825234904347995,0.1023932243551698,0.04283323070258651,-0.0321944648528423,0.062118473206076684,0.09188184284298624,-0.09134567280734594,-0.27655021710486594,-0.03158948827247232,-0.07693823625831982
1944,8.407460200003698,-0.04439162218847151,-0.03638886051800742,-0.008923645052800645,0.10265860813360328,0.04322925097246795,-0.032589155222957925,0.06092222941037496,0.09174109031045831,-0.09167418761811441,-0.27803507114981046,-0.03366760225764754,-0.07537678092834693
1945,8.412229599998682,-0.04372598350480343,-0.03625768231169174,-0.008953847514645358,0.10291881742954836,0.043624644751354746,-0.03298524812666756,0.059719651556059405,0.09159136769288397,-0.09199593691379995,-0.27948496164802644,-0.03574825344232821,-0.07380011274389307
1946,8.415833899998688,-0.04372598350480343,-0.03625768231169174,-0.008953847514645358,0.10317382522782588,0.044019373323493365,-0.03338271425712596,0.05851089122652712,0.09143266464570145,-0.09231085549244626,-0.2808995991369527,-0.037831176631935276,-0.07220842096769926
1947,8.419316500003333,-0.04372598350480343,-0.03625768231169174,-0.008953847514645358,0.10342360517071701,0.04441339793099784,-0.033781524028039946,0.05729610124198882,0.09126497197110024,-0.09261887897263461,-0.2822787013077321,-0.03991610555445672,-0.07060189788164449
1948,8.423654400001396,-0.04200405167795248,-0.03579330578731661,-0.009126089873055444,0.10366813156324775,0.0448066797788064,-0.03418164757721767,0.05607543562830107,0.091088281622573,-0.09291994380643862,-0.28362199308456154,-0.0420027729010271,-0.06898073876260252
1949,8.428041599996504,-0.040165087342914074,-0.03534699460475605,-0.009333536779322854,0.10390737937833712,0.04519918003965781,-0.03458305477017314,0.054849049585457235,0.09090258670929126,-0.09321398729227659,-0.28492920670199806,-0.04409091036676532,-0.06734514185757635
1950,8.432968099994469,-0.03841433717838303,-0.034910418081224345,-0.009560753174311726,0.10414132426180754,0.04559085985908653,-0.03498571520378542,0.0536170994557462,0.0907078815003033,-0.09350094758765884,-0.28620008178019163,-0.04618024869186276,-0.06569530835811019
1951,8.437348399995244,-0.03758435839886031,-0.034645454254245055,-0.009719348854813353,0.10436994253725598,0.04598168036043595,-0.03538959821001237,0.05237974269158812,0.09050416142855318,-0.09378076372182637,-0.287434365398021,-0.04827051770291425,-0.0640314423739792
1952,8.442035600004601,-0.03669121496655733,-0.034430024554280965,-0.009777477476155079,0.10459321121078476,0.046371602649888946,-0.0357946728596584,0.05113713782305635,0.09029142309471984,-0.0940533756082775,-0.2886318121641063,-0.050361446354484,-0.06235375090615698
1953,8.445964200000162,-0.035800003908849735,-0.034175705935286106,-0.009849940745366655,0.10481110797559078,0.04676058782151506,-0.03620090796619588,0.049889444425094916,0.09006966427087555,-0.094318724057179,-0.2897921842856737,-0.05245276277089911,-0.06066244381906128
1954,8.450212600000668,-0.03488337488830922,-0.03394679697162165,-0.009944414613008675,0.10502361121641182,0.04714859696233355,-0.036608272089639876,0.04863682308444113,0.08983888390396255,-0.09457675078765773,-0.2909152516352463,-0.05454419428826261,-0.058957733812079235
1955,8.454054100002395,-0.03398733665486136,-0.033670524595092184,-0.010087931135078635,0.10523070001382813,0.047535591157391435,-0.037016733540475875,0.047379435366263,0.08959908211908679,-0.09482739843996964,-0.2920007918151394,-0.05663546749667867,-0.05723983639037257
1956,8.457549700004165,-0.03398733665486136,-0.033670524595092184,-0.010087931135078635,0.10543235414841812,0.047921531494855694,-0.03742626038363996,0.04611744378052118,0.0893502602226278,-0.09507061058754261,-0.2930485902197356,-0.05872630828268219,-0.05550896983496432
1957,8.461170900001889,-0.03398733665486136,-0.033670524595092184,-0.010087931135078635,0.10562855410476726,0.04830637907111875,-0.0378368204425511,0.044851011748065536,0.08909242070516381,-0.0953063317488905,-0.2940584400955161,-0.060816441871865336,-0.05376535517210817
1958,8.465823200007435,-0.03319779776173805,-0.033458684552490785,-0.010093857496969895,0.1058192810753293,0.04869009499591645,-0.038248381303194495,0.04358030356647604,0.08882556724421106,-0.09553450739939567,-0.29503014259882665,-0.0629055928716935,-0.05200921614194232
1959,8.470718900003703,-0.031459699443611135,-0.03297523930104173,-0.010283779656245287,0.10600451696413848,0.0490726403974576,-0.03866091031825514,0.0423054843756582,0.08854970470677662,-0.09575508398295683,-0.2959635068513582,-0.06499348531450291,-0.05024077916642939
1960,8.474852300001658,-0.029564824959943344,-0.03234797089934518,-0.010518752353801009,0.1061842443903716,0.04945397642756426,-0.03907437461130101,0.041026720123202715,0.0882648391517233,-0.09596800892349869,-0.29685834999332317,-0.06707984270067241,-0.048460273316584646
1961,8.479168799996842,-0.028727768438472155,-0.0322003267665841,-0.010646733357079595,0.10635844669175884,0.04983406426682146,-0.039488741081015286,0.039744177529519385,0.08797097783194663,-0.09617323063634094,-0.2977144972343086,-0.06916438804196183,-0.046667930278995115
1962,8.484491099996376,-0.027773576222142292,-0.03193877164274342,-0.010737287906797007,0.1065271079278427,0.05021286512973561,-0.03990397640547693,0.03845802405275562,0.08766812919636273,-0.09637069853942337,-0.2985317819017892,-0.07124684390500982,-0.04486398432163207
1963,8.489179099997273,-0.026951326993001706,-0.03170492998157917,-0.010840499615003482,0.10669021288308404,0.05059034026990057,-0.04032004704648928,0.03716842785350959,0.08735630289170679,-0.09656036306438447,-0.29931004548728446,-0.07332693245498366,-0.04304867225895997
1964,8.49265309999464,-0.026065741005972268,-0.03143318761970318,-0.010919379218343434,0.10684774706981434,0.05096645098517063,-0.0407369192539559,0.035875557759348725,0.08703550976414189,-0.0967421756674903,-0.30004913769014413,-0.07540437549937383,-0.041222233416344886
1965,8.495875900000101,-0.025197993329155528,-0.031195542798569224,-0.011082381313349723,0.10699969673103273,0.05134115862283931,-0.04115455907030285,0.03457958322914398,0.08670576186067819,-0.0969160888404106,-0.30074891645894614,-0.07747889453192504,-0.03938490959376589
1966,8.500210199999856,-0.024364803199844607,-0.031018713915190545,-0.011185008047775495,0.10714604884304707,0.051714424584823664,-0.041572932334946994,0.03328067431723036,0.08636707243040186,-0.0970820561208387,-0.301409248030493,-0.07955021077669559,-0.03753694502883293
1967,8.503771999996388,-0.024364803199844607,-0.031018713915190545,-0.011185008047775495,0.10728679111795868,0.05208621033285311,-0.04199200468880997,0.03197900163740437,0.08601945592551309,-0.09724003210295284,-0.3020300069663931,-0.08161804523223766,-0.03567858635911506
1968,8.50808010000037,-0.023584969230924558,-0.030920268398994852,-0.011212267830452701,0.10742191200599006,0.05245647739366246,-0.04241174157887714,0.030674736326769234,0.08566292800217268,-0.09738997244771612,-0.30261107618721533,-0.08368211871589072,-0.0338100825837832
1969,8.512573600004544,-0.021716254931350234,-0.030312137353316476,-0.011563075410626277,0.10755140069765551,0.05282518736418822,-0.042832108262801136,0.029368050009438634,0.08529750552115659,-0.09753183389301165,-0.3031523470042062,-0.08574215190818091,-0.03193168502457195
1970,8.51668939999945,-0.02087602860037899,-0.03013229432400202,-0.011648914628566192,0.10767524712577402,0.05319230191676733,-0.04325306981354904,0.028059114760109513,0.08492320654831849,-0.09766557426361003,-0.3036537191485586,-0.08779786539731839,-0.03004364728606502
1971,8.520505599997705,-0.02087602860037899,-0.03013229432400202,-0.011648914628566192,0.10779344196732413,0.053557782804337505,-0.04367459112409291,0.026748103067514694,0.08454005035486022,-0.09779115248096545,-0.30411510079822446,-0.08984897972378494,-0.028146225215309215
1972,8.524701400005142,-0.020134374633759822,-0.029958481808374574,-0.011708331344705189,0.10790597664514008,0.05392159186563793,-0.04409663691214253,0.025435187797765966,0.08414805741740967,-0.09790852857283784,-0.3045364086022597,-0.09189521542500428,-0.0262396768607623
1973,8.533220299999812,-0.018342570400600923,-0.029395043139163385,-0.011986169627394072,0.10801284332944892,0.05428369103040965,-0.04451917172491965,0.024120542157598585,0.08374724941790555,-0.09801766368273786,-0.3049175677026958,-0.09393629308008775,-0.024324262430579998
1974,8.53744290000759,-0.016500863636082504,-0.02888939486300954,-0.012275783584696963,0.10811403493924768,0.054644042324595,-0.04494215994397301,0.02280433965752815,0.08333764924328853,-0.09811852007919199,-0.3052585117539302,-0.09597193335464739,-0.02240024425024783
1975,8.541704100003699,-0.015572104176994755,-0.028588407804048366,-0.012425422718824608,0.10820954514352028,0.05500260787553535,-0.045365565790033355,0.021486754074930715,0.08291928098499839,-0.09821106116482443,-0.3055591829396298,-0.0980018570456686,-0.020467886719563844
1976,8.545021099998849,-0.015572104176994755,-0.028588407804048366,-0.012425422718824608,0.10829936836229404,0.05535934991716637,-0.045789353327907525,0.020167959417057,0.08249216993827718,-0.09829525148525353,-0.30581953198714146,-0.10002578512643479,-0.018527456268978497
1977,8.548506299994187,-0.015572104176994755,-0.028588407804048366,-0.012425422718824608,0.10838349976753495,0.0557142307952102,-0.04621348647141114,0.018848129883991586,0.08205634260127839,-0.09837105673779994,-0.30603951817940633,-0.10204343879149676,-0.016579221315298164
1978,8.554050899998401,-0.012882929703984488,-0.02778385289922484,-0.012736693526946454,0.10846193528388166,0.05606721297236341,-0.046637928988339024,0.017527439831568025,0.08161182667398219,-0.09843844378000399,-0.30621910936437274,-0.10405453950167945,-0.014623452216759123
1979,8.558094099993468,-0.012033778639360596,-0.02750787010046384,-0.012908691852713585,0.10853467158921803,0.05641825903347996,-0.04706264450547262,0.016206063734250754,0.08115865105691673,-0.09849738063794972,-0.3063582819619042,-0.10605880902911824,-0.012660421227479146
1980,8.562296599993715,-0.011153143768842244,-0.02718078978927425,-0.013021992128253149,0.1086017061150846,0.05676733169074818,-0.04748759651362344,0.014884176147994735,0.08069684584968514,-0.0985478365143928,-0.3064570209681822,-0.1080559695023172,-0.010690402451294087
1981,8.56559460000426,-0.011153143768842244,-0.02718078978927425,-0.013021992128253149,0.10866303704692888,0.057114393788861184,-0.04791274837271196,0.013561951673093688,0.08022644234929847,-0.09858978179668959,-0.3065153199576051,-0.11004574345122206,-0.008713671794987107
1982,8.569286700003431,-0.011153143768842244,-0.02718078978927425,-0.013021992128253149,0.10871866332419422,0.057459408310180066,-0.048338063316881015,0.012239564917027955,0.07974747304831437,-0.09862318806452464,-0.30653318108218197,-0.11202785385230005,-0.006730506920918492
1983,8.572708000006969,-0.01032598728280615,-0.026973549504899205,-0.01301419036935753,0.10876858464024688,0.05780233837988908,-0.048763504459643156,0.010917190457322925,0.07925997163278153,-0.09864802809743473,-0.30651061506842453,-0.11400202417361968,-0.004741187199064223
1984,8.576104899999336,-0.01032598728280615,-0.026973549504899205,-0.01301419036935753,0.10881280144214119,0.05814314727114187,-0.049189034799061074,0.009595002804428866,0.07876397297999045,-0.09866427588212624,-0.3064476412117408,-0.11596797841992267,-0.002745993658471731
1985,8.579417400003877,-0.01032598728280615,-0.026973549504899205,-0.01301419036935753,0.10885131493022247,0.05848179841019792,-0.049614617222960615,0.008273176364633095,0.07825951315603005,-0.0986719066195831,-0.3063442873683351,-0.11792544117768056,-0.0007452089381416138
1986,8.583558500002255,-0.008598392730392451,-0.026348710978249798,-0.013248148333569647,0.10888412705756881,0.05881825538154844,-0.050040214514175424,0.006951885403015367,0.07774662941315061,-0.09867089673196285,-0.3062005899446181,-0.1198741376601288,0.0012608827626557038
1987,8.587409300002037,-0.006003409195996512,-0.025368381808975,-0.01364818817277337,0.10891124052927187,0.05915248193303083,-0.05046578935582236,0.005631304006457412,0.07722536018693285,-0.0986612238692783,-0.3060165938841337,-0.12181379375227071,0.003271995734619095
1988,8.591674700001022,-0.005243589662478602,-0.02510229024328514,-0.013750182246598864,0.10893265880155732,0.059484441980930516,-0.050891304336606706,0.00431160604671744,0.07669574509326324,-0.09864286691586234,-0.3057923526520094,-0.12374413605584411,0.0052878428092021324
1989,8.596081399999093,-0.004389098724078338,-0.024778269627178155,-0.013815886298672458,0.10894838608074521,0.059814099615069276,-0.05131672195615658,0.0029929651435803926,0.076157824925116,-0.09861580599661388,-0.30552792821693847,-0.12566489193424363,0.007308135409934981
1990,8.599996300006751,-0.00359911709460896,-0.02447541902869157,-0.01394857765774706,0.10895842732205112,0.060141419103878914,-0.051742004630385544,0.00167555462809468,0.07561164164914216,-0.0985800224830228,-0.30522339103070223,-0.1275757895573909,0.009332583604272726
1991,8.60424950000015,-0.002813855897288683,-0.02421924379752365,-0.01409501764493676,0.10896278822822911,0.060466364899459245,-0.052167114696882455,0.00035954750590614455,0.07505723840206575,-0.0985354989989716,-0.3048788200052405,-0.12947655794654575,0.011360896155959822
1992,8.608162799995625,-0.0020270012872927495,-0.023975180058127512,-0.014192336333501566,0.1089614752480561,0.06078890164261974,-0.0525920144203275,-0.0009548835793000673,0.07449465948688751,-0.09848221942631089,-0.3044943024872821,-0.13136692701905,0.013392780577900084
1993,8.61240070000349,-0.0012791462507338366,-0.023684196043418194,-0.014262894357262216,0.10895449557465811,0.06110899416790387,-0.05301666599793328,-0.0022675663822390945,0.07392395036889632,-0.0984201689102072,-0.30406993423054696,-0.13324662763299713,0.015427943185521417
1994,8.616778800002066,-0.0005236953904539455,-0.02341996872579253,-0.014399152352827188,0.10894185714367882,0.06142660750859539,-0.05344103156491,-0.0035783290923368516,0.07334515767148884,-0.09834933386426085,-0.30360581936553255,-0.13511539163181951,0.017466089150624274
1995,8.62069340000744,0.00030304407033001756,-0.023130435541395995,-0.014510855229662202,0.10892356863129135,0.06174170690170568,-0.05386507319995366,-0.004887000369900908,0.07275832917179773,-0.09826970197539174,-0.30310207036689507,-0.13697295188878555,0.01950692255570249
1996,8.624906099998043,0.000991226567336646,-0.02294558573066857,-0.014614363292494008,0.10889963945205372,0.0620542577929415,-0.054288752930756246,-0.006193409382141296,0.07216351379612862,-0.09818126220849148,-0.3025588080184406,-0.13881904235139897,0.02155014644872493
1997,8.629215499997372,0.0017296029327502817,-0.022717096540852928,-0.014710700464318438,0.10887007975660937,0.06236422584165224,-0.054712032739536946,-0.0074973858390308575,0.07156076161520679,-0.09808400481084001,-0.30197616137574157,-0.14065339808569344,0.02359546289836617
1998,8.633334199999808,0.002478091044528253,-0.02242376016683129,-0.01483263910490531,0.10883490042923355,0.06267157692575596,-0.05513487456859344,-0.008798760028994863,0.0709501238392334,-0.09797792131628497,-0.3013542677263935,-0.14247575532041493,0.025642573049674086
1999,8.637586299999384,0.00314923290863266,-0.02215463943125876,-0.014967276641837269,0.10879411308522655,0.0629762771466431,-0.05555724032587243,-0.01009736285441962,0.07033165281275194,-0.09786300454918162,-0.3006932725479282,-0.14428585149108455,0.027691177180162157
2000,8.641599099995801,0.003886048082180732,-0.02187939088474805,-0.015077541334077607,0.10874773006815419,0.06327829283405725,-0.05597909189055831,-0.011393025866969917,0.06970540200932532,-0.09773924862809175,-0.29999332946340174,-0.14608342528393564,0.029740974756313893
2001,8.645695600003819,0.004611349429620154,-0.021628103038823836,-0.015200324217384356,0.10869576444693743,0.06357759055095198,-0.056400391118679095,-0.012685581302705203,0.06907142602602444,-0.09760664896923965,-0.2992546001946744,-0.14786821667971684,0.03179166449048657
2002,8.64977610000642,0.005243725030240783,-0.021402737700182518,-0.015352405000603008,0.10863823001279176,0.06387413709832247,-0.05682109984872849,-0.013974862116984555,0.06842978057772926,-0.09746520228972384,-0.2984772545134037,-0.14963996699735374,0.03384294439820115
2003,8.653989800004638,0.005976678902543026,-0.02110964090967591,-0.015475523298877206,0.10857514127601704,0.06416789952001119,-0.057241179907302514,-0.01526070201915059,0.06778052249124271,-0.09731490661048227,-0.29766147018976763,-0.15139841893746106,0.03589451185580498
2004,8.657547299997532,0.005976678902543026,-0.02110964090967591,-0.015475523298877206,0.1085065134626387,0.06445884510748662,-0.05766059311474945,-0.016542935506982492,0.0671237096992186,-0.09715576125900922,-0.2968074329389404,-0.15314331662569775,0.03794606365849373
2005,8.662290599997505,0.006579166172145173,-0.0208472241216396,-0.015540346962814247,0.10843236251090149,0.06474694140459497,-0.05807930129083192,-0.017821397900908503,0.06645940123390438,-0.09698776687182188,-0.29591533636533984,-0.15487440565595856,0.03999729607867863
2006,8.666750599993975,0.007964666095648665,-0.02036074472493114,-0.015811129205108226,0.10835270506761653,0.06503215621228392,-0.05849726626039984,-0.019095925377968257,0.06578765722069888,-0.0968109253966752,-0.29498538190467005,-0.1565914331333955,0.0420479049246851
2007,8.670834499993362,0.008674584122853499,-0.019992223183801686,-0.015960663007970555,0.10826755848436324,0.0653144575932974,-0.05891444985907328,-0.020366355005515493,0.06510853887152548,-0.0966252400945239,-0.29401777876378,-0.1582941477172613,0.04409758559976833
2008,8.674981599993771,0.009294201902673594,-0.019750226557042748,-0.016051113405161698,0.10817694081354728,0.06559381387684075,-0.05933081393893402,-0.02163252477465172,0.06442210847802148,-0.09643071554122991,-0.2930127438583599,-0.1599822996635684,0.046146033161431246
2009,8.678283000001102,0.009294201902673594,-0.019750226557042748,-0.016051113405161698,0.10808087080431535,0.06587019366321577,-0.05974632037422445,-0.022894273633381562,0.06372842940454447,-0.09622735762901348,-0.29197050174850064,-0.16165564086755527,0.04819294238103038
2010,8.682028099996387,0.009294201902673594,-0.019750226557042748,-0.016051113405161698,0.10797936789832804,0.06614356582842472,-0.06016093106705268,-0.024151441519480538,0.06302756608099706,-0.0960151735676466,-0.29089128457214236,-0.16331392490595353,0.05023800780365454
2011,8.687552200004575,0.01114105491241394,-0.01897727187853849,-0.016406330231781795,0.10787245222539153,0.06641389952874253,-0.060574607953102676,-0.025403869393066218,0.06231958399547004,-0.0957941718853873,-0.28977533197643784,-0.16495690707904853,0.052280923808261465
2012,8.691711899999063,0.011679426777279414,-0.018727640151941033,-0.016590168325739767,0.10776014459894923,0.06668116420525655,-0.06098731300734836,-0.02665139926886383,0.06160454968670524,-0.09556436242965322,-0.28862289104705696,-0.16658434445252682,0.054321384668057006
2013,8.69523399999889,0.011679426777279414,-0.018727640151941033,-0.016590168325739767,0.10764246651143562,0.0669453295883729,-0.06139900824977039,-0.027893874248157653,0.06088253073637903,-0.09532575636743346,-0.28743421623545995,-0.16819599589910353,0.05635908461110106
2014,8.69986950000748,0.012046049457347434,-0.01855388967184343,-0.016670300679292205,0.10751944012949347,0.0672063657022891,-0.06180965575107439,-0.029131138550419544,0.06015359576120718,-0.09507836618543712,-0.2862095692841668,-0.16979162213992333,0.05839371788112471
2015,8.704007499996806,0.013276088321235327,-0.017965232523617286,-0.01700733882304334,0.10739108828905601,0.06746424286943192,-0.06221921763840922,-0.030363037544606068,0.05941781440487227,-0.09482220568997766,-0.2849492191500506,-0.17137098578572726,0.06042497879854281
2016,8.708688800004893,0.013830975848801353,-0.017631892968505865,-0.017124195879126617,0.10725743449029639,0.06771893171486043,-0.06262765610108403,-0.031589417780115876,0.05867525732977429,-0.09455729000659199,-0.2836534419256841,-0.17293385137777897,0.06245256182164587
2017,8.712509899996803,0.014360607420100324,-0.01739353260968933,-0.01720749272794343,0.1071185028924459,0.06797040317063348,-0.06303493339628273,-0.032810127017399014,0.05792599620860575,-0.09428363557939398,-0.28232252075876973,-0.1744799854285442,0.06447616160795515
2018,8.715992099998402,0.014360607420100324,-0.01739353260968933,-0.01720749272794343,0.1069743183084832,0.06821862848014106,-0.06344101185477474,-0.034025014258210126,0.05717010371575227,-0.09400126017016143,-0.2809567457696856,-0.1760091564621179,0.06649547307572451
2019,8.719771500007482,0.014360607420100324,-0.01739353260968933,-0.01720749272794343,0.10682490619969572,0.0684635792023984,-0.06384585388662092,-0.035233929775497504,0.05640765351852015,-0.09371018285715622,-0.2795564139671787,-0.17752113505439165,0.06851019146557287
2020,8.72392669999681,0.014767215761724052,-0.017188805858733253,-0.017275869719498124,0.1066702926701147,0.0687052272163021,-0.06424942198687326,-0.036436725142920186,0.05563872026819195,-0.09341042403367694,-0.27812182916223865,-0.17901569387295435,0.0705200124022307
2021,8.729142399999546,0.015820461939797692,-0.016744119064913382,-0.0175505994542267,0.10651050446082518,0.06894354472484775,-0.06465167874126689,-0.03763325326398541,0.05486337959091139,-0.09310200540634332,-0.27665330188018544,-0.18049260771671935,0.07252463195638356
2022,8.733472099993378,0.016890478004410278,-0.01605679274479995,-0.017868832137646253,0.106345568944153,0.06917850425930859,-0.06505258683190299,-0.038823368400799,0.05408170807839879,-0.09278494999311246,-0.27515114927100465,-0.1819516535552716,0.07452374670659619
2023,8.737575399994967,0.01743697777788846,-0.01583867406915098,-0.01797104859271685,0.1061755141177307,0.06941007868337451,-0.06545210904292204,-0.040006926202421286,0.053293783278498104,-0.09245928212102618,-0.27361569501796446,-0.1833926105679278,0.07651705380129993
2024,8.741714000003412,0.01743697777788846,-0.01583867406915098,-0.01797104859271685,0.10600036859844371,0.06963824119725087,-0.06585020826616603,-0.04118378373282115,0.05249968368555682,-0.09212502742368917,-0.2720472692445481,-0.18481526018250316,0.07850425102082684
2025,8.745733200004906,0.01785216143399462,-0.01574504679537167,-0.01813163997340865,0.10582016161625858,0.06986296534171611,-0.0662468475068283,-0.04235379949842104,0.05169948873063971,-0.09178221283847719,-0.27044620841973815,-0.1862193861137786,0.08048503683947288
2026,8.749254599999404,0.01785216143399462,-0.01574504679537167,-0.01813163997340865,0.10563492300793526,0.07008422500213754,-0.06664198988908979,-0.043516833475225655,0.05089327877157783,-0.09143086660347512,-0.26881285526168863,-0.1876047744016632,0.08245911048757316
2027,8.756077199999709,0.018819030151555463,-0.01523288347336582,-0.01835829856706231,0.10544468321062489,0.07030199441244488,-0.06703559866174064,-0.04467274713552766,0.05008113508285421,-0.09107101825414482,-0.2671475586398212,-0.18897121344904463,0.08442617201357161
2028,8.76018219999969,0.019870094499841617,-0.01459139791635757,-0.01883032950070122,0.1052494732553552,0.07051624815906081,-0.06742763720378561,-0.04582140347418353,0.049263139845327805,-0.09070269861972323,-0.2654506734753815,-0.19031849405932108,0.08638592234606711
2029,8.76439240000036,0.020369004966890876,-0.014295076860852253,-0.018984035593284074,0.10504932476040489,0.07072696118478772,-0.06781806903003212,-0.04696266703445311,0.04843937613579728,-0.09032593981935068,-0.2637225606404922,-0.19164640947360875,0.08833806335581827
2030,8.771218199995928,0.020822844806690853,-0.01403401191489307,-0.019143603804174125,0.10484426992456855,0.07093410879264962,-0.06820685779665989,-0.04809640393339633,0.04760992791640598,-0.0899407752579298,-0.2619635868557402,-0.1929547554076193,0.09028229791768871
2031,8.775089999995544,0.021192918686747133,-0.01385688951497425,-0.0192868703121661,0.10463434152031383,0.07113766664968849,-0.06859396730677093,-0.0492224818868212,0.04677488002388966,-0.08954723962171492,-0.260174124586334,-0.1942433300882003,0.0922183299725149
2032,8.779224800004158,0.022163569256490028,-0.013186180725368266,-0.019753599139789163,0.10441957288683235,0.0713376107907137,-0.0689793615159192,-0.050340770233777005,0.045934318158668455,-0.08914536887363234,-0.2583545519368689,-0.19551193428953256,0.09414586458887912
2033,8.783631300000707,0.02260450518306821,-0.012966699326250417,-0.019951202137374772,0.1041999979229866,0.07153391762200412,-0.06936300453761832,-0.0514511399605871,0.04508832887378455,-0.0887352002483324,-0.2565052525447399,-0.19676037136897725,0.09606460802476977
2034,8.787442400003783,0.02260450518306821,-0.012966699326250417,-0.019951202137374772,0.10397565108015469,0.07172656392496192,-0.0697448606488269,-0.05255346372441567,0.04423699956368702,-0.08831677224697336,-0.25462661547223964,-0.19798844730256615,0.09797426778911103
2035,8.791706799995154,0.022935651331252097,-0.012838496420318141,-0.020136794159624875,0.10374656735497484,0.07191552685971767,-0.07012489429541034,-0.053647615876362915,0.04338041845286559,-0.0878901246317378,-0.252719035097381,-0.19919597072012935,0.09987455270314435
2036,8.795967800004291,0.023743735098304325,-0.01218354829407251,-0.02067471339631079,0.10351278228199172,0.07210078396868601,-0.07050307009757807,-0.054733472484083286,0.042518674584334566,-0.08745529842008247,-0.25078291100348304,-0.20038275294005425,0.10176517296164336
2037,8.800020299997414,0.02420610160525768,-0.011886816749621595,-0.02088501543970323,0.10327433192620651,0.07228231318007128,-0.07087935285529551,-0.05581091135392126,0.04165185780796863,-0.08701233587872226,-0.24881864786755956,-0.20154860800366864,0.1036458401939444
2038,8.808862100006081,0.024979197708046318,-0.011357570107001282,-0.02151733313647938,0.10303125287553293,0.07246009281132217,-0.07125370755366915,-0.056879812052559625,0.04078005876869217,-0.08656128051734904,-0.24682665534754866,-0.2026933527092416,0.10551626752477469
2039,8.812569700006861,0.0253623677955167,-0.011072661217537406,-0.021755035788241225,0.10278358223316128,0.07263410157253472,-0.07162609936830391,-0.05794005592817563,0.03990336889452377,-0.08610217708208621,-0.24480734796842568,-0.20381680664559648,0.10737616963485992
2040,8.816654399997788,0.02580190255859827,-0.010744593608891462,-0.02195502134769342,0.10253135760983273,0.07280431856980339,-0.07199649367063173,-0.058991526131100494,0.0390218803844776,-0.08563507154867989,-0.2427611450072392,-0.2049187922253292,0.10922526282129325
2041,8.820914700001595,0.026128345656870024,-0.010512590590618615,-0.02229668162646389,0.10227461711602594,0.07297072330851989,-0.07236485603320997,-0.060034107633977915,0.03813568619632361,-0.08516001111542833,-0.2406884703771116,-0.20599913471762474,0.11106326505764758
2042,8.82531270000618,0.026453191794846505,-0.010212979581284752,-0.022594741504355944,0.10201339935405827,0.07313329569661949,-0.07273115223498842,-0.06106768725141728,0.03724488003420847,-0.08467704419585068,-0.2385897525102444,-0.20705766228066463,0.11288989605381312
2043,8.82906709999952,0.026849256904568904,-0.009858980782080147,-0.022923280050344358,0.1017477434101038,0.07329201604777401,-0.07309534826654367,-0.062092153659137395,0.03634955633613909,-0.08418622041109589,-0.23646542423996986,-0.20809420599361886,0.11470487731554233
2044,8.832598599998164,0.026849256904568904,-0.009858980782080147,-0.022923280050344358,0.10147768884612987,0.07344686508453085,-0.07345741033527972,-0.06310739741259706,0.035449810261330726,-0.083687590582093,-0.23431592268189105,-0.20910859988821676,0.11650793220368372
2045,8.839118599993526,0.02729388496180229,-0.00961842812272828,-0.023094403996063592,0.10120327569175414,0.07359782394139754,-0.07381730487059392,-0.06411331096510879,0.03454573767742124,-0.08318120672144429,-0.23214168911415176,-0.21010068097989132,0.11829878599308588
2046,8.842701899993699,0.027970132254877808,-0.008906742075946765,-0.023818010618377874,0.10092454443602412,0.0737448741678712,-0.07417499852900673,-0.0651097886854323,0.03363743514755355,-0.08266712202506271,-0.22994316885687877,-0.21107028929849145,0.12007716593115378
2047,8.846408800003701,0.02834076843876271,-0.008588527639726734,-0.024093324792832035,0.10064153601912221,0.07388799773141295,-0.07453045819925447,-0.0660967268748445,0.03272499991732824,-0.08214539086355527,-0.227720811150838,-0.21201726791855588,0.12184280129603944
2048,8.850078200004646,0.028761498788575143,-0.008254527476678283,-0.024400059437280984,0.10035429182399823,0.07402717702036622,-0.0748836510073434,-0.06707402378368253,0.03180852990162803,-0.08161606877335364,-0.22547506903534772,-0.2129414629891426,0.12359542345444915
2049,8.855361599999014,0.029158089523546274,-0.007948020974094304,-0.024731454458112458,0.10006285366793227,0.0741623948468185,-0.07523454432156429,-0.068041579627357,0.03088812367131598,-0.08107921244759396,-0.2232063992254906,-0.21384272376320831,0.12533476591904918
2050,8.859127500007162,0.029496842438123023,-0.007581417239691963,-0.025121746692183228,0.09976726379402945,0.07429363444940583,-0.07558310575746623,-0.06899929660183292,0.029963880439809066,-0.0805348797267476,-0.22091526198866612,-0.2147209026265324,0.12706056440545235
2051,8.862558099994203,0.029834406749342755,-0.007297021421178006,-0.025417039209326676,0.09946756486264881,0.07442087949605902,-0.07592930318278883,-0.06994707889857568,0.02903590004952918,-0.07998312958900508,-0.21860212102052443,-0.21557585512617902,0.12877255688876754
2052,8.867600800003856,0.030250297572251873,-0.006913247770173848,-0.02567726689958669,0.09916379994276882,0.07454411408669095,-0.07627310472235153,-0.0708848327189594,0.02810428295823343,-0.07942402214041508,-0.21626744332032344,-0.21640743999849166,0.13047048365969524
2053,8.871190599995316,0.030568156349967273,-0.006539760925802118,-0.02599774444343928,0.09885601250329198,0.07466332275582398,-0.07661447876289877,-0.07181246628813556,0.02716913022522572,-0.07885761860478054,-0.21391169906575191,-0.21721551919661453,0.1321540873801522
2054,8.876373299994157,0.030922072525823466,-0.006239037851205099,-0.026373821836231975,0.09854424640429085,0.07477849047515706,-0.07695339395790039,-0.07272988986835982,0.026230543497451516,-0.07828398131331354,-0.21153536148726138,-0.21799995791753604,0.13382311313840697
2055,8.88054959999863,0.031298003638039494,-0.005921847644791602,-0.026685788995280173,0.09822854588819738,0.07488960265607206,-0.07728981923230598,-0.07363701577177499,0.025288624995477883,-0.07770317369405136,-0.20913890674194954,-0.21876062462864937,0.13547730850370854
2056,8.883977100005723,0.031298003638039494,-0.005921847644791602,-0.026685788995280173,0.09790895557093794,0.07499664515207836,-0.07762372378725223,-0.07453375837264888,0.024343477499360822,-0.0771152602610355,-0.20672281378703722,-0.2194973910938239,0.13711642358039045
2057,8.887848200000008,0.03161907370790201,-0.005746158437633987,-0.026973996196692124,0.09758552043301645,0.07509960426119522,-0.07795507710472237,-0.07542003411906546,0.023395204334402002,-0.07652030660325658,-0.20428756425298056,-0.22021013239898346,0.13874021106143322
2058,8.891700199994375,0.032202163246190324,-0.0049890835814996246,-0.02780936920134679,0.09725828581054774,0.07519846672827116,-0.07828384895215683,-0.07629576154406842,0.022443909356797027,-0.07591837937336707,-0.20183364231626094,-0.22089872697718552,0.1403484262814679
2059,8.895757499994943,0.03252197562705864,-0.004620054540114112,-0.0281750416333895,0.09692729738624323,0.0752932197472405,-0.07861000938701407,-0.07716086127625571,0.021489696939177214,-0.07530954627616449,-0.1993615345718944,-0.22156305663319648,0.14194082726920432
2060,8.900014600003487,0.03281492405636631,-0.0043207717784459546,-0.028534295239454274,0.09659260118035116,0.07538385096331668,-0.0789335287612809,-0.07801525604982418,0.020532671956047046,-0.07469387605684731,-0.19687172990570279,-0.2222030065675582,0.14351717479926757
2061,8.904236000002129,0.03303808595073266,-0.004072476872784097,-0.028970870565583492,0.0962542435415539,0.07547034847512182,-0.0792543777259311,-0.07885887071406356,0.019572939769119623,-0.07407143848904606,-0.1943647193663891,-0.22281846540014108,0.14507723244342507
2062,8.908335300002364,0.03333715669102619,-0.0037536355296508843,-0.02936568501929353,0.09591227113782448,0.07555270083675196,-0.0795725272353315,-0.0796916322422992,0.018610606212552377,-0.07344230436263256,-0.19184099603745985,-0.22340932519317866,0.1466207666211878
2063,8.91243320000649,0.03367146206581708,-0.0034078769091635524,-0.029772970572230724,0.09556673094724477,0.07563089705977721,-0.07988794855159473,-0.08051346974028303,0.01764577757808532,-0.07280654547131046,-0.18930105490903726,-0.22397548147377747,0.1481475466497692
2064,8.918567300002906,0.03390592519608679,-0.0031727010581728177,-0.030195442558536324,0.09521767024878816,0.07570492661517648,-0.08020061324887753,-0.08132431445403208,0.016678560600084193,-0.07216423459998998,-0.1867453927496025,-0.22451683325589708,0.14965734479338624
2065,8.922807399998419,0.0341970670794528,-0.0028015787022329167,-0.030522510895702522,0.09486513661306933,0.07577477943520632,-0.08051049321762403,-0.0821240997771145,0.015709062440490855,-0.0715154455119495,-0.1841745079777121,-0.22503328306179649,0.1511499363118859
2066,8.926700099997106,0.034415518153255165,-0.002498064443087471,-0.03100797619478359,0.09450917789306344,0.0758404459152035,-0.08081756066875294,-0.08291276125738287,0.014737390673683159,-0.07086025293578707,-0.1815889005337282,-0.225524736942943,0.15262509950868208
2067,8.93129300000146,0.034671967384340294,-0.0021742088532835015,-0.031478075586731276,0.09414984221479707,0.07590191691532135,-0.08112178813778786,-0.08369023660315517,0.013763653271246536,-0.07019873255216504,-0.17898907175160428,-0.22599110450037874,0.15408261577798732
2068,8.934997599993949,0.034953241680755795,-0.0019132272681638628,-0.03188807239320199,0.09378717796801299,0.07595918376219916,-0.08142314848892986,-0.0844564656888435,0.012787958586659666,-0.06953096098035073,-0.1763755242307671,-0.22643229890453906,0.15552226965132365
2069,8.939333100002841,0.03520693286632614,-0.0016123727539458042,-0.03238448808451263,0.09342123379681105,0.07601223825056452,-0.08172161491907196,-0.08521139056003087,0.01181041533989655,-0.06885701576455645,-0.17374876170813539,-0.22684823691451775,0.15694384884329748
2070,8.94685340000433,0.03552978468508509,-0.00138404406090618,-0.03272261260370617,0.0930520585902673,0.07606107264476787,-0.08201716096175464,-0.08595495543799675,0.010831132601947294,-0.06817697536008195,-0.171109288930316,-0.22723883889677374,0.15834714429662325
2071,8.951516400004039,0.03607760380919149,-0.000608968873348838,-0.0337301256920522,0.09267970147303338,0.07610567968024937,-0.0823097604910612,-0.08668710672369277,0.009850219779259956,-0.06749091911926271,-0.16845761152601801,-0.22760402884327516,0.15973195022638081
2072,8.956561900005909,0.03628668917340525,-0.00023763967472220892,-0.034275541236661745,0.09230421179591908,0.0761460525649381,-0.08259938772545196,-0.08740779300116933,0.00886778659810585,-0.06679892727722742,-0.1657942358787233,-0.22794373438907534,0.1610980641634919
2073,8.96028440000373,0.03655683108225709,8.546758410239084e-05,-0.03470398139244222,0.09192563912646048,0.0761821849805835,-0.08288601723153646,-0.08811696504045487,0.007883943088870742,-0.0661010809374679,-0.16311966899965305,-0.22825788682931575,0.1624452869974007
2074,8.964318500002264,0.03686900359816883,0.0004307678975914922,-0.035196365537285834,0.09154403323947649,0.07621407108401859,-0.08316962392778308,-0.0888145757998894,0.006898799570274358,-0.06539746205722516,-0.1604344184010687,-0.22854642113565218,0.16377342301794467
2075,8.967741500004195,0.03686900359816883,0.0004307678975914922,-0.035196365537285834,0.09115944410761583,0.076241705508355,-0.08345018308816493,-0.08950058042791355,0.005912466633520688,-0.06468815343269464,-0.15773899196994642,-0.2288092759721003,0.16508227995640234
2076,8.971296699994127,0.03711270376785365,0.0007484969307392924,-0.035661183768143034,0.09077192189189714,0.07626508336410914,-0.08372767034574115,-0.09017493626431484,0.0049250551263815305,-0.06397323868405445,-0.1550338978420639,-0.22904639371029695,0.16637166902570463
2077,8.974922499997774,0.0376250039186069,0.001556992149339308,-0.03670773498902281,0.09038151693224455,0.07628420024025935,-0.08400206169617268,-0.09083760284093358,0.003936676137215768,-0.06325280224032034,-0.15231964427653852,-0.2292577204441747,0.1676414049597971
2078,8.979905600004713,0.0376250039186069,0.001556992149339308,-0.03670773498902281,0.08998827973802098,0.07629905220523378,-0.08427333350117189,-0.0914885418818299,0.002947440978926877,-0.06252692932403114,-0.14959673953085448,-0.22944320600404564,0.16889130605214075
2079,8.983507500000997,0.03789615201646338,0.0018081085950698629,-0.03711778531417234,0.08959226097856204,0.07630963580782917,-0.08454146249188567,-0.0921277173029145,0.0019574611728612004,-0.061795705935768296,-0.14686569173641542,-0.22960280397008975,0.17012119419333968
2080,8.987482299999101,0.038453643525346796,0.0026986019786964734,-0.03823700915322386,0.08919351147371263,0.07631594807806047,-0.08480642577221124,-0.09275509521104557,0.0009668484326495309,-0.061059218838513105,-0.1441270087746593,-0.22973647168524425,0.17133089490788328
2081,8.993433800002094,0.03869501215710403,0.003130841520252197,-0.038793563801623035,0.08879208218436857,0.07631798652794149,-0.08506820082204414,-0.09337064390259414,-2.4285352005442358e-05,-0.06031755554184554,-0.14138119815377162,-0.22984417026749135,0.17252023738999173
2082,8.99738200000138,0.03869501215710403,0.003130841520252197,-0.038793563801623035,0.08838802420302565,0.0763157491521965,-0.08532676550045817,-0.09397433386148075,-0.0010158281315932373,-0.05957080428598851,-0.1386287668860329,-0.22992586462154058,0.17368905453855246
2083,9.001065400007064,0.03869501215710403,0.003130841520252197,-0.038793563801623035,0.08798138874433774,0.07630923442890318,-0.08558209804881721,-0.09456613775668608,-0.002007667713108645,-0.058819054025701624,-0.13587022136583576,-0.2299815234499013,0.1748371829911375
2084,9.004352699994342,0.03894810368431592,0.003397047967580151,-0.03917009464298774,0.08757222713568694,0.07629844132006686,-0.08583417709381742,-0.09514603043923886,-0.0029996917764111503,-0.05806239441402848,-0.1331060672484066,-0.23001111926334225,0.1759644631570906
2085,9.009522699998342,0.039722536336783736,0.0046531235869841795,-0.04087612957618304,0.08716059080776807,0.07628336927212533,-0.0860829816504596,-0.09571398893868402,-0.003991787890628092,-0.057300915785901456,-0.1303368093292665,-0.23001462839073455,0.17707073924967381
2086,9.013349300003028,0.03994286863248615,0.0050710340079181526,-0.04148059127678493,0.08674653128519037,0.07626401821638426,-0.086328491124951,-0.09626999245903417,-0.004983843530598931,-0.05653470914160829,-0.12756295142446566,-0.2299920309882734,0.1781558593172638
2087,9.016770500005803,0.04017904311582106,0.0054496078267976256,-0.04201067499240384,0.08633010017709883,0.07624038856938296,-0.08657068531753605,-0.09681402237420786,-0.005975746093357982,-0.05576386613012468,-0.12478499625162365,-0.2299433110480746,0.17921967527358737
2088,9.02151109999977,0.04039046555922326,0.0058276408818566435,-0.042632741482280405,0.08591134916781717,0.07621248123318995,-0.0868095444252555,-0.09734606222295805,-0.00696738291465296,-0.05498847903231689,-0.12200344531180878,-0.2298684564061429,0.1802620429269861
2089,9.025071700001718,0.04065511692129724,0.006226426542983906,-0.04320419924355358,0.08549033000751481,0.07618029759562805,-0.08704504904463341,-0.09786609770329462,-0.007958641285496709,-0.054208640744018634,-0.1192187987722894,-0.22976745874970664,0.1812828220087012
2090,9.029393699995126,0.04092081106143122,0.00665636704108307,-0.043728255350494176,0.08506709450290025,0.07614383953042865,-0.08727718017429174,-0.0983741166664049,-0.008949408468749403,-0.053424444758986465,-0.1164315553501896,-0.22964031362391443,0.18228187620017042
2091,9.0336427000002,0.041083660126173226,0.007075012392267985,-0.04433651707771899,0.08464169450794326,0.0761031093973147,-0.08750591921749201,-0.09887010911007632,-0.009939571715728504,-0.05263598515173807,-0.11364221219708094,-0.229487020437889,0.18325907315932888
2092,9.037531499998297,0.04128947287341187,0.007478842156124485,-0.0448974362961527,0.08421418191462782,0.07605811004201232,-0.08773124798460277,-0.09935406717162469,-0.010929018282843712,-0.05184335656027766,-0.11085126478454109,-0.2293075824701342,0.18421428454590422
2093,9.041919099996448,0.041495514040950435,0.007817511905556258,-0.04547413596540518,0.08378460864373763,0.07600884479619077,-0.08795314869549287,-0.09982598512033221,-0.011917635448254218,-0.05104665416871298,-0.10805920679070916,-0.22910200687329071,0.1851473860456977
2094,9.045876999996835,0.04164534588973347,0.008240593284982802,-0.04613911588141087,0.08335302663567605,0.07595531747733107,-0.08817160398184962,-0.10028585934939938,-0.012905310528545481,-0.05024597368976824,-0.10526652998786785,-0.22887030467823793,0.18605825739384235
2095,9.05001340000308,0.04188613974493734,0.008566394043746888,-0.04670759777410484,0.08291948784132236,0.0758975323885233,-0.08838659688942124,-0.1007336883674152,-0.013891930895422835,-0.04944141134719739,-0.10247372413108222,-0.2286124907975392,0.18694678239703014
2096,9.054216999997152,0.04188613974493734,0.008566394043746888,-0.04670759777410484,0.08248404421292656,0.07583549431819231,-0.08859811088018302,-0.10116947278935005,-0.014877383992419108,-0.04863306385810222,-0.0996812768479238,-0.22832858402822695,0.1878128489547017
2097,9.058527300003334,0.042142133929410845,0.008816479820989952,-0.04721931431655034,0.08204674769504491,0.07576920853975178,-0.08880612983442704,-0.10159321532707602,-0.015861557351613514,-0.04782102841515996,-0.09688967352930918,-0.2280186070539252,0.18865634907919188
2098,9.062636000002383,0.04254630525585379,0.009775986775075558,-0.048412517898040436,0.081607650215518,0.07569868081118636,-0.08901063805277483,-0.1020049207794191,-0.01684433861035904,-0.047005402668765094,-0.09409939722148,-0.22768258644630665,0.1894771789148241
2099,9.066724000003887,0.04276941695852916,0.010170826750087838,-0.049133467894410254,0.08116680367649302,0.07562391737456194,-0.08921162025811195,-0.10240459602174891,-0.017825615528015523,-0.0461862847090899,-0.09131092851915176,-0.22732055266588316,0.19027523875594843
2100,9.07079139999405,0.04296096119002727,0.010556057052532366,-0.049686974902944055,0.08072425994549252,0.07554492495546412,-0.08940906159744445,-0.10279224999511123,-0.018805276002685646,-0.0453637730480682,-0.08852474545985807,-0.22693254006212826,0.19105043306391653
2101,9.075016000002506,0.04315200745902844,0.010993881258925005,-0.05028404563453328,0.08028007084653137,0.07546171076236537,-0.08960294764367714,-0.10316789369490853,-0.01978320808795109,-0.04453796660130703,-0.0857413234195172,-0.2265185868729283,0.191802670482989
2102,9.078670600007172,0.04315200745902844,0.010993881258925005,-0.05028404563453328,0.07983428815128411,0.07537428248592044,-0.08979326439731379,-0.10353154015913363,-0.020759300009605953,-0.04370896466993106,-0.08296113500924615,-0.22607873522336097,0.19253186385516968
2103,9.08333219999622,0.043489174236991925,0.011338282919288616,-0.05069331447209693,0.07938696357030442,0.0752826482981906,-0.08997999828807907,-0.10388320445616195,-0.021733440182384607,-0.04287686692236463,-0.08018464997344667,-0.22561303112379866,0.19323793023396268
2104,9.088231899993843,0.04389096086989998,0.012320150187616907,-0.052016481555816556,0.07893814874429836,0.07518681685179636,-0.09016313617646202,-0.10422290367210835,-0.022705517226681043,-0.04204177337605614,-0.07741233508918757,-0.22512152446733436,0.19392079089704822
2105,9.092582900004343,0.044095034663762175,0.012745614405266007,-0.05260600025886797,0.07848789523545359,0.07508679727899921,-0.0903426653551812,-0.10455065689775445,-0.02367541998525688,-0.04120378437914956,-0.0746446540669066,-0.22460426902652955,0.19458037135787515
2106,9.09631769999396,0.0443056734763109,0.013147421622083136,-0.053214899773001784,0.07803625451882629,0.07498259919071261,-0.09051857355057111,-0.10486648521505176,-0.024643037539935214,-0.040363000592107796,-0.07188206745245458,-0.22406132244948215,0.19521660137616675
2107,9.100038100004896,0.04453403526870006,0.013587859399053595,-0.053742017045899045,0.07758327797378776,0.07487423267544259,-0.09069084892388962,-0.10517041168320607,-0.025608259228277426,-0.03951952296929269,-0.06912503253050459,-0.22349274625521243,0.19582941496733725
2108,9.10422639999888,0.04475829026768433,0.014061814674507364,-0.05425841741463102,0.07712901687553249,0.07476170829815793,-0.09085948007254666,-0.10546246132434905,-0.0265709746602401,-0.038673452740506285,-0.06637400322934736,-0.22289860582836613,0.1964187504108162
2109,9.10832980000123,0.04494688752089142,0.014485730099740723,-0.054834797645791473,0.07667352238664915,0.07464503709908982,-0.09102445603125398,-0.1057426611088037,-0.027531073734809234,-0.03782489139249839,-0.0636294300270945,-0.22227897041323172,0.1969845502572792
2110,9.11243249999825,0.04511039215655205,0.014930666379299518,-0.055399261417144116,0.07621684554875643,0.07452423059246127,-0.09118576627309624,-0.10601103993994926,-0.028488446656608764,-0.03697394065044528,-0.06089175985930953,-0.22163391310707128,0.19752676133478272
2111,9.116053100005956,0.04511039215655205,0.014930666379299518,-0.055399261417144116,0.07575903727420519,0.07439930076514593,-0.09134340071052366,-0.10626762863869199,-0.029442983952480423,-0.03612070245940475,-0.058161436028087064,-0.22096351085276306,0.19804533475380215
2112,9.120355199993355,0.045249038684526614,0.015204196625294488,-0.055864595819642635,0.07530014833784857,0.07427026007525626,-0.09149734969626537,-0.10651245992754838,-0.030394576488031972,-0.03526527896575235,-0.05543889811259884,-0.22026784443075428,0.19854022591117296
2113,9.125119799995446,0.045635735644236515,0.0161568283930205,-0.05700636132786486,0.07484022936888218,0.0741371214506609,-0.0916476040241634,-0.1067455684143469,-0.03134311548415097,-0.0344077724986035,-0.05272458188112541,-0.21954699845032363,0.1990113944929343
2114,9.129794000007678,0.045877574748261374,0.016559464041453444,-0.057576713932788945,0.07437933084275603,0.07399989828743116,-0.0917941549299268,-0.10696699057555498,-0.03228849253348118,-0.03354828555122621,-0.050018919204590916,-0.2188010613401511,0.19945880447607497
2115,9.133383499996851,0.045877574748261374,0.016559464041453444,-0.057576713932788945,0.0739175030731599,0.07385860444821708,-0.09193699409180618,-0.10717676473923732,-0.03323059961685879,-0.03268692076244913,-0.047322337971618056,-0.21803012533819502,0.19988242412918256
2116,9.137545699995826,0.04600891675228084,0.016912234252480087,-0.05804373260493455,0.07345479620408396,0.07371325426055325,-0.09207611363118844,-0.10737493106765268,-0.03416932911970532,-0.031823780898070114,-0.044635262005119566,-0.21723428648087598,0.20028222601199633
2117,9.14564230000542,0.0464784589399216,0.018176664539678006,-0.05981779881331354,0.07299126020195591,0.07356386251509427,-0.09221150611311203,-0.10756153153949556,-0.035104573848374135,-0.030958968832269833,-0.04195811098044201,-0.21641364459156778,0.20065818697386448
2118,9.150585900002625,0.04664758157332427,0.01856040040042341,-0.060421397644307845,0.07252694484785652,0.07341044446378017,-0.09234316454670298,-0.10773660993179009,-0.03603622704644777,-0.030092587529035444,-0.03929130034507688,-0.21556830326839566,0.20101028815110678
2119,9.155430600003456,0.046841041610728044,0.018931995895954512,-0.06091088651793719,0.07206189972981455,0.07325301581793194,-0.09247108238553145,-0.10790021180144295,-0.03696418241098299,-0.02922474002359882,-0.03663524123995338,-0.21469836987134133,0.20133851496328461
2120,9.160428100003628,0.04709388366834257,0.019357302654434545,-0.06147945103974891,0.07159617423518282,0.07309159274627725,-0.09259525352788905,-0.10805238446646233,-0.03788833410870058,-0.028355529403894176,-0.03399034042232705,-0.2138039555086552,0.20164285710838012
2121,9.164649300000749,0.04728635031233836,0.01969626018081579,-0.06198088226788241,0.07112981754309654,0.07292619187290693,-0.09271567231698677,-0.1081931769868495,-0.03880857679211715,-0.027485058792039826,-0.031357000190277214,-0.21288517502257523,0.20192330855688792
2122,9.16823110000405,0.04728635031233836,0.01969626018081579,-0.06198088226788241,0.07066287861701574,0.07275683027516262,-0.09283233354107345,-0.1083226401451702,-0.03972480561561589,-0.02661343132584876,-0.028735618308826007,-0.21194214697435335,0.2021798675448237
2123,9.17202250000264,0.04728635031233836,0.01969626018081579,-0.06198088226788241,0.07019540619735302,0.0725835254814558,-0.09294523243347505,-0.10844082642681309,-0.040636916251453305,-0.025740750140372696,-0.026126587937690703,-0.2109749936285895,0.2024125365656534
2124,9.175293099993723,0.047404024323754144,0.020020887844367098,-0.06246306982533116,0.06972744879418805,0.07240629546901815,-0.09305436467255451,-0.10854778999994337,-0.041544804905698805,-0.024867118349484463,-0.023530297560680397,-0.20998384093687514,0.20262132236114722
2125,9.179579599993303,0.04805108075335189,0.0212327341355096,-0.06418602130672013,0.06925905468007007,0.0722251586615832,-0.09315972638159223,-0.10864358669515806,-0.04244836833410405,-0.023992639027503336,-0.020947130916747478,-0.20896881852074617,0.20280623591116287
2126,9.18532370000321,0.04820655529207204,0.021529525670969694,-0.06470260336175508,0.0687902718829095,0.07204013392699958,-0.0932613141285874,-0.10872827398485013,-0.04334750385789905,-0.023117415190867914,-0.01837746693270377,-0.20793005965394576,0.2029672924223616
2127,9.189843100000871,0.04840183386156694,0.021879117229876635,-0.06523576696744002,0.06832114817895923,0.07185124057477613,-0.09335912492598085,-0.10880191096228886,-0.04424210937951202,-0.022241549779861362,-0.015821679657610544,-0.2068677012439981,0.2031045113158626
2128,9.194180599995889,0.04860190484391345,0.02224309310091952,-0.06581126402551418,0.06785173108588659,0.07165849835355859,-0.09345315623029889,-0.10886455832042345,-0.04513208339820986,-0.021365145640393685,-0.013280138198851028,-0.20578188381309487,0.2032179162138425
2129,9.197992500005055,0.04876563223445824,0.02255098496247024,-0.06632515556733518,0.06738206785593656,0.07146192744853827,-0.09354340594171855,-0.10891627833041671,-0.04601732502565644,-0.02048830550584566,-0.010753206659893422,-0.20467275147829633,0.2033075349250859
2130,9.201828200006275,0.0489252237976103,0.022840506238591976,-0.06681841127663359,0.06691220546918786,0.07126154847879318,-0.09362987240355448,-0.1089571348199159,-0.04689773400138567,-0.019611131978979016,-0.008241244079751787,-0.2035404519310487,0.20337339942949312
2131,9.205493700006627,0.0489252237976103,0.022840506238591976,-0.06681841127663359,0.06644219062690285,0.07105738249456164,-0.0937125544016678,-0.10898719315106895,-0.0477732107081864,-0.018733727513917386,-0.005744604374151479,-0.20238513641602093,0.20341554586155042
2132,9.210710300001663,0.04904291268396199,0.023136198751200474,-0.06728139458330146,0.06597206974497273,0.07084945097444917,-0.09379145116379668,-0.10900652019829384,-0.04864365618739637,-0.01785619439820261,-0.0032636362784052163,-0.20120695970926308,0.20343401449276993
2133,9.214369900000747,0.04904291268396199,0.023136198751200474,-0.06728139458330146,0.06550188894745898,0.07063777582256922,-0.09386656235880923,-0.1090151843258082,-0.04950897215410203,-0.016978634734930866,-0.000798683292005219,-0.20000608009568716,0.20342884971310626
2134,9.220121699996524,0.04965439994237232,0.024352885269774006,-0.0693877713918574,0.06503169406023174,0.07042237936561845,-0.09393788809587934,-0.10901325536492688,-0.05036906101224126,-0.016101150424973124,0.0016499163750636923,-0.198782659345873,0.2034001000113586
2135,9.223815899997136,0.04965439994237232,0.024352885269774006,-0.0693877713918574,0.06456153060470668,0.07020328434988644,-0.09400542892358575,-0.10900080459113518,-0.051223825869606145,-0.015223843149284223,0.004081829854285852,-0.19753686269220105,0.20334781795456747
2136,9.22722359999898,0.04965439994237232,0.024352885269774006,-0.0693877713918574,0.06409144379168134,0.06998051393820046,-0.0940691858289347,-0.10897790470094487,-0.05207317055274275,-0.014346814351304972,0.006496729668847758,-0.1962688588043147,0.20327206016641525
2137,9.231197999994038,0.04972871870844073,0.024519826085789394,-0.06981816114435682,0.06362147851527172,0.06975409170680558,-0.09412916023630671,-0.10894462978854035,-0.052916999621745106,-0.013470165219461552,0.00889429378213937,-0.19497881976391387,0.20317288730464056
2138,9.235062699997798,0.04972871870844073,0.024519826085789394,-0.06981816114435682,0.06315167934694994,0.0695240416421813,-0.0941853540063281,-0.10890105532222208,-0.053755218384940434,-0.012593996669766456,0.011274205644521295,-0.19366692103888308,0.2030503640374764
2139,9.23873120000644,0.04992635232460322,0.0251035696364545,-0.07082652295106778,0.0626820905296834,0.06929038813779478,-0.09423776943466752,-0.10884725812065471,-0.05458773291346265,-0.011718409328525158,0.013636154238356086,-0.19233334145675687,0.20290455901912108
2140,9.242159800007355,0.05005095234439936,0.025557199812334654,-0.07200087967040754,0.06221275597217639,0.06905315599079125,-0.0942864092507581,-0.10878331632892721,-0.05541445005571111,-0.010843503515152718,0.01597983412130245,-0.190978263177527,0.20273554486425133
2141,9.245748700006516,0.05009920723710056,0.02575597032891281,-0.07256396384064465,0.06174371924321508,0.06881237039862192,-0.09433127661644528,-0.1087093093944328,-0.0562352774516916,-0.009969379225104434,0.01830494546787179,-0.18960187166579423,0.2025433981215885
2142,9.24925730000541,0.05009920723710056,0.02575597032891281,-0.07256396384064465,0.06127502356611674,0.0685680569556097,-0.09437237512456108,-0.10862531804257605,-0.057050123547237035,-0.009096136112924666,0.020611194109247083,-0.18820435566226812,0.20232819924652784
2143,9.252663799998118,0.05009920723710056,0.02575597032891281,-0.07256396384064465,0.06080671181328395,0.06832024164945324,-0.09440970879742556,-0.1085314242523146,-0.057858897608105135,-0.008223873475417878,0.022898291571364585,-0.1867859071546179,0.20209003257284153
2144,9.25609500000428,0.05009920723710056,0.02575597032891281,-0.07256396384064465,0.06033882650086491,0.06806895085767022,-0.0944432820852759,-0.10842771123154278,-0.05866150973394996,-0.007352690234945924,0.025165955111259485,-0.18534672134767796,0.20182898628346785
2145,9.259392399995704,0.05009920723710056,0.02575597032891281,-0.07256396384064465,0.05987140978352067,0.06781421134398034,-0.0944730998646236,-0.10831426339232463,-0.05945787087216454,-0.006482684922855475,0.027413907751677208,-0.18388699663301097,0.20154515238039772
2146,9.262849499995356,0.05009920723710056,0.02575597032891281,-0.07256396384064465,0.05940450344929947,0.06755605025462857,-0.09449916743654005,-0.10819116632598302,-0.06024789283159189,-0.005613955663039545,0.029641878313952676,-0.18240693455783255,0.20123862665367057
2147,9.266631399994369,0.05018482849224909,0.025911567022692417,-0.07293293280336595,0.05893814891461883,0.06729449511464908,-0.09452149052487052,-0.10805850677805241,-0.06103148829610147,-0.004746600155636945,0.03184960144916028,-0.18090673979330138,0.2009095086494924
2148,9.271273999998812,0.05043336038126619,0.027105229733093896,-0.07558656128662404,0.05847238721935601,0.06702957382407027,-0.09454007527437726,-0.10791637262310241,-0.06180857083802825,-0.0038807156608734396,0.034036817667537925,-0.17938662010217912,0.20055790163748802
2149,9.276827299996512,0.05043336038126619,0.027105229733093896,-0.07558656128662404,0.058007259022047515,0.06676131465406145,-0.09455492824881183,-0.10776485283944007,-0.06257905493147159,-0.0030163989830483107,0.0362032733661892,-0.17784678630586387,0.20018391257710072
2150,9.280873800002157,0.050499764168760224,0.027312502005407486,-0.07617304066963124,0.057542804595198,0.06648974624302191,-0.0945660564289173,-0.10760403748369778,-0.06334285596545111,-0.002153746454670037,0.038348720855067804,-0.17628745225080175,0.19978765208315163
2151,9.28782990000036,0.05067336851268759,0.028042441512926237,-0.07781891921427475,0.0570790638206993,0.06621489759261319,-0.09457346721036099,-0.1074340176653145,-0.06409989025691648,-0.0012928539207447002,0.04047291838124911,-0.17470883477428178,0.19936923439057266
2152,9.291829299996609,0.050746190988054725,0.028339815905697188,-0.0783257821068036,0.056616076185359694,0.0659367980637352,-0.09457716840159867,-0.10725488552091748,-0.06485007506360843,-0.0004338167232206717,0.04257563015149403,-0.17311115366961993,0.1989287773183262
2153,9.297412600004463,0.05077569146998668,0.028575422348602417,-0.07880302490700315,0.05615388077654358,0.06565547737244637,-0.09457716822167067,-0.10706673418861183,-0.06559332859676825,0.0004232703144069232,0.04465662635311117,-0.17149463165073775,0.1984664022325252
2154,9.300991600000998,0.05083402980318453,0.028739841303944462,-0.07934447914250393,0.05569251627792189,0.06537096558582828,-0.0945734752979306,-0.1068696577821854,-0.06632957003369336,0.0012783129023285378,0.046715683173123884,-0.16985949431614145,0.19798223400876705
2155,9.305120200006058,0.05082269408477494,0.029013765864801935,-0.0798968138878945,0.055232020965333514,0.06508329311779625,-0.09456609866370766,-0.10666375136523612,-0.06705871953013672,0.002131217299485965,0.04875258281574882,-0.16820597011230784,0.1974764009936953
2156,9.309471700005815,0.05080972699236264,0.029235593107007903,-0.0804016247227588,0.05477243270275829,0.06479249072485624,-0.09455504775590323,-0.10644911092522859,-0.06778069823254718,0.0029818903284682336,0.050767113518193345,-0.16653429029648334,0.19694903496580293
2157,9.312949600003776,0.05075653691505451,0.029495420918378232,-0.08080000831162569,0.05431378893840159,0.064498589501809,-0.09454033241252259,-0.10622583334748747,-0.0684954282901487,0.003830239390234412,0.05275906956477985,-0.16484468889890172,0.1964002710954926
2158,9.316570299997691,0.05075653691505451,0.029495420918378232,-0.08080000831162569,0.05385612670089085,0.06420162087740229,-0.09452196287014233,-0.10599401638913518,-0.06920283286685561,0.004676172478660153,0.054728251299405076,-0.16313740268442622,0.1958302479044085
2159,9.320311699993908,0.05075653691505451,0.029495420918378232,-0.08080000831162569,0.053399482595584434,0.06390161660993182,-0.09449994976131419,-0.1057537586529806,-0.06990283615302108,0.005519598194904864,0.05667446513634324,-0.1614126711136224,0.19523910722405582
2160,9.324909300004949,0.050702480622890275,0.02961166925696754,-0.08121243249542656,0.052943892800992744,0.06359860878279187,-0.09447430411190572,-0.10550515956136579,-0.07059536337701657,0.006360425761596465,0.05859752356940183,-0.15967073630326856,0.19462699415372312
2161,9.328485000005458,0.050702480622890275,0.02961166925696754,-0.08121243249542656,0.05248939306531191,0.06329262979997594,-0.09444503733837868,-0.1052483193299776,-0.07128034081663993,0.007198565036830774,0.06049724517943969,-0.15791184298631183,0.19399405701772324
2162,9.333493099999032,0.050523639010504856,0.03045775966137313,-0.0826822885582906,0.05203601870307029,0.06298371238152833,-0.09441216124500597,-0.10498333894163113,-0.07195769581034996,0.008033926527982604,0.06237345464025742,-0.15613623847127697,0.1933404473219687
2163,9.338102299996535,0.050320582315383014,0.031044060115505395,-0.0836050993561866,0.05158380459188784,0.0626718895589478,-0.09437568802102789,-0.10471032012003184,-0.07262735676832473,0.008866421405325765,0.06422598272287053,-0.1543441726011351,0.19266631970989773
2164,9.341700999997556,0.050320582315383014,0.031044060115505395,-0.0836050993561866,0.05113278516934846,0.06235719467054364,-0.09433563023774875,-0.10442936530352333,-0.07328925318334158,0.009695961515459216,0.06605466629817619,-0.15253589771163956,0.19197183191776684
2165,9.345806500001345,0.05017757627251603,0.03131886149765968,-0.08395507974734447,0.05068299442998539,0.06203966135674515,-0.09429200084557432,-0.10414057761882708,-0.07394331564147667,0.010522459394536656,0.06785934833802475,-0.15071166858913687,0.19125714472932634
2166,9.351802999997744,0.050082405128007386,0.031904601496087405,-0.08485132444438853,0.05023446592237965,0.06171932355536482,-0.09424481317099082,-0.10384406085478097,-0.0745894758326219,0.01134582828129697,0.06963987791470752,-0.14887174242785972,0.1905224219298949
2167,9.35595860000467,0.04996577887283971,0.03215087204861723,-0.08533879068552316,0.0497872327463714,0.06139621549681611,-0.09419408091348692,-0.1035399194360833,-0.07522766656081707,0.012165982129892996,0.07139611019887308,-0.14701637878670937,0.18976783025985022
2168,9.360234499996295,0.049955624355381104,0.0324337050375792,-0.08567073687269652,0.04934132755038431,0.061070371699286884,-0.09413981814241952,-0.10322825839704934,-0.07585782175439532,0.012982835622516137,0.07312790645588431,-0.14514583954553403,0.18899353936755214
2169,9.364316599996528,0.04990273076228497,0.03270997063695288,-0.08605381874198383,0.048896782528862676,0.060741826963868865,-0.09408203929382389,-0.10290918335538689,-0.07647987647593964,0.013796304181814469,0.07483513404062896,-0.14326038886091147,0.18819972176171482
2170,9.36868919999688,0.04991668432010951,0.03300323247580497,-0.08653768298133031,0.04845362941982125,0.06041061636964347,-0.09402075916716943,-0.1025828004859977,-0.07709376693204875,0.014606303983102044,0.07651766639079714,-0.14136029312144383,0.18738655276324473
2171,9.372811099994578,0.049913747140539574,0.03330719238377325,-0.08692578922606924,0.048011899502507796,0.06007677526872477,-0.09395599292206117,-0.10224921649481175,-0.07769943048290995,0.015412751966357186,0.07817538301863923,-0.13944582090257346,0.1865542104565624
2172,9.376973200007342,0.04992580597998861,0.033628217280485956,-0.08728684688900301,0.04757162359517808,0.05974033928126066,-0.09388775607488851,-0.10190853859266093,-0.07829680565167693,0.016215565848007617,0.07980816950121807,-0.13751724292092837,0.18570287564042606
2173,9.380949600003078,0.04992580597998861,0.033628217280485956,-0.08728684688900301,0.04713283205298329,0.05940134429039291,-0.09381606449542228,-0.10156087446919886,-0.07888583213365068,0.017014664132500436,0.08141591746917008,-0.13557483198820622,0.18483273177827456
2174,9.38453880000452,0.05001245896350044,0.033891788530112425,-0.0875281583502485,0.04669555476596957,0.059059826437177367,-0.09374093440336127,-0.10120633226687334,-0.079466450805261,0.01780996612365492,0.08299852459399001,-0.13361886296460618,0.1839439649481076
2175,9.387992300005862,0.05002397576844656,0.034647604143339866,-0.08840468122520627,0.04625982115718953,0.05871582211546527,-0.09366238236482975,-0.10084502055495803,-0.08003860373284698,0.018601391935796116,0.08455589457385368,-0.13164961271181805,0.1830367637919212
2176,9.391618099994956,0.05008999874751982,0.03494997182340756,-0.08882877324996816,0.04582566018092521,0.05836936796674652,-0.09358042528882692,-0.1004770483036498,-0.08060223418123405,0.019388862504667356,0.08608793711799355,-0.12966736004557763,0.18211131946471512
2177,9.395550200002615,0.05008999874751982,0.03494997182340756,-0.08882877324996816,0.04539310032102193,0.05802050087495571,-0.09349508042362956,-0.10010252485823816,-0.08115728662210647,0.020172299598119937,0.0875945679296426,-0.127672385687797,0.1811678255830911
2178,9.399871200002964,0.05014244446243574,0.03519410573429968,-0.0890988189379393,0.04496216958933264,0.05766925796124169,-0.0934063653531487,-0.09972155991335324,-0.0817037067421729,0.020951625826578318,0.08907570868756169,-0.12566497221828019,0.1802064781734593
2179,9.404077600003802,0.05017535703518725,0.03605572333048867,-0.08994131224353391,0.04453289552427246,0.057315676578702096,-0.09331429799324134,-0.09933426348729851,-0.08224144145112379,0.021726764653279173,0.09053128702616628,-0.12364540402603413,0.17922747561987093
2180,9.408235199996852,0.05020997529891631,0.03641527187958894,-0.09032039137825548,0.04410530518948309,0.05695979430708379,-0.0932188965879783,-0.0989407458964739,-0.08277043888937896,0.02249764040428277,0.09196123651426827,-0.12161396726018438,0.17823101861149415
2181,9.412335999993957,0.05031564981702183,0.036767039574148126,-0.09065119464466269,0.04367942517260674,0.056601648947450324,-0.0931201797058694,-0.09854111772989545,-0.08329064843562305,0.023264178278255263,0.09336549663244963,-0.11957094978050473,0.17721731008975153
2182,9.416710399993462,0.05035551435328609,0.03710426380867013,-0.09094480420352892,0.04325528158416901,0.05624127851681747,-0.09301816623604738,-0.09813548982381744,-0.08380202071412687,0.0240263043560204,0.09474401274908445,-0.11751664110757146,0.17618655519513676
2183,9.420855699994718,0.05035551435328609,0.03710426380867013,-0.09094480420352892,0.042832900056570346,0.055878721242757924,-0.09291287538441162,-0.09772397323646226,-0.08430450760185283,0.024783945609879263,0.09609673609502627,-0.11545133237255219,0.17513896121372924
2184,9.424882499995874,0.05038956377977435,0.03748021915180167,-0.09122598937034126,0.042412305743185746,0.05551401555797623,-0.09280432666973275,-0.09730667922286322,-0.08479806223534242,0.025537029912696813,0.09742362373697791,-0.11337531626664044,0.174074737523424
2185,9.430214099993464,0.05051852524805055,0.03822548756329978,-0.09196901365827595,0.04199352331757213,0.05514720009485461,-0.09269253991971912,-0.09688371920982577,-0.08528263901738452,0.026285486046754077,0.09872463854956116,-0.11128888699014651,0.17299409553989492
