,time,x,y,z,vx,vy,vz,ax,ay,az,jx,jy,jz
2454,11.551688199993803,-0.07633915695329177,-0.09431171861372446,-0.029179761538106818,-0.0082325895641475,-0.01613421509752346,0.009862234058124792,0.028003878565466996,0.05651908808368701,-0.021756294438445213,0.15548776493917743,0.1852745775378025,-0.1597457870053249
2455,11.555873299992529,-0.07637723545421476,-0.0943610786562241,-0.029200492788093814,-0.008097003376337416,-0.01586202033605413,0.009756464239383988,0.028747899784430847,0.05740440794946982,-0.022522717342372347,0.15592278732489617,0.1852694262341645,-0.16102198840004647
2456,11.561832599996706,-0.07638507122422822,-0.09442333192995792,-0.029232651125292348,-0.007957857050078513,-0.015585595102064578,0.00964701752389168,0.029493956920968227,0.05828964515462745,-0.023295204346688487,0.15634003592442086,0.1852409243333096,-0.16228438228094716
2457,11.569979299994884,-0.07635234294988105,-0.09452157598191993,-0.029265649515381433,-0.007815141066170268,-0.015304940073761247,0.00953386510007329,0.030241964650100834,0.05917468773816022,-0.024073688730657527,0.15673934255126887,0.18518891123118264,-0.1635326692184763
2458,11.57579689999693,-0.07636198964332169,-0.09474298224828077,-0.029303474929481224,-0.007668846314956948,-0.015020056466404603,0.009416978478550182,0.03099183684837613,0.060059422981106614,-0.024858102346566522,0.1571205409921615,0.18511322917591289,-0.16476655067181842
2459,11.583992200001376,-0.07625322265346647,-0.09487342513576806,-0.02932930921222073,-0.007518964100111792,-0.014730946035881369,0.009296329498935116,0.031743486603420794,0.06094373742033026,-0.025648375624141878,0.15748346705273356,0.18501372332277602,-0.16598572905003742
2460,11.588820499993744,-0.0762512783524647,-0.09492858093781324,-0.029358035269892245,-0.007365486142375121,-0.014437611082209643,0.009171890336606085,0.032496826223712694,0.06182751686256659,-0.02644443757525622,0.15782795860320617,0.18489024178903649,-0.16718990777341958
2461,11.59698909999861,-0.0762495363754176,-0.09507946752453177,-0.02939852701095981,-0.0072084045832453165,-0.0141400544529757,0.009043633509457139,0.0332517672485711,0.0627106463987289,-0.02724621579892686,0.15815385562401066,0.18474263570865507,-0.16837879133500408
2462,11.60576979999314,-0.0762495363754176,-0.09507946752453177,-0.02939852701095981,-0.007047711988621694,-0.013838279546701224,0.008911531884624803,0.03400822045836478,0.06359301041847269,-0.028053636486606724,0.15846100025135168,0.18457075928684724,-0.16955208536228966
2463,11.610512500003097,-0.07623180715951947,-0.09512521392240647,-0.02941645001974477,-0.006883401352398226,-0.013532290316139789,0.008775558685188718,0.03476609588493754,0.06447449262501752,-0.02886662442776845,0.1587492368226978,0.18437446985447722,-0.17070949667910643
2464,11.61930890000076,-0.07629218694123022,-0.09528445367996545,-0.02955080983808352,-0.006715466100007064,-0.013222091271501375,0.008635687496845148,0.03552530282225107,0.06535497605022582,-0.029685103015782355,0.15901841192218674,0.18415362792227238,-0.1718507333676426
2465,11.626713499994366,-0.07630297120431462,-0.09536104148669255,-0.02961286157612472,-0.00654390009191085,-0.012907687483603762,0.008491892274551981,0.03628574983724464,0.06623434306993779,-0.030508994254089067,0.15926837442593378,0.18390809723484336,-0.17297550483061444
2466,11.6319749999966,-0.07628891829586651,-0.09541157624785583,-0.029647150051708933,-0.006368697627042764,-0.01258908458694962,0.00834414734914376,0.03704734478091087,0.06711247541956128,-0.03133821876266744,0.15949897554722978,0.18363774482449483,-0.1740835218535687
2467,11.63618790000328,-0.0762824816709333,-0.09546324081771214,-0.029671117878181153,-0.006189853446193307,-0.012266288782728122,0.008192427433915406,0.037809994799587035,0.06798925420991543,-0.0321726957847985,0.15971006888161693,0.18334244106481115,-0.1751744966673058
2468,11.640527399998971,-0.07626576741461691,-0.09549592401209779,-0.02968464318600919,-0.006007362735342804,-0.011939306841739829,0.008036707631173187,0.038573606346461356,0.06886455994332727,-0.03301234319412584,0.1599015104518298,0.18302205972400182,-0.17624814301041275
2469,11.64580099999148,-0.07628810871812584,-0.09564085303203163,-0.02969464949316012,-0.005821221128938619,-0.011608146107243656,0.007876963438751569,0.039338085193293224,0.06973827252997959,-0.03385707750201278,0.1600731587525878,0.18267647801799033,-0.17730417619189315
2470,11.65326589999313,-0.0762779355415532,-0.09570725328364589,-0.029693021680842688,-0.005631424713116042,-0.011272814497724807,0.0077131707564945095,0.04010333644234683,0.07061027130450888,-0.03470681386519688,0.1602248747952254,0.18230557666323144,-0.17834231315388258
2471,11.65895699999237,-0.07629156944663774,-0.09580594455961582,-0.029703231452510675,-0.005437970028861879,-0.01093332050958248,0.007545305892699858,0.040869264538537085,0.07148043504285193,-0.035561466093742014,0.16035652215214655,0.18190923992924035,-0.17936227253443748
2472,11.662905999997747,-0.07628659866624785,-0.09584289191002365,-0.029704163110398217,-0.005240854075119768,-0.010589673219736234,0.007373345570525481,0.041635773281786664,0.07234864197934016,-0.036420946659288175,0.16046796700108917,0.18148735569081734,-0.1803637747303864
2473,11.667052799995872,-0.07633273194131035,-0.09586857713599803,-0.029709233024319756,-0.0050400743118362,-0.01024188228814989,0.007197266934355729,0.04240276583959313,0.07321476982404004,-0.03728516670359942,0.16055907816918652,0.1810398154799498,-0.1813465419602317
2474,11.671245999998064,-0.07635678463807652,-0.09590979198304345,-0.029695533104910105,-0.004835628662946252,-0.009889957960271884,0.0070170475561267915,0.0431701447598049,0.07407869578033778,-0.038154036047410037,0.16062972717681126,0.18056651453737535,-0.18231029832708937
2475,11.675343399998384,-0.07639906063259227,-0.0959242229131378,-0.029708920356158634,-0.004627515519298036,-0.009533911069390917,0.006832665441609468,0.043937811983604726,0.07494029656276623,-0.0390274631995692,0.16067978828118926,0.1800673518637893,-0.18325476988165468
2476,11.679770999995526,-0.07642538407377605,-0.09595700222976095,-0.029710006588431755,-0.004415733741514892,-0.009173753038905793,0.00664409903664793,0.04470566885869967,0.075799448415072,-0.039905355366484284,0.16070913851976912,0.1795422302706793,-0.1841796846851816
2477,11.68395469999814,-0.07643631626179008,-0.09595247844926977,-0.02969063625855685,-0.0042002826627943355,-0.008809495884508309,0.00645132723335306,0.045473616152716126,0.07665602712852045,-0.04078761846186286,0.16071765775333258,0.17899105643076943,-0.1850847728724626
2478,11.687949500003016,-0.07647049680046802,-0.09600744849916285,-0.029680587888775048,-0.003981162091642779,-0.008441152216278069,0.006254329376248986,0.046241554066798654,0.07750990806043623,-0.04167415711675339,0.16070522870883175,0.1784137409280569,-0.18596976671479612
2479,11.692108699993696,-0.07648396742853915,-0.09603374826508909,-0.029666242912694155,-0.0037583723145450687,-0.008068735240688107,0.0060530852683714,0.047009382249411376,0.0783609661529772,-0.04256487468988446,0.1606717370219397,0.1778101983074238,-0.18683440068292706
2480,11.696381899993868,-0.07649588832088777,-0.0960947888579329,-0.029653939208801737,-0.003531914098567895,-0.007692258762520226,0.005847575177316202,0.047776999810340455,0.07920907595213986,-0.0434596732783026,0.1606170712793,0.17718034712380637,-0.18767841150994694
2481,11.701560799992876,-0.07650408285188537,-0.09616797580826007,-0.0296403067934771,-0.0033017886938961445,-0.007311737186688994,0.005637779841237094,0.048544305334896246,0.08005411162699413,-0.044358453728308524,0.16054112306046084,0.17652410999090432,-0.18850153825413865
2482,11.710267000002204,-0.07650960191845223,-0.09631012043558466,-0.02959682159675335,-0.0030679978363012434,-0.006927185519973326,0.005423680474790686,0.04931119689831333,0.08089594698914568,-0.04526111564669134,0.16044378697948,0.17584141362941344,-0.18930352236175263
2483,11.71439389999432,-0.07649682076641809,-0.09635968267865269,-0.029594387102839445,-0.002830543749540559,-0.006538619372654666,0.00520525877502774,0.050077572080346716,0.08173445551242323,-0.04616755741226067,0.1603249607261866,0.17513218891476395,-0.19008410772970086
2484,11.717832800000906,-0.07647254121708037,-0.09641282771948184,-0.029577402094157854,-0.0025894291476869394,-0.006146054960060635,0.004982496927229124,0.05084332798006278,0.08256951035278878,-0.04707767618767644,0.1601845451070852,0.17439637092434698,-0.19084304076815461
2485,11.72535429999698,-0.07650142629156105,-0.09647943705771811,-0.02957476866590928,-0.002344657237387485,-0.005749509104013138,0.0047553776106850736,0.051608361230823345,0.08340098436846848,-0.047991367931575796,0.1600224440858878,0.17363389898421153,-0.19158007046303127
2486,11.730128800001694,-0.07651248947822613,-0.09650014829015217,-0.02956607410035162,-0.002096231720050653,-0.005348999234179923,0.0045238840044163255,0.05237256801546115,0.08422875014030128,-0.04890852741099661,0.15983856482365763,0.17284471671521384,-0.19229494843835548
2487,11.73606209999707,-0.07654602648551985,-0.09651027473767199,-0.0295816727208384,-0.0018441567939607834,-0.004944543389328594,0.004287999792835711,0.05313584408164487,0.08505267999230276,-0.04982904821409699,0.15963281771855095,0.1720287720786017,-0.19298742901848034
2488,11.73965479999606,-0.07656221017233351,-0.09649683102236213,-0.029606268901964387,-0.0015884371563191508,-0.004536160218482118,0.004047709171348798,0.05389808475743168,0.08587264601244111,-0.0507528227631698,0.1594051164451424,0.17118601742101494,-0.19365726929015342
2489,11.743389299997943,-0.07660263067996219,-0.09654061471475688,-0.029613686614591565,-0.0013290780052106377,-0.0041238689819748375,0.003802996851892167,0.05465918496700513,0.08668852007362257,-0.05167974232795159,0.15915537799331922,0.17031640951888377,-0.19430422916441334
2490,11.746869599999629,-0.07663450173930782,-0.09656478178281036,-0.02961792803230288,-0.001066085041495155,-0.003707689552408046,0.0035538480684079348,0.05541903924659629,0.08750017385488373,-0.05260969703922518,0.15888352270672976,0.1694199096222056,-0.19492807143830215
2491,11.751744299996062,-0.07664826892440364,-0.096591275336048,-0.029621468595423094,-0.0007994644706229271,-0.0032876424155041813,0.003300248582253118,0.056177541760586,0.08830747886278746,-0.0535425759027152,0.1585894743207725,0.16849648349768184,-0.19552856185637904
2492,11.760080099993502,-0.07666708299453898,-0.0966562166024993,-0.029634096333306742,-0.0005292230043727844,-0.0028637486708586878,0.003042184687542418,0.05693458631778602,0.08911030645301947,-0.05447826681327559,0.15827316000011016,0.1675461014711965,-0.19610546917202015
2493,11.765299299993783,-0.07667872204351135,-0.0967200330732485,-0.029637682360047414,-0.000255367862512608,-0.0024360300325886076,0.0027796432164230566,0.05769006638789673,0.08990852785218235,-0.05541665656936842,0.1579345103756925,0.16656873846961762,-0.19665856520849045
2494,11.76905099999567,-0.07665318683978647,-0.09678898633565747,-0.0296189897953473,2.2093225618912974e-05,-0.0020045088298769956,0.0025126115442802906,0.05844387511813882,0.09070201417978406,-0.05635763088783299,0.15757345958127267,0.1655643740619036,-0.1971876249197721
2495,11.774668300000483,-0.0766419562977621,-0.09693468348700987,-0.02960580680707653,0.000303152019610038,-0.001569208007412278,0.0022410775948721964,0.05919590535005636,0.09149063647041691,-0.05730107441894425,0.15718994528940222,0.1645329924994967,-0.19769242645113294
2496,11.77823319999152,-0.0766419562977621,-0.09693468348700987,-0.02960580680707653,0.0005877997665540623,-0.0011301511257216716,0.0019650298453923482,0.05994604963648879,0.09227426569612424,-0.05824687076175975,0.15678390874689063,0.16347458275598492,-0.19817275119941918
2497,11.781693400000222,-0.07665885350301399,-0.09700548270718387,-0.029607594881861064,0.0008760271997085426,-0.00068736236139781,0.001684457331459011,0.06069420025870928,0.09305277278895073,-0.05919490247975427,0.15635529480971466,0.16238913856601478,-0.19862838387305692
2498,11.785793200004264,-0.07664766713962734,-0.09702846229978962,-0.029615419480421682,0.0011678245372364559,-0.00024086650721773202,0.0013993496520294745,0.06144024924372645,0.09382602866367343,-0.06014505111674051,0.155904051977362,0.1612766584634362,-0.1990591125517471
2499,11.78964730000007,-0.07668511574029761,-0.09708946535318794,-0.029614942093147266,0.0014631814810300754,0.0002093110278465896,0.0011096969742381427,0.06218408838174662,0.09459390424070964,-0.06109719721307445,0.15543013242659434,0.16013714581866156,-0.19946472874583748
2500,11.794384900000296,-0.07673845557890523,-0.09710822805861691,-0.029635610001642457,0.0017620872156183345,0.0006631442187269917,0.0008154900381570072,0.06292560924379366,0.0953562704691986,-0.06205122032214358,0.15493349204461485,0.15897060887522152,-0.1998450274553557
2501,11.801331700000446,-0.0767032044317032,-0.09685916658829112,-0.029860272547651643,0.0020645304071584382,0.0011206064244679234,0.0005167201614771527,0.06366470319948377,0.0961129983502535,-0.06300699902713662,0.1544140904616255,0.15777706078549947,-0.20019980722868666
2502,11.80619590000424,-0.07678059771391815,-0.09690294416181681,-0.029883483536428244,0.0023704992025124663,0.0015816703885460817,0.00021337924410994236,0.06440126143495224,0.09686395896037991,-0.0639644109580932,0.15387189108276025,0.15655651964562622,-0.20052887022087812
2503,11.812861600003089,-0.07686535109282643,-0.0969861353266277,-0.029863798504244726,0.002679981228409705,0.0020463082393016325,-9.454022729346541e-05,0.06513517497092944,0.09760902347505712,-0.06492333280923117,0.15330686111937966,0.1553090085295169,-0.2008320222515581
2504,11.816784599999664,-0.07690567427294327,-0.09701434129297812,-0.029874751558243918,0.0029929635906954305,0.0025144914904817483,-0.0004070451749056046,0.06586633468096295,0.09834806319247857,-0.06588364035654971,0.1527189716197114,0.15403455552203169,-0.20110907286244853
2505,11.821039000002202,-0.07694400979714121,-0.09705512303433551,-0.02983960675202669,0.003309432873666859,0.002986191041897173,-0.0007241419253705277,0.06659463130978314,0.09908094955744778,-0.06684520847570617,0.15210819749882246,0.1527331937512427,-0.2013598353744588
2506,11.825271399997291,-0.07694368497640446,-0.09707352642808205,-0.029817427497906446,0.0036293751394969585,0.0034613771801925153,-0.001045836205537292,0.06731995549180841,0.09980755418542576,-0.06780791116016407,0.15147451756790856,0.1514049614197896,-0.20158412694434302
2507,11.829393799998796,-0.0769748987125198,-0.09713219238317349,-0.02979557923550333,0.003952775927746803,0.0039400195797309615,-0.0013721331382804223,0.06804219776978716,0.10052774888672553,-0.06877162153961065,0.15081791456288754,0.15004990183530645,-0.20178176862090313
2508,11.83693069999572,-0.07700492529794921,-0.09716761942299336,-0.029788796516236133,0.004279620254967148,0.004422087303594075,-0.0017030372384086538,0.06876124861357355,0.1012414056908493,-0.06973621189864143,0.1501383751722826,0.1486680634399029,-0.20195258540072158
2509,11.841906999994537,-0.07711542712524558,-0.09726380164561697,-0.029773155556269096,0.004609892614389855,0.004907548804697328,-0.0020385524086632503,0.06947699843903382,0.10194839687096369,-0.07070155369570928,0.14943589006438243,0.14725949983868222,-0.2020964062834063
2510,11.84630279999692,-0.07717993451278857,-0.0972542298769557,-0.029778937558458864,0.004943576975709791,0.0053963719270219935,-0.002378681935807192,0.07018933762707982,0.10264859496850794,-0.07166751758233567,0.14871045391366391,0.14582426982727786,-0.2022130643263318
2511,11.850353999994695,-0.07721849481517352,-0.0972411781403178,-0.029785218166596735,0.0052806567849577575,0.0058885239069640365,-0.0027234284868065104,0.07089815654282577,0.10334187281793064,-0.07263397342258213,0.1479620654264631,0.14436243741839141,-0.20230239669885822
2512,11.854629299996304,-0.07730246142445633,-0.097245682417151,-0.029806553363083316,0.005621114964465057,0.006383971374800578,-0.003072794105105041,0.07160334555486444,0.10402810357155035,-0.07360079031277936,0.14719072736588046,0.14287407186731427,-0.20236424473601036
2513,11.858703999998395,-0.07736146578010646,-0.09723499215904224,-0.029814765204381227,0.005964933912920272,0.006882680356274487,-0.0034267802069938486,0.07230479505465914,0.10470716072453498,-0.07456783660151181,0.14639644657590745,0.14135924769641567,-0.20239845399159911
2514,11.862911000003804,-0.07743854471798918,-0.0971990137292654,-0.02982347382296736,0.00631209550551882,0.007384616274297612,-0.00378538757807657,0.07300239547604785,0.1053789181399956,-0.07553497990985551,0.1455792340047607,0.13981804471858064,-0.20240487429076853
2515,11.867102499993052,-0.077554354272191,-0.09723130456920645,-0.02985996985651821,0.00666258109420585,0.007889743950773171,-0.004148616369831906,0.07369603731485587,0.10604325007418972,-0.07650208715186622,0.14473910472741144,0.13825054805958112,-0.20238335978195052
2516,11.871236199993293,-0.07761530916101579,-0.09722889944848932,-0.02987214066596742,0.007016371508013009,0.008398027608537808,-0.004516466096274488,0.07438561114861336,0.1067000312018298,-0.07746902455531512,0.14387607796729726,0.13665684817936377,-0.20233376898820932
2517,11.8753899000003,-0.07768758537478776,-0.09722349678681684,-0.029891953808101734,0.007373447053489551,0.008909430873423801,-0.004888935630715319,0.07507100765637408,0.10734913664149234,-0.07843565768266904,0.14299017711720313,0.1350370408922382,-0.2022559648579573
2518,11.87947109999368,-0.07773686216404767,-0.09724037892020576,-0.029886078294850096,0.007733787515228255,0.009423916776441934,-0.005266023202622991,0.07575211763863159,0.10799044198112169,-0.07940185145231202,0.1420814297592991,0.1333912273859498,-0.20214981481502442
2519,11.883898100000806,-0.07775743963026858,-0.09724890285960326,-0.029890589085725828,0.0080973721564866,0.009941447756085443,-0.005647726394586816,0.07642883203732906,0.10862382330362336,-0.0803674701600054,0.14114986768432028,0.13171951423962033,-0.20201519080806515
2520,11.888378000003286,-0.07778382371904727,-0.09726024737849617,-0.029909083587000333,0.008464179719903634,0.010461985660755466,-0.0060340421393830675,0.07710104195595777,0.10924915721254096,-0.08133237750058295,0.14019552690987624,0.1300220134405401,-0.2018519693592853
2521,11.892366400003084,-0.07782368025099658,-0.09730205785735181,-0.02990514202551603,0.008834188428312944,0.010985491751308384,-0.006424966717145457,0.07776863867974,0.1098663208578117,-0.08229643658987795,0.1392184476978778,0.12829884239979744,-0.2016600316124724
2522,11.89896679999947,-0.07780120695526403,-0.09728593674585975,-0.02990305050286144,0.00920737598565221,0.011511926703725394,-0.006820495752640987,0.07843151369589237,0.11047519196159507,-0.08325950998687873,0.13821867457107004,0.12655012396673035,-0.20143926338031312
2523,11.902677499994752,-0.07782229390165685,-0.09730782435650905,-0.029928558650307316,0.009583719577969765,0.012041250611904605,-0.007220624212652276,0.07908955871396514,0.111075648844169,-0.0842214597161093,0.13719625632865945,0.1247759864421837,-0.20118955519098025
2524,11.90623009999399,-0.07789236738262154,-0.09737740056718015,-0.029950046503509242,0.009963195874528503,0.01257342299057592,-0.007625346403467445,0.07974266568625368,0.11166757044988818,-0.08518214729023149,0.1361512460610228,0.12297656359055778,-0.20091080233397202
2525,11.9096647999977,-0.07786551457519507,-0.09723781618010005,-0.0301117455451552,0.010345781029007513,0.013108402778338992,-0.008034655968478686,0.08039072682827723,0.11225083637319866,-0.08614143373286452,0.13508370116348575,0.12115199465063392,-0.2006029049051867
2526,11.917114500000023,-0.0779443279967662,-0.09722668357080995,-0.03016332829407328,0.010731450680801741,0.013646148340824506,-0.008448545885890547,0.08103363463932133,0.11282532688470326,-0.08709917960161831,0.13399368334915923,0.1193024243451631,-0.20026576785121478
2527,11.92111529999238,-0.07806023140735245,-0.09740917735661492,-0.030073842741522753,0.011120179956419922,0.014186617473979085,-0.008867008466538895,0.08167128192303941,0.1133909229572716,-0.08805524501133673,0.13288125866082393,0.11742800288920283,-0.19989930101283168
2528,11.926298999998837,-0.07802889338123178,-0.09720486307923114,-0.030207841715621693,0.011511943470981065,0.014729767407473964,-0.009290035351821638,0.08230356180810973,0.11394750629218908,-0.08900948965754686,0.13174649748185138,0.11552888599718712,-0.19950341916767378
2529,11.929919100002737,-0.07810773364714187,-0.09721567304370486,-0.030246674336026392,0.011906715329809768,0.01527555480823761,-0.009717617511742183,0.08293036776894266,0.11449495934533817,-0.08996177284011071,0.13058947454615116,0.11360523488871575,-0.19907804207207896
2530,11.933745599992108,-0.07812909592859929,-0.09721847757511487,-0.03025729865405784,0.012304469130130577,0.015823935784112463,-0.01014974524306662,0.08355159364643422,0.11503316535340648,-0.09091195348707527,0.12941026894713303,0.11165721629304967,-0.19862309450207505
2531,11.93811000000278,-0.07815866122176368,-0.09723771942474993,-0.030285884141451495,0.012705177962861611,0.016374865887635825,-0.010586408167595552,0.08416713366876073,0.11556200836011501,-0.09185989017871696,0.12820896414567357,0.1096850024522987,-0.19813850629349866
2532,11.942194399991422,-0.07816797084116237,-0.09726000427162657,-0.030309929269604536,0.013108814414507597,0.016928300119944988,-0.01102759523055149,0.08477688247221025,0.11608137324246008,-0.09280544117177573,0.12698564797707657,0.10768877112328797,-0.1976242123812274
2533,11.946285300000454,-0.07820820401796559,-0.09730643078413084,-0.030327894505513934,0.013515350569152491,0.017484192934806627,-0.011473294699082709,0.08538073512204576,0.116591145736963,-0.09374846442387474,0.12574041265701769,0.1056687055780902,-0.19708015283750874
2534,11.95049590000417,-0.07821280019392521,-0.0973285142827161,-0.0303875450033521,0.013924758010551899,0.018042498242770492,-0.011923494160884441,0.08597858713339566,0.11709121246592154,-0.09468881761812105,0.12447335478646326,0.10362499460321174,-0.1965062729093694
2535,11.954549300004146,-0.07822890434020098,-0.09739468369727944,-0.030420128945651277,0.01433700782432537,0.01860316941544749,-0.01237818052293828,0.08657033449216692,0.11758146096365694,-0.09562635818788326,0.12318457535555344,0.10155783249742033,-0.1959025230550882
2536,11.958958000002896,-0.07827996925334814,-0.09747283809929158,-0.030463400211607282,0.014752070600248725,0.01916615928991218,-0.012837340010370584,0.0871558736759756,0.11806177970275045,-0.09656094334174126,0.12187417974644031,0.09946741906820285,-0.1952688589797157
2537,11.963431099997251,-0.0782583053134356,-0.09745963161661655,-0.03048220970448411,0.015169916434646461,0.019731420173229566,-0.013300958165430728,0.0877351016750899,0.11853205812026271,-0.0974924300886035,0.12054227773507223,0.09735395962684192,-0.19460524166962329
2538,11.967325100005835,-0.07829267206675154,-0.09747679515630744,-0.03051737580857879,0.015590514932884374,0.020298903847106205,-0.01376901984658999,0.08830791601338052,0.11899218664392967,-0.09842067526298742,0.11918898349191627,0.09521766498210069,-0.1939116374260661
2539,11.971484699999564,-0.07832027523964784,-0.09747268675173322,-0.030548988550652918,0.01601383521196244,0.020868561572665416,-0.01424150922776183,0.08887421476927387,0.11944205671832804,-0.09934553555045815,0.11781441558161097,0.09305875143250522,-0.19318801789774281
2540,11.975821700005326,-0.07837527160870382,-0.09744056081735099,-0.030604878613598802,0.01643984590320796,0.021440344095346543,-0.014718409797644365,0.08943389659670341,0.1198815608310042,-0.10026686751322125,0.1164186969615414,0.09087744075721411,-0.1924343601123365
2541,11.98173919999681,-0.07840969916404646,-0.09741033378933327,-0.030639896838835952,0.016868515155069052,0.022014201649928008,-0.015199704359185745,0.08998686074605393,0.12031059253855915,-0.10118452761586473,0.11500195497932868,0.08867396020546593,-0.19165064650701974
2542,11.986190800002078,-0.07843984910964098,-0.09735668088750822,-0.030676899212384177,0.01729981063600845,0.02259008396567387,-0.015685375029173144,0.09053300708509324,0.12072904649268307,-0.1020983722512453,0.11356432136922674,0.08644854248459487,-0.19083686495790775
2543,11.99053680000361,-0.07849169879855962,-0.09730785327428038,-0.03072237864401942,0.01773369953749755,0.023167940271603796,-0.01617540323794603,0.09107223611988616,0.12113681846613275,-0.10300825776651355,0.11210593224741969,0.0842014257466059,-0.1899930088084441
2544,11.994868099995074,-0.07853500697277396,-0.09725660350361542,-0.030755590058861873,0.018170148577110537,0.023747719301886152,-0.01666976972923436,0.09160444901568562,0.121533805378645,-0.10391404048927287,0.11062692810621332,0.08193285357330048,-0.18911907689670382
2545,11.999565899997831,-0.07857459393872812,-0.09722439780284226,-0.030796934596605978,0.018609124001718592,0.02432936930135387,-0.01716845456012249,0.09212954761779536,0.12191990532277912,-0.10481557675386631,0.10912745380711451,0.07964307495994438,-0.1882150735815979
2546,12.003980900000895,-0.07864018413411031,-0.09715079535108892,-0.030865544078555886,0.019050591590783934,0.024912838031142737,-0.017671437101139328,0.09264743447239884,0.12229501758968161,-0.10571272292778632,0.10760765857279253,0.07733234429747017,-0.18728100876796416
2547,12.007555899996078,-0.07864018413411031,-0.09715079535108892,-0.030865544078555886,0.019494516659753557,0.025498072774451836,-0.018178696036475407,0.09315801284734895,0.12265904269476559,-0.1066053354382025,0.10606769597791631,0.07500092135320725,-0.18631689793052925
2548,12.012579799993546,-0.07868329748286194,-0.09717205512799104,-0.03090958236718213,0.019940864063552437,0.026085020342425925,-0.01869020936432725,0.09366118675291343,0.12301188240329791,-0.10749327079860173,0.10450772393886164,0.07264907125013283,-0.18532276213672783
2549,12.016852200002177,-0.07869640405216911,-0.0971965345712723,-0.03092157782726198,0.020389598200175954,0.026673627080159516,-0.019205954397369582,0.09415686096247049,0.12335343975588763,-0.108376385635535,0.10292790470228327,0.07027706444463766,-0.1842986280683651
2550,12.021459399999005,-0.07871669868149704,-0.09720751501032378,-0.030959086839221855,0.02084068301438124,0.02726383887282213,-0.01972590776335594,0.09464494103314934,0.12368361909386885,-0.10925453671546607,0.10132840483254697,0.06788517670280045,-0.18324452804210778
2551,12.029700600003707,-0.0787696231098909,-0.09723216279182782,-0.030934978194860536,0.02129408200147718,0.027855601151904223,-0.020250045405848214,0.09512533332640999,0.12400232608457125,-0.11012758097171621,0.09970939519801697,0.06547368907516495,-0.18216050002878853
2552,12.034227399999509,-0.07881325219860338,-0.09721950132195736,-0.030950111922648682,0.021749758211212826,0.0284488589015832,-0.020778342585075583,0.09559794502855647,0.1243094677464708,-0.11099537553149916,0.0980710509561952,0.06304288787001502,-0.18104658767151002
2553,12.038659400001052,-0.07884956860016208,-0.09718909523175068,-0.03095886557181154,0.022207674251763877,0.029043556665208907,-0.021310773878923255,0.09606268417117844,0.12460495247421438,-0.11185777774304051,0.09641355153770848,0.0605930646251429,-0.17990284030253437
2554,12.04382180000539,-0.07889816670908753,-0.09718153976611514,-0.03096156010254017,0.022667792293816734,0.02963963855190799,-0.021847313184051493,0.09651945965151625,0.12488869006351067,-0.1127146452027761,0.09473708062914006,0.058124516078105974,-0.17872931295894487
2555,12.047894399991492,-0.07895969151960552,-0.09714887564057023,-0.030972417481523132,0.023130074074749717,0.030237048243306686,-0.02238793371714539,0.09696818125274399,0.1251605917358803,-0.11356583578262343,0.09304182615470272,0.05563754413496907,-0.17752606639706614
2556,12.051347899992834,-0.07898426088978047,-0.09712124715439013,-0.030965072418805698,0.023594480902910997,0.030835729000371462,-0.022932608016295652,0.09740875966416582,0.12542057016325814,-0.1144112076573207,0.0913279802567507,0.05313245583752916,-0.17629316710562987
2557,12.055268099997193,-0.07904022871606274,-0.09709085579103087,-0.030971126295705476,0.024060973661992828,0.031435623670366834,-0.023481307942510642,0.09784110650131955,0.1256685394924399,-0.1152506193318277,0.0895957392751288,0.05060956332902008,-0.17503068731767354
2558,12.059513899992451,-0.07907892441767089,-0.09708832691388167,-0.03097627282133368,0.024529512815501683,0.032036674693929554,-0.02403400468135993,0.09826513432598152,0.12590441536936536,-0.11608392966878231,0.08784530372535736,0.04806918381829472,-0.17373870502115996
2559,12.063971499999752,-0.07910928604215521,-0.09706474176912477,-0.03098647348642166,0.025000058411323783,0.032638824112258664,-0.02459066874474958,0.09868075666606713,0.12612811496323212,-0.11691099791600713,0.08607687827565155,0.04551163954248329,-0.17241730396830607
2560,12.067774399998598,-0.0791344587815495,-0.09707480355394908,-0.030961864828162898,0.025472570086385433,0.03324201357442058,-0.025151269972829418,0.0990878880354211,0.12633955699043176,-0.11773168373405991,0.0842906717227744,0.042937257728126565,-0.1710665736836093
2561,12.07212339999387,-0.07914693873104092,-0.09708021360426587,-0.030976201990902882,0.02594700707140771,0.03384618434476838,-0.025715777536032547,0.09948644395349165,0.1265386617383017,-0.11854584722382179,0.08248689696672268,0.04034637055078341,-0.16968660947056013
2562,12.075737199993457,-0.07915815342848238,-0.09711739416706566,-0.030968205472252458,0.026423328195754995,0.0344512773104742,-0.02628415993724727,0.09987634096488332,0.12672535108868566,-0.11935334895411727,0.08066577098424568,0.03773931509311226,-0.16827751241703015
2563,12.079705199997989,-0.07913673848969809,-0.09715817618029561,-0.03093277030890146,0.02690149189237673,0.035057232989173535,-0.02685638501412155,0.10025749665878249,0.12689954854129532,-0.12015404998935887,0.07882751480119692,0.035116433301427066,-0.16683938939932466
2564,12.084514599991962,-0.0791587966970849,-0.09719121935756879,-0.030939293239099913,0.02738145620284175,0.0356639915367207,-0.027432419941500193,0.10062982968825017,0.12706117923686588,-0.12094781191720957,0.07697235346371946,0.03247807194072876,-0.16537235308488835
2565,12.088220000005094,-0.07916489122480858,-0.09719933505202116,-0.030934697438105195,0.027863178782464425,0.036271492755054174,-0.028012231233994697,0.10099325978937598,0.127210169980099,-0.12173449687625652,0.07510051600826624,0.02982458254821373,-0.16387652193365393
2566,12.094331300002525,-0.0791817478936194,-0.09721686723813446,-0.03094418696251456,0.02834661690552208,0.03687967610017088,-0.028595784748685717,0.10134770780028753,0.12734644926238584,-0.1225139675836896,0.07321223543045655,0.027156321385261226,-0.16235202019802294
2567,12.104267699993216,-0.07923885836762284,-0.09716990816361225,-0.030947497119012735,0.028831727470563027,0.03748848069020834,-0.029183045687958098,0.10169309568000912,0.12746994728430303,-0.12328608736297804,0.07130774865277098,0.024473649387902526,-0.16079897792146855
2568,12.109782899991842,-0.0792738637961906,-0.09711417047466371,-0.030978027613481337,0.029318467005804483,0.03809784531363347,-0.029773978602468523,0.10202934652716449,0.12758059597787413,-0.12405072017153866,0.06938729649108712,0.021776932115774732,-0.15921753093574983
2569,12.113661299998055,-0.07931807696690509,-0.09707091128385044,-0.031017409107521536,0.029806791674619453,0.03870770843753699,-0.030368547394245764,0.10235638459851706,0.1276783290285891,-0.12480773062838901,0.06745112362005878,0.019066539699562887,-0.15760782085672873
2570,12.11766479999642,-0.07933690475730817,-0.09705845762864515,-0.031027451464467774,0.03029665728111208,0.03931800821603231,-0.03096671531992342,0.10267413532734217,0.12776308189717483,-0.1255569840417787,0.06549947853734225,0.016342846786934602,-0.15596999507878026
2571,12.123591900002792,-0.07937351177109485,-0.09702188144654741,-0.031050747184673076,0.030788019275780627,0.039928682498757764,-0.03156844499410493,0.10298252534162544,0.12783479184110927,-0.12629834643679178,0.06353261352667289,0.013606232486971915,-0.15430420676778786
2572,12.12704799999483,-0.07938512455534934,-0.09702352507372236,-0.031061701764315407,0.03128083276126744,0.04053966883948101,-0.03217369839286082,0.10328148248208213,0.12789339793587193,-0.1270316845829122,0.06155078461979665,0.010857080313105616,-0.15261061485271593
2573,12.132096500004993,-0.07939352345527881,-0.09706120719452777,-0.03104795192466107,0.03177505249819491,0.04115090450480465,-0.032782436857357954,0.10357093581999142,0.12793884109592352,-0.1277568660215456,0.05955425155726105,0.008095778124557973,-0.15088938401575175
2574,12.13637920000474,-0.07938133647561199,-0.09708172396674229,-0.031076514439516242,0.03227063291108645,0.04176232648297172,-0.033394621097620675,0.10385081567484043,0.12797106409540804,-0.1284737590934899,0.057543277748070484,0.005322718066300399,-0.1491406846810102
2575,12.14003500000399,-0.07935347384553328,-0.09714327315405978,-0.03106634258475236,0.03276752809437166,0.042373871492770006,-0.03401021119642351,0.10412105363177258,0.12799001158857035,-0.1291822329663488,0.05551813022821115,0.0025382965075330774,-0.1473646930017939
2576,12.144664799998282,-0.07934439242302867,-0.09721034990029416,-0.03105458238835611,0.03326569181847468,0.04298547599253367,-0.03462916661331521,0.10438158255883544,0.1279956301298825,-0.12988215766188071,0.05347907961805112,-0.0002570860213058007,-0.14556159084640194
2577,12.152083099994345,-0.07931371953058307,-0.09730633099691127,-0.031067281856092532,0.03376507753598466,0.04359707618924042,-0.03525144618877387,0.10463233662402226,0.12798786819387242,-0.13057340408327686,0.05142640007862133,-0.003063024892993032,-0.14373156578248142
2578,12.155702000003656,-0.07927632587848461,-0.0973084701812954,-0.031057147157449047,0.03426563838790747,0.044208608047703,-0.03587700814849252,0.10487325131210233,0.12796667619464647,-0.1312558440423612,0.04936036926678421,-0.0058791114494269,-0.1418748110599165
2579,12.159552400000392,-0.07927611706839727,-0.09730355629230643,-0.031066353076810303,0.0347673272099977,0.04482000729985337,-0.03650581010779468,0.10510426344123479,0.12793200650509853,-0.13192935028670624,0.04728126828929703,-0.00870493306897789,-0.13999152559225023
2580,12.163671499991324,-0.07925357013437563,-0.0973044723111457,-0.031081247986389317,0.035270096539169904,0.045431209454118396,-0.037137809076179425,0.10532531117936149,0.12788381347579822,-0.1325937965266568,0.04518938165577746,-0.011540073235273748,-0.13808191393663508
2581,12.16757599999255,-0.07928110161213404,-0.09730694182775547,-0.031094978798683077,0.035773898619988226,0.04604214980488532,-0.037772961461995234,0.10553633406037365,0.12782205345355174,-0.13324905746225513,0.04308499723057888,-0.01438411160740847,-0.13614618627230798
2582,12.171583499992266,-0.07929751120438082,-0.09726316845431145,-0.031122143309847663,0.03627868541123319,0.046652763442055746,-0.0384112230772421,0.1057372730000473,0.12774668479962895,-0.13389500881006078,0.040968406183583814,-0.0172366240915642,-0.13418455837758503
2583,12.175741099999868,-0.07928859249969328,-0.09725499310912011,-0.031150865413267847,0.03678440859254432,0.04726298526068627,-0.03905254914250106,0.10592807031174278,0.12765766790764874,-0.13453152732985707,0.0388399029399241,-0.0200971829140344,-0.13219725160537238
2584,12.180391400004735,-0.07927221301397255,-0.09721983586226522,-0.031173080181097386,0.03729101957113727,0.047872749970714334,-0.03969689429199077,0.10610866972186284,0.1275549652211168,-0.13515849085123668,0.036699785128637356,-0.022965356695636093,-0.13018449285719055
2585,12.184018999992986,-0.07924696612651683,-0.09719877533214409,-0.03121445414894363,0.03779846948859455,0.04848199210676775,-0.04034421257875041,0.10627901638506466,0.12743854125060883,-0.13577577830005885,0.0345483535302691,-0.02584071052749845,-0.1281465145557087
2586,12.188297200002124,-0.07920479997074382,-0.09720191685988917,-0.031230681629043286,0.038306709227728136,0.0490906460380565,-0.04099445747994796,0.10643905689922065,0.12730836259059228,-0.13638326972477116,0.03238591202343049,-0.02872280604821449,-0.12608355461578638
2587,12.194069799996214,-0.07916144435043465,-0.09723619308560028,-0.03125008862880193,0.03881568941951276,0.049698645978344995,-0.041647581902313165,0.10658873932012283,0.12716439793588002,-0.1369808463225883,0.030212767530321715,-0.03161120152234207,-0.12399585641402161
2588,12.19793719999143,-0.07910615859174175,-0.09725538181698076,-0.03126554524141978,0.03932536045008836,0.05030592599600321,-0.04230353818769462,0.1067280131759261,0.12700661809770875,-0.13756839046552038,0.028029229961231823,-0.034505451920239814,-0.12188366875680329
2589,12.201562999995076,-0.07903646310906608,-0.09729722014404249,-0.031272351637362084,0.03983567246783053,0.050912420024134694,-0.042962278118740156,0.10685682948132519,0.12683499601943535,-0.13814578572624395,0.025835612158026145,-0.037405108999223065,-0.11974724584686798
2590,12.204838899997412,-0.07897951694216669,-0.09736074058099185,-0.03127265140369172,0.04034657539048753,0.05151806187077957,-0.04362375292469979,0.10697514075146115,0.12664950679184442,-0.138712916903809,0.023632229836633028,-0.04030972138602438,-0.11758684724836051
2591,12.209423599997535,-0.07889589017839367,-0.09739465224890043,-0.031294583270101956,0.040858018912382485,0.052122785229190595,-0.04428791328735039,0.10708290101555248,0.12645012766805996,-0.1392696700491752,0.021419401528541958,-0.04321883466054254,-0.1154027378503984
2592,12.213528199994473,-0.07883238350693657,-0.09742646372572608,-0.03130090721896722,0.041369952511679554,0.05272652368818038,-0.04495470934704134,0.10718006583024618,0.12623683807805525,-0.1398159324905708,0.01919744852132565,-0.046131991440863405,-0.1131951878291421
2593,12.217134699996675,-0.07879747434671626,-0.09745194409070528,-0.03131645693703401,0.04188232545771281,0.05332921074253797,-0.04562409070886045,0.10726659229268443,0.12600961964275428,-0.14035159285866644,0.016966694798198973,-0.049048731469535305,-0.11096447260837274
2594,12.22151030000532,-0.07877101182531461,-0.09744145191351913,-0.031343517090233815,0.0423950868183765,0.05393077980351309,-0.04629600644891933,0.10734243905328235,0.12576845618771912,-0.14087654111155676,0.014727466976627971,-0.051968591701081465,-0.10871087281857893
2595,12.225668899991431,-0.0787468804703479,-0.09744089974372251,-0.031343338008790925,0.04290818546757521,0.05453116420936626,-0.04697040512075728,0.10740756632821238,0.12551333375641732,-0.14139066855954233,0.012480094246002812,-0.05489110639073129,-0.10643467425455538
2596,12.23019750000094,-0.07871561887180789,-0.09738788485091864,-0.031348617128325436,0.04342157009273266,0.05513029723598281,-0.04764723476186262,0.10746193591159085,0.12524424062306327,-0.14189386788970412,0.010224908304388654,-0.05781580718435192,-0.1041361678315157
2597,12.23408369999379,-0.07870181453236098,-0.09733024356985265,-0.03137847291065279,0.04393518920235752,0.055728112107548924,-0.04832644290031071,0.10750551118736201,0.12496116730502746,-0.14238603319026333,0.007962243294368926,-0.060742223209560874,-0.10181564953972307
2598,12.238134899991564,-0.07866439041951401,-0.09730053528684814,-0.03137529553134778,0.044448991133664836,0.056324542007287585,-0.049007976561517716,0.10753825714087513,0.124664106574808,-0.14286705997471866,0.00569243573799592,-0.06366988116800004,-0.09947342039764219
2599,12.242705800003025,-0.07865439937190057,-0.09726265674673422,-0.03139227881722035,0.04496292406025167,0.05691952008825222,-0.04969178227510918,0.10756014037015048,0.12435305347155844,-0.1433368452057543,0.0034158244708638306,-0.06659830542875084,-0.09710978640361716
2600,12.246243999994476,-0.07860360477980008,-0.09724448977262853,-0.03139107544244958,0.045476935999825434,0.05751297948417575,-0.05037780608190248,0.10757112909683009,0.12402800531216568,-0.14379528731891195,0.0011327505753199103,-0.0695270181228696,-0.09472505848608012
2601,12.250504600000568,-0.07852743644800785,-0.09725048372185371,-0.03137913456129106,0.04599097482198364,0.0581048533203727,-0.05106599354100199,0.1075711931768092,0.12368896170187306,-0.14424228624602042,-0.0011564426871702278,-0.07245553923902172,-0.09231955245229673
2602,12.25454080000054,-0.07851070233381133,-0.0972909949392474,-0.03136770765824771,0.04650498825604366,0.05869507472469233,-0.051756289737005814,0.10756030411054476,0.12333592454444371,-0.14467774343837542,-0.0034514099444867582,-0.07538338672019211,-0.08989358893565426
2603,12.258682200001203,-0.0784219065964722,-0.09730042467588478,-0.03135239514395351,0.047018923898920977,0.059283576838520424,-0.05244863928732317,0.10753843505303734,0.12296889805185876,-0.14510156188966297,-0.005751803783132491,-0.07831007656144974,-0.08744749334149846
2604,12.26295439999376,-0.07838576904459704,-0.0973730305802751,-0.031324168138686076,0.04753272922305421,0.05987029282782752,-0.05314298634960131,0.10750556082348235,0.12258788875354529,-0.14551364615861825,-0.008057274818305296,-0.08123512290874348,-0.08498159579152567
2605,12.26715929999773,-0.07831544624089536,-0.09742861664355766,-0.031301857470317065,0.04804635158437544,0.060455155894261085,-0.05383927462926091,0.1074616579145867,0.12219290550512966,-0.14591390239141291,-0.010367471764748627,-0.08415803815870616,-0.08249623106673805
2606,12.271438900002977,-0.07822465506540743,-0.09746446729343905,-0.031279192173464865,0.04855973823032406,0.061038099286279394,-0.0545374473871388,0.10740670450154755,0.12178395949671104,-0.1463022383437652,-0.012682041508362326,-0.08707833305944315,-0.0799917385489699
2607,12.275440600002185,-0.07815492539404217,-0.0974876935217987,-0.03125308547700262,0.04907283630790265,0.061619056310324605,-0.055237447447236465,0.10734068045068947,0.12136106426065,-0.14667856340276614,-0.015000629178555483,-0.08999551681228142,-0.07746846216099382
2608,12.279745299994827,-0.078078732007829,-0.09750009946039434,-0.031221060356920766,0.04958559287177331,0.06219796034203268,-0.05593921720457282,0.10726356732775659,0.12092423567886666,-0.14704278860841538,-0.0173228782213228,-0.09290909717445438,-0.07492675030521555
2609,12.28377169999294,-0.07804595984286318,-0.09750885616764493,-0.03122192868619863,0.0500979548923928,0.06277474483747802,-0.056642698633139775,0.10717534840585635,0.12047349198964401,-0.14739482667486026,-0.01964843047302555,-0.09581858056269703,-0.07236695580096758
2610,12.287894099994446,-0.0779856829658072,-0.09748474847710917,-0.031182645840722292,0.050609869264184836,0.06334934334445065,-0.057347833293958934,0.10707600867305185,0.12000885379393277,-0.14773459201133096,-0.021976926234857797,-0.0987234721577257,-0.06978943582041136
2611,12.292098099991565,-0.07792636309314575,-0.09743063303728838,-0.031184340154725466,0.05112128281374791,0.06392168951376379,-0.05805456234323802,0.10696553483959957,0.11953034406115363,-0.1480620007427658,-0.0243080043479783,-0.1016232760095765,-0.06719455182305893
2612,12.29619160000584,-0.0778925409726836,-0.0973743012570121,-0.031162510630943024,0.05163214230809689,0.06449171711058946,-0.05876282654062546,0.10684391534482895,0.11903798813449239,-0.14837697073011935,-0.02664130226928816,-0.1045174951437759,-0.06458266948892552
2613,12.301693999994312,-0.0778738673993715,-0.09733468128475582,-0.031140999346042295,0.05214239446293674,0.06505936002581934,-0.05947256625756167,0.1067111403636606,0.11853181373568393,-0.14867942159034694,-0.02897645614783401,-0.10740563166831645,-0.061954158650324775
2614,12.305617199992412,-0.07786028792191033,-0.09730667470330898,-0.031118377635475945,0.05265198595096689,0.06562455228744812,-0.06018372148572555,0.10656720181275996,0.11801185096928199,-0.14896927471605964,-0.03131310090181626,-0.1102871868814103,-0.05930939322231861
2615,12.309029700001702,-0.07779852228222758,-0.09724257583883059,-0.031100197792837098,0.05316086341021416,0.06618722807197676,-0.06089623184557437,0.10641209335632368,0.11747813232641016,-0.1492464532948438,-0.033650870296181495,-0.113161661379992,-0.05664875113183446
2616,12.312876600000893,-0.07772434342724886,-0.09724937894312982,-0.031078317244918465,0.053668973452392375,0.06674732171583302,-0.06161003659497522,0.10624581041149579,0.11693069268799079,-0.14951088232823817,-0.0359893970207778,-0.11602855516894181,-0.05397261424546342
2617,12.31712079999852,-0.07767321608519463,-0.09727661855388216,-0.031062254415905346,0.05417626267128669,0.06730476772680682,-0.06232507463792609,0.10606835015341085,0.11636956932744824,-0.14976248865036368,-0.038328312769051444,-0.11888736777100052,-0.05128136829595327
2618,12.321259399992414,-0.07756349402201199,-0.09725180373429201,-0.031031701115978725,0.05468267765116072,0.06785950079549799,-0.06304128453336433,0.10587971151986085,0.11579480191288298,-0.15000120094619915,-0.04066724831726345,-0.12173759833734615,-0.048575402807411114
2619,12.325307799997972,-0.07739808041101863,-0.09720172023095779,-0.030995415491077618,0.05518816497518496,0.06841145580677375,-0.06375860450406103,0.1056798952155832,0.11520643250871374,-0.15022694976949685,-0.043005833604204034,-0.12457874575880203,-0.04585511101923069
2620,12.329790699994192,-0.07734095393807483,-0.09725169639011959,-0.03098650589769989,0.0556926712338846,0.06896056785123379,-0.0644769724455992,0.10546890371616705,0.11460450557678516,-0.1504396675603318,-0.0453436978113829,-0.12741030877764722,-0.04312088980875991
2621,12.334066399998846,-0.0772263685350465,-0.0972503003388919,-0.03099356298737574,0.056196143033605324,0.06950677223668005,-0.06519632593543374,0.10524674127157567,0.11398906797693746,-0.1506392886622794,-0.04768046944367299,-0.13023178609999891,-0.040373139612724894
2622,12.337852299999213,-0.07714537398352098,-0.09726695512391292,-0.0310101212416837,0.056698527004995246,0.07005000449958894,-0.06591660224203114,0.10501341390928248,0.11336016896703535,-0.15082574933921677,-0.0500157764103851,-0.13304267650873586,-0.03761226434742691
2623,12.342069799997262,-0.07709648128413646,-0.0972902767858898,-0.031033426197607097,0.05719976981150152,0.07059020041658369,-0.06663773833408747,0.10476892943701784,0.11271786020245345,-0.1509989877917427,-0.05234924610675025,-0.1358424789769312,-0.03483867132772935
2624,12.346383199997945,-0.0770001736735002,-0.09722221971776848,-0.031065618939952265,0.057699818157880056,0.07112729601590387,-0.06735967088982264,0.10451329744512491,0.11206219573501533,-0.15115894417321127,-0.05468050549578675,-0.1386306927817627,-0.032052771184852384
2625,12.35041579999961,-0.0769476542509636,-0.0971922248409349,-0.03111984457452753,0.05819861879871603,0.07166122758886978,-0.06808233630634876,0.10424652930852284,0.11139323201138424,-0.15130556060537356,-0.05700918119052874,-0.14140681761886917,-0.02925497778299366
2626,12.354590200004168,-0.07689069594268587,-0.0971345680465084,-0.031178590137903413,0.05869611854695337,0.07219193170133896,-0.06880567070911095,0.10396863818827505,0.11071102787090345,-0.15143878119362159,-0.05933489953659269,-0.14417035371712061,-0.026445708134793473
2627,12.358816399995703,-0.07688529717467209,-0.09709979272711348,-0.031246900027108705,0.059192264282430795,0.07271934520515179,-0.06952960996139894,0.1036796390327609,0.11001564454288448,-0.15155855204182894,-0.06165728669505777,-0.1469208019537705,-0.023625382315663704
2628,12.3630439999979,-0.07681824372214044,-0.0970151630601219,-0.03131552832136722,0.059687002960422536,0.07324340524956391,-0.07025408967392745,0.10337954857844879,0.10930714564334144,-0.1516648212667831,-0.06397596872563614,-0.1496576639699564,-0.02079442337700036
2629,12.376408600001014,-0.07645195984935425,-0.09690072211405858,-0.0313544747703265,0.060180281620181623,0.07376404929266271,-0.0709790452144837,0.10306838535026965,0.10858559717117038,-0.15175753901220282,-0.06629057167010924,-0.152380442286516,-0.01795325725829997
2630,12.380940400005784,-0.07625588170090832,-0.09680444029216019,-0.03140970823002805,0.06067204739348377,0.07428121511276534,-0.07170441171763975,0.10274616966158925,0.10785106750377232,-0.15183665746233535,-0.06860072163600509,-0.15508864042008536,-0.015102312698200506
2631,12.384706900003948,-0.07612284819988135,-0.09677598230978363,-0.03150120554694167,0.06116224751316989,0.07479484081979577,-0.0724301240945274,0.10241292361377788,0.10710362739211883,-0.15190213085512885,-0.07090604488049283,-0.15778176299944563,-0.012242021144468243
2632,12.38880830000562,-0.07599138905869926,-0.09663806118840408,-0.031705650380085805,0.061650829321685335,0.07530486486663858,-0.07315611704267411,0.10206867109537614,0.10634334995525815,-0.15195391549497553,-0.07320616789446983,-0.16045931588208534,-0.009372816662952239
2633,12.393057399996906,-0.07582458639709874,-0.09663779136017987,-0.03179995805354033,0.06213774027961422,0.07581122606046636,-0.07388232505589784,0.10171343778085588,0.10557031067426145,-0.1519919697650202,-0.07550071748681673,-0.16312080627094377,-0.0064951358455287815
2634,12.396891199998208,-0.07565951456722271,-0.09661027196503262,-0.031911182596734707,0.06262292797420685,0.07631386357403841,-0.07460868243425901,0.10134725112897529,0.10478458738560789,-0.1520162541390293,-0.07778932086879572,-0.1657657428313025,-0.0036094177170584952
2635,12.401160499997786,-0.07547367353208592,-0.09653996475244281,-0.03204360159238982,0.06310634012789847,0.07681271695696777,-0.07533512329406743,0.10097014038072753,0.10398626027400858,-0.1520267311928165,-0.08007160573856645,-0.1683936358077911,-0.0007161036413793088
2636,12.405599000005168,-0.07530732176910046,-0.0966071683181051,-0.032075467078388396,0.06358792460681745,0.07730772614695412,-0.07606158157794227,0.10058213655688246,0.10317541186466904,-0.1520233656152199,-0.08234720036579406,-0.17100399714147246,0.002184362773641095
2637,12.409861499996625,-0.07515881824825416,-0.09657157803611507,-0.03223958642239179,0.06406762942928093,0.0777988314809792,-0.07678799106492303,0.10018327245512053,0.10235212701499016,-0.15200612421862636,-0.08461573367632419,-0.17359634058697238,0.005091535771969259
2638,12.413757799993618,-0.07502792105081617,-0.0965082154859389,-0.032400010097543445,0.06454540277427569,0.0782859737064625,-0.07751428538062921,0.09977358264675922,0.10151649290570727,-0.15197497594903897,-0.08687683533689952,-0.17617018182961827,0.008004967546161803
2639,12.417331100004958,-0.07488997726151836,-0.09638621380864458,-0.032564260360328376,0.06502119298992176,0.07876909399237424,-0.07824039800746672,0.09935310347307161,0.10066859903146781,-0.1519298918956833,-0.08913013583989261,-0.17872503860255234,0.010924208334988155
2640,12.421455300005618,-0.07472856833452096,-0.09626708136145228,-0.032737477966941556,0.06549494860191661,0.07924813394030265,-0.07896626229487883,0.09892187304119718,0.09980853719084709,-0.15187084530014827,-0.09137526658802976,-0.18126043080378376,0.013848806521894711
2641,12.42587389999244,-0.07460101311208803,-0.09613845106167006,-0.032977773642687364,0.06596661832195791,0.07972303559547222,-0.0796918114696398,0.09847993121964417,0.09893640147580256,-0.1517978115650569,-0.0936118599790803,-0.1837758806131449,0.01677830873428459
2642,12.430339300000924,-0.07446252236539802,-0.09601713220859388,-0.03320401957890053,0.06643615105614317,0.08019374145771035,-0.0804169786461891,0.0980273196333842,0.09805228826056658,-0.15171076826226293,-0.09583954949048559,-0.18627091260911557,0.01971225994358662
2643,12.434503099997528,-0.07428332442082547,-0.09586489866159138,-0.03341870515484427,0.06690349591334473,0.08066019449235941,-0.08114169683700385,0.09756408165853925,0.09715629618997845,-0.15160969514057077,-0.09805796976390196,-0.18874505388547985,0.022650203566086817
2644,12.438542000003508,-0.0739644721478637,-0.09547466775580016,-0.03378182764445688,0.0673686022135583,0.08112233814113175,-0.08186589896300751,0.09709026241666162,0.09624852616725597,-0.1514945741329755,-0.10026675668963202,-0.19119783416777988,0.02559168156449508
2645,12.442140600003768,-0.0739644721478637,-0.09547466775580016,-0.03378182764445688,0.06783141949622307,0.08158011633290538,-0.08258951786401238,0.09660590876860783,0.09532908134120771,-0.1513653893634207,-0.10246554749091866,-0.1936287859295315,0.028536234550219575
2646,12.445773800005554,-0.07376942861396857,-0.09539000971782795,-0.03401989148561395,0.06829189752851111,0.08203347349445743,-0.08331248630919344,0.09611106930800768,0.09439806709288648,-0.15122212715307037,-0.10465398080807606,-0.19603744450816626,0.031483401886320685
2647,12.450613499997417,-0.07327868978321586,-0.09508922575816711,-0.034446329060276656,0.06874998631358425,0.08248235456113279,-0.08403473700759143,0.09560579435432931,0.09345559102168521,-0.15106477602609159,-0.10683169678243158,-0.19842334822066504,0.03443272179111618
2648,12.454818300000625,-0.0730579135497007,-0.09495165655814475,-0.034675736174508545,0.06920563609881664,0.0829267049874451,-0.08475620261864283,0.09509013594554142,0.09250176293087693,-0.15089332671494315,-0.10899833714005215,-0.2007860384788477,0.0373837314424088
2649,12.4587998999923,-0.07290221443125298,-0.09482502222476713,-0.03491725411151157,0.06965879738398134,0.08336647075760731,-0.08547681576273435,0.09456414783037315,0.09153669481260043,-0.15070777216516762,-0.11115354527522935,-0.20312505990428376,0.040335967082307266
2650,12.462756099994294,-0.07272247930097347,-0.09491466051546917,-0.035039423971265596,0.07010942092939942,0.08380159839598915,-0.08619650903177917,0.09402788546017303,0.09056050083229358,-0.1505081075396831,-0.11329696633369765,-0.20543996044278823,0.0432889641226115
2651,12.469173499994213,-0.07251404006639385,-0.09455675446323963,-0.03533290354073014,0.07055745776404976,0.0842320349774991,-0.08691521499981271,0.09348140598036854,0.08957329731257595,-0.1502943302225713,-0.11542824729556042,-0.20773029147846778,0.04624225725073239
2652,12.47618660000444,-0.0719984112231527,-0.09394625219326444,-0.035855980011272715,0.07100285919363743,0.08465772813788777,-0.08763286623360497,0.09292476822152744,0.08857520271658313,-0.15006643982235887,-0.11754703705789847,-0.20999560794728125,0.04919538053611604
2653,12.4797913999937,-0.07178483897010098,-0.0935708939809007,-0.03616131951796591,0.07144557680861886,0.08507862608396999,-0.0883493953032876,0.09235803269002275,0.08756633763075565,-0.14982443817479127,-0.11965298651703526,-0.21223546845007896,0.052147867537142
2654,12.484327300000588,-0.0715815236767291,-0.09325087138729633,-0.03646210681218316,0.07188556249218139,0.08549467760376302,-0.08906473479299316,0.09178126155830321,0.08654682474708478,-0.1495683293450973,-0.12174574865043278,-0.21444943536508473,0.055099251408465104
2655,12.487993499991717,-0.07136981378702371,-0.09290564592731633,-0.036753576051970535,0.07232276842817534,0.085905832076538,-0.08977881731150392,0.0911945186547713,0.08551678884481764,-0.14929811962974246,-0.12382497859819193,-0.21663707495978604,0.058049065008769565
2656,12.492080600000918,-0.0709367382821745,-0.09241081693343432,-0.03711085787778616,0.07275714710899721,0.08631203948278211,-0.09049157550290726,0.09059786945327065,0.08447635677162448,-0.1490138175576685,-0.12589033374413217,-0.21879795750219685,0.060996841008903735
2657,12.496242900000652,-0.07062047163708071,-0.09206618980314991,-0.03740552993974565,0.07318865134342228,0.08671325041406912,-0.09120294205725535,0.08999138106218527,0.08342565742423073,-0.14871543389101735,-0.127941473796425,-0.22093165737145865,0.06394211200036369
2658,12.50048170000082,-0.07034806335802883,-0.09173616471694258,-0.0376813585387821,0.07361723426438434,0.0871094160828358,-0.09191284972122571,0.08937512221315218,0.08236482172851697,-0.14840298162533722,-0.12997806086775635,-0.2230377531677448,0.06688441060409384
2659,12.50591209999402,-0.07004068447915929,-0.09137098171344385,-0.038005943442221087,0.07404284933670077,0.08750048833206235,-0.09262123130878017,0.0887491632493903,0.08129398261908943,-0.14807647598926937,-0.13199975955499266,-0.2251158278214347,0.06982326957957243
2660,12.51098269999784,-0.0698275872603681,-0.0910857576153026,-0.038354105773433525,0.07446545036474193,0.08788641964485379,-0.09332801971181921,0.08811357611364773,0.0802132750183249,-0.14773593444371474,-0.13400623701832645,-0.22716546870152188,0.07275822193414933
2661,12.514717400001246,-0.06937580582807105,-0.09090001502748896,-0.03854475990935505,0.07488499150004276,0.08826716315392007,-0.09403314791082888,0.08746843433577046,0.07912283581489347,-0.14738137668047904,-0.1359971630598756,-0.22918626772322084,0.07568880103260332
2662,12.519187099998817,-0.06903551190553642,-0.09043593733420573,-0.0388173211983986,0.07530142724885466,0.08864267265095224,-0.09473654898551767,0.08681381301989506,0.0780228038417633,-0.1470128246203947,-0.13797221020171144,-0.2311778214547389,0.07861454070688645
2663,12.523381799997878,-0.06862303973833392,-0.08989457962590984,-0.03920249678608812,0.07571471247963607,0.08901290259589267,-0.09543815612544139,0.08614978883126785,0.07691331985369161,-0.14663030241091815,-0.13993105376329082,-0.23313973122317938,0.08153497536602196
2664,12.529662899993127,-0.06766270678375898,-0.08886661725800862,-0.039790335881732135,0.07612480243047982,0.08937780812609657,-0.09613790264061306,0.08547643998269384,0.07579452650420629,-0.1462338364232013,-0.141873371938269,-0.23507160321954246,0.08444964010612238
2665,12.534093099995516,-0.06712154720578102,-0.08824436034725423,-0.04005993918597002,0.07653165271647576,0.0897373450653824,-0.09683572197209565,0.08479384622061843,0.07466656832208227,-0.14582345524863582,-0.14379884587066996,-0.23697304860279028,0.08735807082049395
2666,12.538090699992608,-0.06673488804524216,-0.08775608195351184,-0.040453065051192366,0.07693521933700649,0.09009146993296857,-0.09753154770257541,0.08410208881084469,0.07352959168731735,-0.14539918969486984,-0.14570715973039033,-0.2388436836029424,0.09025980430979356
2667,12.542150199995376,-0.06644417560876134,-0.08734323465049375,-0.0409035332748746,0.07733545868297463,0.09044013995229332,-0.0982253135669134,0.08340125052388957,0.07238374480661222,-0.1449610727812963,-0.14759800078801233,-0.24068312962316823,0.09315437839220443
2668,12.54644219999318,-0.06598509015041165,-0.08671156237852366,-0.04125854851244895,0.07773232754396038,0.09078331305971539,-0.098916953462673,0.08269141561998214,0.0712291776883597,-0.14450913973401297,-0.1494710594889021,-0.2424910133408437,0.09604133201359653
2669,12.550547399994684,-0.06542307104530888,-0.08596755949382859,-0.04157988437904144,0.07812578311530814,0.09112094791309311,-0.09960640146062068,0.08197266983370745,0.07006604211714806,-0.14404342798025474,-0.15132602952656962,-0.24426696680753882,0.09892020535763776
2670,12.5546192000038,-0.06505476278760815,-0.08539923901576571,-0.041952698163724815,0.07851578300514063,0.09145300390023918,-0.10029359181519776,0.08124510035829985,0.06889449162778347,-0.14356397714229832,-0.15316260791526812,-0.24601062754790584,0.1017905399558212
2671,12.558261199999832,-0.06505476278760815,-0.08539923901576571,-0.041952698163724815,0.07890228524129898,0.09177944114724898,-0.100978458974961,0.08050879582958934,0.06771468147883658,-0.1430708290308389,-0.15498049506181086,-0.2477216386574377,0.1046518787973747
2672,12.563068399991607,-0.06400965406368074,-0.08389451626079947,-0.04266642575792885,0.07928524827820722,0.09210022052670021,-0.1016609375929894,0.07976384630960437,0.06652676862571963,-0.14256402763784,-0.15677939483658193,-0.2493996488990672,0.1075037664390184
2673,12.567060999994284,-0.06374341816753532,-0.08363408362615615,-0.042896599516107844,0.07966463100365956,0.09241530366572132,-0.10234096253725496,0.07901034326983483,0.0653309116932993,-0.14204361912885816,-0.15855901464371774,-0.2510443127985758,0.11034574911453529
2674,12.57142059999751,-0.06308339450922694,-0.08283714578439474,-0.043220567867430684,0.08004039274552896,0.09272465295392662,-0.1030184689009553,0.07824837957415898,0.06412727094805155,-0.141509651834844,-0.16031906549043712,-0.25265529073878157,0.11317737484411974
2675,12.57503039999574,-0.06308339450922694,-0.08283714578439474,-0.043220567867430684,0.08041249327839513,0.09302823155121602,-0.10369339201280578,0.07747804946143867,0.06291600826976437,-0.1409621762434219,-0.16205926205549823,-0.2542322490524752,0.11599819354346984
2676,12.58521330000076,-0.06141519589619495,-0.0803244138820056,-0.0445801083381336,0.08078089283008986,0.0933260033954377,-0.1043656674472888,0.07669944852778735,0.061697287122794355,-0.14040124498964832,-0.16377932275676055,-0.25577486011407286,0.11880775713258836
2677,12.588935599997058,-0.060882669458247156,-0.07976872158792088,-0.04477902479233297,0.08114555208815857,0.09361793320991144,-0.105035231034858,0.07591267370851461,0.06047127252688359,-0.13982691284625087,-0.16547896981783008,-0.2572828024299558,0.12160561964425749
2678,12.593235099993764,-0.06036570063866618,-0.07889455471622098,-0.045109129702433456,0.08150643220623656,0.09390398651081051,-0.10570201887209496,0.07511782325975219,0.059238131027543245,-0.13923923671334937,-0.16715792933376622,-0.2587557607274702,0.12439133733215198
2679,12.597465400001964,-0.05992924311402317,-0.07802344076403962,-0.04554252984911127,0.08186349481033872,0.09418412961440005,-0.1063659673318166,0.07431499673976555,0.05799803066601019,-0.13863827560766126,-0.16881593133582973,-0.26019342604255685,0.12716446877855567
2680,12.60147729999153,-0.05940399607742411,-0.07753365286893131,-0.04593944683048713,0.08221670200506058,0.09445832964412987,-0.10702701307313049,0.07350429498995599,0.05675114094878348,-0.13802409065119262,-0.1704527098552516,-0.261595495805982,0.12992457500164623
2681,12.604988199993386,-0.05885119801521793,-0.07650602970807739,-0.04638521130849794,0.0825660163796891,0.09472655453758039,-0.10768509305143553,0.07268582011555814,0.05549763281674784,-0.13739674505941668,-0.17206800298600347,-0.2629616739281394,0.13267121956231248
2682,12.609239800003706,-0.05844899066864566,-0.07561933149852683,-0.04675163984741914,0.08291140101422147,0.09498877305325953,-0.10834014452836535,0.07185967546603739,0.054237678613890915,-0.1367563041289424,-0.17366155294654972,-0.2642916708823956,0.13540396867047
2683,12.613911199994618,-0.05789994354751146,-0.0750005481080488,-0.047137601531222866,0.08325281948529012,0.09524495477724913,-0.10899210508167277,0.07102596561519237,0.05297145205562131,-0.1361028352246754,-0.17523310614056284,-0.26558520378695205,0.1381223912908392
2684,12.617917499999749,-0.057254374432829006,-0.07406088443336782,-0.047553225623707576,0.08359023587199287,0.09549507012969886,-0.10964091261505339,0.07018479634096723,0.05169912819669477,-0.13543640776647278,-0.17678241321658292,-0.2668419964851982,0.14082605924815175
2685,12.62301949999528,-0.056569899725638514,-0.07302868246841951,-0.04815330374367315,0.08392361476162684,0.09573909037116567,-0.11028650536790612,0.06933627460497896,0.05042088339875608,-0.1347570932152943,-0.1783092291266038,-0.26806177962453054,0.14351454733175087
2686,12.627211700004407,-0.05592943348459801,-0.07220326840202793,-0.04867749384038445,0.08425292125532477,0.09597698760879729,-0.11092882192502869,0.06848050853176486,0.04913689529750435,-0.13406496505885276,-0.1798133131835679,-0.26924429073361233,0.1461874333995508
2687,12.631864700000731,-0.05551431581615478,-0.07156332545043212,-0.04911566894746059,0.08457812097359244,0.09620873480235824,-0.1115678012262462,0.06761760738775512,0.04784734276948931,-0.1333600987967675,-0.18129442911775237,-0.2703892742980474,0.14884429848132136
2688,12.635623599999237,-0.054856379041429,-0.07074355551371643,-0.04958909524761323,0.08489918006174586,0.09643430577009642,-0.11220338257596998,0.06674768155997547,0.0465524058985464,-0.1326425719252243,-0.1827523451320281,-0.2714964818344437,0.15148472688126455
2689,12.642449699997089,-0.053416080051421296,-0.06934994792378826,-0.05046093175116003,0.08521606519524695,0.09665367519444898,-0.11283550565268469,0.06587084253448604,0.04525226594187823,-0.13191246392114597,-0.18418683395597504,-0.27256567196284387,0.15410830627984906
2690,12.646937400000752,-0.052574306374534606,-0.06881741976744658,-0.05084451024346677,0.08552874358493634,0.09686681862758553,-0.11346411051836146,0.0649872028745619,0.04394710529579062,-0.13116985622587712,-0.18559767289883627,-0.2735966104774991,0.1567146278348694
2691,12.650825499993516,-0.05186079529755083,-0.06780482828148404,-0.051655272475488186,0.08583718298216214,0.09707371249678697,-0.11408913762779485,0.06409687619862123,0.042637107461091506,-0.13041483222838687,-0.1869846439012934,-0.2745890704159639,0.15930328628169513
2692,12.654964999994265,-0.051365871064930964,-0.06699067672302574,-0.05228988409998219,0.08614135168380321,0.09727433410965873,-0.1147105278378609,0.06319997715790641,0.04132245700816057,-0.12964747724799378,-0.18834753358604797,-0.2755428321264898,0.16187388003267553
2693,12.659086700004991,-0.05040812448617118,-0.06624355606690156,-0.05266186795461525,0.08644121853718578,0.09746866165917721,-0.11532822241669459,0.06229662141392411,0.04000333954169821,-0.12886787851661768,-0.18968613330719297,-0.2764576833336975,0.16442601127566545
2694,12.662914000000455,-0.049676361104252276,-0.06562170890667156,-0.05305788968742247,0.08673675294489203,0.0976566742285672,-0.11594216305278397,0.06138692561565007,0.03867994166516233,-0.12807612516056285,-0.19100023919835968,-0.27733341920250704,0.16695928607164098
2695,12.679326800003764,-0.046798421988995025,-0.0622389131966717,-0.055400494162794946,0.0870279248694592,0.09783835179600851,-0.11655229186397884,0.06047100737650469,0.03735245094490162,-0.12727230818183677,-0.19228965221962538,-0.278169842400304,0.16947331445137245
2696,12.684577099993476,-0.046144759391446556,-0.061506762967699684,-0.05592502785758373,0.087314704837968,0.09801367523916986,-0.11715855140641164,0.05954898525110541,0.03602105587399387,-0.12645652043900837,-0.193554178203168,-0.2789667631573228,0.17196771051112125
2697,12.688126799999736,-0.045448880222125114,-0.06065676573917978,-0.05638291792811903,0.087597063946519,0.09818262633956885,-0.11776088468332864,0.058620978711802545,0.03468594583579789,-0.12562885662761042,-0.19479362789765273,-0.27972399932522535,0.1744420925073278
2698,12.69224750000285,-0.04475954353486917,-0.0597519883183942,-0.056941053514767075,0.08787497386459675,0.09834518778675622,-0.11835923515382873,0.05768710812500459,0.03334731106722796,-0.12478941326009027,-0.19600781701133727,-0.28044137643385764,0.1768960829502589
2699,12.69651559999329,-0.04404530650765964,-0.058958545235402594,-0.05748638497234055,0.08814840683931979,0.09850134318232262,-0.1189535467415081,0.05674749472729948,0.03200534262175978,-0.12393828864531396,-0.19719656625388254,-0.2811187277461637,0.17932930869658253
2700,12.700967099997795,-0.04340790340424487,-0.058531748252854496,-0.05813683091142872,0.08841733569957601,0.09865107704372705,-0.11954376384300913,0.055802260601377725,0.030660232332177264,-0.1230755828676281,-0.1983597013768567,-0.28175589431124065,0.18174140104083913
2701,12.704566400003388,-0.042809712430574416,-0.05745924995982219,-0.05877352441644016,0.08868173386004165,0.09879437480794528,-0.12012983133647187,0.054851528651764056,0.029312172773068777,-0.122201397765485,-0.1994970532129203,-0.2823527250155149,0.18413199580577774
2702,12.709257299997262,-0.04213643122120461,-0.05671940055658197,-0.059399423941998764,0.08894157532508319,0.09893122283493723,-0.12071169458988529,0.05389542258036441,0.027961357223082132,-0.12131583690963667,-0.2006084577136806,-0.28290907663202425,0.18650073343152537
2703,12.713770100002876,-0.04153964247108619,-0.05584206321386592,-0.06003015147851652,0.08919683469254083,0.09906160841093238,-0.1212892994693367,0.052934066861834585,0.02660797962694747,-0.12041900558090303,-0.2016937559862031,-0.2834248138677902,0.18884725906355868
2704,12.717134599995916,-0.04081443509593541,-0.05507087730207334,-0.060576662076934566,0.08944748715739273,0.09918551975153185,-0.12186259234715735,0.05196758671877688,0.025252234557277337,-0.11951101074751959,-0.20275279432816842,-0.2838998094092646,0.19117122263944641
2705,12.721648399994592,-0.04015560691989062,-0.05417063358711082,-0.06122447156745572,0.0896935085152996,0.0993029460046261,-0.1224315201099619,0.05099610809677131,0.023894317176153368,-0.11859196104207037,-0.20378542426166488,-0.2843339439658363,0.1934722789743323
2706,12.725500799992004,-0.03963112617120569,-0.05323310899251232,-0.0619310524580473,0.08993487516602842,0.09941387725312731,-0.12299603016657946,0.05001975763924768,0.022534423196509102,-0.11766196673801221,-0.2047915025656063,-0.28472710631138354,0.19575008784512865
2707,12.729712899992592,-0.03896518994015294,-0.052271886530595016,-0.06262825981515081,0.0901715641167547,0.09951830451751556,-0.1235560704558741,0.049038662662205114,0.021172748843318396,-0.11672113972579666,-0.20577089130676568,-0.2850791933238595,0.1980043140733918
2708,12.734112999998615,-0.03822435752290605,-0.051284749668418644,-0.06317902839596774,0.09040355298524255,0.0996162197581981,-0.12411158945445304,0.04805295112878564,0.019809490814599023,-0.11576959348859646,-0.2067234578694157,-0.2853901100228964,0.2002346276068507
2709,12.738134999992326,-0.03766277826537133,-0.050348917907523355,-0.0638956831087512,0.09063082000290253,0.09970761587768122,-0.12466253618426004,0.04706275162370858,0.0184448462422411,-0.11480744307764296,-0.2076490749835685,-0.28565976960541856,0.20244070359955826
2710,12.743910299992422,-0.03721569774436258,-0.04938046745342988,-0.0647201718471278,0.09085334401772624,0.09979248672255424,-0.12520886022005245,0.046068193327572636,0.01707901265267005,-0.11383480508718072,-0.208547620751807,-0.28588809347925326,0.20462222249063702
2711,12.748014600001625,-0.03662022037776346,-0.048230502815518585,-0.065609214358928,0.0910711044970973,0.09987082708528454,-0.12575051169675958,0.0450694059910325,0.01571218792735384,-0.11285179762904662,-0.20941897867470113,-0.2860750112947267,0.2067788700815908
2712,12.752589900002931,-0.03595966575929084,-0.047378875088347955,-0.06646744420116049,0.09128408153047783,0.09994263270582336,-0.12628744131672096,0.04406651990885695,0.01434457026316431,-0.11185854030688065,-0.21026303767480142,-0.2862204609742374,0.2089103376121545
2713,12.75877169999876,-0.03427315386290697,-0.04558629541085061,-0.06796984511463641,0.09149225583197051,0.10000790027302114,-0.12681960035680345,0.04305966589387544,0.012976358132602579,-0.11085515418997507,-0.21107969211920366,-0.286324388739798,0.21101632183465494
2714,12.763726999997743,-0.03370395423385211,-0.044678216605816626,-0.06881894156094523,0.09169560874275486,0.10006662742585193,-0.12734694067539534,0.04204897525081989,0.011607750243898228,-0.10984176178676962,-0.21186884184067778,-0.28638674913853523,0.21309652508685523
2715,12.767154000001028,-0.03345712866168131,-0.04397723360422267,-0.06991292601731827,0.09189412223339757,0.10011881275444628,-0.1278694147192755,0.041034579750068884,0.010238945500992335,-0.10881848701799995,-0.2126303921573548,-0.2864075050661441,0.2151506553632567
2716,12.771277799998645,-0.032591149750067404,-0.04302253291662536,-0.07075748986760358,0.09208777890603674,0.10016445580093236,-0.12838697553035588,0.04001661160130104,0.008870142963414328,-0.1077854551895071,-0.21336425389096655,-0.2863866277882867,0.21717842638483312
2717,12.775572300000931,-0.03202875327004436,-0.04198926652733423,-0.07177024192487237,0.09227656199643945,0.10020355706008416,-0.12889957675229538,0.038995203427064286,0.007501541806062817,-0.10674279296471595,-0.21407034338363382,-0.286324096959931,0.21917955766717187
2718,12.779689100003452,-0.03139749328439883,-0.04116578087041024,-0.07274825770197477,0.09246045537593278,0.10023611797977695,-0.1294071726369831,0.03797048823626827,0.00613334127890044,-0.1056906283367901,-0.21474858251319892,-0.2862199006426224,0.2211537745869971
2719,12.783785299994634,-0.03124644220800015,-0.040110083896705014,-0.07380862158136227,0.09263944355320748,0.10026214096124882,-0.12990971805088966,0.03694259939760672,0.004765740666572751,-0.1046290906004707,-0.2153988987071008,-0.2860740353196857,0.22310080844705074
2720,12.790425700004562,-0.030325660072191965,-0.03883144463087275,-0.07464854505125824,0.09281351167599403,0.10028162935916753,-0.1304071684812847,0.03591167061291689,0.0033989392479613022,-0.1035583103236066,-0.21602122495478904,-0.28588650590935355,0.22502039653930728
2721,12.794639100000497,-0.02955850315939627,-0.03813931272126784,-0.075474583788879,0.09298264553261047,0.1002945874815024,-0.13089948004231902,0.03487783589048323,0.002033136255681015,-0.10247841931838375,-0.21661549981867523,-0.28565732577581765,0.2269122822064995
2722,12.799939699994866,-0.029126270730448194,-0.036289579372692345,-0.0776232940145392,0.09314683155338177,0.10030102058920089,-0.13138660948096959,0.03384122951829226,0.0006685308355319897,-0.10138955061226144,-0.21718166744361914,-0.285386516738199,0.22877621490193337
2723,12.804404199996496,-0.028798514598531756,-0.03540705759324242,-0.07876776022692353,0.09330605681193006,0.10030093489567,-0.13186851418284493,0.03280198603724585,-0.0006946779940840801,-0.10029183841862384,-0.21771967756494742,-0.2850741090774342,0.23061195024756856
2724,12.808507900001132,-0.02737331569595178,-0.03357347551934538,-0.07917032183116425,0.09346030902633543,0.10029433756606267,-0.1323451521778491,0.03176024021434005,-0.0020562913827727168,-0.09918541810715517,-0.21822948551500337,-0.284720141541078,0.23241925009034586
2725,12.812914099995396,-0.026941565144306092,-0.032735916880860964,-0.0800620170082048,0.09360957656016693,0.10028123671636886,-0.13281648214570202,0.030716127015816372,-0.003416110688770532,-0.09807042617394689,-0.2187110522282285,-0.2843246613460219,0.23419788255674087
2726,12.817014500004008,-0.02464013880272383,-0.031891570028184775,-0.07975313558979799,0.09375384842338369,0.10026164141231143,-0.1332824634213148,0.029669781580292695,-0.004773937519573995,-0.0969470002113445,-0.21916434424477696,-0.2838877241791277,0.23594762210552414
2727,12.82274679999682,-0.025775537782074445,-0.031625632986195085,-0.08160812938608714,0.09389311427310529,0.10023556166804655,-0.13374305600001757,0.028621339191880767,-0.006129573772562926,-0.09581527887754294,-0.21958933371266315,-0.2834093941957751,0.23766824957870944
2728,12.826560899993638,-0.02560463001049072,-0.030181905767081414,-0.08297296522173203,0.09402736441425162,0.10020300844466912,-0.13419822054263872,0.027570935253297457,-0.00748282167560854,-0.09467540186593938,-0.21998599838844357,-0.2828897440163225,0.2393595522506708
2729,12.830320799999754,-0.02486334162717372,-0.029302365344685513,-0.08377237493040758,0.09415658980005237,0.10016399364852308,-0.1346479183804353,0.026518705258976743,-0.00883348382765587,-0.09352750987425207,-0.2203543216364338,-0.2823288547204821,0.24102132387540878
2730,12.834072300000116,-0.024215332168693725,-0.027725306400058686,-0.08462272006410819,0.0942807820324262,0.10011853012931693,-0.1350921115198726,0.025464784768189714,-0.010181363239270429,-0.0923717445734138,-0.2206942924264644,-0.28172681583961023,0.24265336473194832
2731,12.838237000003572,-0.024574862508120472,-0.027586764456380745,-0.08599035789889835,0.09439993336222977,0.10006663167804447,-0.13553076264725167,0.024409309378179554,-0.011526263373139008,-0.09120824857624897,-0.22100590533017853,-0.28108372534691783,0.24425548166785158
2732,12.8423216999945,-0.023622193102008925,-0.026667201391722795,-0.08683262005409796,0.09451403668937679,0.10000831302471046,-0.13596383513318358,0.023352414697318653,-0.01286798818451447,-0.0900371654059436,-0.22128916051587375,-0.28039968964560336,0.24582748814083052
2733,12.846381800001836,-0.0209443178379524,-0.026329122263027534,-0.08669695296870802,0.09462308556282722,0.09994358983586164,-0.1363912930369108,0.022294236318294854,-0.0142063421615944,-0.0888586394643171,-0.22154406374189142,-0.2796748235549127,0.24736920425844353
2734,12.850443599993014,-0.019828326811088096,-0.025377482244771335,-0.0872567691579221,0.09472707418044708,0.09987247871192292,-0.13681310111047396,0.021234909791333797,-0.01554113036582357,-0.0876728159999052,-0.2217706263485569,-0.27890925029413066,0.24888045681586213
2735,12.858937099998002,-0.02183383060228478,-0.02424121530403346,-0.0909116207598233,0.09482599738873895,0.09979499718433885,-0.13722922480272293,0.020174570597464365,-0.016872158472110182,-0.08647984107586341,-0.2219688652486738,-0.2781031014645095,0.2503610793316945
2736,12.862992599999416,-0.020429926957420953,-0.022857270653693168,-0.09152453307122335,0.09491985068244356,0.09971116371252083,-0.13763963026317158,0.019113354121834347,-0.018199232808945802,-0.08527986153770029,-0.2221388029165787,-0.27725651702914017,0.25181091208185363
2737,12.86759819999861,-0.017438800510225432,-0.02238658479890689,-0.09121261539492814,0.09500863020401262,0.09962099768060084,-0.13804428434569524,0.018051395627083244,-0.01952216039841888,-0.08407302498085052,-0.22228046737576163,-0.2763696452907732,0.25322980213145874
2738,12.871400200005157,-0.016782857751116327,-0.021913835177560625,-0.09229027030455533,0.09509233274295349,0.09952451939399248,-0.13844315461207055,0.016988830226779182,-0.020840748996111984,-0.08285947971809772,-0.22239389218505734,-0.2754426428675954,0.25461760336475586
2739,12.875880499996128,-0.018597910989633107,-0.02175842103866669,-0.0945011348946057,0.09517095573504566,0.0994217500757598,-0.13883620933535673,0.01592579285892681,-0.022154807130872815,-0.08163937474685647,-0.22247911642341286,-0.2744756746669706,0.255974176513046
2740,12.87980239999888,-0.01790190691359485,-0.020231327306630693,-0.09561248834496701,0.09524449726142963,0.09931271186279492,-0.13922341750311767,0.014862418259552947,-0.023464144144449157,-0.08041285971632317,-0.22253618467323835,-0.2734689138571507,0.2572993891806092
2741,12.88368569999875,-0.014526011531016157,-0.019586645442316072,-0.09496352920925731,0.0953129560475679,0.0991974278018047,-0.13960474882048463,0.01379884093637682,-0.024768570230977907,-0.07918008489450477,-0.22256514700234886,-0.2724225418369682,0.25859311586861544
2742,12.88812030000554,-0.016679855481171107,-0.01964735609849621,-0.097276794711022,0.09537633146207809,0.09907592184510727,-0.13998017371305885,0.012735195142571506,-0.026067896476318367,-0.077941201135135,-0.22256605894450548,-0.271336748203519,0.25985523799701216
2743,12.892118499992648,-0.01720576217311106,-0.01884846146837867,-0.09921761047113245,0.09543462351543827,0.09894821884623965,-0.1403496633296535,0.011671614850623445,-0.027361934897220018,-0.07669635984448808,-0.22253898147856446,-0.2702117307178487,0.2610856439243785
2744,12.896444600002724,-0.013832773817096954,-0.017935874450254935,-0.09866081605828408,0.09548783285856509,0.09881434455537737,-0.14071318954487425,0.010608233726296691,-0.02865049848031504,-0.07544571294809935,-0.22248398100624278,-0.2690476952686512,0.2622842289657377
2745,12.90117260000261,-0.013434068606287465,-0.017135192076852164,-0.099947523290752,0.09553596078126525,0.09867432561456713,-0.1410707249615383,0.009545185102708577,-0.029933401220925998,-0.07418941285740248,-0.22240112932850914,-0.2678448558339914,0.2634508954083212
2746,12.905345199993462,-0.014288505074984002,-0.017220415885887266,-0.10213504939230253,0.09557900921056141,0.09852818955277358,-0.1414222429129315,0.008482601954523421,-0.03121045816167933,-0.07292761243629342,-0.22229050362060912,-0.2666034344410626,0.2645855525252783
2747,12.912956100000883,-0.011713798846418304,-0.01647636893812636,-0.1034178335753588,0.09561698070889316,0.09837596478074147,-0.14176771746490371,0.007420616872270831,-0.03248148543091528,-0.07166046496763125,-0.2221521864057352,-0.2653236611239913,0.26568811658732855
2748,12.917329599993536,-0.011074553581333737,-0.015934884367164136,-0.1043513083820979,0.09564987847219346,0.09821768058567437,-0.14210712341780266,0.006359362036795095,-0.03374630028088478,-0.07038812411968644,-0.22198626552735098,-0.2640057738797032,0.2667585108723506
2749,12.921230699997976,-0.010260457739738563,-0.015284426256274634,-0.10520124597823013,0.09567770632784128,0.09805336712573112,-0.14244043630824588,0.005298969193842135,-0.03500472112572395,-0.0691107439125467,-0.22179283412018042,-0.2626500186218618,0.2677966656729065
2750,12.925391099997796,-0.009232961251630725,-0.01403692305796406,-0.10593349402508118,0.09570046873249122,0.09788305542434111,-0.14276763241073032,0.0042395696287904384,-0.03625656757919715,-0.06782847868449038,-0.2215719905798733,-0.2612566491328946,0.26880251830169594
2751,12.930069199996067,-0.010018264281013052,-0.013460694191581217,-0.10719167124939986,0.09571817076978113,0.09770677736433973,-0.14308868873908032,0.003181294141532345,-0.037501660492199496,-0.06654148305833722,-0.22132383853135904,-0.25982592701412244,0.26977601309493965
2752,12.933839599994826,-0.009612518359692703,-0.012514175041187205,-0.10836607986362405,0.09573081814791848,0.09752456568192515,-0.14340358304773426,0.0021242730215119657,-0.03873982199000953,-0.06524991190778613,-0.22104848679589956,-0.2583581216340068,0.2707171014136893
2753,12.938091399992118,-0.008910877083472882,-0.011172637607820281,-0.10944064148824548,0.09573841719714636,0.0973364539604377,-0.1437122938328692,0.0010686360229259506,-0.039970875509283126,-0.06395392032374973,-0.22074604935685496,-0.2568535100745284,0.27162574164306247
2754,12.942188000000897,-0.0053771674539594885,-0.011411417676224663,-0.10901075454139776,0.09574097486709042,0.09714247662396308,-0.14401480033336256,1.451234009327929e-05,-0.04119464583477954,-0.0626536635806957,-0.22041664532417224,-0.2553123770757119,0.2725018991894025
2755,12.94661329999508,-0.006996085521495167,-0.01143387400957748,-0.11084953103328461,0.09573849872398743,0.0969426689307605,-0.1443110825315912,-0.0010379694169998178,-0.042410959135811124,-0.06134929710300488,-0.22006039889761125,-0.25373501497831585,0.2733455464753663
2756,12.950411300000267,-0.006677635396092031,-0.0105186163124983,-0.11214919446534366,0.09573099694779652,0.09673706696651752,-0.1446011211540682,-0.0020886812469737546,-0.04361964300240805,-0.06004097643135601,-0.21967743932872166,-0.2521217236647036,0.2741566629329424
2757,12.954624999998488,-0.005956759670576313,-0.01014563975504357,-0.11311561417060159,0.09571847832919401,0.0965257076374323,-0.14488489767191726,-0.0031374957811423185,-0.04482052648118948,-0.058728857189147096,-0.2192679008815844,-0.2504728104979119,0.27493523499440164
2758,12.958982600001036,-0.006329987975489674,-0.009905988849832167,-0.11455687023259731,0.09570095226645305,0.09630862866312521,-0.14516239430118483,-0.004184286307406319,-0.046013440110932634,-0.05741309504896317,-0.21883192279233193,-0.24878859025893568,0.2756812560811858
2759,12.96364370000083,-0.005174851340321615,-0.009074920003574256,-0.11520078487300019,0.09567842876220925,0.0960858685693809,-0.14543359400299039,-0.005228926793948314,-0.047198215957831316,-0.056093845699100225,-0.2183696492274605,-0.24706938508224816,0.276394726590736
2760,12.96730160000152,-0.002353195322183683,-0.008854595964182043,-0.11489846856782271,0.09565091842011367,0.09585746668072288,-0.14569848048351408,-0.006271291912722621,-0.04837468765043547,-0.05477126481015522,-0.21788122924094952,-0.24531552438957638,0.27707565388126454
2761,12.971345300000394,-0.001634373609314831,-0.008561437705361507,-0.11603970273096445,0.09561843244137373,0.09562346311282209,-0.14595703819382336,-0.007311257062734889,-0.04954269041426381,-0.053445508001691996,-0.2173668167302029,-0.2435273448219514,0.27772405225447516
2762,12.975596999996924,-0.0030506842317139333,-0.008628974991272326,-0.11809326477202975,0.09558098262118302,0.09538389876474118,-0.14620925232953977,-0.008348698393105617,-0.0507020611060812,-0.052116730808992665,-0.21682657039082795,-0.24170519017005201,0.2783399429362353
2763,12.97963869999512,-0.002251070273594988,-0.007347959030617822,-0.11881006995415191,0.09553858134504116,0.09513881531101653,-0.1464551088303472,-0.009383492825911997,-0.05185263824783254,-0.05078508864990459,-0.21626065367026898,-0.23984941130286255,0.2789233540552068
2764,12.983108700005689,-0.002251070273594988,-0.007347959030617822,-0.11881006995415191,0.09549124158496507,0.09488825519357903,-0.1466945943793422,-0.010415518078802628,-0.0529942620602252,-0.04945073679179262,-0.21566923472031085,-0.237960366094667,0.2794743206194415
2765,12.986651500003063,-0.002251070273594988,-0.007347959030617822,-0.11881006995415191,0.09543897689559293,0.09463226161351504,-0.1469276964022265,-0.011444652687379698,-0.05412677449595221,-0.04811383031860617,-0.21505248634846968,-0.23603841935040207,0.27999288449095167
2766,12.990539499995066,-0.002251070273594988,-0.007347959030617822,-0.11881006995415191,0.0953818014101822,0.09437087852266915,-0.14715440306634245,-0.01247077602734331,-0.055250019272549,-0.04677452409807121,-0.2144105859682871,-0.2340839427293913,0.28047909435826474
2767,12.995693999997457,-0.0011278596085540406,-0.006190220070916488,-0.12291104060471265,0.09531972983650276,0.09410415061509118,-0.14737470327955218,-0.013493768336392722,-0.056363841904876276,-0.045432972749016864,-0.21374371554854646,-0.23209731466748107,0.28093300570697416
2768,13.001529200002553,0.00026942995533531244,-0.005697677804246598,-0.12333832718007526,0.09525277745262666,0.09383212331832928,-0.14758858668896138,-0.014513510735879342,-0.05746808973722191,-0.044089330608846254,-0.2130520615614284,-0.23007892029759988,0.2813546807882968
2769,13.005465399997776,0.0012056637566038707,-0.0050072175937927905,-0.12420476515076735,0.09518096010261538,0.09355484278457109,-0.14779604367948798,-0.015529885252206376,-0.05856261197501446,-0.04274375170116107,-0.21233581492962253,-0.2280291513687627,0.2817441885856474
2770,13.00954630000342,0.0017446267044155146,-0.0047664388460214625,-0.12516962141771878,0.09510429419210624,0.09327235588163511,-0.147997065372277,-0.016542774837970165,-0.05964725971614095,-0.04139638970354954,-0.21159517097241248,-0.22594840616354495,0.28210160477924406
2771,13.013567000001784,0.0017375774558603084,-0.005025532135908936,-0.12646714272508988,0.09502279668379858,0.09298471018381398,-0.14819164362296214,-0.017552063392838307,-0.060721885981861984,-0.040047397915547484,-0.21083032935075227,-0.22383708941405014,0.28242701170875584
2772,13.017146999991382,0.002440511812470819,-0.0039648025080295905,-0.12712583662477608,0.09493648509284117,0.09269195396257171,-0.14837977101977454,-0.01855763578415986,-0.06178634574731738,-0.03869692922678194,-0.2100414940113541,-0.22169561221639575,0.2827204983340056
2773,13.02174080000259,0.002946019731011249,-0.003772597712470075,-0.1281259165448828,0.09484537748212177,0.09239413617709738,-0.1485614408814995,-0.019559377867303048,-0.06284049597161567,-0.0373451360853068,-0.20922887312980648,-0.2195243919437404,0.2829821601937405
2774,13.026542899999184,0.003692598966514511,-0.0035024870423952872,-0.1288920701244019,0.09474949245745991,0.0920913064647171,-0.14873664725528205,-0.02055717650571582,-0.06388419562750067,-0.035992170466139936,-0.208392679052743,-0.21732385215787733,0.283212099362486
2775,13.030263900000136,0.003607555760112518,-0.003807770124939016,-0.13007248595087773,0.09464884916270423,0.09178351513116668,-0.14890538491428212,-0.021550919590704907,-0.06491730573058858,-0.03463818384001123,-0.20753312823908185,-0.21509442251941696,0.2834104244054978
2776,13.034879500002717,0.004800106619493601,-0.003059390298201268,-0.13098016700998555,0.09454346727473606,0.09147081314072703,-0.14906764935518085,-0.022540496060928956,-0.06593968936816917,-0.03328332714233082,-0.20665044120035514,-0.2128365386965832,0.2835772503318299
2777,13.04150120000122,0.005769372832289137,-0.0021535983130501063,-0.13273612004977745,0.09443336699838066,0.09115325210622426,-0.1492234367955388,-0.023525795921601495,-0.06695121172756477,-0.03192775074238662,-0.20574484244014857,-0.21055064227265002,0.28371269854553366
2778,13.045888599997852,0.006274297994143389,-0.0018369041902743868,-0.13369118786430534,0.0943185690612278,0.09083088427889693,-0.14937274417100738,-0.02450671026339943,-0.0679517401240409,-0.03057160441277984,-0.20481656039267082,-0.20823718065204494,0.2838168967950066
2779,13.050258399991437,0.006527291323232086,-0.0017503539908682274,-0.13479523720082223,0.09419909470836249,0.09050376253813225,-0.14951556913239444,-0.0254831312810729,-0.06894114402826186,-0.02921503729910757,-0.20386582736047287,-0.20589660696514514,0.28388997912050773
2780,13.056821899997884,0.008894755969032265,-0.0009613806422209721,-0.13453254995166075,0.09407496569700764,0.09017194038107339,-0.14965191004258466,-0.026454952291752334,-0.06991929509328529,-0.02785819788990137,-0.20289287945133738,-0.2035293799717923,0.2839320857998576
2781,13.061022499998217,0.007572520859985615,-0.0011500716929747183,-0.1362931955896796,0.0939462042910802,0.08983547191209997,-0.14978176597331566,-0.02742206775294885,-0.07088606718109006,-0.02650123398683075,-0.20189795651435827,-0.201135963963553,0.2839433632923433
2782,13.06458069999644,0.007800211516343138,-0.0005131715976178682,-0.13749485628693492,0.09381283325566239,0.08949441183218375,-0.14990513670181085,-0.02838437328024409,-0.07184133638863159,-0.025144292675180306,-0.20088130207523133,-0.19871682866475038,0.2839239641808497
2783,13.06989149999572,0.007993665575451435,-0.0005031891938717288,-0.1386840680323772,0.09367487585139013,0.08914881542812199,-0.1500220227072703,-0.029341765664665814,-0.07278498107341852,-0.023787520294608924,-0.1998431632707763,-0.1962724491322945,0.2838740471122392
2784,13.075554099996223,0.009338433185997634,0.0005719255656900409,-0.14045910331911188,0.09353235582876007,0.08879873856165103,-0.15013242516722106,-0.03029414288974551,-0.07371688187860523,-0.022431062410199466,-0.1987837907827112,-0.1938033056543384,0.28379377673600104
2785,13.079452399993896,0.009894605444565796,0.0008682167408709147,-0.14140219476524704,0.09338529742235743,0.08844423765844224,-0.15023634595372784,-0.03124140414825447,-0.07463692175759529,-0.021075063783807284,-0.19770343877069885,-0.19130988364778675,0.2836833236411936
2786,13.08452390000457,0.010346192530522222,0.0010884561860077455,-0.14230034063984526,0.09323372534500592,0.08808536969698243,-0.15033378762946495,-0.03218344985861493,-0.07554498599815065,-0.01971966834571571,-0.19660236480468626,-0.18879267355468407,0.28354286429170134
2787,13.091940900005284,0.010901173382369749,0.0013468567965177966,-0.14431972217035968,0.09307766478184158,0.08772219219734106,-0.15042475344365028,-0.03312018168098291,-0.07644096224600173,-0.018365019166606652,-0.19548082979655837,-0.18625217073751096,0.283372580959831
2788,13.096399799993378,0.011490665875893423,0.001919776907124509,-0.14530958628303925,0.09291714138431187,0.08735476320982673,-0.15050924732784335,-0.03405150253299961,-0.07732474052795285,-0.017011258429854414,-0.1943390979311277,-0.1836888753734169,0.2831726616582687
2789,13.100635700000566,0.011561649677719775,0.0018590833277294973,-0.14667593198551182,0.09275218126410145,0.08698314130353532,-0.1505872738916093,-0.03497731660520807,-0.07819621327447838,-0.015658527404150552,-0.1931774365964823,-0.18110329234741787,0.28294330007042373
2790,13.10476469999412,0.012301144181486421,0.002331820740127992,-0.14743037114867752,0.09258281098698681,0.08660738555479257,-0.15065883841805128,-0.035897529376132,-0.07905527534180483,-0.014306966416467615,-0.19199611631371413,-0.1784959311445874,0.282684695479183
2791,13.108927699999184,0.012878642562327021,0.002592089583829369,-0.14823463858934594,0.09240905756662104,0.08622755553549355,-0.15072394685921242,-0.036812047627013754,-0.07990182403347405,-0.012956714825369288,-0.19079541066604935,-0.17586730574126935,0.2823970526941031
2792,13.11322199999995,0.01329594491238385,0.0027802727742090305,-0.14911310569646902,0.09223094845825044,0.08584371130134172,-0.15078260583134973,-0.037720779456209066,-0.08073575912138363,-0.01160791099467446,-0.18957559622740278,-0.1732179344953407,0.28208058197706487
2793,13.11722070000542,0.013588128542126718,0.0032815089325763554,-0.1500579594408402,0.09204851155236393,0.08545591337998977,-0.1508348226100816,-0.03862363429323572,-0.08155698286629942,-0.010260692267482566,-0.18833695249037882,-0.1705483400355523,0.2817354989664185
2794,13.121225399998366,0.013911939548588718,0.0036058348247861444,-0.15122236988243312,0.0918617751682765,0.08506422275908494,-0.15088060512541154,-0.039520522912473696,-0.08236540003783621,-0.008915194940567488,-0.18707976179374095,-0.16785904914997676,0.28136202459964493
2795,13.12551379999786,0.014488395101324766,0.0036042032894132124,-0.15211475310425387,0.09167076804764777,0.08466870087422147,-0.15091996195662902,-0.040411357446514494,-0.0831609179339022,-0.007571554239147088,-0.18580430924937263,-0.16515059267359247,0.28096038503456283
2796,13.13820499999565,0.015400023487273044,0.004318023843564486,-0.15512874361319942,0.09147551934793752,0.08426940959680275,-0.15095290232709063,-0.04129605139915719,-0.08394344639960331,-0.006229904292035374,-0.18451088266875137,-0.16242350537503206,0.2805308115691086
2797,13.146517300003325,0.016283938458980296,0.004745643789902609,-0.15708322336868977,0.09127605863579988,0.08386641122181566,-0.1509794360988836,-0.04217451965804913,-0.08471289784560289,-0.004890378107184203,-0.18319977248895758,-0.1596783258425235,0.28007354055971995
2798,13.150823699994362,0.01680520501192649,0.004928975391297451,-0.15799663719106527,0.09107241588041841,0.08345976845551939,-0.15099957376737264,-0.043046678506969346,-0.0854691872659331,-0.0035531075476212186,-0.18187127169824044,-0.15691559636905156,0.2795888133383527
2799,13.155373000001418,0.017016590068179575,0.00526556365601771,-0.15902241397904962,0.09086462144678387,0.08304954440305166,-0.15101332645563295,-0.04391244563775264,-0.08621223225525396,-0.0022182233077906034,-0.1805256757611619,-0.15413586283676772,0.27907687612816023
2800,13.159554900004878,0.017378838658292886,0.00542369581512454,-0.15994674301818926,0.09065270608891692,0.08263580255595541,-0.1510207059087707,-0.04477174016185269,-0.08694195302555668,-0.0008858548903030931,-0.17916328254334105,-0.15133967460067838,0.278537979957867
2801,13.16317379999964,0.017745209624817796,0.005552550171334474,-0.16090174843291907,0.09043670094303782,0.08221860677962807,-0.151021724488133,-0.04562448262154239,-0.08765827242230832,0.0004438694168984806,-0.177784392235821,-0.14852758437164013,0.277972380574866
2802,13.167546399999992,0.01812752986301111,0.005765100662303072,-0.16179526657724333,0.09021663752068519,0.08179802130069619,-0.15101639516540907,-0.04647059500074985,-0.08836111594003464,0.0017708225629520062,-0.1763893072790808,-0.1457001480986919,0.2773803383570717
2803,13.171484199992848,0.018560593545324314,0.005982332790835886,-0.16256390128922976,0.08999254770178604,0.08137411069431831,-0.1510047315166239,-0.047310000735528726,-0.08905041173733855,0.0030948787560613035,-0.17497833228671467,-0.14285792485075297,0.27676211822356095
2804,13.175536099995952,0.01857144306018698,0.006369688658368452,-0.16356534193216646,0.08976446372767888,0.08094693987141856,-0.1509867477160271,-0.04814262472416139,-0.08972609065135198,0.00441591348504792,-0.17355177396880145,-0.14000147669771554,0.27611798954403427
2805,13.181738200000837,0.018918644478469884,0.006590224316406806,-0.16458332628210784,0.0895324181940918,0.08051657406585376,-0.15096245852987936,-0.048968393336893394,-0.09038808621161934,0.005733803540463851,-0.17210994105498575,-0.137131368590962,0.27544822604712715
2806,13.185629899991907,0.019418345877538233,0.0068301698468796815,-0.16537787730019368,0.0892964440440769,0.08008307882151651,-0.1509318793101393,-0.04978723442529805,-0.09103633465341013,0.007048427035259701,-0.17065314421729239,-0.13424816824333585,0.2747531057276036
2807,13.189967800004524,0.01975335716256972,0.007107159801793023,-0.16613856202243904,0.08905657456090284,0.07964651997937704,-0.15089502598805257,-0.05059907733127,-0.09167077493045865,0.00835966342500293,-0.1691816959926962,-0.13135244600859533,0.2740329107524652
2808,13.195759900001576,0.02026722983005548,0.0077003485799128635,-0.16774213449995581,0.08881284336090746,0.07920696366446646,-0.15085191506764623,-0.05140385289564661,-0.09229134872712857,0.009667393527641012,-0.16769591070546946,-0.12844477476037924,0.2732879273660093
2809,13.200362699994002,0.0203156839492362,0.008052595445169092,-0.16865949491295357,0.08856528438631257,0.07876447627280461,-0.1508025636191306,-0.052201493466456535,-0.09289800047000014,0.010971499542804505,-0.1661961043893289,-0.1255257297707146,0.27251844579386997
2810,13.204507100002957,0.020573283850754256,0.008198990548176563,-0.16952321565360964,0.08831393189800253,0.07831912445827542,-0.15074698927221108,-0.0529919329067942,-0.09349067733887792,0.012271865070645193,-0.16468259470940463,-0.12259588858809475,0.2717247601460769
2811,13.208285100001376,0.020573283850754256,0.008198990548176563,-0.16952321565360964,0.08805882046826813,0.07787097511945196,-0.15068521020931144,-0.05377510660231991,-0.094069329277217,0.013568375130204587,-0.1631557008840532,-0.11965583091515658,0.2709071683191655
2812,13.213696699996945,0.02087270426105569,0.00846089393242606,-0.17029450871146018,0.0877999849735176,0.07742009538637425,-0.15061724515871172,-0.05455095146838476,-0.09463390900196635,0.014860916177308265,-0.1616157436065362,-0.11670613848598602,0.27006597189737386
2813,13.21732019999763,0.02148137721987947,0.008997408103341117,-0.17157624893919765,0.08753746058695648,0.07696655260728272,-0.15054311338760332,-0.05531940595677989,-0.09518437201282752,0.016149376121981758,-0.16006304496658547,-0.11374739494308114,0.2692014760529601
2814,13.221770299991476,0.02169203502188822,0.009351237554871161,-0.1723128964734182,0.08727128277123795,0.07651041433531028,-0.15046283469506372,-0.05608041006210986,-0.09572067660092749,0.01743364434538385,-0.15849792837187682,-0.11078018571400096,0.2683139894456741
2815,13.225498500003596,0.021803304549264137,0.009703815168658368,-0.1730366141580165,0.08700148727108495,0.07605174831513631,-0.15037642940495374,-0.05683390532779022,-0.09624278385690399,0.01871361171625335,-0.1569207184694334,-0.10780509788772834,0.2674038241214171
2816,13.23055849999946,0.022003643655642446,0.009904834660264102,-0.1736548563441,0.08672811010588584,0.07559062246960571,-0.15028391835874005,-0.057579834851668815,-0.09675065767840255,0.01998917060686551,-0.15533174106698144,-0.1048227200907757,0.26647129541012343
2817,13.238290299996152,0.0223610568420368,0.010397338109366551,-0.1748850119821817,0.08645118756226577,0.07512710488631566,-0.1501853229082447,-0.05831814329127092,-0.0972442647769843,0.021260214908494526,-0.15373132305428042,-0.10183364236306153,0.26551672182289887
2818,13.2422513999918,0.022570315766216147,0.010684646577969761,-0.17544665342678317,0.08617075618663508,0.07466126380417251,-0.15008066490832392,-0.059048776868668156,-0.09772357468444337,0.02252664004637838,-0.15211979232444844,-0.09883845603358601,0.26454042494845387
2819,13.246456599998057,0.02279276419940965,0.010921398627606566,-0.17598356575051163,0.08588685277771659,0.0741931675999213,-0.1499699667094784,-0.059771683374971636,-0.09818855975853329,0.02378834299418272,-0.1504974776953048,-0.09583775359593437,0.263542729348867
2820,13.249904099997366,0.02279276419940965,0.010921398627606566,-0.17598356575051163,0.08559951437905339,0.07372288477465055,-0.14985325115039783,-0.060486812174449595,-0.09863919518810169,0.02504522228796061,-0.1488647088307508,-0.09283212858363592,0.2625239624547152
2821,13.25342969999474,0.02279276419940965,0.010921398627606566,-0.17598356575051163,0.08530877827149871,0.07325048394027532,-0.1497305415504418,-0.06119411420827008,-0.09907545899763273,0.026297178039605393,-0.14722181616221014,-0.0898221754454069,0.26148445445960844
2822,13.256912099997862,0.02279276419940965,0.010921398627606566,-0.17598356575051163,0.0850146819656894,0.0727760338060012,-0.14960186170205972,-0.061893541997869464,-0.09949733205119655,0.02754411194979387,-0.14556913081015035,-0.08680848942030531,0.26042453821416683
2823,13.260914900005446,0.02299437568378363,0.01126974752073727,-0.17657293677206656,0.08471726319450443,0.07229960316477248,-0.14946723586315144,-0.06258504964794746,-0.09990479805580522,0.028785927320417213,-0.14390698450570638,-0.08379166641282573,0.25934454911947874
2824,13.26572660000238,0.02335694439466391,0.01214918648833211,-0.178163628598548,0.08441655990551061,0.07182126087970679,-0.14932668874937097,-0.0632685928490896,-0.100297843564175,0.03002252906649722,-0.14223570951242642,-0.08077230286796173,0.25824482502007595
2825,13.271850299992366,0.023702466485892762,0.012686712779263842,-0.17914131487011642,0.08411261025339703,0.07134107587051904,-0.14918024552637563,-0.06394412888001749,-0.10067645797689508,0.031253823727585714,-0.14055563854816155,-0.07775099564626317,0.25712570609646274
2826,13.27584420000494,0.02392608802537494,0.012925991049342838,-0.17961174439406602,0.0838054525924004,0.07085911709993674,-0.14902793180202425,-0.06461161660946756,-0.10104063354400301,0.03247971947864489,-0.13886710470711866,-0.0747283418989155,0.2559875347572348
2827,13.27965419999964,0.024198460905863865,0.013185426341894329,-0.18008487426248845,0.08349512546872308,0.07037545356010984,-0.1488697736185257,-0.06527101649769924,-0.10139036536596682,0.03370012614040676,-0.13717044138209664,-0.07170493894286824,0.25483065553082546
2828,13.284108799998648,0.02444834573292587,0.013550872340763964,-0.18070973236077736,0.08318166761294501,0.06989015425901748,-0.1487057974445401,-0.06592229059763355,-0.10172565139407394,0.03491495518921002,-0.13546598218692596,-0.06868138413603944,0.2536554149569159
2829,13.288655900003503,0.024781107192711795,0.013779950290898143,-0.1811771394406174,0.08286511793243122,0.06940328820687502,-0.14853603016723424,-0.06656540255562327,-0.10204649243022772,0.03612411976631288,-0.13375406087913078,-0.06565827475262341,0.2524621614775473
2830,13.292337799997767,0.025023463654536865,0.01398482305528578,-0.1815887715293522,0.08254551550373657,0.06891492440254378,-0.14836049908429386,-0.06720031761185623,-0.1023528921261526,0.03732753468668035,-0.1320350112828328,-0.06263620785852843,0.25125124532797255
2831,13.297810799995204,0.025306304722189518,0.014228412434838762,-0.18192414308365104,0.0822228995650099,0.06842513181994617,-0.1481792318958944,-0.06782700260039264,-0.10264485698200893,0.038525116447244864,-0.13030916721191643,-0.05961578018697054,0.25002301842728675
2832,13.305019399995215,0.025902414824133763,0.01480376719747494,-0.18270418810090822,0.08189730950839927,0.06793397939448934,-0.14799225669663343,-0.0684454259488375,-0.10292239634441781,0.039716783234639286,-0.12857686239347463,-0.05659758801424973,0.24877783426887318
2833,13.308842500002356,0.025902414824133763,0.01480376719747494,-0.18270418810090822,0.08156878487246008,0.06744153600950024,-0.14779960196742786,-0.06905555767764958,-0.10318552240389775,0.04090245493240144,-0.12683843039155387,-0.05358222703573431,0.24751604781070063
2834,13.31338340000366,0.026357846249020878,0.0154836692873851,-0.183747033500868,0.08123736533456737,0.06694787048267446,-0.1476012965673793,-0.0696573693990886,-0.10343425019171341,0.042082053127649593,-0.12509420453121753,-0.050570292242078915,0.24623801536550818
2835,13.322264400005224,0.02682649199185632,0.01614502292714018,-0.18459521790703615,0.08090309070333356,0.06645305155254132,-0.1473973697256105,-0.07025083431580241,-0.10366859757613822,0.04325550111722843,-0.1233445178229449,-0.0475623777957016,0.24494409449091403
2836,13.326003900001524,0.027047537293678838,0.016484688091930242,-0.18504018593900828,0.08056600091103404,0.06595714786494848,-0.1471878510330746,-0.07083592721905607,-0.10388858525813224,0.04442272391332502,-0.12158970288738531,-0.044559076907545486,0.24363464387948558
2837,13.330384500004584,0.027230560560868203,0.016903833100368623,-0.18562676321455218,0.08022613600604221,0.06546022795956893,-0.14697277043433965,-0.07141262448660474,-0.10409423676643718,0.04558364824855463,-0.11983009188048487,-0.041560981714150395,0.24231002324880635
2838,13.33421709999675,0.027542293276753758,0.017239501495801605,-0.18602484323483104,0.07988353614527559,0.06496236025643301,-0.14675215821935045,-0.07198090408021225,-0.10428557845209008,0.04673820258051656,-0.11806601641900394,-0.038568683155059534,0.24097059323157538
2839,13.338750800001437,0.027709777944744704,0.017553665380111706,-0.18639479700077036,0.0795382415866552,0.06446361304248828,-0.14652604501517172,-0.07254074554281789,-0.1044626394823571,0.04788631709582011,-0.11629780750644336,-0.03558277085058614,0.23961671526577755
2840,13.34227860000101,0.027853683538329108,0.01787431838942562,-0.18671852091214614,0.07919029268157987,0.06396405445818981,-0.146294461777714,-0.07309212999535368,-0.10462545183408904,0.04902792371358137,-0.11452579545939733,-0.032603832979964435,0.23824875148495997
2841,13.346461499997533,0.028016134588103744,0.01814937980289706,-0.18703362918399083,0.07883972986741651,0.06346375248412353,-0.14605743978344424,-0.073635040133214,-0.10477405028650023,0.05016295608839143,-0.11275030983434937,-0.029632456159909244,0.23686706460865128
2842,13.350534099998184,0.02802840311539003,0.01856423682687935,-0.18741044846293178,0.07848659366000837,0.06296277492766501,-0.14581501062108354,-0.07416946022237961,-0.10490847241337284,0.051291349612757164,-0.11097167935492827,-0.02666922532360852,0.23547201783295937
2843,13.356860300002154,0.028167501627741603,0.018920023432351205,-0.187763236749474,0.07813092464620268,0.06246118940967653,-0.14556720618329386,-0.07469537609519816,-0.10502875857468891,0.052413041419015385,-0.1091902318396397,-0.023714723600172613,0.2340639747213831
2844,13.36074920000101,0.02833632234153936,0.01923384972081606,-0.18809540705292288,0.07777276347639925,0.06195906335124497,-0.145314058658356,-0.07521277514582315,-0.10513495190769263,0.05352797038072181,-0.10740629413009009,-0.02076953219456415,0.23264329909587436
2845,13.367071699991357,0.02864255545069258,0.019698928940893312,-0.18871533961229345,0.07741215085712168,0.0614564639604636,-0.14505560052184152,-0.07572164632531318,-0.10522709831738507,0.05463607711351649,-0.10562019201971869,-0.017834230268031843,0.23121035492818628
2846,13.371246599999722,0.02880992244726748,0.019983425152800327,-0.1890736625105808,0.0770491275436128,0.060953458219260355,-0.14479186452828,-0.0762219801363936,-0.10530524646645395,0.055737303975467486,-0.10383225018305406,-0.014909394819071267,0.22976550623154207
2847,13.375619300000835,0.02897705475478572,0.020298649562286313,-0.18941999781107297,0.07668373433245604,0.060450112870275824,-0.1445228837028252,-0.07671376862788336,-0.10536944776464122,0.05683159506689486,-0.10204279210551091,-0.01199560056493542,0.22830911695265865
2848,13.380122400005348,0.02918979768746469,0.020594431000564913,-0.1896996656012843,0.07631601205422445,0.059946494403793724,-0.1442486913329229,-0.07719700538878983,-0.10541975635755141,0.05791889622967679,-0.10025214001374293,-0.009093419823717797,0.22684155086416163
2849,13.383827800003928,0.029335216943697492,0.02088574245130517,-0.18999830442794594,0.07594600156615913,0.05944266904472639,-0.14396932095998377,-0.07767168554207482,-0.10545622911490378,0.0589991550460397,-0.09846061480656706,-0.006203422397030425,0.22536317145742465
2850,13.387927599993418,0.029511189914081335,0.02125059142288788,-0.19039751584986547,0.07557374374487863,0.05893870273965797,-0.14368480637106448,-0.0781378057380945,-0.10547892561823095,0.060072320836835,-0.09666853598647446,-0.0033261754532989915,0.2238743418358693
2851,13.394749500002945,0.029693967627403735,0.021517613857925656,-0.19067474914470295,0.07519927947912088,0.05843466114394787,-0.1433951815905585,-0.07859536414771597,-0.10548790814802689,0.061138344659305004,-0.09487622159174215,-0.00046224341169703235,0.22237542460875748
2852,13.39944269999978,0.029925618817765186,0.021774999972774142,-0.19087905933783605,0.07482264966251932,0.05793060960889681,-0.1431004808719005,-0.07904436045511325,-0.10548324167034703,0.06219717930434082,-0.09308398812916004,0.0023878121732591458,0.2208667817855101
2853,13.404392800002825,0.030465858986312683,0.022154460845028194,-0.19127773587600713,0.07444389518641475,0.05742661316897821,-0.14280073868928608,-0.07948479585024573,-0.10546499382286371,0.06324877929323498,-0.09129215050738682,0.0052234327264333875,0.2193487746705853
2854,13.409285899993847,0.03064660023308543,0.02244823205585751,-0.1914859193239476,0.07406305693270417,0.05692273652913734,-0.14249598972940877,-0.07991667302102158,-0.10543323490038016,0.06429310087393132,-0.08950102197094881,0.008044062766089296,0.21782176375894918
2855,13.412983699992765,0.030858523575571055,0.0227008959283179,-0.1916969084938549,0.07368017576672822,0.05641904405216049,-0.1421862688832167,-0.08033999614514925,-0.10538803783980685,0.06533010201677567,-0.08771091403489499,0.010849150017185609,0.21628610863217268
2856,13.417149699991567,0.031051744442297087,0.02301693882128205,-0.19191704936741713,0.07329529253019855,0.05591559974611689,-0.14187161123769196,-0.0807547708816803,-0.10532947820460342,0.06635974240977094,-0.08592213642012148,0.013638145523926717,0.21474216785518602
2857,13.423002299998188,0.03128171983403655,0.02325319255218484,-0.19212842038176114,0.0729084480341663,0.05541246725187554,-0.14155205206765503,-0.08116100436224719,-0.10525763416868984,0.06738198345334004,-0.0841349969893787,0.016410503761547908,0.21319029887372243
2858,13.427391699995496,0.03150094048746829,0.023505893860975506,-0.19237861790258742,0.07251968305203349,0.054909709830699635,-0.14122762682759654,-0.08155870518199922,-0.10517258649983027,0.06839678825459988,-0.08234980168397422,0.01916568274731527,0.21163085791248185
2859,13.43151300000318,0.031757829941794616,0.02373110733371132,-0.19263230336125411,0.07212903831260843,0.054407390351921076,-0.14089837114353926,-0.0819478833902404,-0.10507441854249282,0.06940412162115026,-0.08056685446118382,0.02190314415072031,0.21006419987404515
2860,13.43603749999602,0.03179473746012183,0.024151742877916785,-0.192918337851178,0.07173655449320661,0.053905571280697846,-0.14056432080493267,-0.08232855048077313,-0.10496321620018922,0.07040395005438116,-0.07878645723238313,0.024622353402849687,0.2084906782385695
2861,13.439901699995971,0.0320156480996726,0.024288573312646906,-0.1932053682851202,0.07134227221279883,0.05340431466585669,-0.1402255117565815,-0.08270071938195148,-0.10483906791729909,0.07139624174230257,-0.07700890980191187,0.027322779804910685,0.20691064496429482
2862,13.45006829999329,0.032525189015709374,0.025005923950307065,-0.1941161515518568,0.07094623202520779,0.05290368212782333,-0.1398819800906108,-0.08306440444644722,-0.1047020646603827,0.07238096655190093,-0.07523450980668263,0.030003896635893437,0.20532445038889036
2863,13.458571399998618,0.032943576380751315,0.02540229024598617,-0.19467150954343343,0.07054847441235429,0.05240373484664283,-0.13953376203846987,-0.08341962144073235,-0.10455229989898661,0.0733580960210263,-0.07346355265654624,0.03266518125935108,0.20373244313167088
2864,13.462627699991572,0.03325787853539974,0.025640456169354994,-0.19530532212144805,0.07014903977755421,0.051904533550092564,-0.13918089396297667,-0.08376638753428152,-0.10438986958594614,0.07432760334981438,-0.07169633147542465,0.0353061152292793,0.202134969996711
2865,13.466862600005696,0.03356187989271145,0.02578488651079788,-0.19572392778381256,0.06974796843886742,0.05140613850189016,-0.13882341235040588,-0.08410472128849844,-0.10421487213718894,0.07528946339164823,-0.06993313704322245,0.03792618439507695,0.20053237587688627
2866,13.471109099991736,0.03379257892494954,0.02591103260814595,-0.19605747619634684,0.06934530062249997,0.05090860948999903,-0.13846135380262203,-0.0844346426453697,-0.10402740841104413,0.07624365264366441,-0.06817425773852745,0.04052487900556926,0.1989250036588691
2867,13.475501499997335,0.03397866186912295,0.026046748022727214,-0.1963504783937038,0.0689410764562607,0.05041200581503364,-0.138094755029259,-0.08475617291584996,-0.10382758168706174,0.07719014923680785,-0.0664199794821112,0.04310169381207616,0.19731319412910672
2868,13.484653499996057,0.03433543960868692,0.026427758010022385,-0.19699569030415753,0.06853533596307354,0.049916386278767176,-0.1377236528399474,-0.08506933476798238,-0.1036154976443468,0.07812893292544046,-0.06467058568124003,0.0456561281705079,0.19569728588080934
2869,13.48833089999971,0.03452853934644143,0.02654473094553221,-0.19731563686566178,0.06812811905454645,0.04942180917274361,-0.1373480841365925,-0.08537415221475872,-0.1033912643394127,0.0790599850765086,-0.06292635717480684,0.04818768614247068,0.19407761522197436
2870,13.492158399996695,0.034492953422326486,0.026809712220049086,-0.19774473566225523,0.06771946552459825,0.0489283322669967,-0.1369680859057047,-0.08567065060172299,-0.10315499218355811,0.07998328865827446,-0.061187572179292715,0.05069587659536537,0.19245451608447198
2871,13.496327699991523,0.0346165787535852,0.026928092482123765,-0.19814642048386602,0.06730941504314436,0.048436012798877916,-0.13658369521078562,-0.08595885659432298,-0.1029067939197722,0.08089882822861662,-0.059454506235567556,0.053180213301462206,0.19082831993421734
2872,13.500376199997843,0.03477015321716627,0.02706232250069655,-0.1985214932115645,0.06689800714984293,0.0479449074619954,-0.1361949491847719,-0.08623879816501358,-0.10264678459917269,0.08180658992290504,-0.0577274321565389,0.055640215035935046,0.18919935568245533
2873,13.504469699997571,0.03497884168379926,0.027165630394443408,-0.1988789268037427,0.06648528124790226,0.047455072395266286,-0.13580188502253868,-0.08651050458011596,-0.10237508155698159,0.0827065614414561,-0.05600661997565775,0.05807540567383875,0.1875679495981831
2874,13.514010900005816,0.03544172553075781,0.027482963046683517,-0.20004598856298497,0.06607127659795067,0.04696656317208461,-0.13540453997346488,-0.0867740063864364,-0.10209180438804358,0.0835987320365731,-0.054292336896290185,0.06048531428601376,0.18593442522173498
2875,13.517627299996091,0.035665182176797726,0.02757307461499303,-0.20037940716639532,0.06565603231196952,0.04647943478960705,-0.13500295133406262,-0.08702933539764873,-0.10179707492189212,0.08448309249917856,-0.05258484724196262,0.06286947523390181,0.18429910327955434
2876,13.521522099996218,0.03587806661809312,0.027590974865693632,-0.20070273629510813,0.06523958734729103,0.04599374165815857,-0.1345971564406718,-0.08727652468044422,-0.10149101719736897,0.08535963514504488,-0.050884412407488956,0.06522742826325707,0.1826623016001756
2877,13.525639200001024,0.03609195156162729,0.027618648970006786,-0.2010440461932918,0.06482198050066221,0.04550953759075992,-0.13418719266222193,-0.08751560854045252,-0.10117375743680193,0.08622835380062904,-0.04919129081098731,0.06755871859673726,0.18102433503143875
2878,13.534230199991724,0.03665669844687471,0.027713862707971833,-0.2017479385678078,0.06440325040237642,0.04502687579277901,-0.13377309739306326,-0.08774662250793773,-0.10084542401974657,0.08708924378851744,-0.04750573784679371,0.06986289702535992,0.1793855153589587
2879,13.53797599999234,0.036899663115048345,0.027662125896098688,-0.20219219305665617,0.06398343551047331,0.044545808851708016,-0.13335490804586858,-0.08796960332327422,-0.10050614745629759,0.08794230191248721,-0.04582800583927994,0.07213951999880908,0.17774615122587045
2880,13.542178399991826,0.037116327825191815,0.02758335035223166,-0.2025980396041136,0.06356257410500833,0.044066388727068466,-0.1329326620446082,-0.08818458892220701,-0.10015606035997472,0.08878752644218996,-0.044158343997582734,0.0743881497145778,0.1761065480538724
2881,13.559138700002222,0.038068020015943345,0.0275885481603505,-0.20446244126826885,0.06314070428239267,0.04358866674044622,-0.13250639681759976,-0.08839161842090072,-0.09979529742018849,0.08962491709746388,-0.042496998371250885,0.07660835420593201,0.17446700796558798
2882,13.562922800003436,0.03827500098815977,0.0276110593833368,-0.20480228766385766,0.06271786394980464,0.04311269356565863,-0.13207614979063398,-0.08859073210078179,-0.09942399537429097,0.09045447503228046,-0.04084421180681665,0.07879970742868161,0.17282782970826568
2883,13.566881099992315,0.038500875210031316,0.027527097252500823,-0.2051603000347104,0.062294090819673326,0.04263851921905564,-0.13164195838017803,-0.08878197139317845,-0.09904229297921704,0.09127620281833213,-0.039200223905297565,0.08096178934674489,0.17118930857883638
2884,13.571047699995688,0.03870840778843818,0.027510526057372146,-0.20551820838446333,0.0618694224042358,0.04216619304995682,-0.1312038599866568,-0.08896537886376282,-0.09865033098272145,0.0920901044282675,-0.037565270980634696,0.08309418601649293,0.16955173635034632
2885,13.576193699991563,0.038780815422537675,0.02778992041064384,-0.20597322806525972,0.0614438960101684,0.04169576373122597,-0.13076189198781382,-0.08914099819680031,-0.09824825209421761,0.0928961852185813,-0.03593958601907264,0.08519648966986125,0.16791540119978413
2886,13.579954100001489,0.038948050869531695,0.02773065634931579,-0.20640726600047465,0.061017548733293264,0.04122727924998551,-0.13031609173215375,-0.08930887417921077,-0.09783620095522416,0.09369445191216565,-0.03432339863948662,0.08726829879621538,0.16628058763731923
2887,13.583776500003296,0.03921223442570032,0.02774304398183825,-0.20676743368522246,0.06059041745336099,0.040760786898472415,-0.1298664965324681,-0.08946905268444623,-0.09741432410942509,0.09448491258052978,-0.03271693505466156,0.08930921822295847,0.1646475764369682
2888,13.587774600004195,0.039493477483618096,0.02793322936310292,-0.20732913451452722,0.060162538828910386,0.04029633326503764,-0.12941314365944537,-0.08962158065618976,-0.09698276997234924,0.09526757662569497,-0.031120418033528118,0.09131885919486825,0.1630166445687062
2889,13.592368199999328,0.03966758806148187,0.02783523427660313,-0.2077057953906555,0.059733949292205886,0.03983396422529045,-0.12895607033536743,-0.08976650609187947,-0.09654168880067526,0.0960424547617716,-0.029534066864360223,0.0932968394521516,0.16138806513203963
2890,13.59678009999334,0.03985223791695775,0.027760001926089004,-0.20802726604937496,0.05930468504425362,0.03937372493338962,-0.1284953137278932,-0.08990387802606235,-0.09609123266116804,0.09680955899622536,-0.02795809731893846,0.0952427833072047,0.15976210729105467
2891,13.60104890000366,0.040031027385220866,0.027703394604648275,-0.20835113331261734,0.0588747820498968,0.03891565981348295,-0.12803091094393168,-0.09003374651358245,-0.09563155539925249,0.09756890261083925,-0.026392721617683086,0.0971563217200673,0.158139036210956
2892,13.606575500001782,0.040228594815333786,0.02763124531104877,-0.20868231800065945,0.058444276032991085,0.038459812551296754,-0.12756289902360593,-0.09015616261260812,-0.09516281260723089,0.09832050014237884,-0.02483814839576059,0.09903709237255962,0.15651911299610916
2893,13.61049340000318,0.040418151337218704,0.02759141365922589,-0.20902364610303525,0.058013202471660745,0.03800622608587691,-0.12709131493430956,-0.09027117836750252,-0.09468516159214964,0.09906436736296763,-0.023294582670167173,0.10088473974109083,0.15490259462960046
2894,13.614755799993873,0.040584040655137224,0.027589878866176074,-0.2094018085432719,0.05758159659363657,0.03755494260148307,-0.1266161955648568,-0.0903788467915422,-0.09419876134332132,0.0998005212601803,-0.0217622258077926,0.10269891516812824,0.1532897339143274
2895,13.624368999997388,0.04081640625660642,0.02801980445378891,-0.2100966359266423,0.05714949337167564,0.037106003519637554,-0.12613757771972753,-0.09047922184948803,-0.09370377249950804,0.10052898001686107,-0.02024127549446741,0.10447927693231682,0.1516807794156314
