,time,x,y,z,vx,vy,vz,ax,ay,az,jx,jy,jz
1551,7.551852299991879,0.0210498927485445,-0.0467668570848981,-0.049884782335344866,0.035696214517603485,0.008272622374335159,0.0050010873638870095,0.09215114254260853,0.23472439281269933,-0.059443192376895666,0.03886373689543292,0.4929030893970983,-0.1716787901008133
1552,7.55690679998952,0.021226461051769563,-0.04700918169802045,-0.049854857949657785,0.036143121122500475,0.009415619815346483,0.004711114827505798,0.09233690055563192,0.23710804591549783,-0.06027516983136187,0.03796718182039402,0.49097981815194774,-0.17178781364463772
1553,7.5618543999880785,0.021324649379453442,-0.0471458514499284,-0.04984509398331606,0.03659091653751578,0.01057014306286482,0.004417110465006675,0.09251826427492664,0.23948217499485577,-0.06110764284373124,0.03704804166147282,0.4889702913471041,-0.17187996369969188
1554,7.565795099988463,0.021438127134949306,-0.047302046696531576,-0.049788712776745826,0.03703957922903862,0.011736144980519005,0.0041190720317712416,0.09269512461873362,0.24184636200755802,-0.061940529540041214,0.03610629339199124,0.48687442445494444,-0.17195514534856504
1555,7.569997999991756,0.021559933119806862,-0.04745922867910541,-0.04976959567742395,0.037489087135026834,0.012913576407196451,0.0038169976805572047,0.09286737240000101,0.24420018853691502,-0.06277374758394494,0.03514191963124498,0.4846921480438446,-0.1720132657590379
1556,7.573752799988142,0.021681842560376474,-0.04761544535335089,-0.04973474397317584,0.03793941766454147,0.014102386155400768,0.0035108859637550537,0.09303489835348741,0.2465432358659486,-0.06360721418677023,0.03415490868183586,0.48242340785943477,-0.17205423421003938
1557,7.5781477999989875,0.02181179694763956,-0.047742105473717614,-0.049702843029668195,0.03839054769741348,0.01530252100996267,0.003200735835595952,0.09319759316305445,0.248875085050963,-0.06444084611770949,0.03314525456595195,0.4800681649030142,-0.17207796211736928
1558,7.582269899998209,0.02196374114866583,-0.04792954947174114,-0.04963460323942454,0.03884245358404381,0.01651392572710595,0.0028865466543101393,0.09335534748914362,0.25119531699548875,-0.06527455971413969,0.03211295706057548,0.4776263955070861,-0.17208436305917726
1559,7.586444899992784,0.022094864042790124,-0.048047388154360424,-0.049601764949495364,0.03929511114533752,0.017736543033870247,0.002568318184235186,0.09350805199643256,0.25350351252458586,-0.0661082708920712,0.03105802173159886,0.47509809140797526,-0.1720733528011891
1560,7.593158999996376,0.02222131301795182,-0.04816617535076374,-0.049566025433622304,0.039748495672772596,0.018970313627892303,0.0022460505978734373,0.09365559738166548,0.2557992524594934,-0.06694189515672454,0.029980459966828896,0.4724832598154893,-0.17204484932167136
1561,7.599210999993375,0.022435156289960317,-0.04836822769185545,-0.04953143802835187,0.040202581928604306,0.02021517617754743,0.0019197444778979895,0.09379787440165258,0.2580821176926105,-0.06777534761323378,0.028880289007859244,0.4697819234795868,-0.17199877283612575
1562,7.605819599993993,0.022535116873745233,-0.048461024259414245,-0.04951456857421377,0.040657344146205913,0.021471067322452776,0.0015894008191065533,0.09393477390143332,0.26035168926279434,-0.06860854297747565,0.027757531980791273,0.46699412075401925,-0.17193504582170543
1563,7.609988799988059,0.022619724723956246,-0.048541433310234146,-0.04952475953416865,0.041112756030546815,0.022737921674333843,0.0012550210303225607,0.0940661868425982,0.26260754843096,-0.06944139558702257,0.026612217925783478,0.46411990565691025,-0.1718535930413434
1564,7.61499279999407,0.02277403192881231,-0.04867978766542568,-0.049487571425094995,0.04156879075880866,0.024015671818255688,0.0009166069362428786,0.0941920043317631,0.2648492767559675,-0.07027381941221857,0.02544438182540959,0.46115934792824076,-0.17175434156758357
1565,7.619950899999822,0.022857302189877304,-0.04873108449465783,-0.04946510808434072,0.042025420981140225,0.025304248314220255,0.0005741607792314893,0.09431211764919095,0.2670764561707797,-0.07110572806737633,0.024254064631805537,0.458112533084204,-0.1716372208061051
1566,7.624610499988194,0.022949652020542517,-0.04878453865614524,-0.0494503493581333,0.04248261882155174,0.026603579699131165,0.00022768522105851767,0.0944264182775546,0.2692886690588777,-0.07193703482209429,0.023041313292585512,0.45497956246839805,-0.1715021625189312
1567,7.629071199989994,0.023026629837225376,-0.04884943172039941,-0.04944189013654563,0.04294035587894927,0.02791359248912716,-0.00012281665541600937,0.09453479793083526,0.2714854983309176,-0.0727676526126922,0.021806180775507392,0.4517605532998239,-0.1713491008473137
1568,7.636548399997991,0.02318444457344874,-0.048976114529336694,-0.04941642313962406,0.04339860322830964,0.029234211182285398,-0.000477341344614284,0.09463714858335061,0.2736665275016116,-0.07359749405376373,0.020548726091867826,0.44845563871766,-0.17117797233428517
1569,7.641169999988051,0.02325900547742987,-0.04902502329421141,-0.049396272414312485,0.04385733142199671,0.03056535826169582,-0.0008358849166693209,0.09473336249890638,0.2758313407668181,-0.07442647144984443,0.01926901431860737,0.44506496782278054,-0.17098871594686926
1570,7.645126299990807,0.023336879941153035,-0.0490646520188188,-0.04939785333950477,0.04431651049121924,0.03190695419890762,-0.0011984430159106354,0.09482333226006527,0.277979523080825,-0.07525449680719346,0.017967116619106237,0.44158870571598674,-0.17078127309794205
1571,7.649919599993154,0.023419887561953,-0.04912382836871204,-0.049391356585034775,0.04477610994763155,0.033258917457748824,-0.001565010859407581,0.09490695079752676,0.28011066023380937,-0.07608148184568703,0.016643110262650973,0.4380270335329219,-0.17055558766773493
1572,7.657358399999794,0.023668174796705962,-0.049362910948360046,-0.04942832190979697,0.04523609878507717,0.03462116449851978,-0.0019355832355709213,0.09498411141961112,0.2822243389294579,-0.07690733801082247,0.015297078642552798,0.43438014847564327,-0.1703116060249707
1573,7.661480299997493,0.023764570435066325,-0.04945832798405987,-0.0494116588964998,0.04569644548147642,0.03599360978256138,-0.0023101545028131956,0.09505470784184103,0.28432014686273305,-0.07773197648583081,0.013929111292898293,0.43064826384082333,-0.17004927704762451
1574,7.669843600000604,0.023923658423605103,-0.049690435351385856,-0.04944358574652255,0.04615711800085822,0.03737616577719888,-0.0026887185882684397,0.09511863421661358,0.2863976727977675,-0.0785553082038961,0.012539303903913394,0.42683160904455164,-0.16976855214330094
1575,7.674034299998311,0.02400724166267983,-0.04980348651474237,-0.049426086428413375,0.04661808379553656,0.03876874296106179,-0.003071268986571801,0.0951757851629555,0.28845650664587086,-0.07937724386047915,0.011127758335921823,0.4229304296437142,-0.16946938526921884
1576,7.677950599987525,0.024063440266284594,-0.04991655252934499,-0.049452226840385534,0.04707930980843193,0.040171249829780646,-0.003457798758699591,0.09522605579635426,0.2904962395436312,-0.08019769392574451,0.009694582631879249,0.41894498735392727,-0.1691517329517957
1577,7.682268099990324,0.024137664757250862,-0.05004870035776033,-0.04947397500694973,0.04754076247553798,0.04158359290206096,-0.003848300530870304,0.09526934175865785,0.2925164639310975,-0.081016568657089,0.008239891028464556,0.4148755600640024,-0.16881555430582273
1578,7.686807999998564,0.024214594252225195,-0.05017535869102122,-0.049485497662491974,0.048002407728533765,0.0430056767261347,-0.004242766493507108,0.09530553924803593,0.2945167736300262,-0.08183377811176983,0.006763803965709816,0.4107224418469202,-0.16846081105322303
1579,7.694902399991406,0.024350864608787288,-0.050379558939089374,-0.04952082917037849,0.048464210997542105,0.04443740388658931,-0.004641188400262303,0.09533454504899533,0.2964967639221736,-0.08264923215963076,0.00526644809515069,0.40648594296729107,-0.16808746754138504
1580,7.698846200000844,0.024406138719796078,-0.0504835722491721,-0.049557459264517184,0.04892613721403397,0.045878675011574374,-0.005043557567104237,0.0953562565624424,0.29845603162761836,-0.08346284049592487,0.0037479562864792815,0.40216638988528153,-0.16769549076106477
1581,7.703062699991278,0.024451149142064112,-0.05057445914094619,-0.04958495229651843,0.04938815081387917,0.04732938878038619,-0.005449864871467141,0.0953705718357852,0.3003941751830959,-0.084274512654232,0.002208467632681665,0.39776412525698623,-0.16728485036384855
1582,7.707199099997524,0.02450386127027964,-0.05066299343849591,-0.04964827605657325,0.04985021574054333,0.04878944193143036,-0.005860100751464358,0.095377389593068,0.3023107947203282,-0.08508415801946903,0.0006481274536426294,0.3932795079312255,-0.1668555186791691
1583,7.711308199999621,0.024547257569010262,-0.050732217056161266,-0.04972131105192346,0.05031229544843135,0.050258729270562214,-0.00627425520516545,0.0953766092651306,0.3042054921443326,-0.08589168584099074,-0.0009329127017996276,0.3887129129427493,-0.1664074707308677
1584,7.715854299996863,0.024619342675576906,-0.050853635370110034,-0.04974400281246985,0.050774352906377364,0.05173714367980499,-0.006692317789937659,0.09536813101978524,0.30607787121169294,-0.0866970052457792,-0.0025344950553658173,0.3840647315018303,-0.16594068425329472
1585,7.725600599995232,0.024750566291643725,-0.05104157307612644,-0.04971635902322575,0.05123635060128159,0.0532245761264456,-0.007114277621852151,0.09535185579200296,0.3079275376087736,-0.08750002525171922,-0.004156455600431554,0.37933537098023096,-0.165455139706941
1586,7.732007300000987,0.024884170421291325,-0.05121288738410603,-0.04977529661502211,0.05169825054189393,0.054720915672507746,-0.007540123375155494,0.09532768531410168,0.3097540990298621,-0.08830065478095776,-0.005798624104723392,0.3745252548935286,-0.16495082029359334
1587,7.738111099999514,0.024923407408265597,-0.0513288292993109,-0.04983610227916276,0.05216001426274452,0.05622604948460207,-0.007969843281806797,0.09529552214592799,0.31155716525522137,-0.08909880267334463,-0.007460824114630949,0.36963482287978433,-0.164427711971007
1588,7.743293099993025,0.024975035932114868,-0.051437385266159645,-0.04989296459312044,0.05262160282822102,0.05773986284415299,-0.008403425131080944,0.09525526970502429,0.31333634822903556,-0.0898943776999523,-0.009142872961150805,0.36466453067454163,-0.1638858034670896
1589,7.748497199994745,0.025050034858569322,-0.05166517809048169,-0.049966625797002014,0.0530829768367925,0.05926223915800187,-0.008840856269238336,0.09520683229677349,0.3150912621372306,-0.09068728857667238,-0.010844581767477483,0.3596148500821427,-0.16332508629358883
1590,7.757358799994108,0.025100920162543717,-0.051925594144126494,-0.05000715670350779,0.053544096425379675,0.060793059969385825,-0.009282123599261564,0.09515011514451306,0.31682152348514936,-0.0914774439778866,-0.01256575545825652,0.35448626894335195,-0.1627455547592772
1591,7.761283299987554,0.02511347195429565,-0.052053167567210616,-0.05002242767776672,0.05400492127387153,0.062332204969291705,-0.009727213580659394,0.09508502441961057,0.3185267511750651,-0.09226475255020929,-0.014306192770514137,0.34927929109927663,-0.16214720598262714
1592,7.765708699997049,0.02509228852432856,-0.05217454095940124,-0.05006531481858469,0.05446541060978793,0.06387955200818458,-0.010176112229338471,0.0950114672714926,0.3202065665835154,-0.09304912292629879,-0.01606568626627768,0.3439944363515802,-0.16153003990396972
1593,7.769710599997779,0.025124308614488736,-0.05235789993965098,-0.05005781972530227,0.054925523213088176,0.06543497710811016,-0.010628805117543076,0.09492935185761854,0.3218605936384394,-0.09383046373873556,-0.017844022346900558,0.3386322404189798,-0.16089405929713163
1594,7.773847999997088,0.025164688374423913,-0.05251095203364292,-0.05000583160377661,0.055385217421124934,0.06699835447517,-0.011085277373863256,0.09483858737339111,0.3234884588961018,-0.09460868363396445,-0.019640981269105084,0.33319325489002266,-0.1602392697805441
1595,7.777658899998642,0.025164688374423913,-0.05251095203364292,-0.05000583160377661,0.05584445113374322,0.06856955651236882,-0.011545513683311623,0.09473908408199525,0.3250897916177841,-0.09538369128629788,-0.02145633716275618,0.32767804717213717,-0.15956567982781875
1596,7.783356599989929,0.025201582180310184,-0.05280417673378506,-0.0499332058932448,0.05630318181852391,0.07014845383283241,-0.012009498287469106,0.09463075334415712,0.3266642238462275,-0.09615539541197764,-0.023289858050378393,0.3220872004369545,-0.15887330077778505
1597,7.787101599999005,0.025215388995390962,-0.052929103900911795,-0.04991558645864101,0.056761366516171426,0.07173491527339468,-0.012477214984699954,0.09451350764781469,0.3282113904818081,-0.09692370478329246,-0.02514130586842823,0.31642131356189745,-0.15816214684398394
1598,7.790840699992259,0.02521806185650242,-0.053048301088361415,-0.04989692368779669,0.057218961846045246,0.07332880790855252,-0.012948647130436286,0.09438726063769136,0.32973092935842835,-0.09768852824274843,-0.02701043649033327,0.31068100106803564,-0.15743223512361257
1599,7.794992199997068,0.02524770229831843,-0.05316486462742854,-0.049840103427929085,0.057675924011834516,0.07492999706478731,-0.013423777637532488,0.09425192714476385,0.3312224813191058,-0.09844977471728904,-0.028896999751309087,0.3048668930542064,-0.15668358560591578
1600,7.7990598999895155,0.0252501476452309,-0.05329548377419377,-0.04979186534555808,0.05813220880737539,0.07653834633525151,-0.013902588976689742,0.09410742321561541,0.3326856902912425,-0.09920735323256155,-0.030800739474964537,0.29897963512740083,-0.15591622118001927
1601,7.803667599990149,0.025283009137238417,-0.05327976592751083,-0.04978738542286448,0.05858777162261051,0.07815371759481886,-0.014385063176950881,0.09395366614166568,0.33412020336155734,-0.09996117292722685,-0.03272139350170524,0.2930198883294168,-0.15513016764219995
1602,7.807349800001248,0.025289509059082452,-0.05336769925858822,-0.04972371526677459,0.05904256744968959,0.07977597101549669,-0.0148711818262658,0.09379057448826811,0.33552567085066265,-0.1007111430673094,-0.034658693718944665,0.28698832905978083,-0.15432545370258804
1603,7.814269999988028,0.025281216201962803,-0.05345491074866431,-0.04966397420369381,0.0594965508892106,0.0814049650821989,-0.01536092607212758,0.09361806812366524,0.33690174638726766,-0.10145717306058422,-0.03661236609313139,0.2808856489949473,-0.15350211099129749
1604,7.81972109999333,0.025256035179771315,-0.05364191806208777,-0.049482180854018024,0.05994967615660093,0.08304055660887731,-0.015854276622279485,0.09343606824779314,0.3382480869819904,-0.10219917247099747,-0.0385821307036008,0.2747125550037785,-0.1526601740639798
1605,7.823707999996259,0.02526782471672678,-0.0537365098023994,-0.049390654401040096,0.060401897088637434,0.08468260075500955,-0.016351213745493032,0.09324449742092532,0.3395643531007595,-0.10293705103311679,-0.040567701778258775,0.26846976905931297,-0.15179968040679803
1606,7.830006399992271,0.025269894629797347,-0.053818211236651654,-0.049286418891287015,0.060853167150104706,0.08633095104244139,-0.0168517172724172,0.09304327959214662,0.34085020873778765,-0.10367071866660843,-0.042568787731104354,0.2621580281468292,-0.1509206704408175
1607,7.833906200001365,0.025274391259445233,-0.053923753619900705,-0.04917884826011153,0.061303439440590426,0.08798545937258155,-0.017355766596498838,0.09283234012764816,0.3421053214880977,-0.10440008549073798,-0.04458509120159775,0.25577808416821424,-0.1500231875258108
1608,7.83891139998741,0.02529570885482789,-0.05402096421901293,-0.049074048275550126,0.06175266670141711,0.0896459760439467,-0.01786334067497439,0.09261160583883452,0.343329362619584,-0.10512506183889186,-0.04661630909587931,0.2493307038426464,-0.14910727796347406
1609,7.843101399994339,0.025317742844620957,-0.054108887241912956,-0.04898308995856098,0.06220080132270895,0.09131234977005441,-0.01837441802993302,0.09238100501023368,0.3445220071445913,-0.10584555827311648,-0.048662132629844625,0.24281666860360276,-0.1481729910000506
1610,7.848854299998493,0.02538030246234507,-0.05428259898827418,-0.0488006155002981,0.06264779535059267,0.09298442769766203,-0.01888897674945127,0.09214046742720068,0.3456829338909937,-0.10656148559867203,-0.05072224737408019,0.23623677449220476,-0.14722037882835987
1611,7.854056699987268,0.025412306736546562,-0.05436359289048891,-0.048680896665155196,0.06309360049453172,0.09466205542534872,-0.019406994488799335,0.09188992440340567,0.3468118255727569,-0.10727275487859825,-0.052796333300663335,0.22959183204691566,-0.14624949658922898
1612,7.865185399990878,0.025455088569735444,-0.05459038095702975,-0.04839306994620899,0.0635381681347924,0.09634507702243876,-0.019928448471719033,0.09162930880809701,0.3479083688599664,-0.10797927744828838,-0.054884064831829546,0.2228826661896047,-0.14526040237232557
1613,7.869857799989404,0.02549580710699836,-0.05467543362963957,-0.04827342157486861,0.0639814493300408,0.09803333504826398,-0.02045331549177344,0.09135855509312991,0.3489722544483036,-0.10868096493006746,-0.056985110890509665,0.21611011610799452,-0.14425315721639034
1614,7.880524499996682,0.025630876375924275,-0.05477024787215033,-0.048053945116992174,0.0644233948250692,0.09972667057176318,-0.020981571913768097,0.09107759931975153,0.3500031771279525,-0.1093777292477718,-0.05909913495273884,0.20927503513450785,-0.14322782510886814
1615,7.886404099990614,0.02563330916944886,-0.05486520577614068,-0.0478216675198966,0.06486395505865107,0.1014249231914163,-0.021513193675243843,0.09078637918513273,0.351000835851919,-0.11006948264132652,-0.061225795101938346,0.2023782906215313,-0.14218447298493567
1616,7.890723499993328,0.025669916412770617,-0.0549049449072002,-0.04768675860467334,0.06530308017152321,0.10312793105551009,-0.02204815628804132,0.09048483404863725,0.35196493380374766,-0.11075613768131848,-0.06336474408507065,0.19542076381311585,-0.14112317072592506
1617,7.895396699997946,0.025698488879671855,-0.054939194488249375,-0.0475508323013084,0.06574072001449373,0.10483553088273262,-0.02258643483993718,0.09017290495781868,0.35289517846461566,-0.11143760728356103,-0.06551562937066704,0.18840334971313571,-0.1400439911571427
1618,7.899653299988131,0.025745475434588244,-0.054971780883349676,-0.04740671750447727,0.06617682415667449,0.10654755798309347,-0.02312800399635205,0.08985053467413581,0.35379128167978596,-0.11211380472364683,-0.06767809320872692,0.18132695694992743,-0.13894701004508253
1619,7.903679800001555,0.025766407953253564,-0.05501006160235783,-0.047247834818837646,0.06661134189383679,0.10826384627916683,-0.02367283800213006,0.08951766769837685,0.35465295972440164,-0.11278464365148562,-0.06985177269248614,0.1741925076374337,-0.13783230609403355
1620,7.908342599999742,0.025779830064792036,-0.05504406328813008,-0.04711225783759087,0.06704422225688858,0.10998422832765492,-0.024220910683389926,0.08917425029578306,0.35547993336860617,-0.11345003810582414,-0.072036299822052,0.16700093723287665,-0.13669996094208015
1621,7.912163199987845,0.025784117021275314,-0.05507400362560047,-0.04697350729389367,0.06747541402047161,0.11170853534126872,-0.024772195449447438,0.08882023052086184,0.35627192794197393,-0.11410990252874512,-0.0742313015699009,0.15975319439098665,-0.1355500591564963
1622,7.915885499998694,0.0257442640963704,-0.05510559701493041,-0.04685155019003258,0.06790486571167689,0.11343659721092238,-0.025326665294809335,0.08845555824188,0.3570286733972338,-0.11476415178014199,-0.07643639994823467,0.15245024081481412,-0.13438268822853422
1623,7.922044699997059,0.02572539040254352,-0.055125034920262106,-0.04671666541923998,0.06833252561887736,0.11516824252823821,-0.0258842928012383,0.08808018516502802,0.35774990437327,-0.11541270115216594,-0.07865121207819008,0.14509305110315177,-0.13319793856760886
1624,7.925959399988642,0.025678207856093756,-0.055165213890503814,-0.04660441570194208,0.06875834180067596,0.11690329860835845,-0.02644505013988894,0.08769406485824628,0.35843536025738354,-0.11605546638364246,-0.08087535026089647,0.1376826125945972,-0.1319959034948794
1625,7.929822799997055,0.025650809091565842,-0.055190366181816795,-0.04646659372258636,0.06918226209496842,0.1186415915130603,-0.02700890907351451,0.08729715277470408,0.35908478524679815,-0.11669236367445351,-0.08310842205037512,0.130219925208287,-0.13077667923622896
1626,7.93649049999658,0.025577353871063725,-0.05527405658077922,-0.046216756393667964,0.06960423412811878,0.12038294607417042,-0.027575840958744265,0.08688940627592215,0.35969792840939246,-0.11732330969988218,-0.08535003032827303,0.12270600128133372,-0.12954036491464346
1627,7.941327499996987,0.025539774083521982,-0.055328293939771,-0.04608502622519937,0.0700242053242456,0.12212718591727578,-0.02814581674843101,0.08647078465452987,0.3602745437436434,-0.11794822162491672,-0.0875997733804227,0.11514186540299785,-0.12828706254199077
1628,7.94495150000148,0.025518583692276282,-0.05534893679515394,-0.04596943363188684,0.0704421229146169,0.12387413348572607,-0.02871880699406886,0.08604124915664839,0.360814390237764,-0.11856701711851038,-0.08985724497521878,0.10752855424563025,-0.12701687701020187
1629,7.949062299987418,0.025467286204935956,-0.05541727467490284,-0.04589503835156997,0.07085793394715215,0.12562361006492365,-0.029294781848281,0.08560076300388997,0.36131723192801907,-0.11917961436779313,-0.09212203444380115,0.09986711639241988,-0.12572991608185546
1630,7.954139099994791,0.025467286204935956,-0.05541727467490284,-0.04589503835156997,0.07127158529602921,0.1273754358068965,-0.02987371106737718,0.08514929141496419,0.3617828379562048,-0.1197859320922321,-0.0943937267620332,0.09215861216198346,-0.12442629038016777
1631,7.96159949999128,0.025396121571999008,-0.055550764659494954,-0.0456029819720499,0.07168302367139462,0.12912942975515013,-0.030455564013980738,0.08468680162688232,0.3622109826262759,-0.12038588955773721,-0.09667190263426337,0.08440411342983423,-0.12310611337839002
1632,7.971219200000632,0.025418399147862536,-0.05570660521863775,-0.04546905869310671,0.0720921956291747,0.13088540986979413,-0.03104030965972474,0.08421326291575107,0.362601445460105,-0.12097940659070937,-0.09895613857885747,0.07660470344676848,-0.12176950138861642
1633,7.975818199993228,0.025403792833627443,-0.055747589904578974,-0.04545030799558088,0.0724990475809857,0.13264319305294017,-0.031627916588017085,0.0837286466171466,0.3629540112523595,-0.12156640359202807,-0.10124600701548847,0.06876147665420881,-0.12041657355000514
1634,7.982721199994557,0.02538422277632539,-0.05581529392787645,-0.04545796114088731,0.07290352580414092,0.13440259517436698,-0.03221835299687419,0.0832329261460598,0.3632684701244803,-0.12214680155097567,-0.10354107635416994,0.0608755384965447,-0.11904745181641534
1635,7.987031899989233,0.02537092948580252,-0.055820569159500094,-0.04550982229764647,0.0733055764517531,0.13616343109744855,-0.032811586701823034,0.0827260770164045,0.3635446175777492,-0.12272052205909488,-0.1058409110860185,0.05294800523051207,-0.1176622609434636
1636,7.991670399991563,0.02537036064602977,-0.05584492116913391,-0.045555100678405805,0.07370514556293045,0.13792551470534137,-0.033407585138871224,0.08220807686008037,0.36378225454542784,-0.12328748732397632,-0.10814507187572944,0.04498000373165477,-0.1162611284750031
1637,7.9954052999964915,0.025374459625211624,-0.055855696632554935,-0.04561425720260618,0.074102179073064,0.13968865892742577,-0.034006315367544795,0.08167890544558222,0.3639811874439551,-0.12384762018297268,-0.11045311565574902,0.03697267129791193,-0.11484418472902942
1638,7.999025899989647,0.02537941806956598,-0.05585909763442452,-0.04569488485592686,0.07449662282420486,0.14145267576599702,-0.03460774407399346,0.08113854469614698,0.3641412282231896,-0.12440084411683616,-0.11276459572212572,0.028927155450375927,-0.11341156278301709
1639,8.00333849999879,0.02540008013843495,-0.05584843255765868,-0.04576278020724262,0.07488842257552862,0.14321737632320133,-0.035211837574162984,0.0805869787074303,0.3642621944156851,-0.12494708326327598,-0.11507906183202178,0.020844613731266847,-0.11196339845869048
1640,8.01022089998878,0.02541869840087866,-0.055821319706038985,-0.04583663114870821,0.07527752401388443,0.1449825708282124,-0.03581856181703413,0.08002419376470399,0.36434390918498527,-0.12548626243043384,-0.1173960603028661,0.012726213499170304,-0.11049983030623418
1641,8.01630319999822,0.025455318808330043,-0.05573565745625039,-0.046031559612155465,0.07566387276442646,0.14674806866464402,-0.03642788238792771,0.07945017835956658,0.36438620137292566,-0.1260183071102742,-0.11971513411312844,0.004573131721586475,-0.10902099958794781
1642,8.019961699988926,0.025475434601229537,-0.05566160672701846,-0.046145275153883794,0.07604741440132538,0.14851367839819443,-0.037039764511875496,0.0788649232061593,0.3643889055459274,-0.1265431434918856,-0.1220358230046949,-0.003613445235160857,-0.1075270502613496
1643,8.024014099995838,0.025485419726030255,-0.055584203053984794,-0.0462474632691909,0.07642809445855708,0.15027920780451645,-0.03765417305705639,0.0782684212568803,0.3643518620402696,-0.12706069847468976,-0.1243576635868232,-0.011832321818605504,-0.10601812896173336
1644,8.029197999989265,0.02551123560047762,-0.05549703449266629,-0.04634979204335283,0.07680585844076616,0.15204446389730863,-0.038271072538297646,0.07766066771758943,0.36427491700632636,-0.1275708996815564,-0.12668018944165463,-0.020082293505359696,-0.10449438498418381
1645,8.033128399998532,0.02553518028209157,-0.05539650033530686,-0.04643470973031378,0.07718065183420224,0.15380925295662262,-0.03889042712064013,0.07704166006229606,0.3641579224517561,-0.12807367547182089,-0.12900293123125958,-0.02836214701882296,-0.1029559702650556
1646,8.036869799994747,0.02554533976514528,-0.05530741071999036,-0.046532139399329334,0.07755242011772645,0.15557338055738157,-0.0395122006229672,0.07641139804732217,0.364000736283629,-0.12856895495420184,-0.13132541680619217,-0.0366706605493267,-0.10140303936292162
1647,8.041935499990359,0.02558547547876009,-0.05521523242811995,-0.04661814111455183,0.07792110877388572,0.15733665159810462,-0.0401363565216965,0.07576988372493355,0.36380322234948154,-0.12905666799961737,-0.13364717131552892,-0.045006603976661216,-0.09983574943899617
1648,8.046961699990788,0.025625282274376115,-0.05510494049447019,-0.04671273680412166,0.07828666330005206,0.15909887032983205,-0.04076285795453392,0.07511712145643142,0.36356525047728816,-0.1295367452538964,-0.1359677173183656,-0.05336873909493103,-0.09825426023703923
1649,8.051089999993565,0.025676403420297273,-0.05500156791372013,-0.04680456163884337,0.07864902921962431,0.16085984038524526,-0.04139166772428937,0.07445311792469714,0.36328669651433887,-0.13000911815038302,-0.13828657489674537,-0.061755819839683354,-0.09665873406274869
1650,8.055044599997927,0.02572636361334315,-0.05488389673473908,-0.046906162753418856,0.07900815209328985,0.16261936480797615,-0.04202274830275373,0.07377788214618317,0.36296744236501377,-0.13047371892243084,-0.14060326176999005,-0.0701665925172538,-0.09504933576264708
1651,8.059621599997627,0.025787874260988174,-0.05475598601694763,-0.04701454475423568,0.07936397753034347,0.16437724608210053,-0.04265606183463649,0.07309142548234258,0.36260737602744336,-0.1309304806157855,-0.1429172934104055,-0.07859979603627255,-0.09342623270246858
1652,8.064854899988859,0.02596848801660425,-0.05446563374437092,-0.0472351577204118,0.07971645120006089,0.16613328616180975,-0.043291570141563776,0.0723937616504907,0.36220639162904394,-0.13137933710085206,-0.14522818316033204,-0.08705416214127389,-0.0917895947450523
1653,8.069262699995306,0.02609529747561432,-0.05430177572081719,-0.047359614477560166,0.08006551884312395,0.1678872865012554,-0.04392923472613601,0.07168490673409189,0.3617643894609167,-0.13182022308484637,-0.1475354423505102,-0.0955284156483504,-0.09013959422774832
1654,8.07383480000135,0.02624748534142908,-0.05412361451402812,-0.04746474470538718,0.08041112628309428,0.16963904808456,-0.044569016776044426,0.07096487919246541,0.3612812760111007,-0.13225307412382745,-0.14983858041973142,-0.10402127468279418,-0.08847640593934294
1655,8.079443199996604,0.026450414515128168,-0.05393593779030006,-0.04755457350887907,0.08075321943793255,0.17138837145598804,-0.04521087716824589,0.07023369986990403,0.3607569639966725,-0.13267782663460947,-0.15213710503574265,-0.11253145091866482,-0.08680020709650992
1656,8.084474699993734,0.026642640083848392,-0.053718208949577614,-0.04763837358833046,0.0810917443315608,0.17313505675027,-0.045854776473195046,0.06949139200419964,0.36019137239468185,-0.1330944179065511,-0.15443052221737147,-0.12105764982022439,-0.0851111773197944
1657,8.088663899994572,0.026844409913598988,-0.053484813969990566,-0.047807384168771276,0.08142664710546513,0.17487890372307477,-0.04650067495913318,0.06873798123456966,0.3595844264719146,-0.13350278611322036,-0.15671833645783861,-0.12959857088517815,-0.08340949860913689
1658,8.09265449999657,0.0270861703167212,-0.053217311195845586,-0.047923110939823245,0.08175787403033596,0.17661971178162375,-0.047148532596433625,0.06797349560897811,0.35893605781347326,-0.13390287032393278,-0.15900005084922425,-0.13815290788965903,-0.08169535531894445
1659,8.096567100001266,0.02739290746796178,-0.05292505097781333,-0.04803391990612027,0.08208537151774278,0.17835728001544135,-0.04779830906200296,0.06719796559084532,0.35824620435016735,-0.13429461051516037,-0.16127516720805357,-0.1467193491348938,-0.07996893413271622
1660,8.10063459999219,0.02768119939606315,-0.052567727576420475,-0.04819445267679284,0.08240908613184039,0.18009140722723632,-0.0484499637437375,0.0664114240651408,0.3575148103847064,-0.13467794758180934,-0.1635431862019657,-0.15529657769548819,-0.0782304240372305
1661,8.10500269998738,0.0279731102430171,-0.05220921992660442,-0.048362408069125534,0.08272896460110427,0.18182189196390777,-0.049103455745034205,0.06561390634385392,0.3567418266166881,-0.135052823348364,-0.1658036074774302,-0.16388327166926756,-0.07648001629630004
1662,8.109444599991548,0.028276567008367063,-0.05179757139961759,-0.048556011719993374,0.08304495383009153,0.18354853254767012,-0.049758743889355556,0.06480545017083708,0.3559272101663743,-0.1354191805798947,-0.16805592978847408,-0.17247810442860914,-0.07471790442410263
1663,8.115139699992142,0.028881967965240625,-0.050895878865975144,-0.0490040630544476,0.08335700091122436,0.18527112710729074,-0.05041578672484744,0.06398609572601707,0.3550709245972474,-0.13577696299292846,-0.17029965112638223,-0.18107974487320114,-0.07294428415809463
1664,8.120017699999153,0.0291625586665915,-0.05034961006843593,-0.04933347677616101,0.08366505313659284,0.18698947360943424,-0.0510745425290094,0.06315588562896919,0.3541729399373396,-0.13612611526618035,-0.17253426885033252,-0.18968685768416435,-0.07115935343151478
1665,8.124267199993483,0.029510898264127082,-0.04983336746712608,-0.04958475849794883,0.08396905800977392,0.1887033698901071,-0.05173496931341659,0.062314864941849915,0.35323323269932794,-0.13646658305114293,-0.17475927981892647,-0.19829810357947128,-0.06936331234548584
1666,8.128196499994374,0.029865593491740335,-0.04929092936447447,-0.0498716387735607,0.08426896325766321,0.19041261368619616,-0.052397024828492726,0.06146308117168382,0.352251785899385,-0.13679831298253162,-0.17697418052257566,-0.20691213957059681,-0.06755636314072136
1667,8.132945399993332,0.03020600634196368,-0.04872159086947383,-0.05022589338161808,0.08456471684231674,0.19211700266709447,-0.0530606665683328,0.060600584272000886,0.35122858907478066,-0.13712125268858455,-0.17917846721670422,-0.21552761922033395,-0.06573871016884444
1668,8.137214599992149,0.030533058266571097,-0.04814341636691706,-0.05057217378684871,0.08485626697279976,0.1938163344664084,-0.05372585177557498,0.059727426643820136,0.3501636383002276,-0.13743535080121544,-0.1813716360557278,-0.22414319290170695,-0.0639105598633264
1669,8.140925399988191,0.03091076699838576,-0.047495395581297506,-0.05088865253568505,0.08514356211703976,0.19551040671373948,-0.054392537446320936,0.058843663135976214,0.34905693620296613,-0.1377405569660178,-0.18355318322776684,-0.23275750805791434,-0.06207212071005246
1670,8.145826599997235,0.03130775245575671,-0.046839506549801006,-0.051187894412957756,0.08542655101368077,0.1971990170665355,-0.055060680335103744,0.05794935104478536,0.34790849197658213,-0.13803682185211943,-0.18572260509005165,-0.24136920946323492,-0.06022360321752215
1671,8.149403899995377,0.03163612936695962,-0.04619665623326761,-0.05144649255090288,0.08570518268393518,0.19888196324200325,-0.05573023695990286,0.05704455011304796,0.34671832139355263,-0.13832409716188515,-0.18787939830497571,-0.249976939484829,-0.058365219886691785
1672,8.15917429998808,0.03239427238432773,-0.04473822129934099,-0.052036437590444615,0.08597940644342952,0.2005590430490766,-0.05640116360720515,0.0561293225283845,0.34548644681651164,-0.13860233564046576,-0.19002305997675428,-0.2585793383453656,-0.05649718518046709
1673,8.162968999997247,0.032666969438541714,-0.0439757682266482,-0.05245535451866261,0.08624917191404081,0.20223005442043446,-0.05707341633711122,0.05520373292090203,0.34421289720823317,-0.13887149108519153,-0.19215308778864357,-0.26717504438640655,-0.05461971549285361
1674,8.16724609999801,0.032912420310189476,-0.04321762428855223,-0.052921485580919365,0.0865144290357198,0.20389479544456177,-0.05774695098848655,0.054267848360188206,0.34289770814032633,-0.13913151835480872,-0.19426898014067667,-0.2757626943324775,-0.05273302911777284
1675,8.170745099996566,0.03318421340857948,-0.04240531987459691,-0.053311820433820316,0.0867751280782981,0.20555306439784696,-0.05842172318415653,0.05332173835163053,0.3415409218006384,-0.1393823733785571,-0.19637023628787104,-0.2843409235557569,-0.05083734621755153
1676,8.174322699996992,0.03348949377861283,-0.041581339079823136,-0.05368146461213465,0.08703121965327604,0.20720465977670993,-0.059097688336144635,0.05236547483205828,0.34014258699936545,-0.13962401316508696,-0.1984563564788619,-0.2929083663413102,-0.04893288879109168
1677,8.178186199991615,0.03374953293566216,-0.040827899049189896,-0.05404829107202231,0.08728265472558842,0.20884938032975386,-0.059774801650952725,0.051399132164705465,0.338702759173868,-0.13985639581121334,-0.20052684209491609,-0.3014636561528002,-0.0470198806417287
1678,8.182224999996834,0.03394287296866301,-0.04000720031716823,-0.05443963976420985,0.08752938462534446,0.21048702508993486,-0.06045301813488292,0.05042278713349303,0.3372215003921874,-0.14007948051050662,-0.20258119578928024,-0.3100054258986039,-0.045098547344785224
1679,8.186842999988585,0.03416723705753243,-0.03911305475972618,-0.054785526194333085,0.08777136105953864,0.21211739340674354,-0.0611322925994001,0.04943651893662881,0.3356988793552615,-0.14029322756171858,-0.20461892162681541,-0.3185323081982669,-0.04316911621482819
1680,8.190938399988227,0.0343361246184002,-0.03819509197992036,-0.05521250462061724,0.08800853612372948,0.21374028497839234,-0.06181257966653442,0.04844040917952371,0.3341349713978374,-0.14049759837704284,-0.20663952522387202,-0.3270429356492262,-0.041231816272636536
1681,8.19698249999783,0.034525813865658464,-0.03736934100729357,-0.0555458884776751,0.08824086231368253,0.21535549988400232,-0.062493833774322737,0.04743454186702311,0.33252985848808236,-0.14069255549020818,-0.20864251388835742,-0.3355359410937315,-0.039286878211886825
1682,8.203980299993418,0.0349341673362638,-0.035546447859518,-0.056230432141324616,0.08846829253697458,0.21696283861578383,-0.06317600918228793,0.04641900339495244,0.33088362922589243,-0.1408780625644034,-0.2106273967599472,-0.34400995788589656,-0.03733453436556395
1683,8.20819130000018,0.0349341673362638,-0.035546447859518,-0.056230432141324616,0.08869078012455571,0.21856210211120508,-0.06385905997695553,0.04539388254097658,0.32919637883989805,-0.14105408440003295,-0.21259368495039258,-0.35246362015881205,-0.035375018672103985
1684,8.21572589999414,0.03556360240531957,-0.03275621426030532,-0.05694258839564594,0.08890827884226585,0.22015309178514397,-0.06454294007740734,0.04435927045477246,0.3274682091831674,-0.14122058694230213,-0.21454089168387483,-0.36089556309165044,-0.03340856664127631
1685,8.21985739999218,0.035709934404762056,-0.03169993067467383,-0.05733800640702437,0.08912074290230289,0.22173560956201785,-0.06522760324087142,0.043315260647514814,0.3256992287276062,-0.1413775372886313,-0.2164685324373582,-0.36930442317669165,-0.0314354153198122
1686,8.224109399990994,0.0358554603761504,-0.030669615751139537,-0.05770860203447581,0.08932812697463886,0.223309457907884,-0.06591300306834745,0.042261948980675305,0.3238895525570542,-0.1415249036958972,-0.21837612508089188,-0.37768883848619944,-0.02945580325678695
1687,8.23414149999735,0.03631670953754166,-0.028545307927708884,-0.05827555424624876,0.08953038619838113,0.22487443986250585,-0.06659909301026709,0.04119943365413554,0.32203930235907813,-0.14166265558749952,-0.22026319001781103,-0.3860474489390757,-0.027469970468762487
1688,8.238519099992118,0.03650092500428681,-0.02735880430986911,-0.05857983172141771,0.08972747619307538,0.22643035907137807,-0.06728582637218827,0.04012781519361452,0.3201486064154648,-0.14179076356025122,-0.22212925032478684,-0.3943788965672221,-0.025478158404697256
1689,8.243149299989454,0.03670633066178104,-0.0261084322736715,-0.05890317071432593,0.08991935306994675,0.22797701981770344,-0.06797315632052285,0.03904719643741129,0.3182175995914146,-0.1419091993910911,-0.2239738318916761,-0.4026818257815399,-0.023480609910630158
1690,8.247416400001384,0.036905030375606385,-0.02490095899421197,-0.05920997003971289,0.09010597344307596,0.22951422705431465,-0.06866103588829639,0.037957682522463745,0.31624642332343594,-0.1420179360436188,-0.22579646356111957,-0.4109548836374997,-0.021477569194145233
1691,8.252433299989207,0.03744295115999815,-0.022570533755358578,-0.05986498505477542,0.09028729444050712,0.2310417864355344,-0.06934941798093926,0.03685938086972481,0.3142352256059415,-0.1421169476744513,-0.2275966772678384,-0.41919672010021064,-0.01946928178862371
1692,8.257061199998134,0.03760693029182393,-0.021351904075579128,-0.06026806290809978,0.0904632737152843,0.23255950434896813,-0.07003825538210867,0.03575240116885753,0.31218416097655,-0.1422062096394001,-0.2293740081775782,-0.42740598830891996,-0.017455994517289877
1693,8.260428499997943,0.03760693029182393,-0.021351904075579128,-0.06026806290809978,0.0906338694564135,0.23406718794722264,-0.07072750075954047,0.03463685536225103,0.3100933905000938,-0.14228569849946884,-0.23112799482565052,-0.435581344840875,-0.015437955457057036
1694,8.264121299987892,0.03782854151933389,-0.020146834813531703,-0.06058172955858094,0.09079904039974716,0.23556464517954398,-0.07141710667092968,0.03351285762835923,0.30796308175133746,-0.142355392026671,-0.23285817925502195,-0.443721449974476,-0.013415413902179638
1695,8.267823299989686,0.03794194991679665,-0.018933215452130118,-0.06103325496875717,0.09095874583878824,0.23705168482336747,-0.07210702556983914,0.032380524364364664,0.3057934087964086,-0.14241526920966655,-0.2345641071538985,-0.45182496795165117,-0.01138862032771778
1696,8.271968000000925,0.03809756952543788,-0.01780400592455718,-0.061461231192540905,0.09111294563541057,0.23852811651577327,-0.07279720981163552,0.031239974168170082,0.3035845521729472,-0.14246531025921688,-0.2362453279927536,-0.4598905672393851,-0.009357826352820026
1697,8.277985399996396,0.038442038574980936,-0.015335086791489497,-0.0623202418452215,0.0912616002304924,0.23999375078484073,-0.07348761165945163,0.030091327819720858,0.3013366988689775,-0.14250549661345635,-0.23790139516074787,-0.4679169207903289,-0.007323284703830382
1698,8.2820764999924,0.03855560059252081,-0.014235474684794082,-0.06282962218277051,0.09140467065446038,0.24144839908089513,-0.07417818329017391,0.028934708261661335,0.2990500423005078,-0.1425358109429798,-0.23953186610148997,-0.4759027063024255,-0.005285249177225097
1699,8.286459599999944,0.038711772214849484,-0.013061020416738801,-0.06333083358256414,0.09154211853774055,0.24289187380764107,-0.07486887680045419,0.02777024057932849,0.29672478228786525,-0.14255623715574484,-0.24113630244808756,-0.4838466064774811,-0.0032439746023847707
1700,8.291291000001365,0.038861936819846433,-0.011965211123532651,-0.06379259581687051,0.09167390612111327,0.24432398835317684,-0.0755596442127446,0.026598051980086215,0.29436112503077094,-0.14256676040178864,-0.24271427015743807,-0.4917473092786171,-0.0011997168042071258
1701,8.295144499992603,0.03897114884481953,-0.010748572747216297,-0.0643559103978543,0.09179999626596835,0.2457445571208844,-0.07625043748135464,0.025418271772004262,0.29195928308215924,-0.14256736707775794,-0.24426533964370836,-0.49960350818653537,0.000847267434434309
1702,8.299371299988707,0.03909877844427147,-0.009446296438500354,-0.06484195463890342,0.09192035246445696,0.24715339556019017,-0.07694120849852971,0.02423103134188599,0.28951947532074834,-0.14255804483125115,-0.24578908591095203,-0.5074139024545335,0.0028967204103805045
1703,8.30409609999333,0.03917878220174235,-0.008332604724653529,-0.06536298383451061,0.09203493884953694,0.24855032019718995,-0.07763190910054987,0.023036464132649218,0.28704192692237035,-0.14253878256497293,-0.2472850886848135,-0.5151771973622014,0.0049483835380212775
1704,8.311531899991678,0.03939794511452809,-0.005790793576791412,-0.06641650221732806,0.09214372020490832,0.24993514866512978,-0.07832249107384846,0.021834705620064964,0.28452686933006677,-0.14250957044070056,-0.24875293254326822,-0.5228921044677359,0.007001997387268858
1705,8.315541399992071,0.03953497376940627,-0.00438648234963132,-0.06690556213531543,0.09224666197483529,0.25130769973473827,-0.0790129061611498,0.02062589328885899,0.28197454022295715,-0.14247039988306137,-0.25019220704635065,-0.5305573418588092,0.009057301721666019
1706,8.322339499994996,0.039598333227567416,-0.0029221517598848105,-0.06754187014945633,0.09234373027385162,0.25266779334440453,-0.07970310606762504,0.0194101666081814,0.2793851834838883,-0.14242126358312188,-0.2516025068648195,-0.5381716344019214,0.011114035536624255
1707,8.332307599994238,0.03984257850092123,0.001178987667583722,-0.06912081381942545,0.09243489189634706,0.2540152506301953,-0.08039304246706476,0.018187667006449616,0.27675904916587296,-0.14236215550178802,-0.25298343190770944,-0.5457337139901784,0.01317193709778765
1708,8.336599899994326,0.040058881164235935,0.0025542063062840674,-0.06954876790670016,0.09252011432603173,0.25534989395570257,-0.08108266700806702,0.016958537845570366,0.27409639345732534,-0.14229307087301585,-0.2543345874487194,-0.5532423197894325,0.015230743979518246
1709,8.341935799995554,0.0402706601624503,0.0038905986307621156,-0.06993230775639189,0.09259936574527575,0.25667154694171634,-0.08177193132024002,0.01572292439454648,0.27139747864610075,-0.1422140062068329,-0.25565558425139,-0.5606961984827236,0.017290193103498858
1710,8.346404099997017,0.04042420769244534,0.00527370488446984,-0.07038787304979337,0.09267261504432069,0.2579800344957176,-0.08246078702041816,0.014480973802474538,0.2686625730823472,-0.14212495929216964,-0.25694603869302174,-0.5680941045129627,0.019350020777449448
1711,8.350927499996033,0.04063819417315283,0.006739805403256957,-0.07075817533631816,0.0927398318303605,0.2592751828411851,-0.08314918571889017,0.013232835070939742,0.2658919511401766,-0.14202592919950172,-0.25820557288728513,-0.5754348003237942,0.02140996273395335
1712,8.354793699996662,0.04086648201209876,0.008116260658269361,-0.07111589537058206,0.0928009864364888,0.2605568195467115,-0.08383707902563836,0.011978659025814636,0.2630858931781651,-0.14191691628330227,-0.2594338148054749,-0.5827170565985732,0.023469754169389685
1713,8.362951199989766,0.04120961125557026,0.010673454389834898,-0.07189580208823194,0.09285604993050899,0.261824773554923,-0.0845244185565879,0.01071859828846838,0.2602446854986929,-0.14179792218430437,-0.26063039839635893,-0.589939652497399,0.025529129782968552
1714,8.368371799995657,0.041389982091385225,0.011981738137343436,-0.07227309574532033,0.09290499412360417,0.26307887521119583,-0.08521115593986528,0.009452807246393738,0.257368620306133,-0.14166894983157283,-0.2617949637045736,-0.5971013758921452,0.027587823815865643
1715,8.37318859998777,0.04180188445943247,0.014512100541111347,-0.07284565395905059,0.0929477915788642,0.26431895629216345,-0.08589724282206498,0.008181442023259097,0.25445799566389926,-0.14153000344438482,-0.26292715698751856,-0.6042010235994273,0.02964557009045319
1716,8.376996299994062,0.04180188445943247,0.014512100541111347,-0.07284565395905059,0.0929844156196668,0.26554485003400957,-0.08658263087452363,0.0069046604483931125,0.2515131154503636,-0.14138108853391823,-0.26402663083070355,-0.6112374016114501,0.031702102049624356
1717,8.383210499989218,0.042190696584570406,0.01701653303222159,-0.0733605374502674,0.09301484033791078,0.26675639116054284,-0.0872672717996003,0.0056226220257097025,0.24853428931365099,-0.141222211904747,-0.26509304426150077,-0.618209325324681,0.03375715279620842
1718,8.386897299991688,0.04235879778650796,0.0183871307039465,-0.07363191203534035,0.09303904060209814,0.26795341591104926,-0.08795111733696216,0.004335487902081414,0.24552183262532332,-0.14105338165614378,-0.26612606286125623,-0.6251156197662955,0.035810455132474106
1719,8.392777999993996,0.042587859766349434,0.019602545171260057,-0.0738137989362985,0.09305699206526288,0.2691357620679163,-0.08863411926987452,0.0030434208351693562,0.24247606643296238,-0.14087460718318914,-0.26712535887571476,-0.6319551198183427,0.03786174159971884
1720,8.396934899996268,0.0427786339206138,0.02082038622157156,-0.07397176058376209,0.09306867117274388,0.27030326898402246,-0.08931622943149452,0.0017465851607181419,0.23939731741166426,-0.14068589917768765,-0.26809061132371237,-0.6387266704395782,0.03991074451794154
1721,8.401242599997204,0.04302143686811731,0.02211349955846652,-0.07417623282262271,0.0930740551697995,0.2714557776098875,-0.08999739971116746,0.0004451467593244787,0.23628591781445632,-0.1404872696288901,-0.2690215061040915,-0.6454291268849125,0.04195719602559682
1722,8.405847999994876,0.04319553057719952,0.02343839799940068,-0.07433866299819407,0.09307312210906159,0.2725931305205775,-0.09067758206072503,-0.0008607269773116931,0.233142205421648,-0.14027873182402173,-0.26991773610079267,-0.6520613549224289,0.044000828119428397
1723,8.41014529998938,0.04333159028038261,0.02475355110152033,-0.07449385097305936,0.09306585085782612,0.27371517194236183,-0.09135672850078441,-0.002170867180644439,0.22996652348912794,-0.14006030034861552,-0.27077900128607807,-0.6586222310479207,0.046041372694379856
1724,8.415064499989967,0.04369710747619823,0.02723563877850796,-0.07493937773405285,0.09305222110517782,0.27482174777911667,-0.09203479112704764,-0.003485103540038138,0.22675922069562113,-0.13983199108665095,-0.27160500882184374,-0.6651106426969039,0.048078561583580724
1725,8.419609599994146,0.0439090272300499,0.028539722212661038,-0.07516672516042852,0.09303221336894635,0.2759127056384695,-0.0927117221166002,-0.004803264338013348,0.2235206510889191,-0.13959382122049854,-0.2723954731589794,-0.6715254884540574,0.050112126598406415
1726,8.424796999999671,0.044081837368946226,0.029941179552569617,-0.07529462909740267,0.0930058090024916,0.27698789485768044,-0.09338747373420878,-0.006125176485972517,0.22025117403109684,-0.13934580923067041,-0.2731501161347332,-0.6778656782600483,0.05214179956861068
1727,8.430394199996954,0.044251861034694556,0.03127125634492235,-0.07555049221480184,0.09297299020131548,0.27804716652925543,-0.09406199833861752,-0.007450665560395635,0.2169511541427312,-0.1390879748953773,-0.27386866706804214,-0.6841301336156973,0.05416731238252928
1728,8.436582999987877,0.044794777507641347,0.03389231433176111,-0.07588007243944452,0.09293374000949764,0.27909037352628535,-0.09473524838884219,-0.008779555839495698,0.21362096124613558,-0.13882033928989249,-0.274550862852787,-0.6903177877834382,0.056188397027353704
1729,8.441213400001288,0.04500399026722675,0.035333717977568666,-0.07612180403870651,0.0928880423259525,0.28011737052750835,-0.09540717645046105,-0.010111670340323725,0.21026097030762447,-0.13854292478572244,-0.27519644804893384,-0.696427585986027,0.05820478562947388
1730,8.44513319998805,0.04500399026722675,0.035333717977568666,-0.07612180403870651,0.09283588191050551,0.2811280140420913,-0.09607773520190112,-0.011446830856312795,0.2068715613788209,-0.13825575504958448,-0.27580517497151946,-0.7024584856024582,0.06021621049488851
1731,8.448680999994394,0.0452964332302323,0.036823029990339914,-0.07631014966475223,0.09277724438978606,0.28212216243412663,-0.09674687744071898,-0.0127848579952504,0.20345311953702094,-0.13795885504219083,-0.2763768037774455,-0.7084094563610468,0.06222240414968246
1732,8.45601889998943,0.04599222032894553,0.03982059756132722,-0.07676575544640547,0.09271211626293471,0.28309967594684043,-0.09741455608987538,-0.014125571217668288,0.20000603482462875,-0.13765225101683917,-0.2769111025500424,-0.7142794805296364,0.06422309938057025
1733,8.460960799988243,0.046831514590495685,0.04303879689279039,-0.07729092398921134,0.09264048490712257,0.2840604167265066,-0.0980807242040025,-0.015468788875638705,0.19653070218767593,-0.137335970517809,-0.277407847381368,-0.7200675531028887,0.06621802927550512
1734,8.469808099995134,0.04796909460529778,0.04652888043818684,-0.07776206207684012,0.09256233858288103,0.28500424884606146,-0.09874533497566287,-0.01681432825196586,0.19302752141343874,-0.13701004237856385,-0.27786682245220656,-0.7257726819866192,0.068206927264353
1735,8.473919500000193,0.0486582043672692,0.04840296223486041,-0.077979308840618,0.09247766643924052,0.28593103832841454,-0.09940834174159854,-0.018162005599761232,0.18949689706716796,-0.1366744967197594,-0.2782878201097337,-0.7313938881791451,0.07018952715963055
1736,8.478097100000014,0.04934054452544824,0.050259869700204705,-0.07821341418532642,0.09238645851867579,0.28684065316945123,-0.10006969798896952,-0.019511636182391122,0.18593923842794602,-0.1363293649470576,-0.27867064094281196,-0.7369302059496114,0.07216556319730683
1737,8.482239099990693,0.050027020461175783,0.05205923547245479,-0.07855528097456074,0.09228870576185566,0.28773296336072257,-0.10072935736158012,-0.02086303431378481,0.18235495942368599,-0.13597467974874702,-0.2790150938548848,-0.742380683013256,0.07413477007766847
1738,8.486563699989347,0.05083321187289915,0.05406384059203283,-0.07884633133653385,0.09218440001219506,0.28860784091181896,-0.10138727366609286,-0.022216013399091426,0.1787444785652878,-0.1356104750931695,-0.27932099613443573,-0.7477443807035761,0.07609688300624873
1739,8.490615899994737,0.05165727046767075,0.056008113157043606,-0.07913891834311233,0.09207353402020786,0.2894651598724235,-0.10204340087822869,-0.023570385975673586,0.17510821887996636,-0.13523678622595361,-0.27958817352298143,-0.7530203741413628,0.07805163773482053
1740,8.495455399999628,0.05238680299600777,0.0578872451500921,-0.07958349220597599,0.09195610144765881,0.29030479635404083,-0.10269769314895248,-0.024925963754425587,0.171446607843767,-0.1348536496670546,-0.2798164602805692,-0.7582077524005723,0.07999877060245378
1741,8.499898099995335,0.05314456439351138,0.05985761994746159,-0.08009989952090173,0.09183209687151321,0.2911266285513968,-0.10335010481064255,-0.026282557661403905,0.1677600773132848,-0.13446110320760085,-0.28000569924874785,-0.7633056186710014,0.08193801857663716
1742,8.504642299987609,0.053915534430712855,0.061808874925480733,-0.08066718904445103,0.09170151578768272,0.29193053676350345,-0.10400059038324352,-0.02763997787975758,0.16404906345660358,-0.13405918590654597,-0.2801557419109844,-0.7683130904177404,0.08386911929446454
1743,8.510337999992771,0.05467742320107773,0.0636137420116978,-0.08124073148747671,0.09156435461456613,0.29271640341438643,-0.10464910458040193,-0.028998033891945923,0.16031400668347096,-0.1336479380871256,-0.2802664484504992,-0.7732292995373723,0.08579181110388628
1744,8.517457699999795,0.05614912124893409,0.06767789143835021,-0.08244731956563718,0.09142061069638371,0.293484113073472,-0.10529560231558328,-0.030356534522230746,0.1565553515747247,-0.1332274013331187,-0.28033768780549323,-0.7780533925108943,0.08770583310502553
1745,8.521553499987931,0.05689778715088505,0.0695049178701015,-0.08305057028870885,0.09127028230630392,0.29423355247563043,-0.10594003870816947,-0.03171528797943018,0.15277354681098682,-0.1327976184849132,-0.28036933772174294,-0.7827845305533332,0.08961092519155966
1746,8.52849709999282,0.05844861112160293,0.07344153183411387,-0.08448447542972368,0.0911133686493613,0.2949646105408734,-0.10658236908953578,-0.03307410189992098,0.1489690451006423,-0.13235863363537653,-0.28036128480253797,-0.787421889760028,0.09150682809216719
1747,8.53434610000113,0.05925610383081651,0.07533076542098571,-0.08506394840712388,0.0909498698651642,0.2956771783937019,-0.10722254900910635,-0.03443278339087621,0.145142303107119,-0.13191049212553066,-0.2803134245559395,-0.7919646612495567,0.09339328341204042
1748,8.538092899994808,0.05925610383081651,0.07533076542098571,-0.08506394840712388,0.09077978703039102,0.2963711493821007,-0.10786053424038716,-0.035791139073725164,0.14129378137548546,-0.1314532405400314,-0.28022566143933664,-0.7964120513032762,0.09527003367446445
1749,8.543227599991951,0.060028363598340115,0.07726044487928764,-0.0857885947725396,0.090603122161074,0.2970464190961743,-0.10849628078697547,-0.037148975127822295,0.13742394425838253,-0.13098692670245093,-0.28009790890128045,-0.8007632815014554,0.09713682236246311
1750,8.55049519999011,0.06166701111513342,0.081036756959161,-0.08693963208235067,0.09041987821466964,0.2977028853864197,-0.10912974488854511,-0.03850609733431157,0.13353325984130585,-0.13051159967036283,-0.2799300894205752,-0.8050175888559769,0.09899339396051239
1751,8.561450299996068,0.06550628306240144,0.0878909445811908,-0.08954277027282533,0.09023005909191488,0.29834044838163315,-0.10976088302680635,-0.03986231112017279,0.12962219986725518,-0.13002730973022852,-0.27972213454260875,-0.8091742259395919,0.10083949399632157
1752,8.565002299990738,0.06550628306240144,0.0878909445811908,-0.08954277027282533,0.0900336696384685,0.29895901050644735,-0.11038965193143954,-0.04121742160243646,0.12569123966076753,-0.12953410839208548,-0.2794739849129029,-0.8132324610117087,0.10267486908268254
1753,8.569610899998224,0.0678899177354621,0.0911216184752522,-0.09055376753901025,0.08983071564633714,0.29955847649849754,-0.11101600858600147,-0.04257123363255322,0.12174085805135103,-0.12903204838403745,-0.2791855903078656,-0.8171915781407004,0.10449926695938727
1754,8.57501049998973,0.06914341384419385,0.0926930213842919,-0.0910933719069064,0.08962120385508461,0.30013875342521323,-0.11163991023380375,-0.04392355184090436,0.11777153729633658,-0.12852118364654658,-0.2788569096627287,-0.8210508773227192,0.10631243653521416
1755,8.578793799999403,0.07041258226045655,0.0943478976743448,-0.09158333874025901,0.0894051419528235,0.3006997507002341,-0.11226131438376138,-0.04527418068143942,0.11378376300316423,-0.12800156932652776,-0.27848791109665505,-0.8248096745970016,0.10811412792998376
1756,8.582469499990111,0.07170904442761072,0.09595793179024262,-0.09207588682567218,0.08918253857698889,0.3012413800994466,-0.11288017881621039,-0.04662292447642694,0.10977802405112137,-0.12747326177124493,-0.278078571935003,-0.8284673021576552,0.10990409251668444
1757,8.586550899999565,0.0730629982884881,0.09749595438204113,-0.09253095648899737,0.08895340331489397,0.3017635557766406,-0.1134964615886937,-0.04796958746130448,0.10575481251255009,-0.1269363185220093,-0.27762887872873504,-0.832023108461918,0.11168208296366858
1758,8.593024499990861,0.0744673051162965,0.09923395726253362,-0.093013778930237,0.08871774670406657,0.3022661942787823,-0.11411012104171402,-0.04931397382961409,0.10171462357354065,-0.12639079830767908,-0.27713882727096056,-0.8354764583348826,0.11344785327691914
1759,8.597524500000873,0.0758287095136134,0.10082684763380789,-0.09342007434348286,0.08847558023236637,0.30274921456090337,-0.11472111580445257,-0.05065588777800907,0.0976579554541287,-0.125836761037961,-0.27660842261060203,-0.8388267330706769,0.11520115884238645
1760,8.601162599996314,0.07730660724987479,0.10242229671619132,-0.09381161747632635,0.08822691633788238,0.3032125380006028,-0.11532940480045258,-0.0519951335513179,0.09358530932801379,-0.12527426779651318,-0.27603767906317456,-0.8420733305300903,0.11694175646839558
1761,8.604795399995055,0.07874946469611802,0.10396507892069978,-0.09420163421243431,0.08797176840861061,0.3036560884121593,-0.11593494725326649,-0.05333151548765123,0.08949718924181697,-0.12470338083384985,-0.2754266202186731,-0.845215665234641,0.11866940442812442
1762,8.609492099989438,0.0801771353787299,0.1056062288128142,-0.09473822821433087,0.08771015078191173,0.3040797920602517,-0.11653770269206626,-0.054664838063537974,0.08539410203389458,-0.12412416356004652,-0.27477527894656073,-0.848253168457078,0.12038386250215195
1763,8.613465699992958,0.08164156215705215,0.10735278213131771,-0.09521298039277457,0.0874420787437481,0.3044835776732871,-0.11713763095721563,-0.05599490593907616,0.08127655725272592,-0.12353668053724524,-0.2740836973978539,-0.8511852883083086,0.12208489202107695
1764,8.617870199988829,0.08314624413860959,0.10909622265123935,-0.0956709028661557,0.08716756852770009,0.30486737645633205,-0.11773469220580306,-0.05732152400308435,0.0771450670748927,-0.12294099747196016,-0.27335192700430017,-0.8540114898207544,0.1237722559082061
1765,8.621464500000002,0.08463280599181537,0.11082980296757942,-0.09625884651611372,0.0868866373137617,0.3052311221036449,-0.11832884691713406,-0.05864449741823955,0.073000146222668,-0.12233718120718408,-0.27258002847464735,-0.8567312550281317,0.12544571872231058
1766,8.628442899993388,0.08763592370079196,0.11459075239651247,-0.09733220301272424,0.08659930322691534,0.3055747508108067,-0.11892005589818193,-0.059963631666187504,0.06884231188123248,-0.12172529971429552,-0.27176807178800055,-0.8593440830416528,0.12710504670044986
1767,8.632292399997823,0.08906619915593834,0.11656422646810069,-0.09790888161205154,0.08630558533548634,0.3058982012864501,-0.11950828028899572,-0.061278732592611365,0.06467208361553556,-0.12110542208476648,-0.2709161361842681,-0.8618494901226416,0.12875000780086152
1768,8.636263799999142,0.09044298640662915,0.11846445990532328,-0.09859377801483216,0.08600550364927698,0.30620141476358576,-0.12009348156806414,-0.06258960645224484,0.06048998328681879,-0.1204776185216715,-0.27002431015169703,-0.8642470097515641,0.13038037174591618
1769,8.640651999987313,0.09199005066670883,0.12039062223960222,-0.09921050824816778,0.08569907911748041,0.3064843350105244,-0.12067562155763466,-0.06389605995381575,0.0562965349688189,-0.11984196033099674,-0.2690926914115008,-0.8665361926934696,0.13199591006513742
1770,8.647374799998943,0.09343223275379071,0.12242793653661842,-0.09985218651871937,0.08538633362637453,0.30674690834139445,-0.12125466242898734,-0.06519790030490556,0.052092264863668275,-0.11919851991274873,-0.26812138689958276,-0.8687166070598483,0.13359639613828453
1771,8.651690399987274,0.09480034519594538,0.12443519557582855,-0.10057738297967271,0.08506728999679647,0.3069890836262522,-0.1218305667076629,-0.06649493525671021,0.04787770121751017,-0.11854737075186293,-0.26711051274536174,-0.87078783836691,0.13518160523849673
1772,8.657336099990061,0.09758491901551901,0.1283589377077477,-0.10190318065912542,0.08474197198139839,0.3072108123007835,-0.1224032972786438,-0.06778697314868816,0.04365337423584629,-0.11788858740891152,-0.26606019424770144,-0.8727494895902891,0.13675131457549694
1773,8.661439199990127,0.0989373499117416,0.1304177478824913,-0.102571060472925,0.0844104042616849,0.3074120483755948,-0.12297281739148758,-0.06907382295308162,0.03941981599863395,-0.11722224551061014,-0.26497056584795214,-0.874601181216183,0.13830530333885374
1774,8.666476999991573,0.10037110490791176,0.13224090820826817,-0.10329262113333298,0.08407261244483252,0.3075927484450941,-0.12353909066541142,-0.07035529431929666,0.03517756037515046,-0.11654842174012385,-0.26384177110011076,-0.876342551288929,0.13984335274130028
1775,8.670205399990664,0.10170157764313056,0.13407554560663446,-0.10405909761873448,0.08372862306029202,0.3077528716959601,-0.1241020810943271,-0.07163119761812775,0.030927142938641995,-0.11586719382717119,-0.2626739626381079,-0.8779732554550294,0.1413652460621071
1776,8.673808099993039,0.10170157764313056,0.13407554560663446,-0.10405909761873448,0.08337846355617404,0.3078923799151991,-0.12466175305182511,-0.07290134398581284,0.02666910088077448,-0.11517864053792631,-0.26146730214023073,-0.8794929670036347,0.14287076869050655
1777,8.678052699993714,0.10435456167153982,0.13792045427990415,-0.10538682737713156,0.08302216229541878,0.30801123749778553,-0.12521807129610713,-0.07416554536790534,0.022403972925903456,-0.11448284166471884,-0.26022196029069383,-0.8809013769035023,0.14435970816916574
1778,8.686886899988167,0.10697980742653165,0.14150145532640912,-0.10670912152844535,0.08265974855175082,0.3081094114538856,-0.12577100097486615,-0.07542361456294931,0.018132299245180082,-0.11377987801553152,-0.258938116738369,-0.8821981938364444,0.14583185423770553
1779,8.69059610000113,0.10820431190834191,0.14336715590242355,-0.10747472764808674,0.08229125250541988,0.3081868714156621,-0.12632050763011268,-0.076675365265944,0.013854621370510535,-0.11306983140329513,-0.2576159600526878,-0.8833831442272758,0.1472869988762633
1780,8.694823499987251,0.10946072800895484,0.14522880605734417,-0.10820912740853422,0.0819167052387291,0.30824358964366066,-0.1268665572029463,-0.07792061211158378,0.009571482108385968,-0.11235278463498026,-0.25625568767673146,-0.8844559722702816,0.14872493634909695
1781,8.69895489999908,0.11065855177219469,0.1470252301310936,-0.1088588203253105,0.08153613873135226,0.3082795410327763,-0.12740911603827232,-0.07915917071725977,0.005283425453599972,-0.11162882150048618,-0.25485750587752437,-0.8854164399522152,0.15014546324822722
1782,8.707347399991704,0.11294232344623485,0.15091821936169658,-0.10997198832230656,0.0811495858554417,0.30829470311779883,-0.12794815088946326,-0.0803908577258099,0.0009909965028704092,-0.11089802676132601,-0.2534216296935482,-0.8862643270718424,0.15154837853711434
1783,8.715470600000117,0.11514400371709094,0.15447445351631464,-0.11130118439443877,0.08075708037052799,0.30828905607853746,-0.1284836289229633,-0.08161549084800411,-0.003305258631617546,-0.11016048613910767,-0.25194828287949306,-0.8869994312560486,0.15293348359436487
1784,8.719762799999444,0.11625476547704572,0.1562922272684252,-0.11185073504492256,0.08035865691821331,0.30826258274452445,-0.12901551772283512,-0.08283288890475075,-0.007604792908730392,-0.1094162863038106,-0.2504376978482652,-0.8876215679725261,0.15430058225746487
1785,8.724167799999123,0.11738052786590031,0.15821274348203176,-0.11240883293865798,0.07995435101665987,0.3082152685992975,-0.1295437852952493,-0.08404287186901113,-0.011907058444950666,-0.10866551486185812,-0.2488901156102711,-0.8881305705390593,0.15564948086653482
1786,8.728256899994449,0.11850417711029279,0.15997620759026945,-0.11288024804512832,0.07954419905487524,0.3081471017842606,-0.13006840007291567,-0.08524526090740912,-0.016211506600970132,-0.1079082603439853,-0.24730578570999837,-0.8885262901294276,0.15697998830810164
1787,8.732406099996297,0.11959910418126095,0.16171870072727734,-0.11336320769029856,0.07912823828679574,0.30805807310212446,-0.13058933091945601,-0.0864398784215231,-0.02051758806829532,-0.10714461219290283,-0.24568496615991675,-0.8888085957759426,0.15829191605888268
1788,8.736461899999995,0.12072697553086818,0.16360010207435163,-0.11393858045471246,0.07870650682516968,0.3079481760199268,-0.13110654713371667,-0.08762654808884729,-0.02482475295584909,-0.10637466075075616,-0.24402792337172413,-0.8889773743686387,0.15958507822957566
1789,8.741245799988974,0.12179133515783934,0.16533711803460654,-0.11443927962527461,0.07827904363524218,0.30781740667163127,-0.13162001845402097,-0.0888050949034094,-0.029132450876551995,-0.10559849724638042,-0.24233493208496223,-0.8890325306511421,0.16085929160864887
1790,8.745104000001447,0.12289705724345634,0.16724431637888082,-0.11496954120622266,0.07784588852824328,0.30766576386030564,-0.13212971506235938,-0.08997534521603216,-0.03344013103386741,-0.10481621378235027,-0.24060627529302983,-0.8889739872132415,0.16211437570612566
1791,8.750889999995707,0.12390453013870782,0.16916981211021376,-0.11534591786063515,0.07740708215468085,0.3074932490598777,-0.13263560758851642,-0.09113712677422577,-0.03774724230829421,-0.10402790332182438,-0.23884224416661887,-0.8888016844801845,0.16335015279735693
1792,8.755071199993836,0.1248645866942163,0.17112507329461893,-0.11581287671917084,0.07696266599744044,0.3072998664164703,-0.13313766711413372,-0.09229026876169899,-0.04205323334379114,-0.1032336596751845,-0.2370431379746015,-0.8885155806987197,0.16456644796677475
1793,8.758941899999627,0.1257815328650836,0.173154764292812,-0.11625902237384379,0.07651268236469345,0.30708562274931533,-0.13363586517670836,-0.09343460183747658,-0.04635755263411701,-0.10243357748646936,-0.23520926400239595,-0.8881156519199037,0.16576308915161975
1794,8.763039299999946,0.126667232883595,0.1752043000320135,-0.11665687621345096,0.07605717438261578,0.3068505275512456,-0.13413017377352476,-0.0945699581746112,-0.05065964860907148,-0.1016277522196033,-0.2333409374678416,-0.8876018919786958,0.16693990718563495
1795,8.76663469999039,0.126667232883595,0.1752043000320135,-0.11665687621345096,0.07559618598791898,0.3065945929887649,-0.13462056536551945,-0.09569617149847799,-0.05495896972062081,-0.10081628014441928,-0.2314384814346138,-0.8869743124703725,0.16809673584271811
1796,8.771484799988684,0.12824017541918714,0.17920911770673773,-0.11772956264971192,0.0751297619201966,0.3063178339016954,-0.13510701288107746,-0.09681307712463934,-0.05925496452889334,-0.09999925832247733,-0.22950222672321113,-0.8862329427237915,0.16923341188052415
1797,8.775979499987443,0.12909771088193114,0.18118527036263113,-0.11808468487095183,0.07465794771408747,0.30602026780240454,-0.13558948971975962,-0.09792051199626818,-0.06354708178802927,-0.09917678459267833,-0.2275325118195482,-0.885377829771534,0.17034977508400906
1798,8.782479999994393,0.13068680014061576,0.18485477129936298,-0.1189573387650676,0.07418078969125856,0.3057019148746136,-0.13606796975595925,-0.09901831472111908,-0.06783477053186954,-0.09834895755667276,-0.22552968278118785,-0.8844090383169558,0.17144566830890734
1799,8.786541199995554,0.13148280360945008,0.18659514647290093,-0.11934061791865457,0.07369833495220962,0.30536279797178845,-0.13654242734248676,-0.10010632560803549,-0.07211748015946895,-0.09751587656406521,-0.2234940931412473,-0.8833266506981807,0.17252093752513478
1800,8.790744899990386,0.13238216001427583,0.18827350626367353,-0.11967024194751415,0.07321063136790149,0.30500294261511285,-0.13701283731408126,-0.10118438670298202,-0.07639466052041885,-0.09667764169741432,-0.22142610381001354,-0.8821307668490646,0.17357543186010757
1801,8.795126299999538,0.1331569257252858,0.18983646101367535,-0.12012152047241954,0.07271772757120991,0.30462237699104666,-0.13747917499084863,-0.10225234182459017,-0.08066576199996452,-0.09583435375702888,-0.21932608297430473,-0.8808215042571576,0.17460900364196924
1802,8.799087799998233,0.13395957091120939,0.1914778500559252,-0.12055604437591265,0.07221967294820808,0.3042211319484691,-0.13794141618162506,-0.10331003659920662,-0.08493023560390263,-0.09498611424556017,-0.21719440599461529,-0.879398997918691,0.17562150844271665
1803,8.803037399993627,0.13477310240543694,0.19314385820077273,-0.12089781086095702,0.0717165176292799,0.303799240995407,-0.1383995371872655,-0.10435731849543287,-0.08918753304324444,-0.0941330253523908,-0.21503145530008208,-0.8778634002906186,0.17661280512121458
1804,8.8077123999974,0.1356366278287852,0.19458790398428497,-0.12118904996567713,0.07120831248006684,0.30335674029534987,-0.1388535148038574,-0.10539403685814575,-0.0934371068186304,-0.09327518993782075,-0.21283762028130992,-0.8762148812397363,0.17758275586608893
1805,8.811608999996679,0.13635764325274033,0.19601932787549045,-0.12158422477432916,0.07069510909225105,0.3028936686631537,-0.13930332632585868,-0.10642004294198858,-0.09767841030448218,-0.0924127115170506,-0.21061329718109695,-0.874453627988911,0.17853122623848747
1806,8.81561679999868,0.13713928004611028,0.19745791108114102,-0.12191792484638138,0.07017695977417747,0.30241006756053473,-0.13974894954915998,-0.10743518994432254,-0.10191089783287838,-0.09154569424396303,-0.20835888898310098,-0.8725798450604509,0.17945808521469694
1807,8.819855499998084,0.13796653778475723,0.19894183220082576,-0.12216060616415875,0.06965391754131743,0.3019059810911538,-0.14019036277407107,-0.10843933303762873,-0.10613402477714055,-0.09067424289470244,-0.2060748052984885,-0.8705937542166525,0.18036320522860522
1808,8.824674099989352,0.1386268188707567,0.20027175472537487,-0.12252086056220025,0.06912603610657618,0.30138145599529204,-0.14062754480823092,-0.10943232940135092,-0.11034724763511577,-0.08979846285105392,-0.20376146225060845,-0.868495594397558,0.18124646221399637
1809,8.828814099993906,0.13935654811843712,0.20153533028247567,-0.12291062031649792,0.06859336987044683,0.30083654164411966,-0.14106047496944016,-0.1104140382531693,-0.11455002411214252,-0.08891846008362152,-0.20141928235773363,-0.8662856216559585,0.18210773564666666
1810,8.834036599990213,0.1399847044266702,0.20281335664657113,-0.12319224229226913,0.06805597391101374,0.300271290033559,-0.14148913308841501,-0.1113843208796964,-0.11874181320368672,-0.08803434113480682,-0.19904869441391318,-0.8639641090896786,0.18294690858634838
1811,8.838384499991662,0.14057355366450852,0.20410808248138293,-0.1234941691881419,0.06751390397380862,0.2996857557777454,-0.14191349951146198,-0.11234304066658629,-0.1229220752776353,-0.08714621310158854,-0.19665013336798137,-0.861531346771173,0.18376386771842942
1812,8.843762799995602,0.1410874203135783,0.2054188311945726,-0.1237952373931153,0.06696721646152196,0.29907999610208647,-0.1423335551030717,-0.11329006312804837,-0.12709027215623497,-0.08625418361810386,-0.19422404020076786,-0.8589876416744695,0.18455850339545596
1813,8.849964599998202,0.14149095959307992,0.20667234594595502,-0.12420977832275426,0.06641596842357285,0.29845407083592257,-0.14274928124843125,-0.1142252559357561,-0.13124586719766398,-0.08535836083803217,-0.19177086180055658,-0.8563333175994926,0.18533070967840426
1814,8.856781599999522,0.14292022439038782,0.21025574652458573,-0.12494189914359936,0.06586021754553974,0.2978080424047899,-0.14316065985585558,-0.11514848894714254,-0.13538832537722395,-0.08445885341678214,-0.1892910508368396,-0.8535687150938049,0.18608038437770857
1815,8.862859699991532,0.14337424749488398,0.21149355166304593,-0.12527781545887479,0.0653000221384552,0.29714197582228796,-0.14356767335913645,-0.11605963423307473,-0.1395171133681404,-0.08355577049348344,-0.18678506563241404,-0.850694191371797,0.18680742909403117
1816,8.86729209999612,0.14374938486213779,0.21277099752897058,-0.12559688299757032,0.0647354411279679,0.29645593868155534,-0.14397030471980862,-0.11695856610489877,-0.14363169962195957,-0.08264922167278421,-0.184253370033869,-0.8477101202313637,0.1875117492587604
1817,8.874034599997685,0.14443815864390683,0.2153187883140292,-0.1262187582003483,0.06416653404337481,0.29575000114635686,-0.14436853742933226,-0.11784516114084827,-0.14773155444852945,-0.0817393170064556,-0.18169643328051163,-0.8446168919681071,0.1881932541742207
1818,8.878506799999741,0.14468051745463542,0.21657917760782933,-0.12650522146695817,0.0635933610065268,0.29502423594178245,-0.1447623555111905,-0.11871929821180938,-0.1518161500955541,-0.08082616697480467,-0.17911472987178131,-0.8414149132870994,0.18885185705357876
1819,8.882033299989416,0.14468051745463542,0.21657917760782933,-0.12650522146695817,0.06301598272061107,0.29427871834456143,-0.14515174352290108,-0.11958085850643545,-0.15588496082770914,-0.079909882467897,-0.1765087394332008,-0.8381046072122453,0.18948747506043176
1820,8.88610059999337,0.14496281345515538,0.2177951585223913,-0.12684122381616858,0.06243446045881363,0.2935135261729929,-0.14553668655794097,-0.12042972555560459,-0.1599374630053068,-0.07899057476659006,-0.17387894658091385,-0.8346864129932822,0.19010002934806208
1821,8.890967999992426,0.1454660201229171,0.22031972358705235,-0.1274361250852262,0.061848856052865255,0.2927287397764951,-0.14591717024758244,-0.12126578525621327,-0.16397313516249865,-0.07806835552337849,-0.17122584078485964,-0.8311607860104578,0.1906894450983443
1822,8.894782499992289,0.14572656854421756,0.22148303174590775,-0.12776701746852887,0.06125923188147436,0.2919244420247763,-0.14629318076263953,-0.12208892589429886,-0.16799145808500396,-0.07714333674305245,-0.16854991623063487,-0.8275281976769228,0.1912556515602877
1823,8.89837899999111,0.14572656854421756,0.22148303174590775,-0.12776701746852887,0.060665650858649584,0.29110071829662937,-0.14666470481512403,-0.12289903816748488,-0.17199191488735355,-0.0762156307631707,-0.16585167168009365,-0.8237891353388698,0.1917985820881972
1824,8.903853899988462,0.14626683419934206,0.22359046310131497,-0.12851737770296182,0.06006817642191541,0.2902576564683525,-0.14703172965981,-0.12369601520674313,-0.17597399108963782,-0.0752853502343499,-0.1631316103307368,-0.819944102173459,0.19231817417943586
1825,8.9079911000008,0.14643318347918527,0.2245993264322441,-0.12886178683648672,0.05946687252042427,0.28939534690179974,-0.1473942430957061,-0.12447975259746688,-0.17993717469374845,-0.07435260810037167,-0.16039023967394236,-0.8159936170845598,0.19281436951177272
1826,8.91149429998768,0.1465797824474591,0.22576500150402248,-0.12931439114185,0.05886180360296813,0.28851388243206655,-0.14775223346743455,-0.12525014839984921,-0.18388095625910325,-0.07341751757810899,-0.15762807135209086,-0.8119382145963491,0.19328711398029763
1827,8.915960499987705,0.1466914116499106,0.22682276373876042,-0.12967506498748219,0.058253034605893185,0.2876133583548113,-0.14810568966651563,-0.12600710316856226,-0.18780482897784367,-0.07248019213727365,-0.15484562101463825,-0.8077784447448044,0.19373635773388537
1828,8.919816800000262,0.14675531262819322,0.22783335787032452,-0.1300248108806314,0.05764063094092125,0.28669387241321687,-0.14845460113255618,-0.1267505199717317,-0.19170828874949525,-0.07154074547998637,-0.15204340817318868,-0.803514872967128,0.19416205521119168
1829,8.923931599987554,0.1467768198993975,0.22876935334907852,-0.13037569411137248,0.05702465848288146,0.285755524784596,-0.14879895785434172,-0.1274803044092022,-0.1955908342550816,-0.07059929152017173,-0.14922195605562152,-0.7991480799891398,0.19456416517616354
1830,8.928050499991514,0.1467493360629434,0.22976998726272443,-0.13073264960100967,0.05640518355735597,0.28479841806664385,-0.14913875037083146,-0.12819636463008927,-0.1994519670306831,-0.0696559443627796,-0.14638179145932573,-0.7946786617106762,0.19494265075304562
1831,8.932564199989429,0.14662542196854786,0.23073132252709047,-0.13111856657916712,0.0557822729282429,0.28382265726334,-0.1494739697720545,-0.12889861134961403,-0.20329119154042938,-0.06871081828283554,-0.14352344460359573,-0.7901072290890335,0.19529747946086445
1832,8.936513599997852,0.1464773508014454,0.2316507651647965,-0.1314324824315149,0.05515599378524023,0.2828283497705008,-0.14980460769990642,-0.12958695786521604,-0.20710801524891573,-0.06776402770432303,-0.1406474489812436,-0.7854344080204966,0.1956286232473713
1833,8.940663499990478,0.14632585079123062,0.2325518224564829,-0.13178581549532906,0.054526413731253894,0.2818156053609861,-0.15013065634884587,-0.13026132007194025,-0.21090194869303436,-0.06681568717890023,-0.13775434120948107,-0.7806608392199903,0.19593605852242385
1834,8.944962199995643,0.1461687090040482,0.23349529239452738,-0.1321788304222293,0.05389360076973371,0.28078453616956484,-0.15045210846648976,-0.13092161647709477,-0.21467250555321307,-0.06586591136445388,-0.13484466088012598,-0.7757871780988939,0.19621976619078785
1835,8.949106399988523,0.14596992086099136,0.23441067210053032,-0.1325497766741132,0.053257623291940885,0.27973525667744303,-0.15076895735410692,-0.1315677682141767,-0.2184192027240531,-0.06491481500349261,-0.13191895040918727,-0.7708140946410562,0.19647973168433902
1836,8.95309099998849,0.1457980862691227,0.2353232127404611,-0.13286789801133603,0.05261855006415093,0.27866788369645673,-0.15108119686700808,-0.1321996990560641,-0.22214156038435723,-0.0639625129013821,-0.1289777548858841,-0.7657422732770527,0.19671594499364609
1837,8.957346499999403,0.14548296730811477,0.23616947380783224,-0.1333087446583446,0.05197645021479554,0.27758253635293273,-0.15138882141483168,-0.1328173354274721,-0.22583910206653918,-0.06300911990442594,-0.1260216219211529,-0.7605724127567173,0.1969284006989158
1838,8.961417699989397,0.14521402450005028,0.23708538482858688,-0.13366705934037168,0.05133139322154701,0.2764793360712201,-0.15169182596172526,-0.13342060641667142,-0.22951135472540565,-0.062054750877795085,-0.12305110149569744,-0.7553052260199898,0.1971170980002799
1839,8.965741299994988,0.1449329631927589,0.238002686444664,-0.13408952899940094,0.0506834488983484,0.27535840655689586,-0.15199020602642163,-0.1340094437864672,-0.2331578488063049,-0.061099520683309094,-0.12006674580763607,-0.7499414400661153,0.19728204074740371
1840,8.969945099990582,0.14471910499404023,0.2388181561244811,-0.13449043549269352,0.05003268738239327,0.27421987377964735,-0.15228395768220923,-0.1345837819844359,-0.23677811831263626,-0.06014354415707253,-0.11706910911980187,-0.7444817958212345,0.19742323746839566
1841,8.97389409999596,0.14454553167987644,0.23960335977524103,-0.13483884763374235,0.04937917912105827,0.27306386595583376,-0.15257307755679622,-0.13514355815241924,-0.24037170087271278,-0.05918693608696948,-0.11405874760674924,-0.7389270480044001,0.19754070139799795
1842,8.978194600000279,0.14431367512812426,0.24035425585421594,-0.1352043867380496,0.04872299485879225,0.27189051353072896,-0.15285756283206647,-0.13568871213527484,-0.2439381378059707,-0.058229811190019444,-0.11103621920152205,-0.7332779649920509,0.19763445050503786
1843,8.984371799990186,0.144095743210185,0.24112180693274637,-0.13560403138293547,0.04806420562396574,0.2706999491604494,-0.1531374112437254,-0.1362191864888824,-0.24747697418851816,-0.057272284089597704,-0.10800208344223827,-0.7275353286809815,0.1977045075191185
1844,8.991953599994304,0.14364467930905214,0.24259849381766918,-0.13642007774340056,0.04740288271568457,0.2694923076935716,-0.15341262108083478,-0.13673492648740537,-0.25098775891801767,-0.05631446929252362,-0.10495690131854574,-0.7216999343498461,0.19775089995652734
1845,8.996528999996372,0.14332038313651577,0.24327476503605086,-0.13686525166193472,0.046739097690571316,0.2682677261524401,-0.15368319118523588,-0.13723588012980784,-0.2544700447778943,-0.055356481166020176,-0.1019012351180034,-0.7157725905192314,0.19777366014534084
1846,9.00081249998766,0.1430303138653171,0.24389954222804305,-0.13727491202927228,0.04607292234951843,0.2670263437141709,-0.15394912095086064,-0.1377219981456264,-0.25792338850086366,-0.05439843391454852,-0.09883564827244214,-0.7097541188103351,0.19777282524970471
1847,9.005226799999946,0.14279777087469134,0.24449114465805946,-0.13768133722520198,0.04540442872441654,0.26576830169135185,-0.15421041032293023,-0.13819323399999758,-0.2613473508317731,-0.053440441556521605,-0.09576070520435923,-0.703645353802283,0.197748437293268
1848,9.009496399987256,0.14256628408125907,0.24505479239286107,-0.13816714691877618,0.044733689064861665,0.26449374351244637,-0.15446705979704084,-0.13864954389794015,-0.2647414965897505,-0.052482617900900724,-0.09267697117340065,-0.6974471428881162,0.19770054318175065
1849,9.013497599997208,0.14238741452760606,0.2456418553932837,-0.1385399261449616,0.04406077582484522,0.2632028147019022,-0.15471907041813687,-0.13909088678789355,-0.26810539472965367,-0.0515250765236791,-0.08958501212298499,-0.6911603461294872,0.19762919472462384
1850,9.01740109999082,0.14222485205992538,0.24617931613008953,-0.13891364071735904,0.043385761649430296,0.2618956628599689,-0.15496644377937077,-0.13951722436451183,-0.27143861840281247,-0.0505679307442565,-0.08648539452712253,-0.6847858361100977,0.19753444865588177
1851,9.02159329999995,0.1420782425992445,0.24670321636982726,-0.1392340720873467,0.042708719361417895,0.2605724376422264,-0.15520918202084866,-0.13992852107071363,-0.27474074501705953,-0.04961129360170917,-0.08337868523748264,-0.6783244977879125,0.19741636665388324
1852,9.02636309999798,0.14191444500853065,0.2471942377026653,-0.13953859810432506,0.04202972194800677,0.2592332907388281,-0.15544728782826212,-0.1403247440989897,-0.27801135629604473,-0.04865527783095964,-0.08026545133076216,-0.6717772283461824,0.19727501536024183
1853,9.03197789999831,0.14141344917865456,0.24811314176410665,-0.1402405589288752,0.04134884254745032,0.2578783758534627,-0.15568076443140552,-0.14070586339197022,-0.28125003833782714,-0.04769999583885083,-0.07714625995640817,-0.6651449370433069,0.19711046639774304
1854,9.036274199999752,0.1410455278182685,0.24863785282631387,-0.14062373902125808,0.04066615443571415,0.2565078486820388,-0.1559096156025786,-0.1410718516422537,-0.28445638167274045,-0.046745559680128966,-0.07402167818474743,-0.6584285450615728,0.19692279638726784
1855,9.040465300000506,0.14067505762911203,0.24916780906662425,-0.141009166556839,0.03998173101313787,0.25512186689109745,-0.15613384565487415,-0.14142268429149993,-0.28762998132052814,-0.04579208103333995,-0.07089227285557455,-0.6516289853548011,0.19671208696370238
1856,9.044773099987651,0.14035856632363472,0.2497017852563509,-0.1413925486085715,0.03929564579110472,0.2537205900959554,-0.15635345944035142,-0.14175833952878916,-0.29077043684674253,-0.044839671176644356,-0.06775861042725073,-0.6447472024949373,0.19647842479081332
1857,9.049048599990783,0.14006294056960072,0.25026387748482604,-0.1417812534909676,0.038607972378722544,0.25230417983858194,-0.15656846234809452,-0.14207879828825073,-0.29387735241840235,-0.043888440963556055,-0.06462125682636491,-0.6377841525176138,0.19622190157506728
1858,9.061383399995975,0.13887464074542052,0.252026367488766,-0.14331635289734537,0.03791878446951959,0.25087279956521186,-0.15677886030215413,-0.14238404424596487,-0.2969503368589039,-0.042938500798609336,-0.061480777298007466,-0.6307408027667138,0.19594261407837407
1859,9.065515999987838,0.1385009900171817,0.25261266026122386,-0.14393140051928258,0.03722815582815863,0.24942661460369753,-0.156984659759373,-0.14267406381613998,-0.2999890037021797,-0.041989960612959745,-0.05833773625670704,-0.6236181317379691,0.19564066412973313
1860,9.069893099993353,0.13816370269785253,0.25325612613512544,-0.14457874611585023,0.03653616027717285,0.2479657921406039,-0.15718586770709425,-0.1429488461465697,-0.30299297124610186,-0.0410429298399236,-0.05519269713808044,-0.6164171289216215,0.1953161586357623
1861,9.077822799998104,0.13743914593502202,0.25479029664412695,-0.14623918409334885,0.035842871683726935,0.24649050119804886,-0.15738249166075194,-0.14320838311337344,-0.3059618626051261,-0.040097517390461655,-0.05204622225124539,-0.6091387946441826,0.19496920959008876
1862,9.082211799992365,0.13706449320684083,0.25558650234588154,-0.14703522518664755,0.035148363946407135,0.2450009126102918,-0.15757453966134372,-0.14345266931502357,-0.30889530576217394,-0.039153831628612155,-0.04889887263204512,-0.6017841399093222,0.19459993408158316
1863,9.0864498999872,0.13674116552390211,0.2562853942948614,-0.14783925677566756,0.03445271098204352,0.24349719900007355,-0.15776202027278516,-0.14368170206566264,-0.31179293361975097,-0.03821198034687888,-0.04575120789713358,-0.5943541862379146,0.19420845430141737
1864,9.090771999995924,0.13652047768318742,0.25716448495565947,-0.1489368366897538,0.03375598671256773,0.24197953475471082,-0.15794494257914676,-0.14389548138771605,-0.31465438405029744,-0.03727207074157948,-0.0426037860989688,-0.5868499655072738,0.1937948975489273
1865,9.094736799990642,0.1361740154703007,0.2578748955399312,-0.14998125472026033,0.03305826505190965,0.24044809600194986,-0.15812331618177258,-0.14409401000380495,-0.3174792999457687,-0.03633420938816008,-0.03945716358176193,-0.5792725197896065,0.19335939623626042
1866,9.09926849999465,0.13585457166126375,0.258675910427534,-0.15099532950862,0.03235961989293641,0.23890306058558208,-0.1582971511962803,-0.14427729332796474,-0.3202673292664409,-0.035398502216482046,-0.03631189483842859,-0.5716229011897127,0.19290208789178878
1867,9.103660699998729,0.13568703754065778,0.25967044956033797,-0.15197458680372006,0.03166012509443694,0.23734460804082533,-0.1584664582494428,-0.14444533945617477,-0.3230181250889378,-0.03446505448608699,-0.03316853236858904,-0.5639021716819611,0.19242311516226812
1868,9.110952199989695,0.13536704331529284,0.2611352640406352,-0.15421525838820477,0.030959854468155284,0.2357729195694747,-0.1586312484759515,-0.1445981591562053,-0.32573134565347295,-0.03353397076144595,-0.03002762653766266,-0.5561114029465682,0.1919226258137245
1869,9.117297599994345,0.13511494830422136,0.2617673364851777,-0.1553621032571583,0.03025888176587592,0.2341881780148274,-0.15879153351506173,-0.1447357658567884,-0.3284066544103047,-0.03260535488719908,-0.026889725437101976,-0.5482516762052119,0.19140077273104958
1870,9.121541699991212,0.13511324148765297,0.2626498849040237,-0.15642982089276583,0.029557280666564423,0.2325905678363857,-0.15894732550711932,-0.1448581756361178,-0.33104372006540156,-0.03167930996339211,-0.02375537474581094,-0.540324082056003,0.19085771391628545
1871,9.126145699992776,0.1349102251804922,0.263299879139004,-0.15747993366730878,0.028855124763566678,0.2309802750843418,-0.1590986370899686,-0.14496540720968304,-0.3336422166253176,-0.030755938320715957,-0.02062511759279114,-0.5323297203078406,0.19029361248558163
1872,9.130445999995572,0.13452499240420393,0.26389484016185455,-0.15863170870287996,0.02815248755186987,0.2293574873738489,-0.1592454813952418,-0.14505748191744341,-0.3362018234412739,-0.02983534149575601,-0.017499494421059157,-0.5242696998141714,0.1897086366648062
1873,9.134082799995667,0.13417155005610276,0.2644290050080309,-0.1597552148086255,0.027449442415428297,0.22772239385908216,-0.15938787204452967,-0.14513442371034832,-0.3387222252524434,-0.028917620206257523,-0.014379042852877477,-0.5161451383061767,0.1891029597837932
1874,9.138211899989985,0.133772595463451,0.264862872420673,-0.16081472239069922,0.026746062614557167,0.22607518520709133,-0.15952582314543393,-0.14519625913620932,-0.3412031122284358,-0.028002874326413803,-0.011264297556340756,-0.5079571622254139,0.18847676026920923
1875,9.142441599993615,0.13339521091156206,0.26553012909976864,-0.1618860285870349,0.02604242127339752,0.22441605357144875,-0.15965934928750108,-0.14524301732493095,-0.3436441800109804,-0.027091202862183975,-0.00815579011335835,-0.4997069065559364,0.18783022163602167
1876,9.149105499993311,0.1323390480511306,0.2666542721108081,-0.16376224459972155,0.025338591367455553,0.22274519256569636,-0.15978846553803774,-0.1452747299731076,-0.346045129754805,-0.0261827039266472,-0.005054048889073302,-0.49139551465591913,0.187163532477552
1877,9.153980099988985,0.13179276071928295,0.2672683273087019,-0.1647047676211244,0.02463464571121932,0.22106279723659525,-0.1599131874378077,-0.14529143132799396,-0.3484056681677094,-0.025277474715400244,-0.0019595989027572755,-0.4830241380888105,0.18647688645409796
1878,9.162010499989265,0.13052661415525377,0.2684718053352851,-0.1665203805695624,0.023930656945855867,0.21936906403718223,-0.16003353099661038,-0.14529315817085564,-0.3507255075498296,-0.024375611482005337,0.001127038299779809,-0.4745939364540369,0.18577048228011
1879,9.16711260000011,0.12993278974935385,0.2690837861246408,-0.16740802073385916,0.023226697526991674,0.21766419079963611,-0.1601495126887398,-0.14527994979970832,-0.35300436583208955,-0.02347720951349544,0.00420534477222746,-0.4661060772172851,0.18504452370990535
1880,9.174996599991571,0.12883294509489993,0.27042558065769473,-0.1690346344170272,0.02252283971257919,0.21594837670795822,-0.16026114944832334,-0.145251848011453,-0.35524196661383706,-0.022582363105944084,0.007274806292222473,-0.457561735540386,0.18429921952190453
1881,9.178945099993143,0.12824888502591633,0.27114277756688954,-0.1698150231450191,0.021819155550852447,0.21422182227047182,-0.1603684586645407,-0.14520889708341564,-0.3574380391996639,-0.021691165540107183,0.010334912484170585,-0.44896209411082133,0.18353478350137506
1882,9.18246189999627,0.12773808553322044,0.27197058054105916,-0.17055927410475405,0.021115716868374546,0.21248472929214474,-0.16047145817672293,-0.14515114375429944,-0.3595923186354078,-0.02080370905714415,0.013385156940406337,-0.44030834297087584,0.18275143442166833
1883,9.186971999995876,0.12718658773574495,0.27280895765752927,-0.17154674308787332,0.0204125952581797,0.21073730084674014,-0.16057016626933193,-0.14507863720455816,-0.36170454574333616,-0.01992008483442576,0.016425037340656406,-0.43160167934645643,0.18194939602393623
1884,9.190721199993275,0.1266794076653315,0.27363950991718766,-0.17243813611827186,0.019709862068012653,0.20897974124880042,-0.1606646016668201,-0.14499142903619897,-0.36377446715650696,-0.01904038296143618,0.019454055569772526,-0.4228433074755999,0.1811288969953137
1885,9.194683099995018,0.1266794076653315,0.27363950991718766,-0.17243813611827186,0.019007588388668208,0.20721225602546753,-0.16075478352837147,-0.14488957325202304,-0.36580183535230626,-0.018164692415776784,0.022471717833700937,-0.4140344384366913,0.18029017094555477
1886,9.197973899994397,0.1266794076653315,0.27363950991718766,-0.17243813611827186,0.01830584504243346,0.20543505188814307,-0.16084073144252548,-0.1447731262343115,-0.36778640868516105,-0.01729310103927931,0.02547753477365623,-0.4051762899764121,0.17943345638210945
1887,9.201424899991252,0.1266794076653315,0.27363950991718766,-0.17243813611827186,0.01760470257163551,0.20364833670399288,-0.1609224654216832,-0.14464214672296488,-0.36972795141842607,-0.016425695514235956,0.02847102157846825,-0.39627008633743555,0.17855899668363026
1888,9.215935100000934,0.12497866693940489,0.2794665866364315,-0.17823034357106896,0.016904231227297156,0.20185231946729937,-0.1610000058964965,-0.14449669579310553,-0.37162623375544235,-0.015562561339754163,0.03145169809507158,-0.38731705808588984,0.1776670400718973
1889,9.219766700000037,0.12474516713486596,0.2804030941342271,-0.17939557116635985,0.01620450095790318,0.20004721027066624,-0.16107337371014077,-0.14433683683215123,-0.3734810318697671,-0.014703782808243929,0.03441908893710795,-0.37831844193860886,0.17675783958215102
1890,9.224194800000989,0.12459592281155846,0.2812988749817415,-0.180430224831989,0.015505581398279658,0.1982332202760801,-0.16114259011247276,-0.1441626355163699,-0.37529212793457395,-0.01384944298204559,0.03737272359161286,-0.3692754805901886,0.175831653031824
1891,9.228973899997072,0.12449287332642148,0.28225396530405905,-0.18150131418760687,0.014807541858588834,0.1964105616858335,-0.1612076767540737,-0.14397415978692416,-0.37705931015122035,-0.012999623670206021,0.04031213652375875,-0.36018942253986563,0.17488874298766166
1892,9.23479609999049,0.12426740781295077,0.2831653958761336,-0.1827173759752296,0.014110451313441942,0.19457944771331392,-0.16126865568017854,-0.1437714798254153,-0.37878237277698257,-0.012154405405411212,0.0432368672796276,-0.35106152191823436,0.1739293767312238
1893,9.24222249999002,0.12395277970404385,0.2848490392140246,-0.18500653581871024,0.013414378391132267,0.1927400925536625,-0.16132554932449308,-0.14355466802893724,-0.38046111615195677,-0.011313867421083194,0.046146460586987174,-0.34189303831382095,0.1729538262227576
1894,9.245944399997825,0.12395277970404385,0.2848490392140246,-0.18500653581871024,0.012719391362990754,0.1908927113543071,-0.16137838050289885,-0.14332379898465003,-0.382095346725126,-0.010478087628649341,0.049040466454046,-0.33268523659953114,0.17196236806343426
1895,9.249472399998922,0.12387099418248049,0.28571256300949477,-0.18607773683461828,0.012025558132866465,0.1890375201853731,-0.1614271724070472,-0.1430789494438821,-0.38368487707959414,-0.009647142594992103,0.05191844026616284,-0.32343938675898903,0.17095528345594338
1896,9.253221899998607,0.12335860894582655,0.2870694054709401,-0.18844211955427947,0.011332946226734036,0.18717473600997594,-0.16147194859784383,-0.14282019829577025,-0.3852295259569843,-0.008821107520087319,0.05477994288048768,-0.31415676371278095,0.1699328581634393
1897,9.257315599999856,0.12310600354656615,0.2877513610910317,-0.18951723038127954,0.010641622782430322,0.18530457665439978,-0.1615127329988244,-0.1425476265404475,-0.386729118281,-0.008000056214839313,0.057624540718512196,-0.30483864714462083,0.168895382466834
1898,9.261486199990031,0.1229329283021185,0.28852056521238,-0.190540741287266,0.009951654539522303,0.18342726077816596,-0.16154954988942277,-0.1422613172617895,-0.38818348518014884,-0.007184061079121025,0.060451805856508604,-0.29548632132745317,0.16784315112043166
1899,9.266140299994731,0.12273679462043532,0.2893076903324068,-0.1915309296739827,0.009263107829308333,0.18154300784399494,-0.16158242389813193,-0.1419613555997293,-0.3895924640096279,-0.006373193080027416,0.06326131611383667,-0.2861010749495098,0.1667764633059014
1900,9.270373599996674,0.12253933414875902,0.29003593809758815,-0.1925060425063805,0.0085760485649548,0.17965203808766608,-0.16161137999555925,-0.1416478287221509,-0.39095589837237027,-0.005567521730350418,0.06605265513909961,-0.27668420094033686,0.16569562258458406
1901,9.273963599989656,0.12231023709812193,0.2907851555793524,-0.1935234633666702,0.007890542231770171,0.1777545724877793,-0.16163644348737702,-0.14132082579637203,-0.3922736381392553,-0.0047671150672837,0.06882541249413024,-0.26723699629680503,0.16460093684813015
1902,9.27820209998754,0.12204809414875746,0.2911708363354225,-0.19449980469416894,0.007206653877618347,0.17585083273542226,-0.16165764000716967,-0.14098043796022708,-0.393545539468481,-0.00397203963136557,0.07157918373579017,-0.2577607619091171,0.16349271826746686
1903,9.282312499999534,0.12187642183024178,0.29176771495998693,-0.19545322186296996,0.0065244481034731575,0.1739410412037471,-0.1616749955091779,-0.14062675829276022,-0.3947714648240993,-0.0031823604456683347,0.07431357049556508,-0.24825680238682815,0.16237128324009187
1904,9.286438899987845,0.12173857247208507,0.2926292339707767,-0.19638327679176626,0.005843989054115837,0.17202542091746006,-0.16168853626093993,-0.1402598817845396,-0.39595128299371246,-0.0023981409952424557,0.07702818055694077,-0.2387264258848911,0.1612369523356926
1905,9.290624299988847,0.12164926983146032,0.2935715697493691,-0.19728101688980745,0.005165340408977229,0.17010419552222783,-0.1616982888358303,-0.1398799053076033,-0.3970848691053291,-0.00161944320682384,0.07972262793054502,-0.229170943929741,0.16009005024009101
1906,9.294688900001349,0.12168109132439095,0.29420986285102085,-0.19815320741407788,0.004488565373126429,0.16817758925400383,-0.1617042801054976,-0.13948692758504916,-0.39817210464338015,-0.000846327428812614,0.08239653292704177,-0.21959167124543016,0.158930905697514
1907,9.29936710000038,0.12172388833813132,0.2949861427393869,-0.19909342483207906,0.003813726668407537,0.16624582690827888,-0.16170653723220174,-0.13908104916027905,-0.3992128774638952,-7.885241153171591e-05,0.08504952222776448,-0.20998992557982718,0.15775985145119156
1908,9.304497899996932,0.12165764924187401,0.29574789737242524,-0.20010328679690528,0.0031408865247261014,0.1643091338092596,-0.16170508766105288,-0.13866237236590861,-0.40020708180883807,0.0006829247122263592,0.08768122895307681,-0.2003670275308919,0.15657722418228395
1909,9.309568099997705,0.12168014950432175,0.29677160605077674,-0.20112803817307082,0.0024701066714868177,0.16236773577897792,-0.16169995911215335,-0.13823100129235358,-0.4011546183196026,0.001438948446356338,0.09029129272844927,-0.19072430037303795,0.15538336444714024
1910,9.313728799999808,0.12174880186614292,0.2976222530936242,-0.20207210484981913,0.0018014483291839986,0.16042185910633527,-0.16169117957264542,-0.13778704175610484,-0.4020553940496689,0.0021891649502921505,0.09287935974824117,-0.18106306988359458,0.15417861661289195
1911,9.31789329998719,0.1217914847725178,0.2987177342035912,-0.20306811044816608,0.0011349722011462589,0.15847173051608573,-0.1616787772886663,-0.1373306012677023,-0.4029093224764203,0.0029335220575458136,0.09544508283717877,-0.17138466416937967,0.15296332879138722
1912,9.322124199999962,0.12181710512984198,0.29962023434050933,-0.2042136812012608,0.0004707384654368065,0.1565175771377619,-0.16166278075721133,-0.13686178899941856,-0.4037163235121223,0.0036719692939249423,0.09798812150952148,-0.16169041349339558,0.15173785277146992
1913,9.32660849999229,0.12180386736933742,0.3005482416695374,-0.2053976876213956,-0.00019119323308930576,0.15455962647454788,-0.16164321871790727,-0.13638071575266417,-0.40447632351406415,0.004404457895420633,0.10050814202590891,-0.15198165010165873,0.15050254394960927
1914,9.331015699994168,0.12175306438143109,0.3015210750561392,-0.2066096640749507,-0.0008507637905696672,0.15259810637210366,-0.16162012014469626,-0.1358874939251251,-0.40518925529386485,0.005130940825757493,0.10300481744788254,-0.14225970805017382,0.14925776125888698
1915,9.336399599997094,0.12176562512496787,0.30359963664080203,-0.20880638352549244,-0.0015079146517594955,0.1506332449873447,-0.16159351423743262,-0.13538223747764377,-0.40585505812594336,0.005851372793597642,0.1054778276900767,-0.13252592303206426,0.14800386709634974
1916,9.340860899988911,0.12164849301632398,0.30459079213830714,-0.2101242720667825,-0.0021625878174959348,0.14866527075718053,-0.1615634304133933,-0.13486506190085512,-0.4064736777551548,0.006565710269390545,0.10792685957007464,-0.12278163220486983,0.14674122724873573
1917,9.345665999993798,0.12151144461588252,0.3055348028825111,-0.2113757943916261,-0.002814725852000529,0.14669441236721636,-0.16152989829870404,-0.13433608418159038,-0.4070450664035928,0.007273911501860565,0.11035160685592599,-0.11302817401802184,0.14547021081658423
1918,9.349338599990006,0.12143417212004054,0.30643422416252336,-0.21258260576501625,-0.003464271890018785,0.14472089872042143,-0.16149294771968342,-0.1337954227690601,-0.40756918277655757,0.007975936534124197,0.11275177031132368,-0.10326688804050627,0.14419119013673795
1919,9.353144799999429,0.12139997118147636,0.307301221466568,-0.213750892670683,-0.0041111696437957975,0.14274495890576722,-0.16145260869410635,-0.1332431975408277,-0.40804599206769004,0.00867174721942893,0.11512705773843866,-0.09349911478872502,0.14290454070324846
1920,9.357330499988166,0.12126171518972056,0.30816724556936126,-0.2150353694038622,-0.004755363409886973,0.14076682216683958,-0.16140891142238942,-0.13267952976858485,-0.40847546596327305,0.009361307236505762,0.11747718401841122,-0.08372619555456534,0.1416106410866959
1921,9.361734999998587,0.12112900000665573,0.3089825105800419,-0.21628266074643085,-0.005396798075802931,0.13878671787042882,-0.16136188627870005,-0.13210454208373976,-0.4088575826456993,0.010044582104527501,0.11980187114949858,-0.0739494722336871,0.14030987285193458
1922,9.369720599992434,0.12104106093305057,0.3106323251759542,-0.21866061325481692,-0.006035419126487723,0.13680487547510142,-0.16131156380199152,-0.1315183584428306,-0.4091923267961049,0.010721539197665025,0.12210084828287995,-0.0641702871540383,0.13900262047427822
1923,9.3738994999876,0.12097412826411275,0.31134317964974634,-0.21982838976382987,-0.0066711726506295315,0.1348215244997587,-0.16125797468696568,-0.13092110409277619,-0.4094796895961708,0.011392147759233718,0.12437385175612099,-0.05438998290460815,0.13768927125413974
1924,9.379055899989908,0.12082095794007729,0.31208358590656116,-0.22108701712947543,-0.007304005346803102,0.13283689449218616,-0.1612011497749658,-0.13031290553597433,-0.40971966872909343,0.012056378915422362,0.12662062512430008,-0.04460990216442753,0.1363702152301403
1925,9.382725299990852,0.12079801828874395,0.3128364137448381,-0.2222010725209603,-0.007933864529443179,0.130851214997597,-0.16114112004480222,-0.12969389049526037,-0.4099122683797274,0.012714205688596915,0.1288409191888,-0.034831387531826026,0.13504584509070422
1926,9.386512699988089,0.12078342932423293,0.3136747978457767,-0.22335639013975728,-0.008560698134648267,0.1288647155271748,-0.16107791660351226,-0.1290641878787368,-0.410057499233905,0.01336560301017164,0.13103449202376946,-0.025055781353954365,0.13371655608415559
1927,9.390917299999272,0.12077213479426141,0.31442907815769644,-0.22443084665526827,-0.009184454725814105,0.12687762552661858,-0.16101157067705665,-0.12842392774448588,-0.41015537847693495,0.014010547733040238,0.13320110900026014,-0.015284425556581485,0.1323827459273348
1928,9.395247799999195,0.12072599894414941,0.31516181783115754,-0.22564697691041835,-0.009805083499096274,0.12489017434469488,-0.16094211360095448,-0.1277732412651764,-0.41020592979128256,0.014649018643559561,0.1353405428080456,-0.0055186614741756426,0.13104481471275237
1929,9.39910319999035,0.12070839886499672,0.3158747646071375,-0.22684402051077673,-0.010422534288701369,0.1229025912018009,-0.1608695768108587,-0.12711226069257592,-0.41020918335343226,0.015280996473078642,0.13745257347512918,0.004240170319721176,0.12970316481429867
1930,9.403535399993416,0.12076284072665872,0.3166678158211546,-0.22798450803627407,-0.011036757572006277,0.12091510515854258,-0.16079399183307452,-0.12644111932197977,-0.4101651758299329,0.015906463909005925,0.1395369883849475,0.013990730181816409,0.12835820079152832
1931,9.408328699995764,0.12082795835291629,0.317386068570122,-0.22902834814767153,-0.01164770447450515,0.11892794508433177,-0.1607153902750229,-0.125759951456568,-0.41007395037262934,0.016525405605407665,0.14159358229127827,0.02373167956807862,0.12701032929254039
1932,9.411860199994408,0.1209909065292955,0.3180379227804529,-0.2301465187068455,-0.012255326774583733,0.11694133962600607,-0.16063380381565195,-0.12506889237170093,-0.4099355566130817,0.01713780819313048,0.14362215733086198,0.03346168120242873,0.12565995895547488
1933,9.416461399989204,0.12114541482900888,0.31876504694165614,-0.23136660127287095,-0.012859576908120717,0.11495551717647494,-0.16054926419579874,-0.12436807827916388,-0.409750050656173,0.017743660289441243,0.14562252303374795,0.0431793992451016,0.12430750030864737
1934,9.420256099998369,0.12119689366347995,0.3194064299706802,-0.2325552333546046,-0.013460407972915922,0.1129707058433957,-0.1604618032085043,-0.12365764629137162,-0.40951749507290663,0.018342952507177566,0.14759449633137603,0.05288349946066895,0.12295336566934392
1935,9.427813499991316,0.12152250331878572,0.3208400256346083,-0.23486033494403522,-0.014057773732945145,0.11098713341788254,-0.1603714526892844,-0.122937734385544,-0.4092379588923945,0.01893567746340225,0.14953790156240537,0.06257264938571451,0.1215979690413003
1936,9.436955799988937,0.12177440319531953,0.3221576187707085,-0.23708473724507567,-0.014651628622441546,0.1090050273432522,-0.16027824450635791,-0.12220848136786358,-0.40891151759303823,0.01952182978755514,0.15145257047630328,0.07224551849615264,0.12024172601089025
1937,9.440755799994804,0.12179130634361042,0.32278761179182813,-0.23823051021142758,-0.015241927749803411,0.10702461468381104,-0.1601822105508361,-0.12147002683762614,-0.40853825309290487,0.020101406129096003,0.15333834223470744,0.08190077837418122,0.11888505364204838
1938,9.44484029999876,0.12184973544862934,0.32342400541632893,-0.23938975145109545,-0.01582862690132825,0.10504612209368751,-0.16008338272687553,-0.12072251115139518,-0.4081182537392973,0.0206744051646321,0.15519506341057548,0.0915371028748598,0.11752837036995342
1939,9.449284899994382,0.1218633170170149,0.3239665612590653,-0.24045436665448533,-0.01641168254477325,0.1030697757857141,-0.15998179294179782,-0.11996607538716995,-0.4076516142975207,0.021240827604524334,0.15702258798513635,0.101153168292304,0.11617209589349912
1940,9.453244899996209,0.1218633170170149,0.3239665612590653,-0.24045436665448533,-0.016991051832742226,0.10109580150036276,-0.15987747309617792,-0.11920086130857732,-0.40713843593884663,0.021800676198965908,0.15882077734265884,0.11074765352548711,0.11481665106657944
1941,9.457544799995958,0.12172890304245396,0.32498094567425845,-0.2426115093182458,-0.01756669260589924,0.09912442447473717,-0.15977045507390347,-0.11842701132909805,-0.4065788262276763,0.022353955743527592,0.16058950026305413,0.12031924024364017,0.11346245778821644
1942,9.461109999989276,0.12172890304245396,0.32498094567425845,-0.2426115093182458,-0.01813856339600914,0.097155869411625,-0.15966077073220755,-0.11764466847633737,-0.4059728991079047,0.022900673084163915,0.1623286329123294,0.12986661305124098,0.1121099388915596
1943,9.46581929999229,0.12154026078286065,0.32614722886203906,-0.24478046675595655,-0.018706623428805403,0.09519036044861431,-0.15954845189167677,-0.11685397635634998,-0.40532077488848467,0.023440837121674694,0.16403805883091,0.1393884596525831,0.11075951803178552
1944,9.469828999994206,0.12136236691242952,0.32658317952545407,-0.24573299740469634,-0.01927083262668559,0.0932281211272777,-0.1594335303262366,-0.11605507911803024,-0.40462258022819353,0.02397445881561647,0.1657176689198485,0.14888347101591656,0.10941161957292768
1945,9.479200999994646,0.12099285081787903,0.327441942877245,-0.2476834728552792,-0.019831151611234728,0.09126937436242841,-0.1593160377531168,-0.11524812141757709,-0.40387844811960194,0.024501551187658573,0.16736736142493958,0.15835034153715072,0.10806666847366689
1946,9.482563999990816,0.1207633405967626,0.32795964733752625,-0.24871264069265325,-0.02038754170557711,0.08931434241145264,-0.15919600582280005,-0.1144332483830443,-0.4030885178722463,0.02502212932437854,0.16898704191876004,0.16778776920310942,0.10672509017211443
1947,9.487498299989966,0.12048124578696154,0.3283704353574165,-0.24960764792980206,-0.020939964936556994,0.08736324684372199,-0.15907346610895698,-0.11361060557898597,-0.4022529350950063,0.02553621037949201,0.1705766232806539,0.17719445575432916,0.10538731046961959
1948,9.49113359999319,0.12019393637309392,0.3287402658390128,-0.25043927857600096,-0.021488384036748773,0.08541630851008969,-0.15894845009837083,-0.11278033897120687,-0.4013718516776879,0.02604381357551227,0.1721360256746826,0.1865691068473901,0.10405375541363458
1949,9.495121799991466,0.11994129681290305,0.32910219953909997,-0.2512798982441333,-0.02203276244629717,0.08347374751247481,-0.15882098918085386,-0.11194259489162679,-0.40044542577181413,0.026544960204834794,0.1736651765255615,0.1959104322167704,0.10272485117967008
1950,9.498732799998834,0.11994129681290305,0.32910219953909997,-0.2512798982441333,-0.02257306431458812,0.08153578317353852,-0.1586911146391586,-0.11109752000326892,-0.399473821770628,0.027039673630242327,0.17516401049260388,0.20521714583621423,0.10140102395237541
1951,9.503009799998836,0.11951166814241115,0.3301041984155381,-0.2530344624527585,-0.023109254501750862,0.07960263400645612,-0.1585588576388869,-0.11024526126538134,-0.39845721028831005,0.027527979284826108,0.1766324694416952,0.2144879660796036,0.10008269980577797
1952,9.5073485999892,0.1193022347552166,0.3305146790589664,-0.2539594085224903,-0.023641298579991865,0.07767451768478885,-0.15842424921839957,-0.109385965898701,-0.39739576813841393,0.028009904671319117,0.17807050241531874,0.22372161588132375,0.09877030458271699
1953,9.511459799992735,0.11910345105117784,0.33092429343623486,-0.2547576005026399,-0.024169162834761334,0.07575165101245965,-0.158287320278729,-0.10851978135086877,-0.39628967831152356,0.028485479360837274,0.17947806560065674,0.23291682289611104,0.09746426377350753
1954,9.517107199993916,0.11889702057024815,0.3313355445630827,-0.25560567971049725,-0.024692814265753087,0.07383424989383688,-0.1581481015734978,-0.10764685526200402,-0.3951391299521347,0.028954734991024775,0.1808551222957903,0.2420723196583735,0.09616500239387135
1955,9.520692899997812,0.11871138418029857,0.33174674212855393,-0.2565078186977501,-0.02521222058773853,0.07192252930393007,-0.15800662369884583,-0.10676733543044774,-0.3939443183347646,0.029417705263600064,0.18220164287402216,0.25118684374097244,0.09487294486217178
1956,9.52496149999206,0.11850713133079034,0.3321324248547622,-0.2574314787844108,-0.025727350231235565,0.07001670325870135,-0.15786291708336964,-0.10588136977868341,-0.392705444839292,0.029874425941299222,0.18351760474634737,0.2602591379134547,0.09358851487599017
1957,9.528586599990376,0.11827848379425798,0.3325173935288512,-0.25837460293762715,-0.026238172343013316,0.06811698478549685,-0.1577170119780768,-0.10498910631944423,-0.39142271692553005,0.03032493484421361,0.18480299232209657,0.2692879502997251,0.09231213528808156
1958,9.532907100001466,0.11796973626183499,0.33285684778022634,-0.25935528581519035,-0.02674465678643368,0.06622358589360182,-0.15756893844635797,-0.10409069312201558,-0.3900963481070391,0.030769271845518767,0.18605779696777716,0.27827203453514954,0.09104422798174813
1959,9.536475799992331,0.11764292886277532,0.33314606283750003,-0.26026127089242584,-0.02724677414163089,0.06433671754492282,-0.15741872635397994,-0.10318627827874129,-0.38872655792418176,0.03120747886659176,0.1872820169641379,0.2872101499230769,0.08978521374566978
1960,9.541024799997103,0.11732704946341224,0.33350866063922696,-0.261225340048822,-0.027744495705529972,0.062456589624800496,-0.15726640535910305,-0.10227600987174204,-0.38731357191642485,0.031639599871514434,0.1884756574614833,0.29610106159076743,0.08853551214823165
1961,9.544825299992226,0.11703859937150303,0.33391657021953364,-0.26214926048166776,-0.028237793491705306,0.06058341091295654,-0.15711200490232613,-0.10136003593985413,-0.38585762159388864,0.03206568086096014,0.18963873043326412,0.3049435406447141,0.08729554141138926
1962,9.553002199987532,0.11628724119290022,0.33462385942696304,-0.2638937422024107,-0.028726640230080192,0.05871738905457844,-0.15695555419676216,-0.10043850444579695,-0.3843589444081463,0.0324857698654616,0.1907712546279719,0.3137363643253452,0.08606571828411198
1963,9.557314799996677,0.11580183256907878,0.3348934030227933,-0.2647790631791927,-0.029211009366468702,0.05685873053154601,-0.15679708221814834,-0.0995115632435779,-0.38281778372227493,0.03289991693805781,0.19187325551936435,0.32247831616109435,0.08484645791544576
1964,9.561823099997127,0.11524716668023556,0.3350762608341839,-0.2655916121370812,-0.02969087506196088,0.05500764063380335,-0.1566366176949933,-0.09857936004614253,-0.3812343887801616,0.033308174146318294,0.19294476525505028,0.3311681861218276,0.08363817372723717
1965,9.56708529999014,0.11466408789716125,0.3353384788730461,-0.26647336245053144,-0.030166212192152663,0.053164323430879894,-0.15647418909876393,-0.09764204239327796,-0.3796090146750642,0.03371059556374301,0.1939858226034626,0.3398047707716165,0.08244127728656048
1966,9.574598699997296,0.11345092393154446,0.3356694135825359,-0.26815025179563867,-0.030636996346221884,0.051328981743563984,-0.15630982463411544,-0.09669975761977714,-0.3779419223174316,0.03410723726053655,0.19499647289924935,0.34838687342084496,0.08125617817788999
1967,9.578488499988453,0.11283436194573997,0.33579413556822246,-0.26896473954986133,-0.03110320382585146,0.04950181711573265,-0.15614355222916698,-0.09575265282387134,-0.37623337840198573,0.034498157293755355,0.19597676798711175,0.3569133042776383,0.08008328387506014
1968,9.583569700000226,0.11212815192657818,0.335865071161483,-0.2697272892656798,-0.031564811644001114,0.04768302978634153,-0.15597539952582634,-0.09480087483593852,-0.3744836553740688,0.034883415696827146,0.1969267661641187,0.3653828805986035,0.0789229996130562
1969,9.587568399991142,0.11143764603446721,0.3359638977412001,-0.2704816470040351,-0.032021797523529134,0.04587281866157858,-0.15580539387016706,-0.09384457018749459,-0.37269303139525994,0.03526307446844184,0.1978465321205285,0.37379442683886627,0.07777572825967939
1970,9.591277799991076,0.1107438011569437,0.3360336054716674,-0.2712816138932,-0.032474139895665693,0.044071381287185074,-0.15563356230286116,-0.09288388508047435,-0.3708617903082631,0.03563719756081329,0.19873613687914807,0.38214677480139325,0.07664187018713041
1971,9.599495699992984,0.10948036323692857,0.33626295662715033,-0.2727044372139973,-0.032921817898339395,0.0422789138209475,-0.15545993154966975,-0.09191896535680864,-0.36899022160106837,0.0360058508673115,0.1995956577332606,0.3904387637855884,0.07552182314355559
1972,9.603066099996797,0.10883147717386954,0.3363436678574715,-0.2734168116158021,-0.033364811374358344,0.04049561100536395,-0.15528452801199502,-0.09094995646830487,-0.36707862037038946,0.0363691022094652,0.20042517818315247,0.39866924073515014,0.0744159821246002
1973,9.60733220000111,0.10822198183277115,0.33642846630056766,-0.274049290367963,-0.033803100869447045,0.03872166614048862,-0.15510737775749756,-0.08997700344683696,-0.3651272872843807,0.036727021323335045,0.20122478787126988,0.40683706038517603,0.07332473924501325
1974,9.613597699993988,0.1076823594213556,0.3365218128418674,-0.27466841646158163,-0.03423666763014066,0.03695727105695793,-0.1549285065107831,-0.08900025087485117,-0.3631365285446365,0.03707967984525778,0.20199458251603572,0.41494108540850244,0.0722484836103487
1975,9.621787899988703,0.1067055371672757,0.33671634193389605,-0.2758609253381685,-0.03466549360153848,0.035202616089202,-0.15474793964416197,-0.08801984285619356,-0.36110665584747575,0.03742715129696205,0.20273466384435807,0.42298018656126485,0.07118760118880778
1976,9.626641499999096,0.10615830779257536,0.3368098641048545,-0.27657106659393343,-0.035089561424918016,0.03345789004884487,-0.15456570216848428,-0.08703592298726492,-0.3590379863445159,0.03776951107005671,0.20344513952286164,0.43095324282766473,0.07014247468326694
1977,9.632225900000776,0.10528744862193526,0.33695748704768075,-0.27790880171615345,-0.03550885443521161,0.031723280198296934,-0.15438181872405277,-0.08604863432850934,-0.35693084260254127,0.03810683640989276,0.20412612308787384,0.4388591415639285,0.06911348340353694
1978,9.6363638999901,0.10487222182620236,0.33704095111202137,-0.2785647332174962,-0.035923356658346964,0.02999897222454315,-0.15419631357161545,-0.08505811937624264,-0.35478555256267025,0.03843920639880032,0.2047777338741965,0.44669677864144514,0.0681010031388982
1979,9.641532800000276,0.10449835402716783,0.3371212951903895,-0.27921254690297936,-0.03633305280845366,0.02828515021313079,-0.15400921058344108,-0.08406452003482644,-0.3526024494988245,0.038766701938702096,0.20540009694269512,0.4544650585890669,0.06710540603095773
1980,9.645250599991414,0.10410663472181246,0.33730078918434947,-0.27991917478991984,-0.03673792828493738,0.026581996622360014,-0.15382053323448142,-0.08306797758919351,-0.3503818719755046,0.03908940573310495,0.205993343006738,0.4621628947345576,0.0661270604468736
1981,9.649291800000356,0.10367938148588204,0.33746741957860343,-0.2806417066797643,-0.03713796916942337,0.02488969225768086,-0.1536303045936237,-0.08206863267773001,-0.3481241638048749,0.039407402268471496,0.2065576083575179,0.46978920934517476,0.06516633085299328
1982,9.65356769999198,0.1032773169396915,0.33756352546890306,-0.28127868429937863,-0.03753316222257102,0.02320841624629981,-0.15343854731503692,-0.08106662526552014,-0.345829674003163,0.03972077779497362,0.20709303478828733,0.47734293376737214,0.06422357768895148
1983,9.662375699990662,0.10244331016477061,0.3376820985096819,-0.2825345704965558,-0.03792349488076117,0.021538346011999467,-0.15324528362961554,-0.08006209461795842,-0.3434987567463785,0.040029620306630646,0.20759976951753967,0.4848230085656105,0.06329915724227331
1984,9.666740299988303,0.10200508751283009,0.33776702990320673,-0.2831608634808762,-0.03830895525265761,0.019879657250174723,-0.15305053533652435,-0.07905517927473477,-0.3411317713253562,0.04033401952083487,0.20807796511116908,0.49222838366026217,0.06239342152352909
1985,9.670125599994208,0.10152071050526802,0.33781355745783465,-0.28385182964519695,-0.03868953211564463,0.01823252390308874,-0.15285432379484742,-0.07804601702419733,-0.338729082100127,0.04063406685726769,0.20852777940364123,0.4995580184645948,0.0615067181420867
1986,9.674432499989052,0.10105520878691372,0.33788991249283346,-0.28449266882163793,-0.03906521491214228,0.016597118135352144,-0.15265666991534385,-0.07703474487809786,-0.3362910584536187,0.040929855416209374,0.20894937541820618,0.5068108820208189,0.06063939018250732
1987,9.681713899990427,0.10010108895302516,0.3379747678765267,-0.28566704844400787,-0.039435993745801035,0.014973610309628599,-0.15245759415231294,-0.07602149904672371,-0.33381807474469577,0.04122147995624552,0.20934292128618565,0.5139859531351851,0.05979177608163058
1988,9.68636969999352,0.09957010747163647,0.33798445217276973,-0.28624815649756147,-0.03980185937757759,0.013362168962569951,-0.152257116495572,-0.07500641491442085,-0.3313105102605428,0.04150903687137404,0.20970859016536644,0.5210822205121111,0.058964209506394555
1989,9.690598299988778,0.09903405647486845,0.3379884282619945,-0.28681503118892787,-0.04016280322169366,0.011762960780984204,-0.15205525646254875,-0.07398962701551198,-0.3287687491683977,0.04179262416751615,0.21004656015753276,0.5280986828873219,0.0581570192324365
1990,9.69480259998818,0.09850590490827735,0.33798383654534647,-0.2873545470285085,-0.040518817341479704,0.010176150578239602,-0.15185203309049158,-0.07297126901061442,-0.3261931804666401,0.042072341438435364,0.2103570142251682,0.535034349159983,0.05737052902352012
1991,9.701650199989672,0.09792432334500625,0.3379902359393968,-0.28790816462898206,-0.040869894445105505,0.008601901270908084,-0.15164746492880044,-0.07195147366336122,-0.32358419793523974,0.04234828984106895,0.21064014010736035,0.5418882385238104,0.05660505751183487
1992,9.706054099995526,0.09733594018925477,0.3379756713238993,-0.288445019520063,-0.041216027881199706,0.0070403738556512295,-0.15144157003148073,-0.07093037281752977,-0.3209422000855696,0.042620572070275996,0.2108961302349412,0.5486593805971411,0.05586091807921269
1993,9.71166539999831,0.09631530222603348,0.3378905180819151,-0.2893779015236976,-0.04155721163436031,0.005491727386351846,-0.1512343659497236,-0.06990809737458158,-0.31826759010958944,0.04288929233300694,0.21112518164489588,0.5553468155519504,0.055138418739307214
1994,9.7160356999957,0.09581935049504167,0.3378365490159279,-0.28992277853695714,-0.04189344032055817,0.003956118951494316,-0.1510258697246159,-0.06888477727161656,-0.31556077582840397,0.04315455632189936,0.21132749589407185,0.5619495942417954,0.05443786202078039
1995,9.719778399987264,0.0953222267174852,0.33778949227811744,-0.2904711079656845,-0.042224709182435365,0.002433703651796793,-0.15081609787998276,-0.06786054145974504,-0.3128221696402015,0.04341647118830538,0.21150327897222057,0.5684667783286688,0.05375954485154137
1996,9.726137699995888,0.0948490431576934,0.3377305571397836,-0.2909415455581766,-0.042551014084500446,0.0009246345780983186,-0.15060506641536464,-0.06683551788288061,-0.31005218846757854,0.04367514551475587,0.21165274121440408,0.5748974404087506,0.05310375844408256
1997,9.730321399998502,0.09442347971925472,0.33763294956365786,-0.29143619874549387,-0.042872351508222196,-0.0005709372104961035,-0.15039279079913134,-0.06580983345695655,-0.3072512537042578,0.04393068928686704,0.21177609721279797,0.5812406641370382,0.05247078818195681
1998,9.734324199991534,0.09407488867697834,0.3375782453206674,-0.2918805090652049,-0.04318871854702397,-0.0020528627082094645,-0.15017928596173605,-0.06478361404956845,-0.3044197911612038,0.04418321386469512,0.21187356572792304,0.5874955443508354,0.051860913507440196
