,time,x,y,z,vx,vy,vz,ax,ay,az,jx,jy,jz
2161,9.4541004000057,0.059203940166405816,-0.013336104674713724,-0.18147358366425131,-0.009097584427960107,-0.012085904665279274,0.029020619096622385,0.07335685781270003,0.13129295939530888,-0.011663014895516265,0.0715992990347911,0.21593080831528152,-0.33195832958222743
2162,9.45839280000655,0.05914826096889676,-0.013331760531992906,-0.1814765684416444,-0.00877804610309566,-0.011513217107059133,0.02896684493853773,0.07366297011970384,0.13222992957768273,-0.01311276662593083,0.06926377337107426,0.21524579173456307,-0.3351129287936316
2163,9.462585300003411,0.05910891743897465,-0.013335666679533913,-0.1814668616743033,-0.008457199520348664,-0.010936464059906009,0.02890673968814958,0.07395892594844584,0.13316388402941262,-0.014576193193949389,0.06692636064289548,0.21454281457839594,-0.3382494970479515
2164,9.466768400001456,0.05906352264264963,-0.01332526709329122,-0.18147137871289132,-0.008135088850605448,-0.010355658798618916,0.028840244062576105,0.07424471766564443,0.1340947441433694,-0.01605321478469672,0.06458731289545715,0.2138215810918838,-0.34136739013665546
2165,9.475046500010649,0.05899059708637328,-0.013317455847232717,-0.18144320145788018,-0.007811758295316437,-0.00977081494214863,0.028767299131889124,0.07452033873294368,0.13502243002869987,-0.017543748779922888,0.06224688147526355,0.213081796590699,-0.3444659626757764
2166,9.479408500003046,0.05895290018513865,-0.013321353757362202,-0.18142002647280295,-0.007487252081735094,-0.009181946459165459,0.028687846331326955,0.07478578370385136,0.13594686051563737,-0.019047709753221457,0.05990531702795174,0.21232316757827607,-0.34754456822789126
2167,9.484482900006697,0.058912132699517956,-0.01331696327375148,-0.18140837254490463,-0.007161614458170527,-0.008589067673604851,0.028601827473527165,0.07504104822066646,0.136867953160824,-0.02056500946577988,0.05756286949624952,0.21154540186312026,-0.35060255942496943
2168,9.48852579999948,0.05886725707766844,-0.013310522410432582,-0.1813971265213816,-0.00683488968925382,-0.0079921932701886,0.028509184760776702,0.07528612901139708,0.13778562425314506,-0.02209555686266568,0.05521978811804895,0.21074820867619912,-0.3536392880920669
2169,9.492168200013111,0.05883418023936065,-0.01331108382363341,-0.18138022746819818,-0.006507122051218092,-0.007391338299919478,0.02840986079727706,0.07552102388666945,0.13869978882007494,-0.023639258069651965,0.05287632142458355,0.2099312987883836,-0.356654105371843
2170,9.49730850000924,0.05878885151236931,-0.013321939908170955,-0.1813736514521015,-0.006178355827192311,-0.006786518185547073,0.02830379860142197,0.07574573173662813,0.1396103606345365,-0.02519601639058578,0.05053271723869731,0.20909438462790636,-0.35964636184987625
2171,9.502203800002462,0.05875858911569516,-0.013302047846994928,-0.18134861887309167,-0.00584863530250892,-0.006177748727002646,0.028190941618085184,0.07596025252782843,0.14051725222227426,-0.026765732305302794,0.048189222673193595,0.20823718039780403,-0.36261540768075684
2172,9.506145000006654,0.05871236149273534,-0.013330429130624523,-0.1813248186180417,-0.005518004760025311,-0.005565046106800733,0.028071233730915916,0.07616458730012166,0.14142037486974138,-0.028348303468091467,0.04584608412925248,0.20735940219330998,-0.3655605927149314
2173,9.510251400002744,0.05867426481074129,-0.013411644904165541,-0.18131424138558308,-0.005186508475459201,-0.004948426895405276,0.027944619274639634,0.0763587381635332,0.1423196386324987,-0.029943624706709852,0.04350354729490495,0.2064607681191633,-0.36848126662627634
2174,9.514895400003295,0.05864466456691472,-0.01335869117878286,-0.18130274739206625,-0.004854190712737947,-0.00432790805655802,0.027811043047361674,0.07654270829513303,0.14321495234412562,-0.03155158802195803,0.04116185714355242,0.20554099840679993,-0.37137677904037464
2175,9.518785300009768,0.05863044640696934,-0.013355453187548817,-0.1812803064975735,-0.004521095719361847,-0.0037035069525670175,0.027670450322871222,0.07671650193589859,0.1441062236256421,-0.03317208258780904,0.03882125793251999,0.2045998155313912,-0.37424647966347285
2176,9.525267900011386,0.058573478294839956,-0.013391598446888536,-0.18122952865685343,-0.004187267721781505,-0.0030752413495530174,0.027522786862943342,0.07688012438757023,0.14499335889544093,-0.03480499475210101,0.036481993201631924,0.2036369443286959,-0.3770897184120914
2177,9.52929450001102,0.05854352399050009,-0.013463934429479449,-0.1812001881270494,-0.0038527509207893283,-0.0024431294226515392,0.027367998929636542,0.07703358200949974,0.14587626337972995,-0.036450208037793,0.034144305771798035,0.20265211211169173,-0.37990584554326423
2178,9.53493680000247,0.05850882830357571,-0.013456281486299418,-0.1811581425785437,-0.0035175894869251853,-0.0018071897611684493,0.027206033297583462,0.07717688221549156,0.14675484112348242,-0.03810760314478722,0.03180843774359953,0.20164504878695266,-0.3826942117853851
2179,9.538771600011389,0.058490001472944184,-0.013446207824841737,-0.1811146079163805,-0.0031818275558962617,-0.001167441373686845,0.02703683726627226,0.07731003347063681,0.14762899500189497,-0.039777057952319825,0.0294746304958631,0.2006154869707362,-0.3854541684696336
2180,9.54272850000416,0.058462734525554755,-0.01345912734482764,-0.18107195707241153,-0.0028455092240111677,-0.0005239036931230879,0.026860358672316238,0.07743304528813974,0.14849862673235084,-0.04145844752192283,0.027143124684211883,0.19956316210474684,-0.38818506766195565
2181,9.546628399999465,0.05842701868959935,-0.013490836861494113,-0.1809631920452294,-0.002508678543628326,0.00012340341827018898,0.026676545901709252,0.07754592822613643,0.14936363688688722,-0.04315164410095938,0.02481416023958206,0.19848781257154066,-0.3908862622955721
2182,9.550374200000078,0.05840069446045583,-0.013524017681651929,-0.18090007497402782,-0.0021713795186186703,0.0007744596639562631,0.02648534790206417,0.07764869388450553,0.15022392490516479,-0.044856517126734545,0.0224879763666938,0.1973891798095364,-0.39355710630399016
2183,9.554459500010124,0.05837494108055013,-0.0135298810141618,-0.18084929182871623,-0.0018336560998426902,0.0014292443082238439,0.026286714194831876,0.07774135490167097,0.15107938910793722,-0.046572933231183444,0.02016481154246564,0.19626700842759806,-0.396196954754491
2184,9.55833420000272,0.05834832239820781,-0.013525124258257092,-0.1807796682174222,-0.0014955521806418435,0.002087736171356072,0.026080594887498334,0.0778239249513965,0.15192992671101832,-0.048300756246138735,0.01784490351436144,0.19512104631915378,-0.3988051639820681
2185,9.562682600007976,0.05832786817752475,-0.013544002534093462,-0.18073453520967586,-0.0011571115923443719,0.0027499136248611273,0.025866940685757213,0.07789641873957183,0.15277543383974537,-0.0500398472091794,0.015528489298659215,0.193951044775817,-0.4013810917237887
2186,9.567122799999195,0.058295914376362695,-0.013544345895376099,-0.18067403866379553,-0.0008183780997855505,0.0034157545867665702,0.02564570290565562,0.07795885200098976,0.1536158055439369,-0.051790064370062505,0.013215805178631076,0.1927567586004747,-0.40392409725355144
2187,9.571105499999248,0.058291036751787234,-0.013554879971278497,-0.1806159098770947,-0.00047939539684240895,0.0040852365169795285,0.025416833485710447,0.0780112414961142,0.1544509358133428,-0.05355126319773937,0.010907086702623726,0.1915379462198075,-0.40643354151721417
2188,9.575951200007694,0.05826675621541888,-0.013551569921384576,-0.18052866441374626,-0.00014020710198295376,0.004758336412714829,0.025180284998992816,0.0780536050078387,0.15528071759358544,-0.055323296387957695,0.008602568682028995,0.1902943697962069,-0.4089087872680638
2189,9.579560300000594,0.05826355686495302,-0.013548380269720942,-0.18047922423136029,0.0001991432461700661,0.005435030803993126,0.024936010665177918,0.07808596133823521,0.1561050428025885,-0.057106013871450687,0.00630248518913403,0.18902579533905403,-0.4113491992026015
2190,9.583757400003378,0.05824576853408692,-0.013548201066969289,-0.18042085618819867,0.000538612193260818,0.006115295749211098,0.024683964362557716,0.07810833030529249,0.15692380234749093,-0.05889926282271421,0.004007069554840845,0.18773199281532493,-0.4137541440966161
2191,9.587760400012485,0.05823536897643748,-0.013535156699372858,-0.18037283037737448,0.0008781563736074286,0.006799106830785742,0.02442410064001387,0.07812073273964329,0.15773688614204268,-0.06070288766937328,0.0017165543662450435,0.18641273625948798,-0.4161229909415173
2192,9.59211270000378,0.05822221188610988,-0.013523676760336343,-0.18030432015393727,0.0012177325145943667,0.007486439150874804,0.024156374728948323,0.07812319048127929,0.15854418312447902,-0.06251673010213861,-0.0005688285359363444,0.1850678038826588,-0.41845511108090033
2193,9.59608560000197,0.05819721848723109,-0.013520353545505417,-0.1802375081159717,0.0015572974410501188,0.008177267327175386,0.023880742555168873,0.07811572637625296,0.15934558127586962,-0.06434062908535422,-0.002848848060097744,0.1836969781809776,-0.42074987834731314
2194,9.600047300002188,0.05817409626718265,-0.013505394247020065,-0.18017671679946284,0.0018968080796101057,0.008871565488802767,0.023597160750727004,0.0780983642733659,0.1601409676389392,-0.0661744208681372,-0.005123273866648375,0.18230004604317437,-0.4230066691991978
2195,9.604507700001705,0.058161726323561494,-0.013505530107221768,-0.18010721620130224,0.0022362214630647958,0.009569307272251418,0.023305586665705397,0.07807112902084333,0.16093022833735557,-0.06801793899611011,-0.007391876371095571,0.18087679885728836,-0.42522486285797817
2196,9.608772899999169,0.058144451155914594,-0.013488367969218486,-0.18003993260923162,0.0025754947346929564,0.010270465817440184,0.023005978379952476,0.07803404646299404,0.16171324859548145,-0.06987101432372665,-0.009654426747317476,0.17942703261650741,-0.42740384144526583
2197,9.613649999999325,0.0581302392290646,-0.013489459582788802,-0.17997717342960226,0.002914585152579981,0.010975013763843564,0.022698294714761386,0.07798714343685535,0.16248991275858599,-0.07173347502719107,-0.0119106969310343,0.177950548024094,-0.4295429901201559
2198,9.61729560000822,0.058125013032906715,-0.013474539051416549,-0.17988825394664554,0.003253450093921237,0.011682923246711076,0.022382495244490732,0.07793044776882234,0.16326010431351254,-0.0736051466179721,-0.01416045962348719,0.17644715059736257,-0.4316416972165835
2199,9.62091510000755,0.05811753754207243,-0.01345886576637638,-0.17979079403233486,0.003592047059310372,0.012394165893376656,0.02205854030812449,0.07786398827126027,0.16402370590979878,-0.07548585195691143,-0.01640348829533362,0.17491665077067486,-0.4336993543807137
2200,9.625206200013054,0.05811118698582133,-0.013445827283510669,-0.17971366078749776,0.003930333677012515,0.013108712819659953,0.021726391020768437,0.07778779473909944,0.16478059938124562,-0.07737541126892697,-0.018639557190768017,0.17335886399741754,-0.435715356708335
2201,9.629349100010586,0.05809815481404017,-0.013447940652729461,-0.1796238491484741,0.004268267707222291,0.013826534626361514,0.021386009285080478,0.0777018979464116,0.16553066576793016,-0.0792736421583108,-0.02086844133187607,0.1717736108509274,-0.4376891028822273
2202,9.633605800001533,0.05809519793460344,-0.013452821479623109,-0.17950237620077258,0.0046058070463065965,0.01454760139585373,0.021037357802632436,0.07760632964296754,0.16627378533865855,-0.08118035962462183,-0.02308991652323115,0.1701607171243312,-0.43961999530947543
2203,9.637672200013183,0.05808604675686937,-0.013448301744504777,-0.1794217849201086,0.004942909731032051,0.015271882688769434,0.020680400085200768,0.07750112255077489,0.16700983761385396,-0.08309537607917288,-0.025303759356740924,0.16852001392926685,-0.4415074402586985
2204,9.6416537000041,0.05808530434999374,-0.013445814991101692,-0.17936599049972546,0.005279533942777079,0.01599934754078999,0.020315100465983626,0.07738631036059476,0.1677387013888749,-0.08501850136211168,-0.027509747216752152,0.1668513377934522,-0.44335084799716623
2205,9.6461990000098,0.05807885811580872,-0.013439782362910522,-0.1792938617849109,0.005615638011728507,0.01672996445953464,0.019941424110741696,0.07726192772843644,0.1684602547577576,-0.08694954276009607,-0.029707658285421542,0.16515453075706926,-0.44514963292777415
2206,9.650147300009849,0.05808754477456885,-0.013430954281739916,-0.17922822681443729,0.005951180421062609,0.01746370142155296,0.019559337028860223,0.07712801027202902,0.1691743751373778,-0.08888830502456274,-0.03189727154836027,0.16342944046793093,-0.44690321372584624
2207,9.654323100010515,0.05808181907091349,-0.013425316702273035,-0.17916745809292037,0.0062861198111105,0.018200525869422297,0.019168806084329745,0.07698459456726926,0.16988093929202538,-0.0908345903905889,-0.03407836680055965,0.16167592027539746,-0.44861101347573346
2208,9.658678600011626,0.058077235559421896,-0.013394038153775961,-0.17909369489740967,0.006620414983507819,0.018940404708951912,0.01876979900664305,0.07683171814464435,0.17057982335838684,-0.09278819859634599,-0.0362507246526051,0.15989382932300902,-0.4502724598071793
2209,9.66253850000794,0.05807644221155764,-0.013388792285601797,-0.1790418536387066,0.006954024905328623,0.019683304306495685,0.018362284401605717,0.07666941948562868,0.17127090287092897,-0.09474892690314474,-0.0384141265371855,0.15808303263980222,-0.45188698503142327
2210,9.666942300013034,0.05807508389747717,-0.013368456437354254,-0.178971853860775,0.007286908713203363,0.020429190486375138,0.01794623176205764,0.07649773801905362,0.17195405278767867,-0.09671657011607052,-0.04056835471590476,0.15624340123027844,-0.4534540262770138
2211,9.670884700011811,0.05806317151588711,-0.013355611101475536,-0.17890422802779302,0.007619025717420866,0.021178028528414494,0.01752161147850303,0.0763167141174488,0.17262914751639222,-0.09869092060520786,-0.04271319228640203,0.15437481216299243,-0.45497302562530134
2212,9.6753713000071,0.05807116212145111,-0.013328353602536135,-0.17883419421070948,0.007950335406014222,0.021929783165589408,0.0170883948496463,0.07612638909335359,0.1732960609411086,-0.10067176832745284,-0.04484842318978679,0.15247714865772924,-0.45644343024558415
2213,9.679565300000831,0.05806261991450125,-0.013322104646975521,-0.1787740031812652,0.008280797448830434,0.022684418581791037,0.016646554092831233,0.07592680519559712,0.1739546664490811,-0.10265890084891209,-0.046973832218395066,0.15055030017123855,-0.45786469252987544
2214,9.68552750001254,0.05805164219660586,-0.013293322794911683,-0.17868062495453185,0.008610371701583746,0.023441898409707056,0.01619606235438085,0.07571800560554576,0.17460483695808168,-0.10465210336788665,-0.04908920502387268,0.148594162481495,-0.4592362702272611
2215,9.68937080001342,0.05804731465705897,-0.013290448841546506,-0.17861421076715692,0.008939018209892438,0.024202185728821265,0.015736893719835523,0.07550003443331689,0.17524644494407093,-0.10665115873843926,-0.05119432812559112,0.14660863777045408,-0.46055762657782023
2216,9.693407600003413,0.05804973149015177,-0.013297570592626293,-0.1785314681579,0.009266697213298987,0.024965243063533486,0.015269023224086806,0.07527293671395759,0.17587936246922745,-0.10865584749454336,-0.05328898891940139,0.14459363470527256,-0.46182823044607907
2217,9.699513100000331,0.05806030055400418,-0.01328947849559606,-0.1784130981727042,0.009593369149273445,0.02573103238140127,0.014792426861404603,0.07503675840358667,0.17650346121032962,-0.11066594787481104,-0.05537297568673097,0.14254906851796506,-0.4630475564539694
2218,9.707198800009792,0.0580688458932617,-0.013289754379878059,-0.17834235047242844,0.009918994657199854,0.026499515091504878,0.014307081595355018,0.07479154637549854,0.1771186124874838,-0.11268123584779824,-0.057446077604028645,0.14047486108346538,-0.46421508511326093
2219,9.7109463000088,0.05808943768993636,-0.013288297586720135,-0.17828831779855817,0.010243534582345552,0.027270652042937105,0.013812965368606349,0.07453734841622742,0.1777246872931909,-0.11470148513788457,-0.05950808475256217,0.1383709409960634,-0.46533030295743605
2220,9.716520600006334,0.05812472823331571,-0.013287314804357273,-0.17818077151288045,0.010566949979813264,0.0280444035234194,0.013310057112620658,0.07427421322157042,0.1783215563217441,-0.11672646725172438,-0.061558788128572864,0.13623724364418902,-0.4663927026729791
2221,9.72116410000308,0.05812281452865584,-0.01328987591492567,-0.1781284338946386,0.0108892021184758,0.028820729258045852,0.012798336757228414,0.07400219039256763,0.1789090899989511,-0.11875595150526636,-0.0635979796537914,0.13407371128351492,-0.46740178323005105
2222,9.72512890001235,0.05811792469406331,-0.013286297188069934,-0.17806631810102735,0.011210252484893216,0.029599588408156397,0.01227778524008374,0.07372133043143747,0.17948715851217287,-0.12078970505133906,-0.06562545218631895,0.13188029310834934,-0.46835705001251904
2223,9.72950130001118,0.05812560928042531,-0.013271992749255689,-0.17801135415725433,0.011530062787212284,0.030380939570340836,0.011748384515997789,0.07343168473746596,0.18005563184067097,-0.12282749290779975,-0.06764099953187745,0.12965694532129124,-0.46925801494731345
2224,9.733262200010358,0.05813612058233694,-0.013277425009475423,-0.17796805880089497,0.011848594959048027,0.031164740775575243,0.011210117566147808,0.07313330560284773,0.1806143797862552,-0.12486907798624394,-0.06964441645543212,0.12740363120112,-0.47010419663308317
2225,9.737474600013227,0.058127274856805675,-0.013282971014311447,-0.17791659524392175,0.012165811163347192,0.03195094948849225,0.010662968407159494,0.07282624620847694,0.1811632720042216,-0.12691422112127207,-0.07163549869318968,0.12512032116889285,-0.4708951204681182
2226,9.742245700006606,0.05812196687815115,-0.013290585413006503,-0.1778603998884816,0.012481673796233404,0.03273952260678647,0.010106922100060244,0.0725105606196864,0.18170217803457342,-0.12896268110030956,-0.07361404296497545,0.12280699285222403,-0.47163031877750733
2227,9.745943300004,0.05813435895855698,-0.013279615076088708,-0.17779572990083278,0.012796145490833776,0.03353041646075632,0.009541964759100947,0.07218630378193298,0.18223096733351618,-0.13101421469397673,-0.07557984698699236,0.12046363114771917,-0.4723093309395009
2228,9.750203200004762,0.05813076774034305,-0.013324838407444556,-0.1777081028139812,0.01310918912108675,0.03432358681298381,0.008968083560443913,0.07185353151642795,0.18274950930521952,-0.13306857668700542,-0.07753270948496403,0.11809022828153903,-0.4729317035110483
2229,9.754989400011254,0.058145148323860966,-0.013294026241390223,-0.17768569399426126,0.013420767805530887,0.03511898885815348,0.008385266750714618,0.07151230051571067,0.18325767333383708,-0.13512551990969912,-0.07947243020766376,0.11568678386806777,-0.473496990352482
2230,9.75865370000247,0.058144640414759516,-0.013329238848077966,-0.177601951482608,0.013730844911074317,0.03591657722301165,0.0077935036554148875,0.0711626683391642,0.18375532881577714,-0.1371847952699325,-0.08139880994083057,0.11325330496666047,-0.47400475275131665
2231,9.762827900005504,0.0581472419726786,-0.013329664078645118,-0.17753387046434818,0.01403938405674467,0.03671630596646684,0.00719278468719527,0.07080469340847109,0.18424234519221547,-0.13924615178568653,-0.08331165052147432,0.11078980613644591,-0.47445455954513577
2232,9.766798700002257,0.058144982645244855,-0.013337359415084862,-0.17748232945165368,0.01434634911741919,0.03751812857983275,0.006583101353984219,0.07043843500300788,0.18471859198184215,-0.14130933661811576,-0.08521075485257144,0.10829630948916101,-0.4748459872435361
2233,9.772567899999558,0.05814185282690363,-0.013334592389944638,-0.17744100614698405,0.01465170422753475,0.038321997987214564,0.0059644462669718006,0.07006395325517645,0.1851839388138348,-0.14337409510514307,-0.08709592691815242,0.10577284473999382,-0.47517862014910217
2234,9.7792516000045,0.05814297228335694,-0.013349390522148164,-0.1773587461643915,0.01495541378477747,0.03912786654603977,0.005336813148445656,0.06968130914567056,0.18563825546104945,-0.14544017079557883,-0.08896697179878187,0.10321944925641238,-0.4754520504773833
2235,9.783474800002296,0.05814029220131917,-0.013357123454671133,-0.1773297929349415,0.015257442453751715,0.03993568604773452,0.0047001968394769725,0.06929056449867549,0.18608141187341984,-0.14750730548376043,-0.0908236956874317,0.10063616810495728,-0.4756658784758439
2236,9.787597400005325,0.05813410457688337,-0.013348781533022148,-0.17730048936630288,0.015557755169628056,0.04074540771854679,0.004054593307454211,0.06889178197699886,0.1865132782115554,-0.1495752392447079,-0.09266590590574743,0.09802305409597639,-0.4758197125417622
2237,9.791818000012428,0.05812401532064653,-0.013356532156650822,-0.1772749507422625,0.01585631714176983,0.041556982220517256,0.003399999653462362,0.06848502507713088,0.18693372488052906,-0.151643710469792,-0.09449341092070716,0.09538016782628086,-0.4759131693390496
2238,9.79603360001056,0.05813379958422344,-0.013348827552338705,-0.17723680241735607,0.01615309385733791,0.04237035965259871,0.002736414119505575,0.0680703581242327,0.1873426225638454,-0.15371245590291072,-0.09630602036167286,0.09270757771970205,-0.4759458739139619
2239,9.800687200011453,0.05813460504687684,-0.013349602867455405,-0.17721567139897984,0.016448051084873364,0.04318548955192496,0.002063836095571037,0.06764784626705107,0.18773984225757973,-0.15578121067716863,-0.09810354503783286,0.09000536006552928,-0.4759174598096744
2240,9.805100600002334,0.0581393147096107,-0.013348020181933705,-0.17713040598689758,0.01674115487785776,0.04400232089523013,0.0013822661265319527,0.0672175554727572,0.18812525530467947,-0.15784970835205422,-0.09988579695603478,0.08727359905480848,-0.47582756917969105
2241,9.808913600005326,0.05814701879845287,-0.013358674407785947,-0.1771101426652257,0.017032371578250827,0.04482080210041915,0.0006917059188875075,0.06677955252170822,0.18849873342941856,-0.15991768095111064,-0.10165258933900762,0.08451238681448216,-0.4756758529000602
2242,9.818005300010554,0.058166187259804165,-0.013354638585808334,-0.17704310798500314,0.017321667820005045,0.0456408810282901,-7.841652662274103e-06,0.06633390500212927,0.1888601487719963,-0.16198485900009413,-0.10340373664397168,0.08172182343935283,-0.47546197068036705
2243,9.821811800007708,0.058169103384591636,-0.013358605176643142,-0.17699440390109608,0.017609010532556833,0.04646250498440939,-0.0007163725388088382,0.06588068130471494,0.18920937392327122,-0.16405097156561496,-0.10513905458163417,0.07890201702185216,-0.4751855911734747
2244,9.826591600009124,0.05816034090360544,-0.013363231116192401,-0.17696624616350048,0.01789436694429395,0.04728562072114028,-0.0014338815093966205,0.06541995061714811,0.18954628195961992,-0.1661157462942545,-0.10685836013556825,0.07605308367959844,-0.4748463920839875
2245,9.830270300008124,0.058157799631005765,-0.013365619244273373,-0.17692631099875075,0.01817770458599882,0.0481101744398253,-0.0021603621473557833,0.06495178291853444,0.18987074647791152,-0.16817890945215308,-0.10856147158197384,0.07317514758072623,-0.4744440602754095
2246,9.834138900012476,0.05814227775186676,-0.013368229137920878,-0.1768898041239911,0.018458991294267365,0.04893611179312275,-0.0028958068428081556,0.0644762489737509,0.19018264163058815,-0.17024018596506243,-0.11024820850981759,0.07026834096697238,-0.4739782918759712
2247,9.83756880000874,0.05814153296533747,-0.013365544266833219,-0.17686215149318735,0.018738195214903136,0.04976337788749749,-0.0036402067873483298,0.0639934203277067,0.19048184216084196,-0.17229929945885608,-0.11191839184134932,0.06733280417450355,-0.47344879238309606
2248,9.841754100008984,0.05813255304123184,-0.013371692869810162,-0.17682322936622155,0.019015284806286316,0.0505919172858663,-0.0043935519685018385,0.06350336929951543,0.1907682234378788,-0.17435597230049268,-0.11357184385299138,0.06436868565247049,-0.4728552767664795
2249,9.845268300006865,0.05813255304123184,-0.013371692869810162,-0.17682322936622155,0.019290228842717236,0.05142167401039843,-0.005155831164362319,0.06300616897657606,0.1910416614922578,-0.17640992563942584,-0.11520838819659782,0.061376141979275586,-0.47219746956975384
2250,9.850080800009891,0.058135539442783025,-0.013354444008044532,-0.1767887363846772,0.01956299641773402,0.052252591545471426,-0.005927031938409549,0.06250189320856174,0.1913020330512968,-0.17846087944945374,-0.116827849921079,0.058355337876540715,-0.47147510501071277
2251,9.85478380000859,0.05812499941096941,-0.013359078035450904,-0.17675686533450452,0.019833556947403966,0.05308461284078257,-0.0067071406345102025,0.06199061660131458,0.19154921557453414,-0.18050855257100187,-0.11843005549438844,0.05530644622076289,-0.4706879270800664
2252,9.858857500003069,0.05811368284816506,-0.013360103346058026,-0.1767331451096411,0.0201018801735883,0.05391768031461581,-0.0074961423721031355,0.061472414510644634,0.19178308728923582,-0.1825526627538322,-0.12001483282586761,0.05222964805264592,-0.4698356896387013
2253,9.8644776000001,0.05812587403829172,-0.013364001645932709,-0.17671598533594363,0.020367936167179745,0.05475173585726415,-0.008294021041570966,0.06094736303603188,0.19200352722593925,-0.18459292670017163,-0.12158201128894411,0.04912513258409701,-0.46891815651341867
2254,9.869454700005008,0.05811747311923223,-0.01336772841991788,-0.17667183741574002,0.020631695331312455,0.05558672083460753,-0.009100759299799725,0.06041553901423001,0.19221041525402313,-0.18662906010825234,-0.12313142174417768,0.04599309720287782,-0.46793510159112395
2255,9.875315600002068,0.058108317196147674,-0.01337165697126827,-0.1765913819166698,0.02089312840454384,0.05642257609184601,-0.009916338565928282,0.05987702001277036,0.19240363211729417,-0.18866077771625678,-0.12466289656264981,0.04283374747490042,-0.4668863089114428
2256,9.879535200001555,0.05809536881004527,-0.013298143826016105,-0.17651507580413708,0.021152206464007967,0.0572592419573883,-0.010740739017289216,0.05933188432336471,0.19258305946957988,-0.19068779334666106,-0.12617626964969106,0.03964729714415904,-0.4657715727577385
2257,9.885514699999476,0.058089310136137495,-0.013282449032301236,-0.17645593871439225,0.021408900928539996,0.05809665824689546,-0.011573939585542764,0.05878021095520554,0.19274857991031794,-0.1927098199509689,-0.12767137646894083,0.03643396813028946,-0.46459069774650663
2258,9.889820100012004,0.05811451732605285,-0.013298120257159039,-0.17635152950369407,0.021663183561771243,0.05893476426747942,-0.012415917953005458,0.058222079628162254,0.19290007702013215,-0.19472656965482812,-0.12914805406673296,0.03319399052374868,-0.4633434989151219
2259,9.8938565000135,0.0580714886777132,-0.013279872088181767,-0.17637083803736064,0.02191502647519442,0.05977349882205624,-0.013266650549175066,0.057657570765872065,0.1930374353963849,-0.19673775380352174,-0.13060614109680097,0.029927602578608204,-0.4620298018079127
2260,9.897807700006524,0.05808627659276562,-0.013297734306651255,-0.1762610593952357,0.022164402131198677,0.06061280021385355,-0.01412611254745344,0.057086765488724045,0.19316054068869543,-0.1987430830078256,-0.13204547784529536,0.026635050702954893,-0.46064944256053914
2261,9.901865400010138,0.05808389622271167,-0.013290925113049828,-0.17620918628080928,0.022411283346073972,0.06145260625107198,-0.014994277862068759,0.056509745606735225,0.1932692796344136,-0.20074226719022592,-0.13346590625610671,0.02331658944689398,-0.4592022679826501
2262,9.906563200012895,0.05806498509490486,-0.013280160601132674,-0.1761563671124427,0.02265564329298431,0.06229285425170034,-0.01587111914519868,0.055926593612317284,0.19336354009403864,-0.20273501563148869,-0.13486726995648698,0.01997248148814942,-0.45768813563879734
2263,9.912242300008074,0.0580491766132441,-0.013261753244616283,-0.17609271479329666,0.022897455504909528,0.06313348104848443,-0.016756607784295982,0.055337392672932806,0.19344321108657234,-0.2047210370175721,-0.13624941428296142,0.01660299761525787,-0.4561069139275817
2264,9.91688500001328,0.05803892925713186,-0.013254946942645923,-0.17605111035026538,0.023136693877555292,0.06397442299404886,-0.017650713899618115,0.054742226623640027,0.19350818282479607,-0.20670003948687418,-0.1376121863075237,0.013208416708353142,-0.45445848215901
2265,9.92146870000579,0.05802582243199394,-0.013245770719065329,-0.17603445735075338,0.023373332672230754,0.06481561596617146,-0.018553406341962037,0.05414117995952476,0.19355834675046146,-0.20867173067780687,-0.1389554348641067,0.00978902571753885,-0.45274273063004017
2266,9.925153500007582,0.05801497378517275,-0.01323482995079025,-0.17598809184592906,0.023607346518693312,0.06565699537320943,-0.01946465269060573,0.05353433782801805,0.19359359556938338,-0.2106358177766891,-0.1402790105753205,0.006345119638847575,-0.4509595606982894
2267,9.929324000011547,0.058003050811121365,-0.013216842180082893,-0.1759686970906556,0.02383871041795992,0.0664984961596771,-0.02038441925145774,0.052921786021098094,0.19361382328642518,-0.2125920075659511,-0.14158276587944993,0.0028770014877856033,-0.44910888485388545
2268,9.933364299999084,0.058002672027628245,-0.013204500340499458,-0.17593012430439897,0.024067399745084463,0.06734005281197461,-0.02131267105541604,0.05230361096737544,0.19361892524036695,-0.21454000647264135,-0.1428665550577024,-0.0006150177295369704,-0.4471906267894351
2269,9.937584300001618,0.058002672027628245,-0.013204500340499458,-0.17593012430439897,0.024293390251900495,0.06818159936426729,-0.022249371856937594,0.051679899724060174,0.1936087981386453,-0.2164795206172291,-0.1441302342616973,-0.004130619047690096,-0.445204721468086
2270,9.942216000010376,0.05800562890459245,-0.013187241584001006,-0.17587256260288578,0.024516658069728876,0.06902306940451466,-0.023194484132819826,0.05105073996881012,0.1935833400919541,-0.21841025586269414,-0.14537366154118878,-0.007669475575620227,-0.44315111518965555
2271,9.946077800006606,0.05801191336830749,-0.013183400454810403,-0.1758403199665606,0.024737179712049705,0.06986439608064873,-0.024147969081195375,0.05041621999145911,0.1935424506486957,-0.22033191786389458,-0.14659669687201318,-0.011231252532757183,-0.441029765654806
2272,9.95030460000271,0.05801002772752979,-0.013168493843330433,-0.17580424424174815,0.024954932077138118,0.07070551210690028,-0.025109786620741373,0.04977642868562442,0.19348603082927154,-0.22224421211720496,-0.14779920218425177,-0.014815607287528499,-0.43884064202724377
2273,9.954449000011664,0.058009146217951536,-0.013164854777851577,-0.17578824804697632,0.025169892450663502,0.07154634977027256,-0.026079895390104423,0.04913145554019249,0.19341398316020167,-0.22414684401041576,-0.14898104139059878,-0.018422189398277583,-0.43658372499392134
2274,9.95861150001292,0.05802293558505269,-0.013152338594724651,-0.17577278731875529,0.02538203850825157,0.07238684093716186,-0.02705825274754241,0.04848139063068203,0.19332621170806288,-0.22603951887288667,-0.1501420804149249,-0.022050640656581147,-0.4342590068232229
2275,9.962772900005804,0.058022433665023916,-0.01313475942469811,-0.17574436855474382,0.025591348318008845,0.0732269170601242,-0.028044814770784215,0.0478263246104837,0.1932226221132353,-0.2279219420259451,-0.1512821872210253,-0.02570059513296067,-0.43186649142111366
2276,9.966938199999277,0.058027082578564836,-0.013081680999560249,-0.17570369002521205,0.025797800343009034,0.07406650918478755,-0.029039536257108436,0.047166348701975336,0.19310312162344656,-0.22979381883352037,-0.1524012318415414,-0.02937167922498191,-0.4294061943852343
2277,9.971166100003757,0.05803695845156824,-0.013053852596657638,-0.1757037665219705,0.02600137344374069,0.07490554795690833,-0.03004237072364216,0.04650155468751181,0.19296761912710203,-0.2316548547530069,-0.15349908640704638,-0.03306351170773559,-0.42687814305692146
2278,9.975285500011523,0.058029342300820574,-0.01304287198889008,-0.1757050855638164,0.02620204688051568,0.07574396362957175,-0.03105327040788063,0.045832034900289115,0.19281602518638963,-0.23350475538634646,-0.15457562517528267,-0.03677570378669172,-0.42428237657113627
2279,9.979590500006452,0.058027166019588745,-0.013016173369836521,-0.17570378309565668,0.0263998003158379,0.07658168607053487,-0.032072186268428844,0.04515788221508161,0.19264825207015013,-0.23534322653132164,-0.1556307245605401,-0.04050785915291907,-0.4216189459042804
2280,9.983579000007012,0.05803504514556624,-0.01297356680121442,-0.17571967634815377,0.026594613816731685,0.0774186447697117,-0.03309906798596605,0.044479190038851736,0.19246421378650236,-0.23716997423305086,-0.15666426316316354,-0.04425957404066055,-0.41888791391987895
2281,9.987972300004913,0.0580368276094446,-0.012931255866394941,-0.17572031549043096,0.026786467857029334,0.07825476884679956,-0.03413386396443416,0.04379605230123141,0.1922638261152122,-0.2389847048356774,-0.15767612179917875,-0.04803043728725439,-0.41608935541211034
2282,9.991871300007915,0.05803984832093632,-0.012887566180259286,-0.17572748814080516,0.02697534331961709,0.07908998705904512,-0.03517652133245108,0.04310856344487454,0.19204700663979554,-0.24078712503424335,-0.15866618353002598,-0.05182003039539035,-0.413223357147163
2283,9.996169200006989,0.05804579154898512,-0.012847894473779375,-0.17574867222323146,0.027161221498638918,0.07992422780914916,-0.0362269859449497,0.04241681841568037,0.19181367477934538,-0.2425769419267401,-0.1596343336923888,-0.05562792759768907,-0.41029001790240016
2284,10.00064550001116,0.05806150674699148,-0.012822250811841903,-0.17574458674039975,0.027344084101657506,0.0807574191533088,-0.03728520238504327,0.04172091265288744,0.19156375182007265,-0.2443538630663271,-0.1605804599281062,-0.05945369592359249,-0.40728944850331456
2285,10.0043783000001,0.05808222333959337,-0.012787104112598879,-0.17575404093993663,0.027523913251771896,0.08158948880939566,-0.03835111396611806,0.04102094207903804,0.19129716094655042,-0.24611759651370962,-0.16150445221415508,-0.0632968952685519,-0.4042217718582586
2286,10.008657099999256,0.0581095149069033,-0.012745705834120333,-0.175775171599879,0.027700691489691297,0.08242036416526921,-0.03942466273415385,0.04031700308981283,0.19101382727265098,-0.24786785088966645,-0.16240620289268953,-0.06715707846549998,-0.40108712299092936
2287,10.016968600000837,0.05817087665224055,-0.012664628113505027,-0.1758195712434901,0.027874401775764602,0.08324997228722322,-0.04050578947027279,0.0396091925437355,0.1907136778721659,-0.2496043354277185,-0.16328560670112494,-0.07103379135859221,-0.3978856490705925
2288,10.021517500004848,0.05819995431830254,-0.012572042623488131,-0.17589052370756536,0.02804502749196502,0.08407823992856435,-0.041594433693517174,0.03889760775174734,0.19039664180909857,-0.2513267600269303,-0.1641425608022533,-0.0749265728792022,-0.39461750944002927
2289,10.025080500010516,0.0582339936322106,-0.012491072712762622,-0.17593125808769777,0.028212552443829454,0.08490509353832076,-0.04269053366385658,0.03818234646665163,0.19006265016762014,-0.25303483530483334,-0.16497696481437749,-0.0788349551241547,-0.3912828756411927
2290,10.029716100005317,0.05825994679336677,-0.012436063903130894,-0.17595411530496852,0.02837696086235207,0.08573045927007952,-0.04379402638542494,0.037463506872427894,0.18971163608167882,-0.25472827265046094,-0.1657887208414504,-0.08275846343617906,-0.38788193143855754
2291,10.034048900008202,0.058297263211689376,-0.012368198447919304,-0.1759812776927992,0.028538237405831498,0.0865542629909509,-0.04490484760998788,0.036741187573415615,0.189343534764252,-0.2564067842774833,-0.16657773350320573,-0.08669661648656463,-0.3844148728401523
2292,10.037848500011023,0.05831357759469153,-0.012294528478342392,-0.1760202553088841,0.02869636716167124,0.08737643029065846,-0.046022931840640754,0.03601548758336763,0.1889582835362313,-0.2580700832774323,-0.1673439099652657,-0.09064892635999959,-0.38088190811625844
2293,10.042258100002073,0.05833864786277876,-0.012212109723263483,-0.17603828592911389,0.028851335648132876,0.08819688649075347,-0.04714821233573781,0.03528650631437303,0.18855582185493117,-0.2597178836730065,-0.1680871599692124,-0.09461489864157362,-0.3772832578157631
2294,10.046013099999982,0.058350198514941894,-0.012112925772239533,-0.17612425327757938,0.029003128816041557,0.08901555665395187,-0.04828062111305247,0.034554343565649626,0.1881360913422122,-0.261349900471447,-0.16880739586260882,-0.0985940325059243,-0.3736191547801493
2295,10.05035110001336,0.058376230947999035,-0.0120318087023457,-0.17615496968712235,0.029151733050443312,0.0898323655935928,-0.04942008895416941,0.03381909951220604,0.1876990358122089,-0.2629658497179726,-0.16950453262895665,-0.10258582080850649,-0.36988984415510867
2296,10.054369400008,0.05840813393411595,-0.011948675308261582,-0.17619983715804297,0.029297135172213492,0.09064723788321737,-0.05056654540910856,0.03308087469337387,0.1872446012986529,-0.2645654485492644,-0.1701784879175762,-0.10658975017896265,-0.36609558339976334
2297,10.058493900010944,0.05843131387541852,-0.011885532615426526,-0.1762352752497046,0.029439322439615757,0.09146009786626623,-0.05171991880118154,0.032339770001210084,0.18677273608178216,-0.2661484152469883,-0.17082918207339448,-0.11060530111657231,-0.36223664229348373
2298,10.06291880000208,0.05846453527380635,-0.011781100852191358,-0.17627380857368322,0.029578282549810923,0.0922708696658938,-0.0528801362320807,0.03159588666876987,0.18628339071482714,-0.2677144692913441,-0.1714565381666262,-0.11463194808775773,-0.35831330294028896
2299,10.066744300012942,0.0585036978431698,-0.011691764631121768,-0.17633322528151502,0.029714003640315158,0.09307947719489766,-0.05404712358720086,0.03084932625825041,0.18577651805006498,-0.26926333141463127,-0.17206048202233368,-0.11866915962562208,-0.3543258597708186
2300,10.071224100000109,0.058536033569218895,-0.011589920630277403,-0.17636122504549578,0.029846474290407092,0.09388584416576094,-0.055220805541193775,0.030100190649006094,0.1852520732644331,-0.27079472365481894,-0.17264094224985155,-0.12271639843149645,-0.35027461954186456
2301,10.07546990000992,0.05856553216380004,-0.01153182665063943,-0.17639105503605781,0.029975683522483264,0.09468989410080557,-0.05640110556375514,0.029348582025435513,0.18471001388469324,-0.27230836940911024,-0.17319785027206205,-0.1267731214784712,-0.34615990133345254
2302,10.079231900002924,0.05860475619257603,-0.011430927318534217,-0.1764322243180728,0.030101620803361314,0.09549155034245427,-0.0575879459256439,0.028594602864740883,0.18415029981213746,-0.2738039934874893,-0.17373114035450557,-0.13083878011688585,-0.3419820365434606
2303,10.083709500002442,0.05865147043136092,-0.011363112049809571,-0.17650905893353297,0.03022427604553039,0.09629073606359978,-0.05878124770493341,0.027838355924560798,0.1835728933468282,-0.2752813221662384,-0.1742407496343118,-0.1349128201817515,-0.3377413688797649
2304,10.08810190000804,0.058683261258472064,-0.011259336474155234,-0.17654788006983094,0.03034363960834824,0.09708737427807902,-0.05998093079349403,0.027079944230477077,0.1829777592113644,-0.27674008324141486,-0.17472661814893672,-0.13899468210207838,-0.3334382543499025
2305,10.092441300002974,0.0587197975745142,-0.011106445003210529,-0.17662831037825671,0.03045970229918434,0.0978813878512502,-0.061186913903707014,0.02631947106339649,0.18236486457416576,-0.27818000608227755,-0.1751886888646908,-0.1430838010120802,-0.329073061248241
2306,10.09758210000291,0.05876346668848834,-0.010949385836053423,-0.1766753316739957,0.03057245537450848,0.09867269951067108,-0.062399114575409496,0.025557039946808264,0.18173417907226677,-0.2796008216846519,-0.17562690770504344,-0.14717960686422643,-0.32464617014064406
2307,10.101940900000043,0.05880092820749279,-0.010748078601165379,-0.176719808487412,0.03068189054092415,0.09946123185687583,-0.06361744918307032,0.024792754633918227,0.18108567483361238,-0.28100226272422285,-0.17604122357868904,-0.15128152454411342,-0.3201579738466236
2308,10.106947600012065,0.05884825713184539,-0.01059077995101295,-0.1767935089870721,0.03078799995614599,0.10024690737424809,-0.06484183294319673,0.0240267190946606,0.1804193264988479,-0.2823840636097471,-0.1764315884073604,-0.15538897398712456,-0.31560887741897153
2309,10.111429299999145,0.058875153998694967,-0.010449135675291583,-0.17688268178861696,0.030890776229920952,0.10102964844198829,-0.0660721799219717,0.0232590375025885,0.17973511124259556,-0.28374596053617274,-0.17679795715337396,-0.15950137029684897,-0.310999298120865
2310,10.116644600013387,0.05895883215384971,-0.010121173907746866,-0.17703160622148179,0.030990212424892655,0.10180937734517348,-0.06730840304312113,0.0224898142216443,0.17903300879420997,-0.28508769153765423,-0.17714028784689234,-0.1636181238652284,-0.3063296654004382
2311,10.1215799000056,0.05900573438011198,-0.009939278993596397,-0.17713028137591857,0.031086302057408567,0.10258601628590722,-0.06855041409601118,0.021719153792811155,0.17831300145800555,-0.2864089965404515,-0.1774585416128899,-0.16773864049440088,-0.30160042086281486
2312,10.125275900005365,0.0590450496317138,-0.009789922176884179,-0.17722766888034858,0.031179039098269495,0.1033594873945574,-0.069798123743975,0.020947160920646902,0.1775750741329481,-0.28770961741570067,-0.1777526826978063,-0.17186232152020747,-0.29681201823959574
2313,10.12916419999965,0.059113471274279135,-0.009611909984229172,-0.1773104419373107,0.03126841797342107,0.10412971274107986,-0.07105144153286841,0.020173940459701726,0.17681921433180414,-0.28898929803204454,-0.1780226784958739,-0.17598856393732865,-0.2919649233557952
2314,10.133487300001434,0.05918594741026067,-0.009438067114667995,-0.1774020325633491,0.03135443356458654,0.10489661434642515,-0.07231027589985316,0.01939959740082081,0.1760454121997403,-0.29024778430811027,-0.17826849957510452,-0.18011676052601552,-0.2870596140942234
2315,10.137747900007524,0.05927482076342852,-0.009207191249326476,-0.17749145024120633,0.03143708120984032,0.10566011419402617,-0.0735745341824072,0.018624236857333363,0.1752536605323668,-0.2914848242648245,-0.17849011970292006,-0.18424629998038153,-0.28209658035730995
2316,10.141616300010355,0.05933904979020545,-0.009032437908924749,-0.17760063688774416,0.0315163567041218,0.10642013424136391,-0.07484412262756114,0.017847964051129473,0.1744439547932193,-0.29270016807755533,-0.17868751587141182,-0.1883765670382201,-0.27707632402636573
2317,10.145901200012304,0.059430733895726326,-0.008874540087569896,-0.1777065415027798,0.031592256299689016,0.10717659643160929,-0.07611894640136042,0.017070884298626396,0.17361629313067237,-0.2938935681280693,-0.17886066832221306,-0.19250694261231335,-0.2719993589182807
2318,10.150186900005792,0.059498151816142465,-0.008686587666802473,-0.17788045327370508,0.031664776706511605,0.10792942270533834,-0.07739890959855229,0.016293102996625914,0.17277067639427834,-0.2950647790562906,-0.17900956057096995,-0.19663680392319635,-0.2668662107396533
2319,10.153853100011474,0.059498151816142465,-0.008686587666802473,-0.17788045327370508,0.031733915092602476,0.10867853501231771,-0.07868391525249677,0.01551472560806458,0.17190710815052485,-0.2962135578118498,-0.17913417943139637,-0.20076552463333974,-0.2616774170383506
2320,10.158298100010144,0.05967607001889323,-0.00837589652870419,-0.17813791760938805,0.03179966908428792,0.1094238553233577,-0.07997386534530102,0.01473585764765868,0.17102559469800468,-0.29733966370541365,-0.1792345150388983,-0.20489247498271426,-0.2564335271525002
2321,10.16241760000412,0.05975970512363358,-0.008187014659227814,-0.17826545119664727,0.03186203676641547,0.1101653056422302,-0.0812686608181764,0.013956604667445876,0.17012614508199186,-0.29844285845978274,-0.17931056087375372,-0.20901702192569868,-0.25113510215691054
2322,10.167104000007384,0.05983117245368571,-0.008003590684285855,-0.1784155726723198,0.03192101668249874,0.110902808017649,-0.08256820158201728,0.013177072242225434,0.16920877110841773,-0.29952290626074934,-0.17936231378383263,-0.2131385292692938,-0.2457827148069215
2323,10.170887500004028,0.059935245958088676,-0.007831053463053786,-0.17856469071512435,0.031976607834799095,0.11163628455530974,-0.08387238652820046,0.012397365954899011,0.1682734873572414,-0.30057957380770345,-0.17938977400684294,-0.21725635781260477,-0.24037694947968263
2324,10.17544479999924,0.06004395866241291,-0.007639004413471696,-0.17874663727433465,0.032028809684343656,0.11236565742998685,-0.08518111353960454,0.011617591381714075,0.16732031119520904,-0.30161263036397823,-0.17939294519208707,-0.22136986548755241,-0.23491840211286139
2325,10.179357100001653,0.06014731958771586,-0.007415510662929947,-0.17891624735223102,0.032077622150879274,0.11309084889768385,-0.0864942795018483,0.010837854077412024,0.1663492627879961,-0.3026218478069254,-0.17937183442171498,-0.22547840750077514,-0.22940768014078128
2326,10.18352770000638,0.06024645813511968,-0.0071424749644373505,-0.17914837101106568,0.0321230456127619,0.11381178130783487,-0.08781178031474728,0.01005825956028315,0.16536036511172802,-0.3036070006777096,-0.17932645223146004,-0.22958133647668094,-0.22384540242799056
2327,10.187936200003604,0.06038896377889601,-0.006851123789358307,-0.17934224575219504,0.032165080906781086,0.11452837711555429,-0.08913351090398698,0.009278913297130724,0.16435364396387445,-0.30456786623081106,-0.17925681263084342,-0.2336780026016096,-0.21823219920026368
2328,10.191965900012292,0.060540382899823685,-0.006591553876960789,-0.1795893629035403,0.03220372932791909,0.11524055889393257,-0.09045936523301168,0.008499920688146487,0.16332912797351298,-0.3055042244832273,-0.1791629331228328,-0.23776775376906387,-0.2125687119730379
2329,10.196241700003156,0.060702055831250046,-0.006333898279650623,-0.1797873821667744,0.032238992629044214,0.11594824934637447,-0.09178923631512674,0.007721387051699916,0.1622868486109576,-0.3064158582633639,-0.179044834722942,-0.24184993572596825,-0.20685559347728866
2330,10.200315300011424,0.06085992026487351,-0.006040277300742546,-0.18000522568564245,0.03227087302053817,0.11665137131897704,-0.0931230162258134,0.006943417609043707,0.16122684019674777,-0.3073025532596042,-0.1789025419777564,-0.24592389221991456,-0.2010935075828484
2331,10.204157700005451,0.061029469534754216,-0.005753971087176284,-0.1802007958682569,0.03229937316985692,0.11734984781294497,-0.09446059611525483,0.006166117468937938,0.16014913990999363,-0.3081640980685455,-0.178736082982871,-0.24998896514735314,-0.19528312921917373
2332,10.208671100001084,0.061205409349477616,-0.00540720874194256,-0.1804014245818501,0.03232449620102483,0.11804360199703998,-0.09580186622107197,0.00538959161219547,0.15905378779607332,-0.3090002842428912,-0.17854548940022685,-0.25404449470268714,-0.1894251442935651
2333,10.21271850001358,0.06138117889498621,-0.005078010996366875,-0.18063840902829267,0.03234624569406164,0.11873255722006212,-0.09714671588126768,0.004613944876151217,0.1579408267736782,-0.30981090633898717,-0.178330796474832,-0.2580898195282278,-0.18352024960684424
2334,10.216921200000796,0.06157269109886727,-0.004712999848702947,-0.18086033476576013,0.03236462568434186,0.11941663702336035,-0.09849503354737739,0.0038392819390579997,0.15681030264120271,-0.3105957619639908,-0.17809204305085252,-0.2621242768649684,-0.17756915276649451
2335,10.220983100007288,0.06175782684316101,-0.004261464986059851,-0.1812360882176385,0.03237964066188638,0.12009576515336938,-0.09984670679782406,0.0030657073044117037,0.15566226408247535,-0.3113546518226636,-0.17782927158706002,-0.2661472027041325,-0.17157257209727086
2336,10.225213600002462,0.061986347145059774,-0.0038197860586325037,-0.18146706386596043,0.03239129557058573,0.12076986557417001,-0.10120162235147598,0.0022933252852085566,0.1544967626718277,-0.31208737976377515,-0.1775425281716214,-0.27015793193945126,-0.16553123654928553
2337,10.22970970001188,0.06218767352418551,-0.0034230381615290052,-0.18171551355761728,0.03239959580735462,0.12143886248007008,-0.10255966608140525,0.001522239988137382,0.15331385287849733,-0.3127937528261083,-0.17723186253621734,-0.2741557985201262,-0.1594458856035776
2338,10.233430899999805,0.062388427733582476,-0.003029905120409175,-0.18207645899627173,0.03240454722121731,0.12210268030820315,-0.10392072302884482,0.0007525552977097311,0.15211359207036368,-0.31347358128405306,-0.17689732806947697,-0.2781401356044341,-0.15331726917517347
2339,10.237834200001087,0.06260829970460044,-0.0026154954578118256,-0.18232904829144359,0.03240615611232358,0.1227612437511424,-0.10528467741734203,-1.5625139669119207e-05,0.1508960405170143,-0.3141266786927795,-0.17653898182971503,-0.2821102757139303,-0.14714614751364688
2340,10.24176200000511,0.06281928514997095,-0.002188786238610751,-0.18258277154437658,0.032404429230894934,0.12341447776952721,-0.10665141266710693,-0.0007821979316852856,0.14966126139213926,-0.3147528619329772,-0.17615688455696007,-0.28606555088820623,-0.140933291101188
2341,10.24589640001068,0.06301267389629657,-0.0016399611863992698,-0.18283904831714437,0.03239937377610083,0.12406230760469909,-0.10802081140955348,-0.0015470599561544327,0.1484093207752514,-0.3153519512551509,-0.17575110068426056,-0.29000529284015575,-0.13467948054819268
2342,10.250147600003402,0.06322734946298013,-0.001124326983770109,-0.1830980764012988,0.03239099739486491,0.12470465879134401,-0.10939275550203177,-0.0023101083771098333,0.1471402876527308,-0.31592377032346,-0.1753216983482577,-0.2939288331117036,-0.12838550648638236
2343,10.254166700004134,0.06344598651227633,-0.0006034981154398981,-0.1833518440992252,0.03237930818060114,0.12534145717013884,-0.11076712604274885,-0.003071240660937147,0.14585423391819147,-0.31646814625909003,-0.17486874939901403,-0.29783550322994995,-0.12205216945946529
2344,10.25869970000349,0.06368757112303933,-8.826702020514957e-05,-0.18367635686002823,0.032364314671879765,0.12597262890039948,-0.11214380338587658,-0.0038303545925526773,0.14455123437216869,-0.3169849096831456,-0.17439232940908647,-0.3017246348636881,-0.11568027981135018
2345,10.263234000012744,0.06392266789461833,0.0004284801843952857,-0.18396854421306508,0.03234602585102267,0.12659810047272813,-0.11352266715684431,-0.004587348291621809,0.14323136672112521,-0.31747389475905446,-0.17389251768183311,-0.30559555998025134,-0.10927065757192435
2346,10.26708660001168,0.06414183847472354,0.0009496964518309128,-0.18419399991594493,0.03232445114262815,0.12721779872165595,-0.11490359626781485,-0.005342120228814268,0.14189471157577443,-0.31793493923447413,-0.17336939725894326,-0.30944761100264295,-0.1028241323404096
2347,10.271198500005994,0.06437981167211819,0.0014958784217799885,-0.18446789159701776,0.032299600412024926,0.1278316508382791,-0.11628646893334135,-0.006094569242092808,0.14054135244871857,-0.3183678844826901,-0.17282305492717892,-0.31328012096690233,-0.09634154316630877
2348,10.276633000001311,0.06464315915469962,0.0021368661037546414,-0.18470994719739986,0.032271483963655326,0.128439584382885,-0.11767116268620267,-0.006844594553031858,0.1391713757514011,-0.318772575543495,-0.1722535812243169,-0.3170924236796612,-0.08982373842795631
2349,10.280475100007608,0.06491020809885086,0.00278831641714369,-0.18502575132762486,0.03224011253938757,0.129041527297566,-0.11905755439341557,-0.007592095783162688,0.13778487079037313,-0.3191488611635368,-0.17166107044428142,-0.32088385387584445,-0.08327157570868754
2350,10.285386900010051,0.06515503012277243,0.003387003911333293,-0.18535908771584206,0.03220549731675688,0.1296374079188178,-0.12044552027242127,-0.008336972970341519,0.1363819297628738,-0.319496593836128,-0.1710456206414579,-0.3246537473764681,-0.07668592167064192
2351,10.28941090000444,0.06540997296348536,0.004017055766938508,-0.18566134362224154,0.032167649907135186,0.13022715499011905,-0.12183493590744444,-0.009079126585136994,0.13496264775172412,-0.3198156298405039,-0.17040733363417665,-0.3284014412464876,-0.0700676519262157
2352,10.293890400003876,0.06562814520149418,0.004680824325882647,-0.18602302524183625,0.03212658235382948,0.13081069767448752,-0.12322567626602257,-0.00981845754723333,0.13352712271953426,-0.32010582928052034,-0.16974631500735649,-0.3321262739526507,-0.06341765090718013
2353,10.298145200009458,0.06584638839702273,0.005375779229345089,-0.1864115908038597,0.03208230713010855,0.13138796556700988,-0.12461761571570368,-0.010554867241845432,0.13207545550222424,-0.32036705612278055,-0.16906267411429923,-0.33582758552130965,-0.05673681173148232
2354,10.301841000007698,0.06612022185205242,0.0060129628135482775,-0.18679680025202505,0.03203483713715823,0.13195888870734138,-0.12601062804090998,-0.011288257536142213,0.13060774980185913,-0.32059917823418005,-0.16835652407762655,-0.3395047176961443,-0.05002603606774572
2355,10.305449200008296,0.0663821759659659,0.006749485767825698,-0.18712962125507782,0.03198418570196507,0.13252339759217213,-0.12740458645996433,-0.012018530795674299,0.12912411217879868,-0.32080206741886047,-0.16762798178934946,-0.34315701409575045,-0.04328623399748794
2356,10.308886700004225,0.06665643655756684,0.007436855333848122,-0.1875187559284253,0.031930366575128634,0.13308142318765762,-0.12879936364227731,-0.012745589900802216,0.12762465204316198,-0.32097559945456194,-0.1668771679100625,-0.3467838203710466,-0.036518323875074
2357,10.312717700013309,0.06694053245427943,0.008121737945488625,-0.1878415409564213,0.031873393928602375,0.13363289694180963,-0.13019483172569277,-0.013469338263121204,0.1261094816456091,-0.3211196541283643,-0.16610420686725416,-0.3503844843624531,-0.029723232185423946
2358,10.316710400002194,0.06726008291279036,0.008789412781647916,-0.18820912592494107,0.03181328235336297,0.13417775079684557,-0.1315908623339883,-0.014189679841878706,0.12457871606744043,-0.3212341152718055,-0.16530922685272514,-0.35395835625679606,-0.022901893399494132
2359,10.321270000000368,0.06758737338211845,0.009483831653340966,-0.18854254106683027,0.03175004685700833,0.1347159172014918,-0.13298732659452767,-0.014906519160380573,0.123032473210015,-0.32131887079536725,-0.16449235981910587,-0.3575047887438887,-0.016055249827552395
2360,10.325377500004834,0.06786559723518293,0.010157004936317462,-0.18893694598172867,0.03168370286128409,0.1352473291232384,-0.1343840951560621,-0.015619761322381971,0.12147087378348854,-0.3213738127223171,-0.16365374147546657,-0.36102313717274237,-0.00918425147026791
2361,10.329155400002492,0.06814317535133446,0.010942604257068625,-0.18928726274563024,0.03161426619953851,0.1357719200605418,-0.13578103820667725,-0.016329312028458963,0.11989404129487259,-0.32139883722189655,-0.16279351128201253,-0.3645127597073603,-0.0022898558676368755
2362,10.333422800002154,0.06845940916487835,0.011699382544078329,-0.1896579416627926,0.03154175311410605,0.13628962405497372,-0.13717802549188263,-0.017035077592356698,0.11830210203541647,-0.32139384464184545,-0.16191181244385736,-0.36797301748206834,0.004626972054234142
2363,10.337547500006622,0.06877032472284052,0.012448131026003732,-0.19006297139865527,0.03146618025361954,0.13680037570331277,-0.1385749263328397,-0.017736964957310173,0.11669518506731523,-0.32135873954025274,-0.16100879190386796,-0.3714032747563339,0.011565260138464827
2364,10.341810400001124,0.06903999701636093,0.01310952505919729,-0.19054354536080467,0.03138756467025119,0.1373041101695773,-0.13997160964472624,-0.018434881712333363,0.11507342220974523,-0.32129343071672717,-0.16008460033457428,-0.3748028990690289,0.018524029154834785
2365,10.346865200001048,0.06934963321916522,0.013762700228445876,-0.19095166656252258,0.03130592381688215,0.13780076319699566,-0.1413679439552343,-0.01912873610847245,0.11343694802422993,-0.3211978312428807,-0.1591393921291378,-0.37817126139209234,0.025502292959290775
2366,10.350457500011544,0.06970416245781823,0.014615872417017409,-0.1913347159993113,0.031221275544200698,0.1382902711199117,-0.14276379742319795,-0.01981843707501905,0.11178589979933887,-0.3210718584921163,-0.15817332539137277,-0.3815077362835477,0.03249905865550341
2367,10.354433000000428,0.07005825604623292,0.01541984961011451,-0.19176539256265662,0.031133638097729226,0.13877257087562223,-0.14415903785734765,-0.020503894235679266,0.11012041753472268,-0.32091543416870943,-0.15718656192481437,-0.38481170203983345,0.03951332675844878
2368,10.358338400008506,0.07038341725102232,0.016168160805864883,-0.19232010230616803,0.031043030114780122,0.13924760001614248,-0.14555353273518823,-0.021185017924694242,0.10844064392448767,-0.3207284843361753,-0.15617926722082845,-0.3880825408473995,0.04654409135998971
2369,10.362781300005736,0.07067390301390918,0.01689510440590814,-0.19278188339926225,0.03094947062134078,0.13971529671989777,-0.14694714922199756,-0.021861719202908084,0.10674672433991296,-0.32051093944491066,-0.15515161044575773,-0.39131963893352567,0.05359034029643128
2370,10.36699770000996,0.07097265956239891,0.0176351893640725,-0.19321967037514146,0.030852979028887912,0.14017559980333805,-0.1483397541899438,-0.022533909873778884,0.10503880681151398,-0.32026273435910235,-0.1541037644271002,-0.39452238671631495,0.060651055318024255
2371,10.370904600000358,0.07128427298749979,0.018522727725720327,-0.19366719739647825,0.03075357513113121,0.14062844873247332,-0.149731214237318,-0.0232015024993285,0.10331704201045558,-0.3199838083828918,-0.15303590563871655,-0.3976901789538184,0.06772521226038944
2372,10.376410700002452,0.07159561852739156,0.019249680379012965,-0.1941802592722927,0.030651279100686664,0.14107378363432696,-0.15112139570787902,-0.023864410416026913,0.10158158322931883,-0.31967410528578855,-0.15194821418506319,-0.4008224148922457,0.07481178121783562
2373,10.379976100011843,0.0719157883364718,0.019993809322904225,-0.1946330640601085,0.030546111485680042,0.14151154530830437,-0.15251016471030857,-0.024522547750606798,0.09983258636222549,-0.3193335733273229,-0.15084087378444722,-0.40391849841321953,0.08190972671854253
2374,10.383615400001872,0.07224642472705438,0.020844968678136965,-0.19507262268447692,0.03043809320628085,0.14194167523747434,-0.1538973871377727,-0.025175829435804084,0.09807020988432417,-0.31896216528093146,-0.14971407175130058,-0.4069778381800328,0.08901800790158088
2375,10.387721900013275,0.0725492710658844,0.021624101620103336,-0.19561047143472973,0.030327245551167187,0.14236411559975926,-0.15528292868758722,-0.02582417122602019,0.09629461483064303,-0.3185598384570691,-0.1485679989774702,-0.4099998477828669,0.09613557869574002
2376,10.392325100008748,0.0728517270785003,0.022411197248310095,-0.19608804735024565,0.03021359017392179,0.14277880927903236,-0.15666665488098336,-0.026467489712901533,0.09450596477431372,-0.3181265547255365,-0.1474028499125225,-0.41298394588293064,0.103261388000134
2377,10.39868130000832,0.07318181465556758,0.023222364997004263,-0.19660174815193507,0.03009714908935965,0.14318569987611962,-0.15804843108297023,-0.02710570234083202,0.09270442580417183,-0.3176622805370158,-0.14621882254306096,-0.41592955635547557,0.11039437986655526
2378,10.402459500008264,0.0734855300411778,0.024036908413405313,-0.1970902276729517,0.02997794466978775,0.143584731719704,-0.1594281225222904,-0.02773872742233406,0.09089016650173858,-0.31716698694380596,-0.1450161183710533,-0.4188361084316464,0.11753349368354492
2379,10.40614550000464,0.07381397040972462,0.024845583189519023,-0.19760170310769967,0.02985599964119729,0.14397584987712872,-0.16080559431146488,-0.028366484153373724,0.08906335791758917,-0.3166406496197513,-0.1437949423911676,-0.4217030368391236,0.12467766436214828
2380,10.41041050000058,0.07408244545924698,0.025610959351066952,-0.1981814363153183,0.029731337079388902,0.1443590001650963,-0.16218071146692437,-0.02898889262856564,0.08722417354711315,-0.3160832488793526,-0.14255550306711565,-0.4245297819415165,0.131825822523324
2381,10.414631400009966,0.07442663424591481,0.026394826630074718,-0.19871646566613613,0.029603980406031332,0.1447341291602607,-0.16355333892922289,-0.029605873856273054,0.08537278930567248,-0.31549476969605533,-0.141298012307003,-0.427315789876467,0.13897689468697455
2382,10.418673400010448,0.07477800281522295,0.027334517492620464,-0.19934932500374536,0.0294739533846543,0.14510118420970988,-0.16492334158332883,-0.03021734977359876,0.08350938350316293,-0.3148752017197073,-0.1400226854376862,-0.43006051269242024,0.14612980346256543
2383,10.425757800010617,0.07540720455783456,0.028877088131736197,-0.20060935996810875,0.029341280116575753,0.14546011344133664,-0.1662905842789898,-0.030823243261262574,0.08163413681798501,-0.31422453929317723,-0.13872974117813675,-0.4327634084840245,0.15328346774129983
2384,10.429953200000456,0.07574816902786911,0.029700541376404044,-0.20120696153279072,0.029205985036764154,0.1458108657740952,-0.16765493185116723,-0.03142347815836103,0.07974723227043007,-0.3135427814681306,-0.13741940161181182,-0.4354239415261205,0.16043680288981382
2385,10.437386000005064,0.07641704808829677,0.03130317548016552,-0.20246191702339975,0.029068092909636356,0.14615339092814078,-0.1690162491405383,-0.03201797927700498,0.07784885519548794,-0.312829932019953,-0.1360918921580316,-0.4380415824062805,0.16758872094535812
2386,10.441964700003156,0.07677858986027095,0.03207863217063992,-0.2031162801398776,0.028927628824791784,0.14648763943485,-0.17037440101406165,-0.03260667241683072,0.07593919321508263,-0.31208599946181464,-0.13474744154236418,-0.4406158081558588,0.1747381308124312
2387,10.446613899999647,0.07710917725012742,0.032848926221924674,-0.20377285447435622,0.028784618192683454,0.14681356264671858,-0.17172925238560183,-0.0331894843793802,0.07401843620974287,-0.3113109970578686,-0.13338628176601855,-0.4431461023795148,0.1818839384608283
2388,10.452474600009737,0.07746636977033096,0.03373108198110314,-0.20437522371387384,0.02863908674022633,0.14713111274713375,-0.1730806682366084,-0.03376634298234601,0.07208677628971441,-0.3105049428355774,-0.13200864807424778,-0.4456319553831707,0.18902504712507032
2389,10.459213000009186,0.07816994516452457,0.035425681204964005,-0.20584952790485825,0.02849106050634365,0.1474402427600187,-0.17442851363684547,-0.034337177073676596,0.07014440776552125,-0.3096678595971604,-0.13061477892376422,-0.4480728643003679,0.19616035750517619
2390,10.46281570001156,0.07854936750480396,0.03623691793598417,-0.20662783482225647,0.028340565837451936,0.147740906559347,-0.17577265376516837,-0.03490191654553739,0.06819152711798251,-0.30879977493015787,-0.12920491594917,-0.45046833321698415,0.20328876796874196
2391,10.467074300002423,0.07888986068457944,0.03700974471701444,-0.20730556592482577,0.02818762938288534,0.14803305887852383,-0.17711295393034407,-0.03546049234812347,0.06622833296769229,-0.3079007212171081,-0.12777930392840534,-0.452817873294275,0.210409174754289
2392,10.471180200009258,0.07923580132579151,0.037874643695107374,-0.2079184542088922,0.02803227809026,0.14831665531963276,-0.1784492795919124,-0.036012836503319164,0.06425502604396939,-0.3069707356443346,-0.12633819074721786,-0.4551210028902055,0.21752047217584314
2393,10.476479700009804,0.07957208407688193,0.03874270450045299,-0.20858167496250918,0.027874539200778942,0.14859165236254548,-0.17978149638108465,-0.03655888211820027,0.06227180915328483,-0.30600986020983806,-0.12488182736265682,-0.4573772476790358,0.22462155282870694
2394,10.480533300011302,0.0798749556889286,0.039581504704800666,-0.20926391009037365,0.027714440244478156,0.14885800737389263,-0.18110947012167553,-0.03709856339837453,0.060278887147174734,-0.3050181417302891,-0.12341046776559643,-0.45958614076912635,0.23171130779638618
2395,10.485522900009528,0.08017856426995693,0.04054741866633935,-0.21001348360498262,0.027552009035414757,0.14911567861589317,-0.18243306685106536,-0.03763181566115606,0.058276466889646474,-0.30399563184711587,-0.12192436894229197,-0.4617472228189278,0.23878862685863136
2396,10.48964500000875,0.08050421833451636,0.041460587602640306,-0.21075228167502644,0.027387273666797676,0.14936462525503966,-0.18375215284118798,-0.03815857534856942,0.0562647572240858,-0.30294238703168197,-0.1204237908349734,-0.46386004215112114,0.2458523987005546
2397,10.493960300009348,0.08085287673614175,0.042428097533511774,-0.2115985843882685,0.02722026250606167,0.1496048073706371,-0.18506659461954034,-0.03867878004017917,0.054243968939673204,-0.3018584685895488,-0.11890899630148109,-0.46592415486487554,0.25290151112278236
2398,10.49788520000584,0.08118710821563616,0.04321158048326178,-0.21243090456897623,0.02705100418988538,0.14983618596319356,-0.18637625899020993,-0.039192368465740694,0.052214314737318024,-0.300743942663818,-0.11738025107395024,-0.46793912494619283,0.2599348512526032
2399,10.501891000007165,0.0814972074978612,0.04406906317396761,-0.21313575206290578,0.026879527619154353,0.15005872296266,-0.18768101305491633,-0.03969928051766808,0.05017600919511871,-0.29959888023755143,-0.11583782371654976,-0.46990452437630587,0.26695130575606885
2400,10.506506100005936,0.0818019599930595,0.04499902472240029,-0.21380748590125898,0.026705861953869942,0.1502723812365185,-0.1889807242340625,-0.0401994572633146,0.04812926873335774,-0.29842335713526447,-0.1142819855822817,-0.47181993323810195,0.27394976105100666
2401,10.510492200002773,0.08212937257922472,0.04591772104967577,-0.21453771675124048,0.02653003660800494,0.15047712459771537,-0.19027526028779226,-0.040692840957062056,0.04607431157903969,-0.29721745402348965,-0.11271301076884783,-0.4736849398205404,0.28092910352090017
2402,10.5167330000113,0.08271335117722434,0.04797929901796697,-0.21597421374800763,0.02635208124430688,0.15067291781243705,-0.19156448933704903,-0.04117937505221458,0.04401135772998139,-0.29598125641040773,-0.11113117607358987,-0.47549914072103383,0.28788821972959555
2403,10.521171000000322,0.08305484616271144,0.04882512853188495,-0.21673949015762142,0.026172025769049718,0.1508597266077275,-0.19284827988463235,-0.04165900421269293,0.04194062891846301,-0.2947148546445427,-0.10953676094751069,-0.4772621409457645,0.2948259966367911
2404,10.525046900002051,0.08335182944342487,0.049688434773121654,-0.2174380758941274,0.025989900326734903,0.15103751767894497,-0.1941265008362468,-0.04213167432452507,0.0398623485744493,-0.2934183439125185,-0.10793004744838422,-0.47897355400790737,0.3017413218142671
2405,10.529688000009628,0.083568182273557,0.0507203491086584,-0.2182739746700778,0.025805735294742577,0.15120625869705673,-0.19539902152153987,-0.042597332507128806,0.03777674178838993,-0.2920918242358748,-0.10631132019296152,-0.4806330020237322,0.30863308366281267
2406,10.533722100008164,0.08384182434581938,0.05161612330484833,-0.2189891978972636,0.02561956127793386,0.1513659183157699,-0.19666571171512415,-0.04305592712438284,0.03568403527360819,-0.2907354004669378,-0.10468086630828206,-0.48224011580655785,0.3155001716298041
2407,10.537750000003143,0.08416062223668402,0.05248223269849414,-0.21969519231877743,0.025431409103205058,0.151516466178496,-0.19792644165757892,-0.04350740779548183,0.033584457328287395,-0.2893491822837413,-0.1030389753820993,-0.48379453495853225,0.3223414764273909
2408,10.541895600006685,0.0844042653670125,0.05349910197676573,-0.22042434299432023,0.025241309813994885,0.15165787292514749,-0.19918108207642699,-0.043951725405571705,0.03147823779706465,-0.28793328418399805,-0.10138593941242953,-0.48529590796021166,0.32915589025124714
2409,10.545998300003705,0.08461533842287815,0.05448786951389861,-0.2211225427506362,0.02504929466474546,0.1517901101987642,-0.2004295042070818,-0.04438883211616134,0.02936560803224128,-0.28648782547811746,-0.09972205275623358,-0.4867438922579138,0.3359423069998422
2410,10.550344100003713,0.08482844874994873,0.05540274989372186,-0.22192351323322912,0.024855395115318105,0.15191315065196814,-0.2016715798137596,-0.044818681375306736,0.02724680085461997,-0.285012930281267,-0.09804761207724114,-0.4881381543488239,0.342699622494186
2411,10.55459790000168,0.08502213848875757,0.05632422186905618,-0.22266873856040703,0.024659642825364887,0.15202696795324433,-0.20290718121035203,-0.0452412279275637,0.025122050513978103,-0.28350872750447564,-0.09636291629292765,-0.4894783698638287,0.3494267346980043
2412,10.558451000004425,0.08526526411364739,0.05714615838111124,-0.2233966109514324,0.024462069648656933,0.1521315367930474,-0.2041361812812555,-0.04565642782370538,0.022991592649187206,-0.2819753508447808,-0.09466826652065403,-0.4907642236480553,0.35612254393829695
2413,10.562652900000105,0.08552795103525238,0.058084148380870046,-0.22426046494636398,0.024262707627370594,0.15222683288973213,-0.2053584535021532,-0.046064238430201174,0.020855664247988584,-0.2804129387744191,-0.09296396602297992,-0.49199540983909223,0.3627859531262339
2414,10.56687470000179,0.0857480580859063,0.059025637484612814,-0.22496741551984162,0.024061588986332372,0.15231283299530676,-0.20657387196074542,-0.04646461843845343,0.018714503606435253,-0.27882163452905756,-0.091250320152161,-0.49317163194287345,0.36941586797834064
2415,10.570934100003797,0.08598413814287452,0.059942341630958615,-0.22567268825716158,0.023858746127223746,0.15238951490100724,-0.20778231137742417,-0.04685752787378841,0.016568350288010302,-0.27720158609506534,-0.08952763629384179,-0.4942926029072021,0.37601119723792603
2416,10.575278200005414,0.08624123198254544,0.06079321998432361,-0.2263836863337112,0.023654211622746918,0.15245685744269155,-0.2089836471258886,-0.04724292810419774,0.014417445082431968,-0.27555294619582427,-0.08779622380995523,-0.49535804519289384,0.38257085289670334
2417,10.579232700009015,0.0864835444439205,0.06172542008892747,-0.22709723824092798,0.023448018210752482,0.1525148405060524,-0.21017775525369595,-0.047620781848827023,0.012262029964155877,-0.27387587227707755,-0.0860563939808415,-0.49636769084252114,0.38909375041655825
2418,10.583649800013518,0.08666021069404259,0.06263213134159247,-0.22793035910676251,0.02324019878833008,0.15256344503164687,-0.2113645125027445,-0.047991053186208284,0.01010234805058487,-0.2721705264913149,-0.08430845994659839,-0.49732128154674,0.3955788089514168
2419,10.58764300000621,0.08686020992997878,0.06346020406267866,-0.22866087289186238,0.02303078640586322,0.15260265301974146,-0.21254379632968587,-0.0483537075622329,0.007938643559996893,-0.2704370756811925,-0.08255273664767634,-0.4982185687081832,0.4020249515691665
2420,10.59189840000181,0.08707417359498153,0.06431393971438007,-0.22934117566118511,0.022819814261049575,0.1526324475349717,-0.2137154849262626,-0.048708711797861744,0.005771161769201542,-0.26867569136198827,-0.08078954076473178,-0.49905931350290395,0.4084311054735823
2421,10.59734860000026,0.08725531651989729,0.06516955979310841,-0.23003865029418663,0.022607315692887875,0.1526528127108148,-0.21487945723956703,-0.049056034096569286,0.0036001489709359628,-0.2668865497030919,-0.07901919065775224,-0.49984328693935476,0.4147962022262082
2422,10.600849700000254,0.0874652649986326,0.06612004310072592,-0.23087729814805774,0.022393324175632657,0.15266373375387438,-0.21603559299221814,-0.049395644051518646,0.0014258524310108089,-0.2650698315085306,-0.077242006304467,-0.5005702699148866,0.42111917796814635
2423,10.60541910000029,0.08765381303573953,0.06703693584917565,-0.23162931174310553,0.02217787331271815,0.15266519694797687,-0.21718377270245262,-0.04972751265246429,-0.000751479654782948,-0.2632257221965306,-0.07545830923805698,-0.5012400532697519,0.4273989736417045
2424,10.609550799999852,0.08783283139321857,0.06782965753371886,-0.23230805209526453,0.021960996830652498,0.15265718965807845,-0.21832387770412576,-0.05005161229237944,-0.0029315982039955406,-0.2613544117781151,-0.07366842248417833,-0.5018524378385948,0.4336345352118554
2425,10.613051700012877,0.08805069396564351,0.06862908623345944,-0.2330569346885129,0.021742728572883625,0.15263970033398186,-0.2194557901666183,-0.05036791677380545,-0.005114253291057369,-0.2594560948347397,-0.07187267049731372,-0.5024072344994198,0.43982481388745764
2426,10.617558700003428,0.08823710950899986,0.06956139327255362,-0.23376897316714937,0.021523102493638084,0.15261271851386185,-0.22057939311464542,-0.05067640131492022,-0.007299194191024446,-0.2575309704949693,-0.07007137909646587,-0.5029042642200238,0.44596876634218713
2427,10.622790800000075,0.0883997999386133,0.0704742671742669,-0.23451597662080037,0.02130215265173419,0.1525762348275987,-0.22169457044796306,-0.050977042555322864,-0.009486169423519326,-0.2555792424101973,-0.06826487540020854,-0.5033433581018831,0.4520653549351303
2428,10.62784100000863,0.08851273567807463,0.07133475495254663,-0.2351580742025803,0.02107991320437068,0.15253024099991927,-0.22280120696096772,-0.051269818561531955,-0.011674926796856467,-0.2536011187294088,-0.06645348776111011,-0.5037243574214882,0.4581135479309881
2429,10.633109900009003,0.08871121133155317,0.07324476959272841,-0.23662047380584003,0.02085641840089223,0.15247472985334568,-0.22389918836218622,-0.051554708832194554,-0.013865213452340909,-0.25159681207298895,-0.06463754569954495,-0.5040471136691219,0.46411231971984085
2430,10.63789350001025,0.08881022341333861,0.07412871019016921,-0.2373177769157647,0.020631702576533156,0.152409695310951,-0.22498840129365136,-0.05183169430300369,-0.01605677590872918,-0.24956653950557658,-0.06281737983690834,-0.5043114885850793,0.47006065103642275
2431,10.642290300005698,0.08896387923388165,0.07492101989893463,-0.23800565657820036,0.020405800146140674,0.15233513239892127,-0.22606873335015973,-0.05210075735132157,-0.018249360106841247,-0.24751052250796612,-0.06099332182825084,-0.504517354193323,0.4759575291788535
2432,10.646482700001798,0.08905959211472683,0.07573550391963967,-0.23872750403203122,0.020178745597879195,0.15225103724892444,-0.22714007309840628,-0.05236188180050588,-0.020442711454312316,-0.24542898694806017,-0.059165704294348934,-0.504664592832564,0.48180194822677597
2433,10.65024080000876,0.0891364589957178,0.07656240137789229,-0.23941596503035426,0.019950573486917013,0.15215740710028575,-0.22820231009599207,-0.05261505292393661,-0.022636574870473342,-0.24332216305087578,-0.05733486075322866,-0.5047530971847608,0.4875929092588484
2434,10.65446580000571,0.0891755224346955,0.07747824434165125,-0.24006520848298155,0.019721318429096683,0.15205424030196976,-0.22925533491030142,-0.052860257448741045,-0.024830694831348935,-0.24119028536760562,-0.05550112555115936,-0.5047827703010304,0.4933294205695377
2435,10.65884570000344,0.08929702409595723,0.07834569896142943,-0.24082239384006296,0.01949101509459051,0.15194153631436813,-0.2302990391372462,-0.05309748355921501,-0.02702481541476139,-0.23903359274373776,-0.053664833793134775,-0.5047535256249719,0.4990104978851639
2436,10.66271190000407,0.08939676220154052,0.07921761090327215,-0.2415249030954773,0.019259698201542417,0.1518192957108925,-0.23133331541987218,-0.053326720899938194,-0.029218680345529657,-0.2368523282862385,-0.05182632127285925,-0.5046652870133976,0.5046351645791455
2437,10.667444200007594,0.0894626190087356,0.07998078086658095,-0.2422283522652174,0.019027402509697464,0.151687520179373,-0.23235805746682298,-0.053547960578581785,-0.03141203304075207,-0.23464673932980176,-0.04998592440225639,-0.504517988754469,0.510202451886395
2438,10.671159200006514,0.0894731688996578,0.08072567576359858,-0.24294779071746034,0.018794162814020278,0.15154621252326184,-0.2333731600706581,-0.053761195168406,-0.03360461665516153,-0.23241707740216896,-0.04814398014051801,-0.5043115755832341,0.5157113991168129
2439,10.67543500001193,0.08954020085426068,0.0816096253842326,-0.24386172436520853,0.018560013938303768,0.15139537666264136,-0.23437851912602112,-0.053966418710445635,-0.03579617412654207,-0.2301635981885239,-0.046300825922711446,-0.5040460026945695,0.5211610538678235
2440,10.679463700013002,0.08963392718727538,0.082297133652835,-0.24458486943219385,0.018324990728769534,0.15123501763503736,-0.2353740316476549,-0.054163626715381545,-0.03798644822119537,-0.2278865614949669,-0.04445679958796349,-0.5037212357535251,0.5265504722359032
2441,10.684574099999736,0.08973158374382445,0.08298504888838898,-0.24535333728068323,0.018089128047661336,0.15106514159603673,-0.23635959578825771,-0.05435281616509654,-0.04017518157944615,-0.2255862312110724,-0.042612239307239785,-0.5033372509030758,0.531878719027048
2442,10.689151099999435,0.0898121640090943,0.08367873608078585,-0.2461210921206154,0.017852460766832983,0.15088575581970884,-0.237335110856177,-0.05453398551391396,-0.04236211676117509,-0.22326287527153355,-0.040767483510738355,-0.5028940347692782,0.5371448679661315
2443,10.692926200004877,0.08991339291611997,0.0844146971567683,-0.2468751693617454,0.017615023761331932,0.15069686869882992,-0.2383004773329362,-0.05470713468951756,-0.04454699629136797,-0.22091676561689946,-0.03892287081491615,-0.5023915844638378,0.5423480019051041
2444,10.696543800004292,0.09010486042725016,0.08522549052847203,-0.2476474209580414,0.017376851902980002,0.1504984897449103,-0.23925559689058926,-0.05487226509355107,-0.04672956270566958,-0.21854817815341027,-0.037078739949167674,-0.5018299075840876,0.5474872130299842
2445,10.700882800010731,0.09024506585756707,0.0860374277624573,-0.24864595498420297,0.017137980053952524,0.15029062958802422,-0.2402003724088988,-0.05502937960189564,-0.04890955859593152,-0.21615739271193465,-0.03523542968217517,-0.5012090222103853,0.5525616030665885
2446,10.706753700011175,0.09028739093960704,0.08678450181412653,-0.24946889880106027,0.01689844306035737,0.15007329997644198,-0.24113470799233352,-0.05517848256462391,-0.05108672665574272,-0.21374469300601548,-0.033393278747949555,-0.5005289569009351,0.5575702834849531
2447,10.710467800003244,0.09033905786859547,0.08758857366312767,-0.250271931900035,0.01665827574581532,0.14984651377606434,-0.2420585089868808,-0.05531957980562963,-0.05326080972593178,-0.21131036658902966,-0.03155262577158199,-0.49978975068403675,0.5625123757023858
2448,10.714539600012358,0.09049646887528857,0.0883464187428605,-0.2510709080212144,0.016417512905043105,0.14961028496965909,-0.24297168199667116,-0.055452678621931296,-0.05543155084002982,-0.2088547048104688,-0.029713809194725806,-0.4989914530477647,0.5673870112850986
2449,10.718496100002085,0.09052488287865126,0.08912954627035403,-0.2518535599621611,0.016176189297440583,0.1493646286558998,-0.24387413490041088,-0.055577787782648665,-0.05759869326968282,-0.2063780027713468,-0.02787716720082901,-0.4981341239270849,0.5721933321483665
2450,10.722334400008547,0.09056506657675939,0.0899352127013797,-0.2527213999027457,0.015934339640683408,0.14910956104820713,-0.24476577686761863,-0.05569491752765119,-0.059761980570002114,-0.20388055927874094,-0.026043037640137302,-0.49721783368841754,0.5769304907551642
2451,10.726005300006364,0.09057639451408132,0.09071635968301242,-0.2535506640432441,0.015691998604322657,0.14884509947339353,-0.24564651837466164,-0.05580407956587786,-0.06192115662484198,-0.201362676799473,-0.024211757954487923,-0.4962426631116579,0.5815976503132303
2452,10.730416900012642,0.09060330238870926,0.09152879828924135,-0.2544450457857046,0.015449200803392816,0.14857126237011153,-0.24651627122058764,-0.05590528707332785,-0.06407596569199273,-0.19882466141293753,-0.022383665101914765,-0.4952087033696645,0.5861939849705087
2453,10.733909700007644,0.09061026211337274,0.09244744028629756,-0.2554134062315861,0.015205980792029514,0.14828806928710658,-0.2473749485427493,-0.05599855469072152,-0.06622615244827856,-0.19626682276308477,-0.020559095481085175,-0.49411605600522357,0.5907186800089188
2454,10.738202000007732,0.09048974846313527,0.09347157646198566,-0.25637326812495864,0.014962373057098596,0.1479955408812753,-0.248222464832218,-0.05608389852083127,-0.06837146203454936,-0.1936894740095658,-0.018738384855589228,-0.49296483290549864,0.5951709320364016
2455,10.742263300009654,0.09042778616056522,0.09426071235085519,-0.25716260460191714,0.014718412011837947,0.14769369891553052,-0.2490587359489826,-0.05616133612548175,-0.07051164010055588,-0.1910929317780472,-0.016921868278102242,-0.4917551562739797,0.5995499491771908
2456,10.745799900003476,0.0904671001096285,0.09497855555189624,-0.2579984636968959,0.014474131989513535,0.14738256625647306,-0.24988367913692977,-0.05623088652221884,-0.07264643284969803,-0.18847751610970342,-0.01510988001444141,-0.49048715859994496,0.6038549512602573
2457,10.750544500013348,0.09043901470451743,0.09580628114746106,-0.2588735349331135,0.014229567237091123,0.14706216687187124,-0.250697213038603,-0.05629257018064699,-0.0747755870836351,-0.18584355040989475,-0.013302753467537603,-0.48916098262544727,0.6080851700058746
2458,10.754155400005402,0.09039191169315135,0.09667744690962563,-0.25978185726035785,0.01398475190892515,0.1467325258279477,-0.2514992577097366,-0.05634640901843494,-0.07689885024674742,-0.18319136139603942,-0.011500821101343421,-0.4877767813098407,0.6122398492102563
2459,10.758357900005649,0.09026917283418684,0.09744848168540643,-0.2606751987260977,0.01373972006046622,0.14639366928647432,-0.25228973463356325,-0.05639242639698922,-0.07901597047043904,-0.18052127904468881,-0.00970441436469873,-0.4863347177918593,0.6163182449282176
2460,10.76267050000024,0.0901992429101191,0.09826057116772358,-0.26159124927248856,0.013494505641988641,0.14604562450167666,-0.25306856673489186,-0.05643064711679561,-0.08112669661727114,-0.17783363653781586,-0.007913863615174965,-0.4848349653492628,0.6203196256538088
2461,10.76700430001074,0.09018294098103007,0.09909652727921012,-0.26265099578201045,0.01324914249233946,0.1456884198169491,-0.253835678393952,-0.05646109741242866,-0.083230778324916,-0.1751287702083263,-0.0061294980429196155,-0.48327770735606845,0.6242432724988737
2462,10.772650700004306,0.09010246212196187,0.09992275551598583,-0.26351327193955476,0.013003664332710432,0.1453220846613818,-0.25459099546000385,-0.05648380494723018,-0.08532796604992195,-0.17240701948480103,-0.0043516455945223406,-0.48166313723738696,0.6280884793694825
2463,10.778136600012658,0.09006283237158098,0.10073195483614095,-0.26444364291531025,0.012758104760434473,0.14494664954609976,-0.25533444526470944,-0.056498798807656736,-0.0874180111112788,-0.16966872683547973,-0.0025806328969242695,-0.4799914584218819,0.6318545531401905
2464,10.78267020000203,0.09009424292220793,0.10138026966616089,-0.26545775090604484,0.012512497242808004,0.14456214606041487,-0.25606595663526094,-0.05650610949729648,-0.08950066573377378,-0.16691423771149452,-0.0008167851813921051,-0.47826288429186875,0.6355408138260754
2465,10.788807100005217,0.09003163144505355,0.10273404122726457,-0.2675025947027225,0.012266875110940717,0.1441686068677922,-0.25678545990726154,-0.05650576893055575,-0.09157568309112725,-0.16414390048936303,0.0009395737924212554,-0.47647763813107313,0.6391465947525078
2466,10.796551100007491,0.09000259162873661,0.1042622998934963,-0.2697136428702397,0.01202127155363419,0.14376606570163183,-0.257492886937355,-0.05649781042601595,-0.09364281734889794,-0.1613580664127519,0.0026881218123078667,-0.4746359530700717,0.642671242722602
2467,10.800903200011817,0.0901180112500542,0.10487992272567592,-0.2708655503436559,0.011775719611290772,0.14335455736086639,-0.25818817111560066,-0.05648226869946148,-0.09570182370714733,-0.1585570895335215,0.0044285382892058755,-0.47273807202943574,0.6461141181822995
2468,10.8050787000102,0.09017529531510507,0.10542220017633813,-0.27193230429995735,0.011530252169854194,0.1429341177053747,-0.2588712473775896,-0.056459179856579236,-0.0977524584428531,-0.15574132665206145,0.006160504332748848,-0.4707842476605992,0.6494745953830348
2469,10.808787600006326,0.09020760772426699,0.10600675885900193,-0.27304205816413984,0.011284901954783396,0.14250478365121166,-0.25954205221629806,-0.05642858138533067,-0.09979447895206175,-0.1529111372569283,0.00788370282664145,-0.46877474228447413,0.6527520625419365
2470,10.813193300011337,0.09021917191178469,0.10663393760153043,-0.2742932335167486,0.0110397015250609,0.14206659316565592,-0.26020052369367586,-0.05639051214799712,-0.10182764379177071,-0.15006688346379599,0.009597818503839617,-0.4667098278278386,0.6559459219995164
2471,10.817756200005531,0.09025295755396241,0.10730372029285062,-0.275501323272548,0.01079468326723722,0.14161958526207669,-0.2608466014519658,-0.05634501237289937,-0.1038517127215301,-0.14720892995373103,0.011302538021513377,-0.46458978575752014,0.6590555903748018
2472,10.822315800003707,0.09029749165505209,0.10792832543301822,-0.27672634712956334,0.010549879389512675,0.1411637999946208,-0.2614802267247532,-0.05629212364579238,-0.1058664467447544,-0.14433764391080356,0.012997550035770508,-0.4624149070123994,0.6620804987178649
2473,10.826116600001114,0.09033134309420748,0.10852123562973964,-0.27784927959120354,0.010305321915857993,0.14069927845272143,-0.2621013423477428,-0.05623188890093601,-0.1078716081497344,-0.14145339495904594,0.014682545276119197,-0.4601854919332601,0.6650200926597035
2474,10.830033200007165,0.09037430491658952,0.1091308069930303,-0.27906064253288243,0.010061042680175082,0.14022606275543062,-0.26270989276926104,-0.05616435241184306,-0.10986696055033988,-0.13855655509876874,0.016357216619647896,-0.4579018501905133,0.6678738325594283
2475,10.8356216000102,0.0903203436573689,0.10982140845332657,-0.28029312742244106,0.009817073320499387,0.13974419604557764,-0.2633058240604795,-0.0560895597817057,-0.11185226892640353,-0.13564749864224523,0.018021259164900594,-0.4555643007098241,0.6706411936487129
2476,10.839600300008897,0.09027919170125304,0.11055456838633296,-0.2815429064908519,0.009573445273245159,0.13925372248375473,-0.2638890839253571,-0.056007557933501824,-0.1138272996637764,-0.13272660214877607,0.0196743703054256,-0.45317317159566894,0.6733216661734616
2477,10.843449500011047,0.09023340075782289,0.11123280546018798,-0.2828068169064913,0.009330189767495028,0.1387546872421318,-0.26445962171029735,-0.055918395099782935,-0.11579182059404625,-0.12979424435914685,0.02131624980297611,-0.4507288000528501,0.6759147555326545
2478,10.847075500001663,0.09013573742638198,0.11190026055595623,-0.28396856185645586,0.009087337819335246,0.13824713649810233,-0.26501738841351596,-0.05582212081214525,-0.11774560103390948,-0.12685080612949057,0.022946599860340762,-0.44823153230599433,0.6784199824143262
2479,10.850924800004575,0.09013573742638198,0.11190026055595623,-0.28396856185645586,0.00884492022623802,0.13773111742776167,-0.2655623366941176,-0.055718785890386084,-0.11968841182418825,-0.12389667036456799,0.02456512519378259,-0.4456817235170632,0.6808368829286352
2480,10.856523500013282,0.08997498418470369,0.11249648498614409,-0.2851638219602041,0.008602967561492305,0.13720667819921878,-0.26609442088087915,-0.055608442431347334,-0.1216200253684845,-0.12093222195047787,0.026171533105064728,-0.4430797377009062,0.6831650087379784
2481,10.860834999999495,0.08977908433000173,0.11382848273728352,-0.28788851375978924,0.008361510168684362,0.1366738679657432,-0.26661359698073683,-0.05549114379744804,-0.12354021567146323,-0.11795784768680982,0.027765533553041295,-0.44042594763888765,0.6854039271841106
2482,10.86504910000076,0.08966558353498522,0.11457271784757926,-0.28920076130148065,0.008120578156229475,0.13613273685874855,-0.26711982268697376,-0.05536694460490779,-0.1254487583767565,-0.1149739362182527,0.029346839224792004,-0.4377207347906186,0.6875532214122267
2483,10.869219300002442,0.0895556007173507,0.11523823150709137,-0.29044922214661567,0.007880201391956129,0.13558333598061353,-0.26761305738710606,-0.0552359007116631,-0.12734543080448069,-0.11198087796567183,0.03091516560627897,-0.4349644892038252,0.6896124904919644
2484,10.873598000005586,0.08941476034446041,0.11590379538705935,-0.2918241929024671,0.007640409497744018,0.1350257173973423,-0.2680932621704654,-0.0550980692049786,-0.12923001198835915,-0.1089790650566688,0.0324702310525044,-0.432157609422384,0.6915813495352854
2485,10.879675800009863,0.08920035423348212,0.11717607485023673,-0.29464265404116524,0.00740123184421713,0.13445993413106477,-0.26856039983547747,-0.054953508388755505,-0.13110228271244262,-0.10596889125563781,0.034011756857147815,-0.42930050239255746,0.6934594298112002
2486,10.883738500007894,0.08914656461905351,0.117860397561966,-0.2960410035970559,0.007162697545493221,0.13388604015237968,-0.269014434896632,-0.05480227777053953,-0.13296202554741945,-0.10295075189333246,0.0355394673216616,-0.4263935833674597,0.6952463788572985
2487,10.888739000001806,0.08911581609457439,0.11846054659563786,-0.2974595714057762,0.006924835453990925,0.13330409037254065,-0.2694553335911444,-0.054644438048230826,-0.13480902488650787,-0.09992504379595674,0.037053089823803634,-0.4234372758097876,0.6969418605880482
2488,10.893542600009823,0.08903972452882615,0.11902509672537911,-0.299019599504753,0.006687674155295822,0.13271414063548717,-0.2698830638853063,-0.05448005109649823,-0.136643066980923,-0.09689216521379485,0.03855235488558596,-0.4204320112928517,0.6985455553998277
2489,10.897934799999348,0.08900889521076862,0.11958190458704146,-0.3004591346031548,0.006451241963086731,0.13211624770972258,-0.27029759548052584,-0.05430917995290063,-0.1384639399749116,-0.09385251574939395,0.04003699624061823,-0.41737822939994074,0.7000571602726536
2490,10.90246960001241,0.08904430997305654,0.1201600981408318,-0.3019542486499225,0.006215566914123453,0.13151046928004148,-0.2706988998190541,-0.05413188880371861,-0.14027143394034755,-0.0908064962853142,0.04150675090082519,-0.41427637762205544,0.7014763888685717
2491,10.907307900008163,0.08896109963569122,0.12085255451789448,-0.3034733889418703,0.0059806767632972066,0.1308968639391085,-0.27108695008939665,-0.05394824296949929,-0.14206534091088044,-0.08775450891146062,0.042961359222517495,-0.411126911254047,0.7028029716266723
2492,10.912339700007578,0.08891188999632553,0.12213984894522803,-0.30673655596754257,0.005746598978744994,0.1302754911788907,-0.27146172123140655,-0.05375830889031729,-0.14384545491563158,-0.08469695685201077,0.04440056497179526,-0.407930293289196,0.7040366558546991
2493,10.916959300011513,0.08889135833632747,0.12267230905172086,-0.30822785833718924,0.005513360737029104,0.12964641138194546,-0.271823189941057,-0.05356215411075481,-0.1456115720124303,-0.08163424439195324,0.045824115389263946,-0.4046869943122678,0.7051772058172111
2494,10.921112700001686,0.08884834126534108,0.12328246840921099,-0.30983834513784864,0.005280988918382942,0.1290096858125658,-0.2721713346748926,-0.05335984726460416,-0.14736349032058274,-0.0785667768032518,0.0472317612540424,-0.4013974923910789,0.7062244028202697
2495,10.925206300002174,0.08877291753217659,0.12390726173911995,-0.3115042572738297,0.005049510102024379,0.12836537660778582,-0.272506135654158,-0.05315145805929641,-0.14910101005316612,-0.07549496027065002,0.04862325694704268,-0.3980622729666118,0.7071780452926211
2496,10.929595800000245,0.08862110292385461,0.12458146175072059,-0.3130545029626532,0.004818950561537738,0.1277135467682476,-0.27282757486860054,-0.05293705726005927,-0.1508239335488428,-0.07241920181713166,0.04999836051350193,-0.39468182874171387,0.7080379488633423
2497,10.93337730001076,0.0885617718231699,0.12519466630509096,-0.31468074936014956,0.004589336260325574,0.12705426014893134,-0.2731356360799465,-0.052716716673807666,-0.15253206530318847,-0.06933990922905232,0.05135683372474654,-0.3912566595684209,0.708803946435917
2498,10.937649300001794,0.08852013689877745,0.1257924636165676,-0.3163140587071463,0.004360692847131383,0.1263875814497513,-0.27343030482504976,-0.05249050913277035,-0.1542252119995275,-0.06625749098095811,0.05269844213916854,-0.3877872723339402,0.7094758882587094
2499,10.941823600005591,0.0883817098208892,0.12642182537990393,-0.31795467865856675,0.004133045651634397,0.12571357620601845,-0.27371156841871197,-0.05225850847785625,-0.15590318253926888,-0.06317235616010719,0.05402295516239468,-0.38427418084533227,0.7100536419918044
2500,10.946040400012862,0.08829806474091378,0.12703823845489023,-0.319537644545948,0.003906419680117564,0.12503231077877267,-0.2739794159561731,-0.052020789541764305,-0.15756578807173746,-0.06008491439070984,0.055330146106628474,-0.3807179057129252,0.7105370927701886
2501,10.950653400010196,0.088172729434827,0.12779686051933975,-0.3211150552469222,0.003680839611209806,0.12434385234498625,-0.27423383831527115,-0.051777428131840525,-0.1592128420234948,-0.05699557575790258,0.05661979224914577,-0.377118974232503,0.7109261432632435
2502,10.95549610001035,0.08797437390467068,0.12846087392233382,-0.32281321992613576,0.0034563297917036173,0.12364826888764023,-0.2744748281582703,-0.05152850101268591,-0.16084416012714464,-0.05390475073147262,0.057891674889924416,-0.3734779202663045,0.7112207137305266
2503,10.960195000006934,0.08791353315534997,0.12904402032339649,-0.32448494935514804,0.0032329142324490885,0.12294562918567561,-0.27470237993335694,-0.05127408588851903,-0.16245956044961754,-0.05081285008934902,0.059145579408389604,-0.36979528412287027,0.7114207420738119
2504,10.96505650000472,0.08779770558834818,0.12964640611562078,-0.32606372988576254,0.0030106166043253817,0.12223600280382191,-0.27491648987580225,-0.05101426138529713,-0.16405886341992998,-0.04772028484087674,0.060381295319256414,-0.36607161243577874,0.7115261838853647
2505,10.96900350000942,0.08771348803270822,0.13024511214524653,-0.32766140809060645,0.0027894602342907076,0.12151946008230533,-0.2751171560087885,-0.05074910703259974,-0.16564189185641284,-0.04462746614988993,0.061598616327450985,-0.36230745804131104,0.7115370124924225
2506,10.973101499999755,0.08758512805510243,0.13090759873639546,-0.32942280839068866,0.002569468101511811,0.12079607212643928,-0.27530437814389896,-0.05047870324527864,-0.167208470993404,-0.04153480525760097,0.06279734038209207,-0.3585033798550828,0.7114532189978588
2507,10.97686700000486,0.08749392006314927,0.13159303383031995,-0.33117590660502483,0.0023506628335739394,0.1200659107960987,-0.27547815788127045,-0.0502031313048782,-0.16875842850739972,-0.03844271340532185,0.06397726972951517,-0.3546599427476821,0.711274812317006
2508,10.98065029999998,0.08747944722649664,0.13218691952108336,-0.3327663550674014,0.0021330667027722626,0.1193290486950807,-0.27563849860940587,-0.04992247334083019,-0.17029159454266166,-0.03535160175703464,0.06513821096532123,-0.35077771741935193,0.7110018192106123
2509,10.984319200011669,0.08743699979056203,0.13266329032434335,-0.3344481546292592,0.0019167016224856982,0.11858555916035407,-0.27578540550464603,-0.04963681231142757,-0.17180780173627594,-0.03226188132182768,0.06627997508543242,-0.3468572802737583,0.7106342843139192
2510,10.987880000000589,0.08735609241695819,0.13324379678122286,-0.3362328810798794,0.0017015891436340678,0.1178355162512002,-0.275918885530301,-0.049346231984581324,-0.17330688524266072,-0.02917396287621417,0.06740237753613737,-0.34289921329088424,0.7101722701618343
2511,10.99356460000854,0.08729210555254045,0.133772250145125,-0.33793906684697655,0.0014877504512194918,0.11707899473824825,-0.27603894743544116,-0.049050816918364944,-0.1747886827575187,-0.02608825688635019,0.06850523826310868,-0.3389041038990888,0.7096158572101829
2512,10.998702700002468,0.08725951355635578,0.13429670933281782,-0.3396303479793201,0.0012752063609529107,0.11631607009240737,-0.2761456017533491,-0.048750652441350975,-0.17625303454123095,-0.02300517343016898,0.0695883817593763,-0.33487254484636786,0.7089651438530206
2513,11.003101800000875,0.08728968631564916,0.13486246646705516,-0.341419156338282,0.001063977315966608,0.1155468184736982,-0.2762388607996292,-0.04844582463274424,-0.1776997834416884,-0.019925122119448448,0.0706516371122404,-0.3308051340708588,0.7082202464359889
2514,11.009442800001125,0.08726990087097226,0.13577583442805302,-0.34495155524564586,0.0008540833836135871,0.11477131671998549,-0.2763187386699744,-0.04813642030231626,-0.17912877491655813,-0.016848512021828913,0.07169483804910771,-0.32670247457062934,0.7073812992656999
2515,11.013581700011857,0.0871902096538857,0.1363048943621661,-0.3467021465198119,0.0006455442523546302,0.11398964233561437,-0.27638525123758906,-0.04782252697014563,-0.18053985705498243,-0.013775751582798255,0.07271782298223506,-0.32256517427278947,0.7064484546151282
2516,11.017345500004012,0.08714057474817345,0.13681113602673292,-0.34853856266633043,0.0004383792287338535,0.1132018734799533,-0.2764384161502689,-0.04750423284616908,-0.18193288059870827,-0.010707248547661663,0.07372043505236388,-0.3183938459019669,0.7054218827249967
2517,11.021327500013284,0.08721155122770118,0.13728470685949498,-0.3502583774989128,0.000232607234443549,0.11240808895584561,-0.2764782528271383,-0.04718162680954836,-0.1833076989626451,-0.007643409883513318,0.07470252217123009,-0.31418910684818624,0.704301771801143
2518,11.025134400013483,0.08721182872791493,0.13773723604939575,-0.35204320596082295,2.8246803479078057e-05,0.1116083681979726,-0.27650478245504406,-0.04685479838785767,-0.18466416825484877,-0.004584641701227362,0.07566393706293394,-0.30995157903419374,0.7030883280078536
2519,11.029389100003756,0.08708859612311858,0.13836295723479128,-0.3538181955926671,-0.00017468392061543428,0.11080279126113017,-0.2765180279846065,-0.04652383773609652,-0.18600214729592934,-0.0015313491774855566,0.07660453730415484,-0.3056818887822683,0.7017817754571535
2520,11.033600599999772,0.08702847949811657,0.13883106046636723,-0.35558643144329327,-0.0003761671874098805,0.10999143880842217,-0.27651801412592675,-0.04618883561553314,-0.18732149763788042,0.0015160635231408438,0.0775241853631966,-0.3013806666805605,0.7003823561940337
2521,11.037497299999814,0.08703347749159626,0.13923410049029797,-0.35731283480176984,-0.000576185642158723,0.10917439209937216,-0.2765047673439516,-0.045849883372383514,-0.18862208358232815,0.004557193326037419,0.0784227486378484,-0.2970485474489999,0.698890330177609
2522,11.041828200002785,0.08696647332522099,0.1397681461820773,-0.35905867836715993,-0.0007747223282786372,0.10835173297795575,-0.2764783158534955,-0.04550707291633116,-0.1899037721981977,0.007591638324303538,0.07930009949204787,-0.29268616980481194,0.6973059752581946
2523,11.04833430000872,0.0869433765629755,0.14025504047146353,-0.36077987858876975,-0.0009717606897325875,0.10752354386055564,-0.2764386896139218,-0.04516049669889302,-0.19116643333879543,0.010618997856402334,0.08015611529133222,-0.28829417632768595,0.6956295871502941
2524,11.051921700011007,0.08687723569222515,0.14074855550905263,-0.36245667913906665,-0.0011672845733197022,0.1066899077238416,-0.27638592032348314,-0.04481024769163667,-0.19240993965830566,0.013638872583686039,0.08099067843706412,-0.28387321332463583,0.693861479401497
2525,11.056510500013246,0.08675152383563964,0.14133179534755935,-0.3641340462223649,-0.0013612782308703312,0.10585090809257827,-0.27632004141332245,-0.04445641936425391,-0.1936341666277013,0.016650864567779027,0.08180367639941874,-0.2794239306945951,0.6920019833572798
2526,11.064271800001734,0.08656911910384728,0.1423940825979534,-0.3675145587110298,-0.0015537263213456958,0.10500662902736349,-0.2762410880411356,-0.04409910566249653,-0.19483899255006715,0.01965457734780092,0.08259500174911943,-0.27494698179278504,0.6900514481217047
2527,11.067946300012409,0.08654223457730241,0.14281442312029366,-0.3691492872491119,-0.001744613912841567,0.10415715511229909,-0.27614909708449875,-0.04373840098597966,-0.19602429857533477,0.022649616017412035,0.08336455218790936,-0.2704430232948953,0.6880102405140114
2528,11.07142950000707,0.0864392686936311,0.1433547949061425,-0.37078672023025055,-0.0019339264844954308,0.10330257144259683,-0.2760441071338596,-0.043374400165858015,-0.19718996871442754,0.02563558730166342,0.08411223057774736,-0.2659127150611156,0.6858787450210978
2529,11.075606500002324,0.08633640481135436,0.14387269518820073,-0.3723632816021815,-0.0021216499282966338,0.10244296361212216,-0.27592615848519375,-0.04300719844238052,-0.198335889852816,0.028612099633633658,0.08483794496871598,-0.2613567200000586,0.6836573637458856
2530,11.079478600004222,0.0861967548520378,0.14441795481392963,-0.37395496986478666,-0.0023077705507990117,0.10157841770087873,-0.27579529313232853,-0.04263689144232895,-0.1994619517634835,0.03157876323083474,0.0855416086256309,-0.2567757039326118,0.6813465163515696
2531,11.084420400002273,0.0861423984826269,0.14483205117497389,-0.375529507115207,-0.0024922750747355276,0.10070902026243632,-0.2756515547589358,-0.04226357515634626,-0.20056804711930196,0.034535190171369315,0.08622314005334039,-0.25217033545575673,0.6789466400017508
2532,11.088780900012353,0.08602433605100158,0.1453785106234487,-0.3770954803307438,-0.0026751506405344717,0.09983485831130443,-0.2754949887301974,-0.04188734591616017,-0.2016540715048182,0.03748099446982147,0.08688246302070404,-0.24754128580639545,0.6764581892964546
2533,11.09237430000212,0.08599877685128135,0.14581093017185937,-0.3786352371518451,-0.0028563848077367954,0.09895601931025438,-0.27532564208414495,-0.04150830037170766,-0.20271992342745127,0.04041579215286339,0.08751950658323991,-0.24288922872522328,0.673881636204035
2534,11.0961427000002,0.08594375612850885,0.14621739040917164,-0.3801798578629085,-0.0030359655563142,0.09807259115759262,-0.2751435635226767,-0.041126535468166164,-0.2037655043281013,0.043339201334559846,0.08813420510443021,-0.23821484032068704,0.6712174699889651
2535,11.100265700006275,0.08589139895182765,0.14666188884679254,-0.3816867229290467,-0.0032138812878876087,0.09718466217438815,-0.27494880340225336,-0.04074214842289692,-0.20479071859117073,0.046250842291352866,0.08872649827567593,-0.23351879893306535,0.6684661971355209
2536,11.104603900006625,0.08584182453229768,0.14713268382412073,-0.383138970077339,-0.003390120826845672,0.09629232109165715,-0.27474141372427596,-0.04035523670230642,-0.2057954735539973,0.04915033753670875,0.08929633113489131,-0.2288017849987106,0.6656283412673607
2537,11.108994100010024,0.08570177980635818,0.14760929121934285,-0.3846704526394833,-0.003564673421362974,0.09539565703750755,-0.2745214481251473,-0.03996589799863163,-0.2067796795156998,0.05203731189540994,0.08984365408372959,-0.22406448091449155,0.6627044430630156
2538,11.117012400005478,0.085525457415522,0.148462384239851,-0.38761779840678434,-0.003737528744317655,0.09449475952424634,-0.2742889618660162,-0.03957423020665484,-0.20774324974543604,0.054911392577473885,0.09036842290343178,-0.21930757090247607,0.6596950601672974
2539,11.12279639999906,0.08551847854844184,0.14885722567675902,-0.3890616037926477,-0.003908676894108174,0.09358971843545232,-0.2740440118222055,-0.0391803314003541,-0.20868610049007374,0.057772209251680834,0.09087059876929053,-0.21453174087489124,0.6566007670986357
2540,11.126607199999851,0.08536172171343485,0.14925332333775543,-0.3904812745119344,-0.004078108395368968,0.0926806240130159,-0.27378665647232414,-0.038784299809495035,-0.2096081509812765,0.06061939411869303,0.09135014826372093,-0.20973767829939916,0.6534221551523561
2541,11.131176900002174,0.08522461150102352,0.1496010028337143,-0.39186285617028965,-0.0042458141995848015,0.09176756684414848,-0.27351695588706504,-0.03838623379616986,-0.21050932344200565,0.06345258198374726,0.09180704338793047,-0.20492607206472543,0.6501598322999124
2542,11.13789280000492,0.0849951520838399,0.1503424202820685,-0.39453106197516374,-0.004411785685603581,0.09085063784836375,-0.273234971717691,-0.03798623183128962,-0.2113895430924398,0.06627141032890309,0.09224126157218107,-0.2000976123466764,0.6468144230840854
2543,11.141860200004883,0.08481703272224066,0.15075158893468554,-0.3958512404027139,-0.0045760146600474965,0.08992992826443305,-0.27294076718421184,-0.03758439247103594,-0.21224873815531348,0.06907551938482911,0.09265278568463645,-0.19525299047458086,0.6433865685101628
2544,11.146096399999806,0.08465430019872727,0.1511560656502478,-0.39717600492158917,-0.0047384933576223144,0.08900552963731706,-0.27263440706325454,-0.03718081433327817,-0.21308683986067758,0.07186455220210967,0.09304160403878874,-0.1903928987981924,0.6398769259331119
2545,11.150478400013526,0.0845329574537292,0.15146419702635527,-0.3984683756346136,-0.004899214441324747,0.08807753380507631,-0.2723159576756284,-0.03677559607396236,-0.21390378245008393,0.07463815472205487,0.09340771039945867,-0.18551803055508795,0.6362861689407608
2546,11.157928900007391,0.08431124869194843,0.15210101482001823,-0.4010290070628235,-0.005058171002547791,0.08714603288576296,-0.2719854868735854,-0.036368836363478166,-0.21469950318019707,0.07739597584699595,0.09375110398736393,-0.18062907973859824,0.6326149872330055
2547,11.162261700010276,0.08416305405612245,0.1524007169811581,-0.40228301535724204,-0.005215356561083983,0.08621111926429618,-0.2716430640277791,-0.03596063386300982,-0.21547394232583528,0.08013766751004855,0.09407178948225035,-0.1757267409663049,0.6288640864970572
2548,11.166723200003617,0.08404345837665779,0.15263282817680102,-0.40347194035663175,-0.005370765065026574,0.08527288557932368,-0.2712887600139245,-0.035551087200877414,-0.2162270431824438,0.08286288474432665,0.0943697770245815,-0.17081170934913958,0.625034188278755
2549,11.171464099999866,0.0839058201377669,0.15284000590691124,-0.40471047631890755,-0.005524390890568616,0.08433142471007224,-0.27092264719916187,-0.035140294948874815,-0.21695875206800375,0.08557128575159044,0.09464508221578265,-0.1658846803611199,0.6211260298499586
2550,11.1755070000072,0.08381917536225962,0.15308012724856682,-0.40591844255594145,-0.005676228841699952,0.08338682976319005,-0.2705447994281265,-0.03472835559861061,-0.21766901832437857,0.08826253197031066,0.09489772611703491,-0.16094634970975613,0.6171403640720429
2551,11.17955320001056,0.08368270335620182,0.15332383780061754,-0.40710234170669213,-0.005826274149802138,0.08243919405958333,-0.2701552920087281,-0.03431536753785828,-0.21835779431810087,0.09093628814313254,0.095127735246616,-0.15599741320716276,0.6130779592555132
2552,11.18779710000672,0.0834829552151735,0.1538222661272169,-0.4095027321331063,-0.00597452247314136,0.08148861112124983,-0.26975420169764175,-0.03390142902692181,-0.21902503544060273,0.09359222238372278,0.0953351415757844,-0.15103856664190687,0.6089395990157611
2553,11.191746100012097,0.08332970947615706,0.15408237379142609,-0.410674039299365,-0.0061209698962594395,0.08053517465811166,-0.2693416066855106,-0.033486638175022974,-0.21967070010789183,0.09623000624298257,0.09551998252320468,-0.1460705056516263,0.604726082124984
2554,11.195982000004731,0.0832772099472499,0.15434194016040603,-0.41180935912053257,-0.006265612929263008,0.07957897855484991,-0.2689175865818671,-0.03307109291671654,-0.22029474975967747,0.09884931477461027,0.0956823009479112,-0.14109392559644884,0.600438222360298
2555,11.200295300004656,0.08319251836626952,0.1545826109802041,-0.41296198839895115,-0.006408448507010967,0.07862011685774332,-0.2684822223997734,-0.03265489098833959,-0.22089714885795045,0.10144982659999738,0.0958221451408085,-0.13610952143324534,0.5960768483480735
2556,11.204380700000913,0.08312127780750551,0.1547613221982027,-0.4141101903047541,-0.006549473988200396,0.07765868376151377,-0.2680355965401836,-0.032238129904501395,-0.22147786488502091,0.10403122397244104,0.09593956881470644,-0.13111798759074808,0.5916428034045219
2557,11.20864770001208,0.0830156320109394,0.15494192437612445,-0.4152764172124868,-0.006688687154351104,0.07669477359618067,-0.2675777927760305,-0.03182090693461992,-0.22203686834101716,0.10659319284065719,0.09603463109288929,-0.12612001784556537,0.5871369453725642
2558,11.212897400007932,0.08293701858995964,0.1551217992779572,-0.41638985236907655,-0.006826086208689058,0.07572848081392614,-0.26710889623603795,-0.031403319079511466,-0.22257413274084864,0.10913542291157811,0.09610739649621847,-0.12111630519912239,0.5825601464550143
2559,11.218772400010494,0.08288109823511683,0.15532829557524996,-0.4174634691707297,-0.00696166977492892,0.07475989997597329,-0.2666289933882647,-0.030985463048039674,-0.22308963461063744,0.11165760771241824,0.09615793492876917,-0.11610754175555829,0.577913293044107
2560,11.223139100009575,0.08275650032269577,0.15550258839147274,-0.4185383155613001,-0.007095436895955942,0.07378912573948015,-0.2661381720233823,-0.030567435233830036,-0.22358335348362277,0.11415944465199179,0.09618632166200093,-0.11109441860060905,0.5731972855474037
2561,11.22952740000619,0.08254760942056079,0.1557786853089323,-0.42072423774843115,-0.007227387032407473,0.07281625284445166,-0.26563652123768916,-0.030149331692056476,-0.22405527189554175,0.11664063508126638,0.09619263731746293,-0.10607762568150454,0.5684130382101118
2562,11.233508100005563,0.08244124943508578,0.15590194974516375,-0.4217931181834822,-0.0073575200611543925,0.07184137610067245,-0.26512413141586366,-0.02973124811630628,-0.22450537537948867,0.11910088435313627,0.09617696784803556,-0.10105785168790754,0.5635614789338498
2563,11.237591700002667,0.08237129356428047,0.15598359837576403,-0.4228311376241992,-0.0074858362736828655,0.07086459037466251,-0.26460109421346073,-0.02931327981552959,-0.2249336524602588,0.12153990188140028,0.09613940451770973,-0.096035783933922,0.558643549091891
2564,11.242137100009131,0.08226598901962295,0.1561004816839297,-0.4238802207223297,-0.007612336374376787,0.0698859905766579,-0.2640675025391547,-0.02889552169107971,-0.22534009464818064,0.12395740119892924,0.09608004387990637,-0.0910121082411976,0.5536602033409269
2565,11.246556700003566,0.08214684773478431,0.1561829209828146,-0.4249285408974276,-0.007737021478701339,0.06890567164761902,-0.2635234505367327,-0.028478068213850388,-0.2257246964324418,0.12635310001500782,0.09599898775433892,-0.08598750882315725,0.548612409429391
2566,11.250541500005056,0.08202421529388772,0.15628700162345865,-0.42599259299561953,-0.007859893111288107,0.06792372854626871,-0.2629690335668435,-0.028061013401516243,-0.22608745527391289,0.12872672027183557,0.09589634320242199,-0.08096266817037283,0.5435011480023755
2567,11.254474200002733,0.08195545388794051,0.15632097470065076,-0.42698277460707207,-0.00798095320392224,0.06694025623616234,-0.2624043481885048,-0.02764445079588241,-0.22642837159747406,0.1310779882001721,0.09577222250122956,-0.07593826693711464,0.5383274124031786
2568,11.258844900003169,0.08188400032052832,0.15633888450885244,-0.42799113515764114,-0.008100204093432121,0.06595534967279186,-0.2618294921403732,-0.027228473440349562,-0.2267474487838492,0.13340663437411204,0.0956267431160065,-0.07091498382909904,0.5330922084715249
2569,11.26287940000475,0.08186396775221329,0.1563458752475128,-0.4290244291480868,-0.008217648519482024,0.06496910379072604,-0.2612445643217796,-0.026813173857500577,-0.22704469316095433,0.1357123937649755,0.0954600276712376,-0.06589349549245832,0.5277965543384989
2570,11.266818600008264,0.08178800681554696,0.1563433541867289,-0.43010402057344316,-0.008333289622268253,0.06398161349078885,-0.2606496647735335,-0.026398644026815046,-0.22732011399476626,0.13799500579430077,0.09527220392027862,-0.0608744764039567,0.5224414802182376
2571,11.27248800000234,0.08171092968507639,0.15630561185081965,-0.43111945831772897,-0.008447130940119327,0.06299297362727811,-0.26004489465850217,-0.02598497536251782,-0.22757372347971563,0.14025421438592536,0.09506340471355412,-0.055858598762475065,0.5170280281964232
2572,11.280442200004472,0.08169843545427274,0.1562345286691276,-0.43324048503950274,-0.00855917640700076,0.06200327899522674,-0.25943035624196736,-0.025572258691567797,-0.22780553672861006,0.1424897680171415,0.09483376796532725,-0.05084653238178648,0.511557252015624
2573,11.284015100012766,0.08174078880391117,0.1561205875314488,-0.43432536893489593,-0.008669430349925017,0.06101262431770863,-0.2588061528717634,-0.025160584231793244,-0.22801557176209236,0.14470141976891232,0.09458343661904693,-0.04583894458464399,0.5060302168575226
2574,11.287846600011108,0.0817161922575083,0.15602462992690336,-0.43540698756840157,-0.008777897486267302,0.060021104233191236,-0.25817238895820066,-0.024750041570179713,-0.22820384949763778,0.14688892737513518,0.09431255861127931,-0.040836500098201986,0.5004479991220825
2575,11.291961100010669,0.08170031192635513,0.1559487546321492,-0.4364915586993583,-0.008884582920987821,0.05902881328293698,-0.25752916995377834,-0.024340719641316674,-0.2283703937380967,0.14905205327093865,0.09402128683423025,-0.035839860950791363,0.49481168620369587
2576,11.296124000000418,0.08173234170211387,0.1558667844790092,-0.43764711614457663,-0.008989492143761204,0.05803584589845537,-0.25687660233268966,-0.023932706706008763,-0.22851523115979053,0.15119056463999983,0.09370977909686633,-0.03084968637006812,0.4891223762643664
2577,11.301537400009693,0.08177395160287117,0.15574406068382116,-0.4387773981200106,-0.009092631026013799,0.05704229638900768,-0.25621479357012383,-0.023526090330057536,-0.22863839130016547,0.15330423346086866,0.09337819808464155,-0.02586663268255424,0.48338117800397923
2578,11.305383300001267,0.0818085536568293,0.15553225994081502,-0.43989685234296727,-0.009194005817869527,0.056048258929166796,-0.255543852121368,-0.023120957363219462,-0.22873990654501028,0.15539283655228647,0.0930267113178381,-0.02089135321458934,0.47758921042771185
2579,11.308990600009563,0.08184050338688459,0.1553757641226029,-0.4410263064564658,-0.00929362314500508,0.05505382754643409,-0.25486388740071475,-0.02271739391834603,-0.2288198121152429,0.15745615561748735,0.09265549110852893,-0.01592449819471094,0.47174760261063636
2580,11.312787300004857,0.08182876919669084,0.15520625624899612,-0.44213664488734084,-0.00939149000541523,0.05405909610891526,-0.25417500976018087,-0.022315485350711862,-0.22887814605327236,0.1594939772874714,0.09226471451617115,-0.010966714657480359,0.4658574934595664
2581,11.316779200002202,0.08179412165749096,0.15513586000507415,-0.4432956964144816,-0.009487613766089037,0.05306415831305729,-0.25347733046804016,-0.021915316237536748,-0.22891494920894215,0.16150609316323744,0.09185456330184014,-0.006018646348770713,0.4599200314722022
2582,11.321056900007534,0.0817734296753333,0.15494811784341336,-0.4444230229777574,-0.009582002159597806,0.05206910767144823,-0.25277096168717395,-0.02151697035770748,-0.22893026522506252,0.16349229985696323,0.09142522388111445,-0.0010809336325328083,0.4539363744936278
2583,11.3253490000061,0.08172862257300076,0.1547880355626248,-0.4455683084438946,-0.009674663280595668,0.05107403750068127,-0.2520560164532453,-0.021120530671705263,-0.2289241405225366,0.16545239903212045,0.0909768872756217,0.0038457866009459054,0.447907689470214
2584,11.32929829999921,0.08161575901405903,0.15464529720856307,-0.4466824994807268,-0.009765605582233735,0.05007904090928484,-0.25133260865270235,-0.020726079301744308,-0.2288966242850868,0.1673861974425143,0.09050974906325665,0.008760881025274822,0.441835152200982
2585,11.333760500012431,0.08152454681647968,0.1545153627910833,-0.44780608298556285,-0.009854837872488796,0.04908421078572076,-0.2506008530006149,-0.02033369751212737,-0.22884776844358828,0.16929350697023726,0.09002400932708278,0.01366371996667227,0.4357199470864846
2586,11.337638299999526,0.0813849112039232,0.15443198683549927,-0.44892230518248083,-0.009942369310407467,0.04808963978645209,-0.24986086501834992,-0.019943465689823883,-0.2287776276600158,0.17117414466252642,0.0895198726029289,0.018553677491143093,0.4295632668752634
2587,11.341875900005109,0.08133693810623221,0.15427710450020654,-0.45007115284493343,-0.010028209402266751,0.047095420324082114,-0.24911276101108976,-0.01955546332527637,-0.228686259311011,0.1730279327675139,0.08899754782569272,0.023430131490109262,0.42336631240794326
2588,11.346210300005623,0.08121715902448706,0.15410568212451042,-0.4511760065451346,-0.01011236799765199,0.0461016445555664,-0.2483566580451992,-0.019169768993440625,-0.2285737234710752,0.1748546987688616,0.0884572482743636,0.028292463764481763,0.41713029235902055
2589,11.350291599999764,0.08111738668418121,0.15395463521505492,-0.4522865334362857,-0.010194855285453185,0.04510840437049933,-0.24759267392544626,-0.018786460335065147,-0.22844008289539441,0.17665427541927056,0.08789919151577721,0.03314006010716269,0.4108564229764057
2590,11.354580200000782,0.08099831874782018,0.15381414186941925,-0.4534333738895395,-0.010275681789780795,0.044115791379476625,-0.2468209271720805,-0.018405614038215286,-0.2282854030023027,0.1784265007728566,0.08732359934711506,0.0379723103839672,0.4045459278187833
2591,11.358567200004472,0.08086335732752424,0.15370392582202774,-0.45458510782264105,-0.010354858365802029,0.04312389690253531,-0.24604153699777281,-0.018027305820047367,-0.22810975185539237,0.18017121821638218,0.08673069773716238,0.04278860861295572,0.39820003749085237
2592,11.362747000006491,0.08071016288348415,0.15356767769843427,-0.45574353951383245,-0.0104323961954987,0.042132811957672704,-0.2452546232844189,-0.01765161040883811,-0.22791320014527788,0.18188827649933564,0.08612071676633834,0.04758835304216739,0.3918199893765087
2593,11.367157000000589,0.08057263835686375,0.15340694340697586,-0.45686837140072356,-0.010508306783347694,0.04114262724944588,-0.2444603065598114,-0.01727860152627459,-0.2276958211710203,0.18357752976284888,0.08549389056551278,0.05237094622574618,0.38540702737003235
2594,11.371609400011948,0.08045162758256583,0.1532649096220857,-0.4579748987684822,-0.010582601951925185,0.040153433157652935,-0.2436587079741855,-0.016908351870009927,-0.22745769082121944,0.1852388375674461,0.08485045725362478,0.0571357950984518,0.3789624016053459
2595,11.37575750000542,0.08030772052063723,0.15316313714911622,-0.4591028887064032,-0.010655293837435763,0.03916531972609731,-0.24284994927664424,-0.01654093309648984,-0.2271988875547814,0.18687206491961558,0.08419065887411774,0.06188231104854817,0.3724873681834073
2596,11.37928870000178,0.08013902983327405,0.1530092389027005,-0.46038188382758577,-0.010726394885167644,0.03817837665143677,-0.24203415279146898,-0.016176415804054992,-0.22691949238136913,0.18847708229719676,0.08351474133020693,0.06660990998906305,0.3659831888978025
2597,11.383701099999598,0.07992967658570066,0.15293028518509394,-0.4615372471594866,-0.010795917844875158,0.03719269327211852,-0.24121144139432046,-0.015814869516324156,-0.22661958884154462,0.19005376567357535,0.0828229543189955,0.07131801242741315,0.35945113095860537
2598,11.387854800006608,0.07972478223039149,0.15280094676032877,-0.4625753174015466,-0.010863875766089676,0.036208358557402176,-0.2403819384883364,-0.015456362665863246,-0.22629926298660955,0.19160199654067928,0.0821155512644551,0.07600604353339002,0.3528924667145725
2599,11.391798100012238,0.07950404823223552,0.15271551595118069,-0.4636248066106492,-0.010930281993360248,0.03522546109647181,-0.23954576798013041,-0.015100962578145078,-0.22595860335815063,0.1931216619307681,0.08139278924928817,0.08067343320550281,0.34630847337373993
2600,11.396226800003204,0.07935310665833889,0.1524813072180406,-0.4648052287390509,-0.01099515016142517,0.03424408908763828,-0.2387030542556976,-0.014748735455804705,-0.2255977009672965,0.19461265443700948,0.08065492894568867,0.08531961613567357,0.33970043272248895
2601,11.400272200000472,0.07916783836965662,0.152314235447099,-0.46598955742166775,-0.011058494190315737,0.03326433032763332,-0.23785392215623222,-0.014399746363195024,-0.22521664927369364,0.1960748722328356,0.07990223454501859,0.08994403187228231,0.3330696308431509
2602,11.404435800010106,0.07890384109628398,0.15224615378880027,-0.46717876105068173,-0.011120328280393516,0.032286272200996405,-0.23699849695386405,-0.014054059211247385,-0.22481554416420826,0.19750821909007366,0.07913497368641775,0.09454612488155979,0.32641735783022063
2603,11.408802300007665,0.07858902759467788,0.15213649454498088,-0.4682533754503187,-0.011180666907322452,0.031310001669555575,-0.23613690432731804,-0.013711736742641756,-0.22439448393136135,0.19891260439584402,0.07835341738436535,0.0991253446073265,0.31974490750524714
2604,11.41275410000526,0.07826905862698522,0.1520005272726861,-0.4692929858595076,-0.011239524816977136,0.03033560526200351,-0.23526927033750084,-0.01337284051729097,-0.2239535692515051,0.20028794316822052,0.07755783995521143,0.10368114552907642,0.31305357713047227
2605,11.417129000008572,0.0780302838393052,0.15183033464524687,-0.4704109727377466,-0.011296917020288634,0.02936316906357011,-0.23439572140301979,-0.013037430898143501,-0.2234929031627493,0.2016341560706476,0.07674851894269685,0.10821298721840546,0.3063446671212899
