,time,x,y,z,vx,vy,vz,ax,ay,az,jx,jy,jz
2327,9.35499589999381,-0.01272176624975215,-0.042832296940471394,-0.015110424688741535,0.017085838894600157,0.014900633011019956,-0.003990386537627898,0.08414036018659445,0.05719673104148983,-0.03939342129079265,0.1440185790036523,0.05575023237324124,-0.13037840698943665
2328,9.359686899988446,-0.012705876710145298,-0.04287182974872182,-0.01511173886523796,0.01742726339893349,0.015132383279888084,-0.004150748260894585,0.08472107143852435,0.05741949394550172,-0.0399213004413962,0.14313720907945382,0.054377441192665944,-0.13067066002812247
2329,9.363762099994346,-0.012701931682637566,-0.04291000552229397,-0.015101623064768668,0.01777102955367365,0.015365023430849573,-0.004313247222338962,0.08529817427479265,0.057636673455136934,-0.040450326832262455,0.14223427840912922,0.052988227831652024,-0.13094632006070772
2330,9.368322799986345,-0.012686119048786436,-0.04294872300678235,-0.015105842455008685,0.018117122591239914,0.01559853075549287,-0.004477887921173477,0.08587158146874413,0.057848203478454444,-0.040980433052717175,0.14130979748176362,0.051582772215381455,-0.1312052457515571
2331,9.37239459999546,-0.01265973195336715,-0.04300335670971523,-0.01511633344645283,0.01846552739096173,0.015832882279507757,-0.004644674582797008,0.08644120584408847,0.05805401865793308,-0.041511551126215865,0.14036378031845265,0.05016125835145977,-0.13144729784680978
2332,9.3761480999965,-0.01265973195336715,-0.04300335670971523,-0.01511633344645283,0.01881622847930792,0.016068054765686422,-0.004813611156530359,0.08700696028926637,0.05825405438696172,-0.04204361251884339,0.13939624448838675,0.0487238743027049,-0.13167233920569688
2333,9.380430099990916,-0.01265973195336715,-0.04300335670971523,-0.01511633344645283,0.019169210030174435,0.01630402471699081,-0.004984701313386437,0.08756875777187767,0.058448246826219095,-0.04257654814793803,0.1384072111242355,0.047270812158793245,-0.13188023483163525
2334,9.385760599994684,-0.012614677002844838,-0.043129490993699206,-0.015141643167001862,0.019524455865230897,0.01654076837968581,-0.005157948443875627,0.08812651135316907,0.05863653291993865,-0.04311028839083906,0.13739670493682593,0.04580226800676534,-0.13207085190309173
2335,9.391034699990996,-0.01260575070842825,-0.04315800775821192,-0.015147870132840153,0.01988194945432622,0.016778261746537695,-0.0053333556558468375,0.08868013420257824,0.058818850412053536,-0.04364476309375706,0.13636475422910851,0.044318441900393905,-0.1322440598042121
2336,9.395026899990626,-0.01260575070842825,-0.04315800775821192,-0.015147870132840153,0.020241673915953527,0.017016480560077367,-0.005510925772364694,0.08922953961233157,0.05899513786221698,-0.04417990158076581,0.13531139090940533,0.04281953782841745,-0.13239973015520962
2337,9.398542999988422,-0.01252558535329277,-0.04320065665852444,-0.015115143061862011,0.020603612017774605,0.01725540031592786,-0.005690661329623367,0.08977464101209284,0.05916533466169314,-0.04471563266291485,0.13423665050393485,0.04130576368164321,-0.13253773684250694
2338,9.402318499996907,-0.012577478973356662,-0.04325143385608072,-0.015175352227448403,0.02096774617720399,0.017494996266195714,-0.005872564574897524,0.0903153519836601,0.059329381049113755,-0.04525188464746183,0.13314057216860742,0.03977733121892345,-0.13265795604862599
2339,9.4061834999884,-0.012559298768235983,-0.04329728068889184,-0.015181777624098402,0.02133405846205289,0.01773524342292563,-0.006056637464530874,0.09085158627570784,0.059487218126096385,-0.04578858534722364,0.13202319870008516,0.03823445603200967,-0.13276026628181958
2340,9.410749699993175,-0.012545390521841403,-0.043336599611066395,-0.015195288100544586,0.0217025305912332,0.01797611656161802,-0.0062428816619627845,0.09138325781857144,0.05963878787271944,-0.04632566209004541,0.13088457654610033,0.03667735750928966,-0.1328445484054399
2341,9.414357999994536,-0.012519562650150692,-0.043373709441017025,-0.015189657282812262,0.02207314393552184,0.01821759022480882,-0.006431298535793399,0.09191028073907088,0.05978403316284942,-0.046863041728386304,0.12972475581502765,0.03510625879841259,-0.1329106856670379
2342,9.41790509999555,-0.012502745612058823,-0.04341198531999453,-0.01519204215783446,0.022445879518385527,0.01845963872571095,-0.006621889157887728,0.09243256937537099,0.059922897779316205,-0.04740065064902067,0.12854379028470533,0.033521386767807825,-0.13295856372718728
2343,9.422034999995958,-0.01249214921520957,-0.04346314864781486,-0.015214838789503598,0.022820718016866078,0.018702236151916754,-0.006814654301519171,0.09295003829187483,0.06005532642893153,-0.04793841478285379,0.12734173741050026,0.03192297196710324,-0.13298807068802754
2344,9.42597259998729,-0.012475352786566089,-0.04349770367025631,-0.015222511703718472,0.023197639762526336,0.018945356369160768,-0.007009594439552883,0.09346260229414668,0.06018126475734615,-0.04847625961485111,0.12611865833261293,0.030311248586449124,-0.13299909712152025
2345,9.4301936999982,-0.01246148283908838,-0.04353253825218624,-0.015228792903278754,0.023576624742456864,0.01918897302514222,-0.007206709742669474,0.0939701764438616,0.060300659363741134,-0.0490141101940799,0.12487461788261833,0.028686454414754682,-0.13299153609741288
2346,9.434176599999772,-0.01242239740197423,-0.043578372229199414,-0.01522478032524394,0.023957652600343604,0.019433059553406615,-0.0074060000776294335,0.09447267607377817,0.0604134578153488,-0.049551891143861874,0.12360968458923835,0.02704883079684429,-0.13296528321090453
2347,9.43848069998785,-0.012414793051693745,-0.04361501135940229,-0.015250721153450632,0.024340702637596582,0.01967758917728568,-0.007607465005578704,0.09497001680273143,0.060519608661798736,-0.050089526672035874,0.12232393068334164,0.025398622589541214,-0.13292023661000799
2348,9.442744399988442,-0.012396221324721042,-0.04365004064230016,-0.015257792207689781,0.024725753814539658,0.019922534913894997,-0.007811103780395871,0.09546211455064259,0.060619061449284875,-0.050626940581329126,0.12101743210216714,0.023736078116686685,-0.13285629702260188
2349,9.446794699993916,-0.01238384262542504,-0.043678189115974056,-0.015270163771524419,0.02511278475166155,0.02016786957818855,-0.008016915347081361,0.09594888555354245,0.060711766734549,-0.051164056279835925,0.11969026849276712,0.022061449123102806,-0.13277336778316745
2350,9.450915699999314,-0.01238582915017513,-0.04370822819486352,-0.015301116821016987,0.025501773730928316,0.020413565787069484,-0.008224898340189071,0.09643024637860535,0.060797676098676284,-0.05170079679160222,0.1183425232146671,0.02037499072750812,-0.1326713548592041
2351,9.455068799987204,-0.01235585676711588,-0.04372758625248822,-0.015292480395971888,0.025892698697157324,0.020659595963556224,-0.00843505108230083,0.09690611393919052,0.060876742160698584,-0.05223708476731489,0.11697428334173939,0.01867696137439519,-0.13255016687731766
2352,9.45923349999066,-0.012345057107648454,-0.043755979460526985,-0.01532740374427607,0.026285537259452773,0.02090593234100336,-0.008647371582544076,0.09737640550988798,0.06094891859100125,-0.05277284249509438,0.11558563966328787,0.01696762278487975,-0.13240971514897648
2353,9.463487799992436,-0.012325763705737475,-0.04378476648767312,-0.015343762998898981,0.026680266692702785,0.021152546967376378,-0.008861857535153159,0.09784103874156623,0.06101416012452964,-0.0533079919113893,0.114176686684341,0.015247239906531273,-0.1322499136959299
2354,9.467657699991832,-0.012304925185892908,-0.043813994983026607,-0.015356667033503323,0.02707686393913814,0.02139941170957956,-0.009078506318074631,0.09829993167641794,0.06107242257379115,-0.05384245461197149,0.11274752262515103,0.01351608086219545,-0.1320706792752845
2355,9.472009099990828,-0.012277389676689909,-0.04384285697869579,-0.015369070130555986,0.027475305609952497,0.021646498257836263,-0.009297314991616911,0.09875300276300084,0.06112366284164851,-0.05437615186303069,0.11129824941989765,0.011774416897819329,-0.13187193140423242
2356,9.475395699992076,-0.012277389676689909,-0.04384285697869579,-0.015369070130555986,0.027875567986984037,0.021893778130120754,-0.00951828029714472,0.09920017087127025,0.061167838933900126,-0.054909004612367286,0.10982897271459331,0.010022522329290249,-0.13165359238442528
2357,9.47992259998864,-0.012188286317145502,-0.04391591818205205,-0.01533149897507341,0.02827762702445839,0.022141222676640607,-0.009741398655818627,0.09964135530759996,0.06120490997164345,-0.05544093350068159,0.10833980186418803,0.008260674488300146,-0.1314155873259889
2358,9.484561399993254,-0.012164156160949431,-0.04395829769914021,-0.015425909716686656,0.0286814583507928,0.022388803084368882,-0.00996666616738007,0.10007647582978774,0.06123483620341752,-0.055971858872958184,0.10683084992887189,0.006489153667247058,-0.1311578441711733
2359,9.488655099994505,-0.012131229979160833,-0.043983232735035835,-0.015447113441297882,0.02908703727046151,0.022636490381625136,-0.010194078608982242,0.1005054526620425,0.06125757901712066,-0.05650170078994385,0.10530223366957414,0.004708243063186156,-0.1308802937176327
2360,9.493142799998168,-0.012098527266734155,-0.04401100345817059,-0.015477061559144573,0.029494338765922282,0.02288425544270452,-0.010423631434067129,0.1009282065099499,0.061273100951699716,-0.057030379039717534,0.1037540735426579,0.0029182287208429614,-0.13058286964133056
2361,9.496934199996758,-0.01206753264719372,-0.044019417905486684,-0.015494972477244361,0.029903337499604048,0.023132068992554183,-0.010655319771289057,0.1013446585754134,0.06128136570860669,-0.05755781314935087,0.10218649369380946,0.0011193994747017563,-0.13026550851906482
2362,9.50119409999752,-0.012030107661852108,-0.0440250338688907,-0.01552946546343852,0.030314007815955706,0.02337990161149596,-0.010889138423485146,0.10175473057156773,0.06128233816301893,-0.058083922396657696,0.10059962195112125,-0.0006879531098173875,-0.12992814985060921
2363,9.5045223999914,-0.012030107661852108,-0.0440250338688907,-0.01552946546343852,0.030726323743555887,0.023627723739994496,-0.01112508186669304,0.10215834473766089,0.06127598437481926,-0.058608625822031045,0.09899358981736785,-0.0025035347960792264,-0.12957073608046504
2364,9.508055399986915,-0.012030107661852108,-0.0440250338688907,-0.01552946546343852,0.03114025899728364,0.023875505683469755,-0.011363144249216278,0.10255542385390147,0.06126227159933227,-0.059131842240366,0.09736853246147441,-0.004327048736837483,-0.1291932126192182
2365,9.51248879999912,-0.011925916915174375,-0.04405390126145375,-0.015503992109864704,0.031555786980549824,0.0241232176171528,-0.011603319390737712,0.10294589125626755,0.061241168297813016,-0.059653490253067154,0.09572458870917738,-0.006158195535708034,-0.12879552786449713
2366,9.51740099999006,-0.011849577110286499,-0.04406032526030072,-0.01566379015227949,0.03197288078758902,0.024370829590983897,-0.011845600781481388,0.1033296708512745,0.06121264414768443,-0.060173488260139234,0.09406190103287744,-0.007996673309496308,-0.12837763322152723
2367,9.5238718999899,-0.011781411806917533,-0.044070140376172275,-0.015703469338713253,0.03239151320581205,0.02461831153455177,-0.012089981581423246,0.10370668713069842,0.06117667005251997,-0.06069175447235935,0.0923806155406854,-0.009842177751363729,-0.12793948312327671
2368,9.52803529999801,-0.011732115990477902,-0.044075294240148555,-0.015721622780495836,0.0328116567182189,0.024865633262072962,-0.012336454619550904,0.10407686518625185,0.061133218151768046,-0.061208206923529226,0.09068088196466191,-0.011694402194817675,-0.12748103505018915
2369,9.532154599990465,-0.011732115990477902,-0.044075294240148555,-0.015721622780495836,0.03323328350587179,0.02511276447741024,-0.012585012393172838,0.10444013072420885,0.06108226183021507,-0.06172276348280557,0.08896285364825147,-0.013553037678509119,-0.12700224954949793
2370,9.536350599999423,-0.01159456093374379,-0.04408480243589956,-0.01570773348961204,0.033656365450428244,0.025359674779129066,-0.012835647067277283,0.10479641007997655,0.061023775727183927,-0.062235341867106594,0.08722668753291168,-0.015417773011821718,-0.12650309025411807
2371,9.5405471999984,-0.01156642436565081,-0.044104693368444935,-0.015798617916565855,0.034080874136733996,0.025606333665590997,-0.013088350473941154,0.10514563023261032,0.06095773574546461,-0.06274585965359313,0.08547254414393878,-0.017288294841235768,-0.12598352390111034
2372,9.544627099996433,-0.01149020661574637,-0.04409922843956515,-0.015816198932549392,0.03450678085547532,0.02585271054008288,-0.013343114111789317,0.1054877188192691,0.06088411905997381,-0.06325423429222304,0.08370058757549051,-0.019164287717450188,-0.12544352034971198
2373,9.548662599991076,-0.011432241937637304,-0.04409760441637758,-0.015838531001046267,0.034934056605890364,0.02609877471598063,-0.01359992914550453,0.10582260414960737,0.06080290412614038,-0.06376038311837728,0.08191098547480802,-0.021045434163245367,-0.12488305259892891
2374,9.5519784999924,-0.011369515591634956,-0.044100448515743476,-0.015862196666800752,0.035362672098539306,0.026344495421946414,-0.013858786405388363,0.10615021522010093,0.060714070688013974,-0.06426422336555561,0.08010390902563794,-0.022931414742069292,-0.12430209680468417
2375,9.555517599990708,-0.011282330958339835,-0.04407376712984668,-0.015891684273563814,0.03579259775813311,0.02658984180715822,-0.014119676386973312,0.10647048172830313,0.06061759978609361,-0.0647656721781399,0.07827953293085686,-0.024821908127329206,-0.12370063229651697
2376,9.559518799986108,-0.011211675151483863,-0.044061513261165364,-0.01591715408412722,0.03622380372642036,0.026834782946570726,-0.014382589250686414,0.10678333408702799,0.06051347376487324,-0.06526464662422313,0.07643803539429989,-0.026716591172370737,-0.12307864159382792
2377,9.563712899995153,-0.011130986394978913,-0.04405501284985766,-0.015968572618354028,0.03665625986513177,0.027079287846206262,-0.01464751482156467,0.10708870343845726,0.06040167628010151,-0.06576106370850175,0.0745795981017956,-0.0286151389811263,-0.12243611042166566
2378,9.567076299994367,-0.011130986394978913,-0.04405501284985766,-0.015968572618354028,0.037089935758982014,0.027323325448474774,-0.014914442589022572,0.10738652166816796,0.06028219230575291,-0.06625484038522934,0.07270440620141017,-0.03051722497941426,-0.12177302772604914
2379,9.5704926999897,-0.011130986394978913,-0.04405501284985766,-0.015968572618354028,0.03752480071872853,0.027566864637521647,-0.015183361706671939,0.10767672141907729,0.06015500814070779,-0.06674589357122943,0.07081264828290285,-0.032422520986869985,-0.12108938568882037
2380,9.574759799987078,-0.010975229660940665,-0.0440508164207103,-0.015952000362408042,0.037960823784286585,0.027809874244602132,-0.015454260992194298,0.10795923610530199,0.060020111415139264,-0.06723414015896594,0.06890451635639559,-0.034330697289489676,-0.12038517974202352
2381,9.582527399994431,-0.01079294061722956,-0.043984321027597244,-0.01610592109044939,0.03839797372790023,0.02805232305348121,-0.015727128927265965,0.10823399992592858,0.0598774910966045,-0.06771949702966935,0.0669802058302594,-0.03624142271276737,-0.11966040858180647
2382,9.586123199987924,-0.010706337276038516,-0.04396239686364148,-0.016137883312865534,0.038836219057368775,0.028294179805857578,-0.016001953657536094,0.10850094787869102,0.05972713749583821,-0.06820188106651624,0.06503991548822058,-0.038154364695405354,-0.1189150741818399
2383,9.590733499993805,-0.010606595744517205,-0.04393344827356323,-0.016164806335497547,0.03927552801932838,0.028535413206810443,-0.016278722992657924,0.10876001577355249,0.05956904227224629,-0.06868120916786065,0.0630838474656901,-0.04006918936357799,-0.11814918180624927
2384,9.5945742999902,-0.010495658887368817,-0.04388841288357923,-0.016187882158003004,0.03971586860258849,0.028775991930267784,-0.01655742440637349,0.10901114024618776,0.059403198439097214,-0.0691573982605158,0.06111220722531906,-0.041985561605728514,-0.11736274002205523
2385,9.598938199997065,-0.01040036914785155,-0.04385623301775012,-0.0162235625881135,0.0401572085415227,0.029015884624494982,-0.01683804503665214,0.10925425877136337,0.059229600368408956,-0.06963036531308416,0.05912520353178396,-0.0439031451478781,-0.11655576071111849
2386,9.602335399991716,-0.01040036914785155,-0.04385623301775012,-0.0162235625881135,0.040599515319513585,0.02925505991760245,-0.017120571685882994,0.1094893096762121,0.059048243795529434,-0.07010002734933334,0.05712304842580568,-0.045821602629426264,-0.1157282590815849
2387,9.605755599986878,-0.010211726105508143,-0.04385528559458087,-0.01620180941228326,0.04104275617245081,0.029493486423070994,-0.017404990821121617,0.10971623215339864,0.058859125823408395,-0.07056630146161631,0.05510595719740641,-0.047740595679421474,-0.11488025367882651
2388,9.609778799989726,-0.010087074311692857,-0.043814445943071594,-0.016332065388243416,0.04148689809228236,0.029731132745293588,-0.017691288574391072,0.1099349662741738,0.05866224492655904,-0.07102910482433378,0.053074148358409054,-0.04965978499328102,-0.11401176639587468
2389,9.613796899997396,-0.009992176642870406,-0.04378538084662389,-0.016372784239844503,0.0419319078306181,0.0299679674851323,-0.017979450743037625,0.11014545300131362,0.058457600954707575,-0.07148835470743668,0.051027843614183305,-0.051578830409938256,-0.11312282248334056
2390,9.61796719999984,-0.009879100412290972,-0.04373981035133801,-0.0164412886609837,0.04237775190238535,0.030203959245489187,-0.018269462790141276,0.11034763420194,0.05824519513612926,-0.07194396848996744,0.04896726783464279,-0.05349739098939544,-0.1122134505588189
2391,9.62196989999211,-0.00976819419811008,-0.043697984138528434,-0.01650881654057587,0.04282439658953582,0.030439076636889918,-0.01856130984498122,0.11054145266022034,0.05802503008066927,-0.0723958636736376,0.04689264902449817,-0.05541512509066025,-0.11128368261577103
2392,9.626007799990475,-0.009648092708374238,-0.043638038373974515,-0.01656779627645677,0.04327180794480328,0.03067328828307904,-0.018854976703556417,0.11072685208994314,0.057797109782447134,-0.07284395789644021,0.04480421829277081,-0.057331690450043965,-0.11033355403188272
2393,9.630348399994546,-0.009517412428601216,-0.04359717121121163,-0.016636746079318577,0.04371995179551143,0.030906562826625624,-0.0191504478291614,0.11090377714696759,0.057561439622243395,-0.07328816894629474,0.042702209821571836,-0.059246744259799276,-0.10936310357689295
2394,9.634380599993165,-0.00938497427622046,-0.04352772431763042,-0.01668688853363732,0.04416879374743103,0.03113886893453788,-0.0194477073530175,0.11107217344154376,0.057318026369566795,-0.07372841477472217,0.04058686083415182,-0.06115994324707582,-0.1083723734198895
2395,9.639689499992528,-0.00928080839811609,-0.04344917753370278,-0.01674683248570741,0.044618299188686,0.03137017530388532,-0.019746739074959628,0.11123198755050098,0.05706687818440074,-0.07416461351054845,0.03845841156222624,-0.06307094375317095,-0.10736140913606788
2396,9.643052499988698,-0.009149432956718152,-0.04336991473667347,-0.016822525157679916,0.045068433293707674,0.031600450667427143,-0.020047526464178792,0.11138316702930155,0.0568080046186279,-0.0745966834736342,0.03631710521258233,-0.06497940181305306,-0.10633025971295011
2397,9.647106899996288,-0.00903282598936821,-0.04330453278738528,-0.016891488414185675,0.045519161027236875,0.03182966379924571,-0.020350052660020376,0.11152566042395663,0.056541416617131884,-0.07502454318862846,0.03416318793297294,-0.06688497323513456,-0.10527897755605957
2398,9.651321199999074,-0.008926517774192186,-0.04324624004233262,-0.016950620502761585,0.04597044714837311,0.03205778352038376,-0.020654300472838276,0.11165941728280135,0.05626712651857474,-0.07544811139874492,0.031996908777303254,-0.0687873136812714,-0.10420761849404851
2399,9.655469899997115,-0.008819705339618823,-0.043178738734990646,-0.017006383783818507,0.046422256214670415,0.03228477870448391,-0.020960252384904985,0.11178438816812623,0.05598514805584983,-0.0758673070795582,0.029818519670116263,-0.07068607874696603,-0.10311624178327487
2400,9.65971159999026,-0.00867998453775286,-0.04313202706931311,-0.017076584880470053,0.046874552586279324,0.03251061828342929,-0.021267890551377774,0.11190052466766254,0.055695496356209566,-0.07628204945281787,0.02762827537038331,-0.07258092404175054,-0.10200491011182482
2401,9.663893299992196,-0.008546793851913396,-0.04306168096807024,-0.017140940418895946,0.047327300430134375,0.032735271252983984,-0.021577196801321096,0.11200777940591886,0.055398187941067226,-0.07669225800027814,0.02542643343460624,-0.07447150526972658,-0.10087368960297763
2402,9.667893599995296,-0.00842358350454444,-0.04297192570327574,-0.01720617917386586,0.047780463724186505,0.03295870667843195,-0.02188815263878525,0.11210610605536668,0.055093240725472094,-0.07709785247754095,0.02321325417923745,-0.07635747831023851,-0.09972264981810922
2403,9.672047299987751,-0.008275848088895185,-0.04286221491932852,-0.017277811794010726,0.048234006261679674,0.033180893700213,-0.022200739243941316,0.11219545934747212,0.05478067401725723,-0.07749875292790989,0.020989000642424507,-0.07823849929865617,-0.09855186375903137
2404,9.67597699999169,-0.00812491868826553,-0.042745426026947815,-0.017380729244065387,0.04868789165547109,0.03340180153955444,-0.022514937474272252,0.11227579508357119,0.05446050851585946,-0.07789487969625318,0.018753938545086175,-0.08011422470724365,-0.0973614078697631
2405,9.679441899992526,-0.00812491868826553,-0.042745426026947815,-0.017380729244065387,0.0491420833423942,0.033621399504096615,-0.02283072786582025,0.1123470701455857,0.05413276631081098,-0.07828615344287371,0.016508336251326857,-0.08198431142608989,-0.0961513620377312
2406,9.68265089999477,-0.00812491868826553,-0.042745426026947815,-0.017380729244065387,0.04959654458766372,0.033839656993511304,-0.023148090634490342,0.11240924250657681,0.05379747087990212,-0.07867249515738396,0.014252464728196489,-0.08384841684407726,-0.09492180959439718
2407,9.687104799988449,-0.007962852680255018,-0.04267619349597272,-0.01739815786260756,0.050051238489322025,0.034056543505111336,-0.02346700567741029,0.11246227124113416,0.05345464708701484,-0.07905382617258319,0.011986597504803196,-0.085706198929864,-0.09367283731530777
2408,9.690500899989274,-0.007962852680255018,-0.04267619349597272,-0.01739815786260756,0.05050612798272623,0.0342720286394503,-0.023787452574346765,0.11250611653559756,0.05310432117962732,-0.07943006817833424,0.009711010630786202,-0.08755731631285656,-0.0924045354195663
2409,9.694690999996965,-0.007722526421564312,-0.04240260187980401,-0.01755101884908913,0.05096117584507545,0.034486082105910795,-0.024109410589177722,0.11254073969810877,0.052746520785990084,-0.07980114323543758,0.007425982634156525,-0.08940142836414718,-0.09111699756872235
2410,9.698054199994658,-0.007722526421564312,-0.04240260187980401,-0.01755101884908913,0.05141634469997749,0.0346986737282799,-0.024432858671420914,0.11256610316849057,0.052381274911973454,-0.08016697378950045,0.005131794478513142,-0.09123819527739258,-0.08981032086507729
2411,9.701630699986708,-0.007410330413276903,-0.04212266597731927,-0.017683509238824873,0.05187159702205414,0.03490977345031068,-0.0247577754578184,0.11258217052795046,0.052008613937586705,-0.08052748268479913,0.002828729519642437,-0.09306727814960973,-0.08848460584940267
2412,9.704873700000462,-0.007410330413276903,-0.04212266597731927,-0.017683509238824873,0.052326895141584624,0.03511935134126848,-0.025084139273977044,0.11258890650860724,0.05162856961316899,-0.08088259317813212,0.0005170734615089448,-0.09488833906186471,-0.08713995649806952
2413,9.709088399991742,-0.007112678676452276,-0.04184470356395646,-0.017852037070484224,0.052782201249186034,0.03532737760146073,-0.025411928136064865,0.11258627700283852,0.05124117505525247,-0.08123222895266227,-0.0018028856883545565,-0.09670104115983062,-0.08577648021958544
2414,9.713374899991322,-0.006863113112089962,-0.04156081930099118,-0.018065113925111433,0.05323747740053008,0.03553382256774917,-0.025741119752563203,0.11257424907244681,0.05084646474209835,-0.08157631413174521,-0.004130857664049328,-0.09850504873419036,-0.08439428785053686
2415,9.71786199999042,-0.006672185521964901,-0.041427530968607296,-0.018155326797181154,0.053692685521095115,0.035738656719043124,-0.026071691526074716,0.11255279095764263,0.05044447450890632,-0.08191477329274169,-0.006466549987096947,-0.10030002730086027,-0.08299349365093382
2416,9.72198919999937,-0.006499462781573121,-0.041293956035585014,-0.018231688570158614,0.05414778741095287,0.0359418506817729,-0.026403620555187027,0.11252187208584154,0.05003524154269857,-0.08224753148081126,-0.008809668012801076,-0.10208564368101058,-0.0815742152989548
2417,9.726096399987,-0.00631513045951302,-0.04113889147327579,-0.018354468575485564,0.05460274474958919,0.03614337523534199,-0.026736883636391887,0.11248146308027294,0.04961880437687934,-0.08257451422268455,-0.0111599149771761,-0.10386156608085866,-0.08013657388508919
2418,9.73026659998868,-0.0061217206702916475,-0.040970095966193686,-0.018470803758401842,0.05505751910075811,0.036343201317556764,-0.027071457266059775,0.1124315357683982,0.049195202885471113,-0.08289564754041169,-0.013516992044433875,-0.1056274641712107,-0.07868069390567563
2419,9.73445659999561,-0.005913685268163519,-0.040799931389595756,-0.018584535864003857,0.05551207191736844,0.036541300030032545,-0.027407317642469987,0.11237206319013529,0.048764478277028164,-0.08321085796508453,-0.01588059835501969,-0.1073830091667281,-0.07720670325583462
2420,9.738607799998135,-0.005706943160430758,-0.040615278737025556,-0.018693900579304954,0.05596636454640207,0.036737642643574694,-0.0277444406678961,0.11230301960588805,0.048326673088229015,-0.0835200725505301,-0.01825043107418844,-0.10912787390489477,-0.07571473322179355
2421,9.74278869999398,-0.005515427558975863,-0.040438630250754136,-0.018822132858704627,0.056420358233863314,0.03693220060353351,-0.02808280195074681,0.11222438050437751,0.04788183117714906,-0.08382321888697275,-0.02062618544111181,-0.11086173292466159,-0.0742049184726027
2422,9.74690249998821,-0.005321630548301998,-0.04026394454961779,-0.018953259554172576,0.0568740141297584,0.03712494553513164,-0.02842237680776182,0.11213612261027221,0.047429997716214874,-0.08412022511466276,-0.0230075548185072,-0.11258426254474437,-0.07267739705124103
2423,9.751038999995217,-0.0051083631514981095,-0.04007950332620059,-0.01908684937998786,0.057327293293104264,0.03731584924876274,-0.02876314026626262,0.112038223891616,0.04697121918484166,-0.08441101993746877,-0.025394230742778957,-0.11429514094155052,-0.07113231036510997
2424,9.755177299986826,-0.0048672553288926735,-0.03982765085240867,-0.019206293352276176,0.05778015669696635,0.03750488374526014,-0.029105067066457928,0.11193066356705136,0.04650554336175523,-0.08469553263643177,-0.027785902974662307,-0.11599404822671028,-0.06956980317591419
2425,9.758569899990109,-0.0048672553288926735,-0.03982765085240867,-0.019206293352276176,0.058232565233524346,0.03769202122113424,-0.02944813166380373,0.11181342211283711,0.04603301931700034,-0.08497369308327807,-0.03018225955036045,-0.11768066652418879,-0.06799002358892767
2426,9.762274599997909,-0.0048672553288926735,-0.03982765085240867,-0.019206293352276176,0.05868447971916499,0.03787723407377725,-0.029792308231417815,0.11168648126965854,0.045553697403636975,-0.08524543175388859,-0.03258298683316498,-0.11935468004695489,-0.06639312304164417
2427,9.768365899988568,-0.004162752412411918,-0.03915357634992905,-0.019581861611124532,0.0591358608996012,0.03806049490663395,-0.030137570662548727,0.11154982404922828,0.045067629249126676,-0.08551067974172213,-0.034987769565549734,-0.12101577517318261,-0.06477925629181096
2428,9.77200269998866,-0.003939748946981756,-0.03893551064995709,-0.0197377237135148,0.05958666945501672,0.03824177653433735,-0.03048389257309906,0.11140343474067621,0.044574867746410514,-0.08576936877119003,-0.03739629092172815,-0.12266364052196212,-0.0631485814048449
2429,9.776529599999776,-0.0037009835175238113,-0.038715510402286525,-0.019843013947989065,0.0600368660052354,0.038421051987807875,-0.030831247304202832,0.11124729891672659,0.04407546704468091,-0.08602143121097962,-0.039808232560664014,-0.12429796702849699,-0.06150125974062989
2430,9.779981399988174,-0.0037009835175238113,-0.038715510402286525,-0.019843013947989065,0.06048641111491423,0.03859829451931485,-0.031179607924856512,0.11108140343966086,0.04356948253984916,-0.08626680008732457,-0.042223274679525316,-0.12591844801876473,-0.05983745593969454
2431,9.784083899998222,-0.0034058405825793375,-0.038546938146205474,-0.01992691284968476,0.060935265298759686,0.03877347760749904,-0.03152894723460352,0.11090573646706409,0.04305697086471091,-0.08650540909721971,-0.04464109606757082,-0.1275247792836171,-0.05815733790876953
2432,9.788175599998794,-0.002875794651094489,-0.037928035141458115,-0.020285507228245528,0.06138338902676638,0.038946574962355034,-0.031879237766271835,0.11072028745735331,0.04253798987881203,-0.08673719262157797,-0.04706137416045894,-0.12911665915229753,-0.056461076805724396
2433,9.791791999989073,-0.002875794651094489,-0.037928035141458115,-0.020285507228245528,0.06183074272947744,0.03911756053017266,-0.03223045178876449,0.1105250471750859,0.042012598658017236,-0.08696208573832674,-0.04948378509496811,-0.1306937885653526,-0.05474884702388332
2434,9.795271499999217,-0.002875794651094489,-0.037928035141458115,-0.020285507228245528,0.062277286803265254,0.03928640849843602,-0.032582561309902724,0.1103200076960467,0.0414808574837839,-0.08718002423544145,-0.05190800376411816,-0.13225587114691634,-0.05302082617571958
2435,9.798686299996916,-0.002875794651094489,-0.037928035141458115,-0.020285507228245528,0.06272298161563133,0.03945309330067956,-0.03293553807932167,0.11010516241211243,0.04094282783214359,-0.08739094462391427,-0.054333703872681695,-0.13380261327634463,-0.05127719507592856
2436,9.802095899998676,-0.0025128511631924235,-0.03768946648474447,-0.020418611927657773,0.0631677875105244,0.039617589621299916,-0.03328935359141829,0.10988050603589246,0.04039857236239407,-0.08759478415065523,-0.056760557993074834,-0.13533372415917772,-0.04951813772387961
2437,9.806039799994323,-0.001745231512265186,-0.03687046589037528,-0.020948941664603406,0.06361166481367612,0.03977987240032262,-0.03364397908835142,0.10964603460514391,0.03984815490550452,-0.08779148081132325,-0.05918823762161621,-0.13684891589740905,-0.04774384128544676
2438,9.809539999987464,-0.001745231512265186,-0.03687046589037528,-0.020948941664603406,0.06405457383795284,0.039939916838122265,-0.033999385563093835,0.10940174548696001,0.039291640452237236,-0.08798097336308475,-0.06161641323514318,-0.13834790355903898,-0.045954496074218504
2439,9.81277649999538,-0.001745231512265186,-0.03687046589037528,-0.020948941664603406,0.0644964748887225,0.040097698400095104,-0.034355543762536016,0.10914763738172978,0.038729095140988386,-0.08816320133729738,-0.06404475434797396,-0.13983040524689158,-0.04415029553208698
2440,9.8160535999923,-0.001745231512265186,-0.03687046589037528,-0.020948941664603406,0.06493732826923594,0.04025319282128304,-0.034712424190641404,0.1088837103268674,0.038160586245350944,-0.08833810505211592,-0.06647292956920421,-0.1412961421666742,-0.04233143620921684
2441,9.819822999997996,-0.0013367575397011024,-0.03656173191877869,-0.02112086356728237,0.06537709428602177,0.04040637611094774,-0.03506999711165292,0.10860996570031042,0.03758618216140268,-0.08850562562501808,-0.06890060666032696,-0.14274483869425872,-0.040498117743394596
2442,9.82396239999798,-0.0005206416376698109,-0.03570241443368197,-0.021702393064916135,0.06581573325429398,0.04055722455709385,-0.035428232553350314,0.1083264062237858,0.037005952394722666,-0.08866570498524852,-0.07132745259316468,-0.1441762224421634,-0.038650542838759044
2443,9.828348499999263,-0.00019538812304619054,-0.03540812389541998,-0.02184627429463257,0.06625320550337165,0.04070571473094036,-0.03578710031035795,0.10803303596584234,0.036419967547139845,-0.08881828588617816,-0.07375313360810201,-0.14559002432521476,-0.03678891724391364
2444,9.832103499997174,0.00014091392611300085,-0.03509630640359056,-0.02204457626664689,0.06668947138210991,0.04085182349133866,-0.03614656994750257,0.10772986034464876,0.035828299303216946,-0.08896331191757616,-0.0761773152726082,-0.1469859786253694,-0.03491344972942201
2445,9.835508799995296,0.00014091392611300085,-0.03509630640359056,-0.02204457626664689,0.06712449126434111,0.04099552798913625,-0.03650661080322069,0.10741688613055667,0.03523102041647331,-0.08910072751779212,-0.07859966254003758,-0.14836382305567614,-0.033024352064687935
2446,9.839574699988589,0.0005666167397899567,-0.03479790832308573,-0.02219678355173873,0.06755822555432553,0.04113680567148494,-0.036867191993015073,0.1070941214484273,0.03462820469535022,-0.08923047798584621,-0.081019839808696,-0.14972329882335877,-0.031121838994221145
2447,9.842937199995504,0.0011640443655004278,-0.03419739893039154,-0.02264531594038485,0.06799063469221095,0.04127563428609255,-0.03722828241296003,0.10676157577972147,0.034019926988922186,-0.08935250949342462,-0.083437510981161,-0.15106415069200196,-0.029206128213290494
2448,9.847111799987031,0.0015072611080323903,-0.03384082188836341,-0.022821324111125058,0.06842167915949975,0.04141199188541697,-0.03758985074325497,0.10641925996435116,0.03340626317235779,-0.0894667690967775,-0.08585233952384469,-0.15238612704282092,-0.027277440342966072
2449,9.851165899992338,0.0018651643041941604,-0.033498888689493585,-0.023010462468150274,0.0688513194845223,0.04154585683080161,-0.03795186545182579,0.10606718620229173,0.032787290132133905,-0.08957320474851692,-0.08826398852678632,-0.15368897993499683,-0.025335998904551953
2450,9.854827299990577,0.0018651643041941604,-0.033498888689493585,-0.023010462468150274,0.0692795162479164,0.041677207796551326,-0.03831429479797349,0.10570536805495408,0.03216308575100699,-0.08967176530931176,-0.09067212076366285,-0.15497246516506055,-0.023382030293411356
2451,9.858275199992931,0.0018651643041941604,-0.033498888689493585,-0.023010462468150274,0.06970623008811143,0.04180602377394793,-0.038677106836069605,0.10533382044631624,0.03153372889274557,-0.08976240055947705,-0.09307639875200482,-0.15623634232530623,-0.02141576375218622
2452,9.86163059998944,0.0018651643041941604,-0.033498888689493585,-0.023010462468150274,0.07013142170681655,0.04193228407520396,-0.039040269419298224,0.10495255966381363,0.030899299386627794,-0.08984506121045524,-0.09547648481360585,-0.15748037486121758,-0.019437431343413344
2453,9.864918399995076,0.0018651643041941604,-0.033498888689493585,-0.023010462468150274,0.07055505187451162,0.04205596833735388,-0.03940375020344421,0.10456160335898669,0.030259878011708093,-0.08991969891618694,-0.09787204113511322,-0.15870433012789067,-0.017447267921539382
2454,9.868218099989464,0.002328831192455034,-0.03321099040317672,-0.023112322765916533,0.07097708143594056,0.04217705652608151,-0.039767516650727086,0.10416097054788549,0.029615546480857038,-0.08998626628436873,-0.100262729828787,-0.15990797944543683,-0.015445511104337053
2455,9.871932699999888,0.0036486139239457257,-0.03175428332557782,-0.023944515830660734,0.07139747131560546,0.04229552893948277,-0.04013153603368021,0.10375068161123013,0.028966387424578546,-0.09004471688759572,-0.1026482129934151,-0.1610910981533502,-0.0134324012437252
2456,9.876045299999532,0.004022832483317083,-0.03136633997139201,-0.02416308069539579,0.07181618252326014,0.04241136621176272,-0.04049577543907474,0.10333075829432607,0.028312484374608673,-0.09009500527438595,-0.10502815277537186,-0.16225346566382343,-0.011408181395995429
2457,9.879397099997732,0.004022832483317083,-0.03136633997139201,-0.02416308069539579,0.07223317615940203,0.04252454931686591,-0.040860201771887976,0.10290122370673437,0.027653921747300293,-0.09013708698008449,-0.10740221142980722,-0.16339486551399507,-0.009373097291448161
2458,9.882717899992713,0.004022832483317083,-0.03136633997139201,-0.02416308069539579,0.0726484134207618,0.042635059572038905,-0.0412247817593155,0.10246210232169564,0.02699078482679799,-0.09017091853764439,-0.10977005138195368,-0.16451508541711396,-0.0073273973034411015
2459,9.88626599998679,0.004454816269848292,-0.031040801071794334,-0.02428528048023595,0.07306185560578987,0.042742878641324124,-0.04158948195482685,0.10201341997530729,0.02632315974800753,-0.09019645748828235,-0.11213133528853873,-0.16561391731260536,-0.005271332416853337
2460,9.889725099987118,0.004454816269848292,-0.031040801071794334,-0.02428528048023595,0.07347346412013889,0.042847988538984284,-0.04195426874226402,0.10155520386545347,0.025651133479364277,-0.09021366239200697,-0.11448572609928943,-0.1666911574150236,-0.0032051561959684036
2461,9.89309030000004,0.004454816269848292,-0.031040801071794334,-0.02428528048023595,0.07388320048214074,0.042950371632856615,-0.04231910833998231,0.10108748255048798,0.024974793805405154,-0.0902224928380175,-0.11683288711851703,-0.1677466062618774,-0.001129124751779785
2462,9.897063199998229,0.005162029770589869,-0.030336464799565206,-0.024691171065152225,0.0742910263282776,0.04305001064763617,-0.04268396680503299,0.10061028594767016,0.024294229309148718,-0.09022290945497091,-0.11917248206676823,-0.1687800687603142,0.0009565032912775808
2463,9.901335899994592,0.006221205819596537,-0.029215497299924523,-0.02522701459744709,0.07469690341864592,0.04314688866808732,-0.0430488100373871,0.10012364533135365,0.02360952935428819,-0.09021487392111506,-0.12150417514253022,-0.16979135423265052,0.003051466829165997
2464,9.9054080999922,0.006568555728351719,-0.028896510152982356,-0.025415745795117822,0.07510079364241289,0.04324098914218257,-0.04341360378419971,0.09962759333092756,0.022920784067202153,-0.09019834897428529,-0.12382763108397668,-0.17078027646073507,0.005155502312650019
2465,9.90944999999192,0.006955716052140376,-0.028502413667946244,-0.02558897312062087,0.07550265902326424,0.04333229588416789,-0.04377831364411406,0.09912216392850944,0.022228084318787724,-0.09017329842176187,-0.1261425152307422,-0.17174665372913273,0.007268343782263713
2466,9.913600599989875,0.0073714286065840314,-0.02810938693311396,-0.02576513061930273,0.07590246172484237,0.04342079307755405,-0.0441429050716051,0.09860739245638993,0.021531521706120972,-0.09013968714998585,-0.12844849358571195,-0.17269030886711675,0.00938972290383594
2467,9.917100899998331,0.0073714286065840314,-0.02810938693311396,-0.02576513061930273,0.07630016405617394,0.043506465278032994,-0.04450734338136165,0.09808331559422924,0.020831188533949514,-0.09009748113413107,-0.1307452328768133,-0.17361106928945788,0.011519369004569324
2468,9.920566699991468,0.0073714286065840314,-0.02810938693311396,-0.02576513061930273,0.0766957284770861,0.04358929741631841,-0.04487159375270703,0.09754997136600511,0.020127177796022244,-0.09004664744753046,-0.13303240061879637,-0.17450876703599838,0.013657009109668414
2469,9.925698199993349,0.008468221494663076,-0.026976790929295752,-0.02621746611631951,0.0770891176036103,0.04366927480090989,-0.04523562123405756,0.09700739913671293,0.01941958315626126,-0.08998715427095431,-0.1353096651749908,-0.17538323881000034,0.015802367979512396
2470,9.930157199996756,0.00885840557680168,-0.02660687944257284,-0.026341271170874463,0.0774802942133732,0.043746383120779955,-0.04559939074741818,0.09645563960881828,0.01870849892978105,-0.08991897090173868,-0.1375766958190262,-0.17623432601525799,0.01795516814736758
2471,9.934517099987715,0.009249191023231372,-0.026230938211532526,-0.02648786788313802,0.07786922125097333,0.04382060844798337,-0.04596286709291443,0.09589473481846233,0.017994020063759986,-0.08984206776276181,-0.1398331627965039,-0.17706187479196403,0.02011512995763464
2472,9.938769899992622,0.009559486144297894,-0.025903563204443567,-0.02660048485989888,0.07825586183334249,0.04389193724018793,-0.046326014953359966,0.09532472813141947,0.01727624211816911,-0.08975641641126599,-0.14207873738660587,-0.1778657360513207,0.022281971604625552
2473,9.942062399990393,0.009559486144297894,-0.025903563204443567,-0.02660048485989888,0.07864017925509081,0.04396035634312624,-0.04668879889885882,0.09474566423880784,0.01655526124636327,-0.08966198954752261,-0.14431309196362724,-0.17864576550888558,0.024455409171864985
2474,9.945830199998454,0.009559486144297894,-0.025903563204443567,-0.02660048485989888,0.0790221369938346,0.044025852992967976,-0.047051183391441875,0.09415758915255328,0.015831174175539735,-0.08955876102333798,-0.14653590005841838,-0.17940182371664357,0.026635156671910742
2475,9.951297599996906,0.010723143562197649,-0.024805538377330846,-0.02699060576859327,0.07940169871550602,0.04408841481861216,-0.047413132789736946,0.09356055020060688,0.015104078187069615,-0.0894467058503979,-0.14874683641972372,-0.18013377609379594,0.028820926086687768
2476,9.955403799991473,0.011066044574791465,-0.024503492975189823,-0.027111761525174773,0.0797788282796438,0.04414802984389889,-0.047774611353671746,0.09295459602191708,0.014374071096707294,-0.08932580020844894,-0.15094557707540313,-0.18084149295625765,0.031012427408330087
2477,9.959570299994084,0.011448362033870275,-0.024159283931769655,-0.027192823039892365,0.08015348974466395,0.04420468648974009,-0.0481355832492093,0.09233977656115662,0.01364125123468309,-0.08919602145331386,-0.15313179939352253,-0.18152484954485526,0.033209368680524966
2478,9.964095099989208,0.011850073051415983,-0.023809611062233314,-0.027313947315034757,0.08052564737310941,0.04425837357616876,-0.048496012553115184,0.09171614306320515,0.012905717425684454,-0.0890573481247388,-0.15530518214329986,-0.1821837260522183,0.03541145604035323
2479,9.967890599989914,0.012199523541774051,-0.023507034437440122,-0.02741764678399666,0.08089526563687782,0.04430908032430599,-0.048855863257756,0.09108374806738802,0.012167568968731016,-0.08890975995407009,-0.15746540555589295,-0.18281800764835726,0.03761839376061972
2480,9.971332999994049,0.012199523541774051,-0.023507034437440122,-0.02741764678399666,0.08126230922242657,0.044356796358245264,-0.049215099275928716,0.09044264540147247,0.011426905616948868,-0.08875323787175902,-0.1596121513850161,-0.18342758450492264,0.039829884292667816
2481,9.974678999991738,0.012199523541774051,-0.023507034437440122,-0.02741764678399666,0.08162674303595405,0.0444015117068536,-0.04957368444572013,0.08979289017542198,0.010683827557249424,-0.0885877640146926,-0.16174510296737168,-0.18401235181814007,0.04204562830967179
2482,9.979188999990583,0.012586618152758501,-0.02323614151464693,-0.027470296051300556,0.0819885322085565,0.04444321680548932,-0.0499315825353959,0.08913453877490923,0.009938435389918326,-0.08841332173334829,-0.16386394528288317,-0.1845722098304165,0.04426532475040052
2483,9.98438389999501,0.01366632508625816,-0.022322374392841886,-0.027898694127207396,0.08234764210135916,0.044481902497636255,-0.05028875724831824,0.08846764885458797,0.009190830108119802,-0.0882298955987712,-0.16596836501471665,-0.18510706385061187,0.04648867086344579
2484,9.988550499998382,0.01403177921564781,-0.022063765852083896,-0.028061965878687364,0.08270403831062104,0.04451756003645421,-0.0506451722278914,0.08779227933112425,0.008441113077321963,-0.08803747140937164,-0.1680580506090777,-0.1856168242729723,0.04871536225190825
2485,9.992812999989836,0.01441513453617894,-0.021732087388457645,-0.028158363195394855,0.08305768667281264,0.044550181086245345,-0.0510007910625343,0.08710849037598814,0.007689386014648482,-0.08783603619754109,-0.1701326923347694,-0.18610140659472005,0.05094509291853407
2486,9.997038699992116,0.014800645350767267,-0.02147327739949644,-0.028262135459259,0.08340855326966601,0.04457975772383591,-0.05135557729067929,0.08641634340800654,0.006935750968162125,-0.08762557823608465,-0.17219198234249838,-0.1865607314322968,0.05317755531129527
2487,10.001131499986514,0.015158324700783784,-0.021207209794984767,-0.028396165920310357,0.08375660443319591,0.04460628243987317,-0.05170949440579663,0.08571590108567827,0.0061803102960856495,-0.08740608704446831,-0.17423561472391477,-0.18699472453625612,0.0554124403694063
2488,10.004657299999964,0.015158324700783784,-0.021207209794984767,-0.028396165920310357,0.08410180675069089,0.04462974814003749,-0.05206250586144371,0.08500722729925206,0.0054231666459656535,-0.08717755339487915,-0.17626328557037274,-0.18740331680480243,0.05764943756976944
2489,10.008079699997324,0.015158324700783784,-0.021207209794984767,-0.028396165920310357,0.08444412706967326,0.044650148146169286,-0.052414575076338205,0.08429038716256881,0.0046644229337848625,-0.08693996931809618,-0.17827469303139723,-0.187786444295974,0.0598882349738413
2490,10.01161729999876,0.015158324700783784,-0.021207209794984767,-0.028396165920310357,0.0847835325028273,0.04466747619731048,-0.05276566543945423,0.08356544700466909,0.0039041823230283722,-0.0866933281091704,-0.18026953737284407,-0.18814404823846834,0.06212851927491236
2491,10.01584079999884,0.015599670935270656,-0.020936069394118483,-0.02848242667415671,0.08511999043289459,0.04468172645066048,-0.053115740315141234,0.08283247436116736,0.0031425482037093404,-0.08643762433291247,-0.18224752103474018,-0.18847607504110858,0.06436997584579143
2492,10.019617499987362,0.016678218525765634,-0.020156189973830143,-0.02896951248567936,0.0854534685175354,0.044692893482446476,-0.05346476304826488,0.08209153796539449,0.002379624171359637,-0.08617285382918662,-0.1842083486887906,-0.18878247630095024,0.06661228878688659
2493,10.02289199999359,0.01706063218333777,-0.01990951787701769,-0.0291011903260638,0.08578393469415506,0.04470097228870773,-0.0538126969693692,0.08134270773931011,0.0016155140059909824,-0.085899013718009,-0.1861517272955389,-0.18906320881002675,0.06885514097467417
2494,10.026389299993753,0.01706063218333777,-0.01990951787701769,-0.0291011903260638,0.0861113571846941,0.044705958285993996,-0.05415950539985927,0.08058605478418651,0.0008503216510321016,-0.08561610240444906,-0.1880773661611664,-0.18931823456073393,0.07109821411054786
2495,10.030362399993464,0.017491570602340873,-0.019730091819332808,-0.029201751792168704,0.08643570450038139,0.04470784731197803,-0.054505151657203335,0.07982165137106513,8.415119224742894e-05,-0.08532411958333198,-0.18998497699391723,-0.18954752074985476,0.07334118877003967
2496,10.034680999990089,0.018283624557808832,-0.01920406100502034,-0.0296453779401299,0.08675694544644913,0.04470663562598232,-0.054849599060153645,0.07904957093098694,-0.0006828931633571032,-0.08502306624374026,-0.19187427396013562,-0.18975103978122565,0.07558374445240468
2497,10.038554599988856,0.018666426502507435,-0.0189778081395026,-0.029753036349095895,0.08707504912680877,0.04470231990942009,-0.05519281093398494,0.07826988804499843,-0.0014507071086356735,-0.08471294467331297,-0.19374497373990257,-0.18992876926704613,0.07782555963056073
2498,10.042013699989184,0.018666426502507435,-0.0189778081395026,-0.029753036349095895,0.0873899849486871,0.044694897266150516,-0.055534750615749875,0.07748267843393439,-0.0022191862574060628,-0.08439375846234105,-0.19559679558225734,-0.19008069202783343,0.08006631180137443
2499,10.045691199993598,0.01910482738442601,-0.018673818930464926,-0.029898858887773692,0.0877017226272215,0.044684365222748226,-0.05587538145955059,0.07668801894797903,-0.0029882261655495256,-0.0840655125076574,-0.19742946135999068,-0.19020679609102487,0.08230567753628427
2500,10.050874900000052,0.019859647291389924,-0.018164711384779986,-0.030189844598127142,0.08801023219001297,0.04467072172868699,-0.05621466684182549,0.07588598755600742,-0.003757722352101551,-0.08372821301632098,-0.19924269562399619,-0.1903070746882299,0.08454333253225217
2501,10.0552033999993,0.02024211728653484,-0.017870525593573543,-0.030362128532649003,0.08831548398163605,0.04465396515643746,-0.05655257016665041,0.07507666333470872,-0.0045275703203280435,-0.08338186750909359,-0.20103622565716717,-0.1903815262511346,0.0867789516630337
2502,10.059459799987962,0.020641401424405306,-0.017607710901958618,-0.030544720571480333,0.08861744866810474,0.0446340943014791,-0.05688905487105315,0.07426012645749298,-0.005297665578781451,-0.08302648482370845,-0.2028097815278255,-0.19043015440606137,0.08901220903075824
2503,10.063555299988366,0.02103243624532012,-0.017317591628604197,-0.03065215889659107,0.08891609724129344,0.044611108382226455,-0.057224084430340647,0.07343645818318362,-0.006067903662331367,-0.08266207511792951,-0.2045630961426695,-0.19045296796718778,0.09124277801780958
2504,10.067750599991996,0.021392521249775417,-0.017043923960578095,-0.030834512155143132,0.08921140102331244,0.04458500703986987,-0.05755762236343797,0.07260574084449721,-0.006838180153164183,-0.0822886498724004,-0.20629590529922703,-0.1904499809284294,0.09347033133899814
2505,10.072168399987277,0.021805030427712112,-0.016735293424312205,-0.03101897906830756,0.08950333167083695,0.0445557903381307,-0.05788963223823824,0.07176805783631271,-0.00760839070174635,-0.08190622189328176,-0.2080079477378018,-0.19042121245399185,0.09569454109401522
2506,10.07632689998718,0.02217126878473151,-0.01645552006481007,-0.03121459634087442,0.089791861179389,0.04452345876293143,-0.058220077676963036,0.07092349360373207,-0.008378431047745867,-0.08151480531467624,-0.20969896519289968,-0.19036668686759653,0.09791507882016044
2507,10.080504999990808,0.02253780395649277,-0.016172998638523672,-0.031355927564110285,0.09007696188757142,0.04448801322198057,-0.0585489223615325,0.07007213362993428,-0.009148197040906607,-0.0811144156008398,-0.21136870244412295,-0.190286433640385,0.10013161554533204
2508,10.084525799989931,0.022919873448879368,-0.01587647701195042,-0.03150526228611613,0.09035860648125302,0.04444945504427287,-0.05887613003894403,0.06921406442382472,-0.009917584661870146,-0.08070506954817873,-0.21301690736651852,-0.19018048737750715,0.10234382184127011
2509,10.088685099995928,0.02330681939092067,-0.015590287881293017,-0.03165796154108759,0.09063676799770422,0.04440778597950499,-0.05920166452665892,0.06834937350748224,-0.010686490042939794,-0.08028678528703082,-0.2146433309803684,-0.19004888780340043,0.10455136787704275
2510,10.092118399988976,0.02330681939092067,-0.015590287881293017,-0.03165796154108759,0.09091141982968191,0.04436300819740716,-0.05952548971799621,0.06747814940340612,-0.011454809488781512,-0.07985958228322976,-0.2162477275004098,-0.18989167974576712,0.10675392347276522
2511,10.095611599987024,0.02330681939092067,-0.015590287881293017,-0.03165796154108759,0.09118253572946292,0.044315124286991005,-0.05984756958753259,0.06660048162156501,-0.01222243949705642,-0.07942348133945176,-0.21782985438447325,-0.18970891311825616,0.10895115815354235
2512,10.09983699998702,0.02374168664396874,-0.015363374504085068,-0.03179399910917327,0.09145008981282499,0.04426413725571391,-0.060167868196507254,0.06571646064625043,-0.0129892767789797,-0.07897850459634387,-0.21938947238152665,-0.18950064290185736,0.11114274120362352
2513,10.105290699997568,0.024865395915740114,-0.014510847553678399,-0.032420890160059376,0.09171405656297492,0.04421005052856045,-0.06048634969823097,0.06482617792273679,-0.013755218279800687,-0.07852467553343262,-0.2209263455791131,-0.1892669291250158,0.11332834172075944
2514,10.109637599991402,0.025225748018983512,-0.014254231898267087,-0.032627767045089684,0.09197441083442279,0.044152867947041076,-0.06080297834349837,0.0639297258437507,-0.014520161199199032,-0.0780620189698119,-0.2224402414501703,-0.18900783684247482,0.11550762867075072
2515,10.11366599999019,0.0256195132527979,-0.0139672704330806,-0.03282467151318689,0.09223112785680171,0.04409259376810835,-0.06111771848600254,0.06302719773575186,-0.015284003011591723,-0.07759056106460886,-0.22393093089921995,-0.1887234361128565,0.11768027094217663
2516,10.11716749999323,0.0256195132527979,-0.0139672704330806,-0.03282467151318689,0.09248418323863221,0.04402923266299106,-0.06143053458775105,0.06211868784502797,-0.016046641486345842,-0.07711032931722736,-0.22539818830791533,-0.18841380197498928,0.11984593740129344
2517,10.120546499994816,0.0256195132527979,-0.0139672704330806,-0.03282467151318689,0.0927335529710305,0.043962789715946395,-0.061741391224482266,0.06120429132360663,-0.016807974707892016,-0.07662135256736782,-0.22684179157993603,-0.18807901442299227,0.12200429694709194
2518,10.124095199993462,0.02606512727957306,-0.013647162681693654,-0.03295302025509419,0.09297921343136019,0.043893270422930813,-0.062050253091080906,0.060284104214986596,-0.017567901095733564,-0.07612366099482289,-0.22826152218521795,-0.1877191583801252,0.12415501856650356
2519,10.128076299995882,0.026752286721162487,-0.013014415978936685,-0.03347150522508049,0.09322114138682668,0.04382068069019032,-0.06235708500699234,0.05935822343969099,-0.018326319424346333,-0.07561728611904789,-0.22965716520350687,-0.18733432367141445,0.12629777138974413
2520,10.132361799987848,0.02713475930771884,-0.012690490277777794,-0.03363015117190351,0.09345931399801319,0.04374502683277079,-0.06266185192163473,0.058426746780645,-0.01908312884296426,-0.07510226079850606,-0.2310285093672247,-0.18692460499506502,0.128432224745784
2521,10.136412499996368,0.027526535468729126,-0.012396274102307491,-0.03385949053590181,0.09369370882235768,0.043666315572948776,-0.06296451891980803,0.05748977286838143,-0.01983822889524577,-0.07457861922978806,-0.2323753471036364,-0.18649010189266946,0.13055804821793404
2522,10.139992099997473,0.027526535468729126,-0.012396274102307491,-0.03385949053590181,0.09392430381756994,0.04358455403858338,-0.06326505122709888,0.05654740116607686,-0.02059151953881621,-0.07404639694650529,-0.23369747457630827,-0.1860309187182252,0.1326749116995365
2523,10.14361439998902,0.02796095166023083,-0.012100627819991433,-0.03412508713858564,0.09415107734498811,0.04349974976138961,-0.06356341421528088,0.05559973195442121,-0.021342901164681505,-0.0735056308179563,-0.234994691725847,-0.18554716460597184,0.13478248544974947
2524,10.147306799990474,0.028670668335072192,-0.011489226276207718,-0.03457326877750767,0.09437400817287425,0.043411910675133794,-0.06385957340770883,0.05464686631632341,-0.022092274616508326,-0.0729563590475659,-0.2362668023099096,-0.1850389534370602,0.1368804401494138
2525,10.151165799994487,0.028670668335072192,-0.011489226276207718,-0.03457326877750767,0.0945930754796488,0.043321045113751684,-0.0641534944847064,0.05368890612145588,-0.022839541209765935,-0.07239862117109687,-0.23751361394247317,-0.18450640380506564,0.1389684469569912
2526,10.155136599991238,0.029112288505194886,-0.01119762605033593,-0.03472295017627033,0.09480825885706279,0.0432271618093898,-0.06444514328894586,0.05272595401064102,-0.023584602750725152,-0.07183245805463444,-0.23873493813235344,-0.18394963898035807,0.141046177564563
2527,10.159361199999694,0.029873399257408173,-0.01052669015525798,-0.03516316805354037,0.0950195383133071,0.04313026989037039,-0.06473448583081891,0.05175811338008259,-0.024327361555309738,-0.071257911892343,-0.23993059032096184,-0.18336878687334107,0.14311330425387778
2528,10.162756999998235,0.029873399257408173,-0.01052669015525798,-0.03516316805354037,0.09522689427605832,0.043030378879080504,-0.0650214882937973,0.05078548836544547,-0.02506772046779578,-0.07067502620399511,-0.24110038991929056,-0.18276397999657362,0.14516949995243614
2529,10.169770499996956,0.030321696513824575,-0.010292877656657299,-0.03534338287979827,0.0954303075954603,0.042927498689785834,-0.06530611703978227,0.04980818382578648,-0.025805582879354697,-0.07008384583227202,-0.24224416034411583,-0.18213535542578776,0.14721443828960165
2530,10.173787499996251,0.031018146910515666,-0.009660137815311793,-0.0358435110143331,0.09562975954704084,0.04282163962636993,-0.0655883386144421,0.04882630532733925,-0.026540852746435386,-0.06948441693983547,-0.2433617290534099,-0.18148305475981621,0.1492477936527268
2531,10.177247899991926,0.031398297070601405,-0.009315950264409449,-0.036042777075038904,0.09582523183456253,0.042712812379999465,-0.06586811975253665,0.04783995912715641,-0.02727343460898115,-0.06887678700617078,-0.2444529275809519,-0.18080722407944394,0.15126924124328356
2532,10.181071299986796,0.03175678921423311,-0.009021881535629682,-0.03627587130758401,0.09601670659280728,0.04260102802671644,-0.06614542738322807,0.046849252156612245,-0.028003233608477136,-0.06826100482420097,-0.2455175915701281,-0.18010801390519704,0.15327845713298757
2533,10.184595799990348,0.03210896515275107,-0.008753843951978396,-0.03647675377929426,0.09620416639029396,0.04248629802495803,-0.06642022863537701,0.045854292004769204,-0.028730155505824077,-0.0676371204966723,-0.24655556080691055,-0.1793855791540838,0.15527511831990465
2534,10.18875949998619,0.03252291040440244,-0.008417943253583943,-0.0367087091611851,0.09638759423192822,0.0423686342130048,-0.06669249084282385,0.04485518690161165,-0.029454106699034005,-0.06700518543231121,-0.2475666792520065,-0.17864007909530183,0.1572589027845282
2535,10.19242989999475,0.03252291040440244,-0.008417943253583943,-0.0367087091611851,0.09656697356158393,0.042248048806358095,-0.06696218154965429,0.043852045701150186,-0.03017499424074364,-0.06636525234175274,-0.24855079507216865,-0.1778716773049265,0.15922948954581598
2536,10.196877099995618,0.03321698047663929,-0.0079070868151343,-0.037230906121033594,0.09674228826461514,0.04212455439504726,-0.06722926851544803,0.04284497786439977,-0.03089272585554142,-0.06571737523324025,-0.24950776067065772,-0.17708054161959508,0.1611865587171754
2537,10.201044299989007,0.03364179690199012,-0.007604100640259341,-0.037479196235712886,0.09691352267029836,0.04199816394086761,-0.06749371972050909,0.04183409344223492,-0.0316072099571041,-0.06506160940809706,-0.2504374327168501,-0.17626684408920165,0.163129791562387
2538,10.205026599986011,0.03400486204771414,-0.007358908934802437,-0.0377145000899526,0.0970806615542042,0.0418688907745499,-0.06775550337107718,0.04081950305812521,-0.03231835566513891,-0.06439801145597,-0.2513396721749828,-0.1754307609286187,0.1650588705514537
2539,10.209341499998118,0.03435518784702383,-0.007168267185193208,-0.03796165568534732,0.09724369014049798,0.041736748592862,-0.06801458790451909,0.03980131789075463,-0.03302607282212719,-0.063726639249845,-0.25221434433202816,-0.174572472468462,0.16697347941636442
2540,10.213671499994234,0.03472990405975738,-0.0069698725580947885,-0.03825667678904792,0.09740259410416854,0.041601751455643474,-0.06827094199449961,0.0387796496565277,-0.033730272009865836,-0.06304755194083504,-0.2530613188246888,-0.17369216310491564,0.16887330320676003
2541,10.217795499993372,0.03510298218264061,-0.006809795281129167,-0.038563060107725894,0.09755735957318448,0.04146391378277384,-0.06852453455613118,0.037754610591965984,-0.03443086456580266,-0.062360809952741285,-0.2538804696655049,-0.17279002124863424,0.17075802834549147
2542,10.221910399995975,0.03549462914437157,-0.006613487580856214,-0.03884934846746195,0.09770797313057757,0.04132325035107544,-0.06877533475110159,0.03672631343599849,-0.03512776259916204,-0.06166647497638754,-0.25467167526806833,-0.17186623927273884,0.17262734268405805
2543,10.22598289999587,0.035866881195207666,-0.006456890930997224,-0.03914022537571879,0.09785442181645265,0.04117977629115177,-0.06902331199277943,0.03569487141214971,-0.03582087900685714,-0.060964609963729245,-0.2554348184713365,-0.17092101345992358,0.174480935557915
2544,10.230233499998576,0.03625983343173868,-0.006312727317508145,-0.03944312813980918,0.09799669312992375,0.04103350708416191,-0.06926843595129631,0.034660398210628954,-0.03651012748918492,-0.06025527912173753,-0.25616978656303924,-0.16995454394869028,0.1763184978416393
2545,10.234441199994762,0.036646903662973455,-0.006129890523963096,-0.039735127483056194,0.09813477503097587,0.04088445855853198,-0.06951067655860489,0.03362300797032467,-0.03719542256530044,-0.05953854790605886,-0.2568764713021709,-0.16896703467872817,0.1781397220039414
2546,10.238557599994238,0.03699892355298617,-0.006003342880014536,-0.04009281370878499,0.09826865594225183,0.04073264688660425,-0.06975000401351189,0.03258281526070735,-0.03787667958846692,-0.058814483014450976,-0.25755476894056034,-0.16795869333545657,0.17994430216251162
2547,10.242981799994595,0.03741932170739843,-0.005857484064283921,-0.04040659015404508,0.09839832475076432,0.040578088581224435,-0.0699863887866851,0.031539935063644886,-0.038553814761078394,-0.058083152379995936,-0.2582045802435119,-0.16692973129374838,0.18173193413869007
2548,10.246914499992272,0.03783228990387213,-0.005721303082952361,-0.040788662423971465,0.09852377080953305,0.04042080049226818,-0.07021980162563399,0.03049448275513423,-0.039226745149451625,-0.05734462516409063,-0.2588258105095097,-0.165880363560852,0.18350231551194865
2549,10.250990499989712,0.03820827575954813,-0.005573560642080124,-0.041111115337394546,0.09864498393914671,0.040260799803107795,-0.07045021355966326,0.029446574086953094,-0.03989538869838386,-0.056598971749215854,-0.25941836958898096,-0.16481080871853007,0.1852551456741745
2550,10.255387400000473,0.038651530001363565,-0.00545369442508356,-0.04144736599441217,0.09876195442924976,0.04009810402702048,-0.0706775959047985,0.028396325168235457,-0.04055966424547328,-0.05584626373148458,-0.25998217190211165,-0.16372128886443346,0.18699012588374392
2551,10.259493799996562,0.03908483826342135,-0.005312864185634945,-0.04176161342537457,0.09887467303995347,0.03993273100353891,-0.07090192026868258,0.027343852446974733,-0.041219491535199014,-0.0550865739129704,-0.2605171364557071,-0.16261202955272913,0.18870695931937517
2552,10.263670399988769,0.03953495787384642,-0.005143687369092336,-0.04209750508473375,0.09898313100317102,0.039764698894745376,-0.07112315855544236,0.02628927269145846,-0.04187479123275792,-0.05431997629381722,-0.26102318685909154,-0.16148325973400046,0.1904053511337488
2553,10.267826199997216,0.039971077271762114,-0.00503891920375343,-0.04247457017338025,0.0990873200238762,0.039594026181510235,-0.0713412829705243,0.025232702971638425,-0.042525484937655164,-0.05354654606413134,-0.2615002513390412,-0.1603352116944388,0.19208500850688454
2554,10.271858899999645,0.04042382579111342,-0.00483610364868753,-0.04281630381088368,0.09918723228128554,0.03942073165967581,-0.07155626602549828,0.02417426064044012,-0.04317149519704564,-0.052766359595656585,-0.26194826275374683,-0.15916812099434546,0.19374564069926525
2555,10.27620009999373,0.040836517767528044,-0.0046549488630515745,-0.043132296771767095,0.09928286042996377,0.039244834436186635,-0.07176808054282892,0.02311406331501537,-0.043812745518823554,-0.051979494433233776,-0.2623671586058005,-0.157982226405964,0.1953869591046969
2556,10.28030579999904,0.04123367977855741,-0.004496328410931859,-0.043425007988910504,0.0993741976008527,0.039066353925167205,-0.07197669966061365,0.022052228857942127,-0.0444491603844572,-0.05118602928604559,-0.2627568810542036,-0.15677776985066055,0.19700867730289462
2557,10.284407499988449,0.041732043333055344,-0.004262279412913129,-0.0437851242539345,0.09946123740222361,0.03888530984394832,-0.07218209683728621,0.020988875358375438,-0.04508066526156631,-0.050386044018648,-0.2631173769253925,-0.15555499633547215,0.19861051111178438
2558,10.288547299991478,0.04214855309591237,-0.004073513032205025,-0.04408685251743788,0.09954397392055328,0.03870172220904321,-0.07238424585628471,0.019924121113153528,-0.0457071866162396,-0.04957961964178938,-0.26344859772327944,-0.1543141538890413,0.20019217863950894
2559,10.292762599987327,0.04254291944405705,-0.0038585523481208493,-0.04441674527089595,0.09962240172132354,0.03851561133207425,-0.07258312083068345,0.01885808460786311,-0.04632865192508998,-0.04876683830301861,-0.26375049963830377,-0.15305549349695827,0.20175340033612735
2560,10.296947099996032,0.04290586311750648,-0.003680556660291617,-0.04468165465979381,0.0996965158497446,0.03832699781565148,-0.07277869620778751,0.017790884497868004,-0.04694498968704518,-0.04794778327708351,-0.26402304355549067,-0.15177926903653027,0.20329389904499706
2561,10.30117569999129,0.0433700448702812,-0.0034776055243828895,-0.04500036901735141,0.09976631183140204,0.03813590254920389,-0.07297094677368901,0.01672263958930505,-0.04755612943487153,-0.047122538956121084,-0.26426619506151483,-0.1504857372109973,0.20481340005382875
2562,10.304593999986537,0.0433700448702812,-0.0034776055243828895,-0.04500036901735141,0.09983178567282766,0.037942346704764714,-0.07315984765778413,0.01565346882005134,-0.04816200174642905,-0.046291190839641075,-0.26447992445076496,-0.14917515748321458,0.20631163114540407
2563,10.308158399988317,0.0433700448702812,-0.0034776055243828895,-0.04500036901735141,0.09989293386199367,0.03774635173271194,-0.0733453743372497,0.014583491240666723,-0.04876253825565561,-0.045453825524304055,-0.264664206730407,-0.14784779200882184,0.20778832264794656
2564,10.31223539999337,0.04400194655198903,-0.003260221277640734,-0.04525631808020035,0.09994975336873073,0.03754793935746509,-0.07352750264147857,0.013512825995315683,-0.049357671663278424,-0.0446105306934954,-0.2648190216244426,-0.1465039055689191,0.2092432074851354
2565,10.31746189999103,0.044982457420479655,-0.0025653133535075987,-0.04627681385992461,0.10000224164506924,0.03734713157313962,-0.07370620875647362,0.012441592302672735,-0.04994733574725093,-0.04376139510669675,-0.26494435357676016,-0.1451437655022683,0.21067602122575252
2566,10.321779199992308,0.04530269513858225,-0.002382290978091257,-0.04658866734085781,0.10005039662550409,0.03714395063916008,-0.07388146922919908,0.011369909436815456,-0.05053146537291297,-0.042906508588656266,-0.26504019175317906,-0.14376764163704167,0.21208650213295352
2567,10.32533509998757,0.04530269513858225,-0.002382290978091257,-0.04658866734085781,0.10009421672718255,0.03693841907583335,-0.07405326097188808,0.010297896708109221,-0.0511099965028727,-0.042045962018359584,-0.2651065300424842,-0.14237580622213641,0.21347439121315248
2568,10.328766799997538,0.04530269513858225,-0.002382290978091257,-0.04658866734085781,0.10013370085001515,0.03673055965988306,-0.07422156126630525,0.00922567344408776,-0.05168286620660867,-0.041179847317802894,-0.2651433670564507,-0.14096853385807545,0.214839432264511
2569,10.332928099989658,0.04594876138481975,-0.0022714160587720875,-0.0467621038327156,0.10016884837670977,0.03652039541994652,-0.07438634776796371,0.008153358970333596,-0.05225001266979066,-0.040308257440569574,-0.26515070612885744,-0.13954610142751397,0.21618137192502193
2570,10.337360599995009,0.046647867871595965,-0.0018671164034267992,-0.047502658188878964,0.10019965917272894,0.03630794963203502,-0.0745475985102958,0.0070810725913624615,-0.052811375203317926,-0.039431286360211926,-0.2651285553134873,-0.13810878802537116,0.2174999597201788
2571,10.342592199987848,0.04735369774346564,-0.0015650567329490474,-0.04822130430299289,0.10022613358617032,0.03609324581495881,-0.0747052919087766,0.006008933571515788,-0.053366894252073305,-0.038549029058439564,-0.2650769273811154,-0.13665687488860612,0.21879494811022135
2572,10.347148899993044,0.04779449477447158,-0.0014156342107666242,-0.048553257500377436,0.10024827244757008,0.035876307725717684,-0.07485940676499946,0.004937061115865452,-0.05391651140339187,-0.03766158151311626,-0.26499583981548486,-0.13519064532565794,0.2200660925369486
2573,10.350838099999237,0.04819605683744106,-0.0012448017259207803,-0.048899495812782884,0.10026607706962953,0.03565715935485846,-0.07500992227070201,0.003865574351134929,-0.05446016939524299,-0.036769040686066845,-0.26488531480827066,-0.1337103846455694,0.22131315147009115
2574,10.355141499996536,0.04860222923433848,-0.0011579682148768668,-0.04929554579992194,0.1002795492468653,0.03543582492180034,-0.07515681801174216,0.0027945923066409525,-0.05499781212412444,-0.03587150451069619,-0.2647453792530315,-0.13221638008681336,0.22253588645323508
2575,10.359802899998613,0.049117256354,-0.0010439443874702991,-0.0496107083843218,0.10028869125518287,0.035212328870129275,-0.07530007397202336,0.0017242338952597853,-0.05552938465266752,-0.03496907187942199,-0.2645760647381515,-0.13070892074584115,0.22373406214928857
2576,10.363811199989868,0.049610281992135845,-0.0009746448404532927,-0.04997941413236853,0.10029350585137346,0.03498669586286257,-0.0754396705373687,0.0006546178944221871,-0.05605483321695173,-0.03406184263092313,-0.26437740753877226,-0.12918829750537247,0.22490744638548305
2577,10.367376999987757,0.049610281992135845,-0.0009746448404532927,-0.04997941413236853,0.10029399627253445,0.034758950777684684,-0.07557558849934302,-0.0004141370728588146,-0.05657410523352832,-0.03314991753720559,-0.26414944860771705,-0.12765480296244727,0.22605581019789983
2578,10.370633699989412,0.049610281992135845,-0.0009746448404532927,-0.04997941413236853,0.10029016623541365,0.03452911870215537,-0.07570780905902223,-0.0014819125569232395,-0.05708714930615164,-0.032233398290487984,-0.26389223356540936,-0.1261087313562592,0.2271789278755148
2579,10.373990599997342,0.049610281992135845,-0.0009746448404532927,-0.04997941413236853,0.10028201993567695,0.034297224928891444,-0.07583631383070914,-0.0025485903003584494,-0.05759391523221822,-0.03131238748990885,-0.2636058126887878,-0.1245503784957899,0.22827657700375342
2580,10.377952699986054,0.050307948770898614,-0.0009330661663047785,-0.05013342206536572,0.10026956204709953,0.0340632949507233,-0.07596108484559509,-0.003614052256848333,-0.05809435400891277,-0.03038698862805781,-0.26329024089922026,-0.1229800416872637,0.22934853850754783
2581,10.382305999999517,0.051635464154907953,-0.0007006654266866509,-0.0514048392939326,0.10025279772068088,0.03382735445582746,-0.07608210455536667,-0.004678180609973301,-0.05858841783906038,-0.029457306077332872,-0.2629455777494206,-0.1213980196614415,0.23039459669388881
2582,10.386755499988794,0.05198355447759987,-0.000491715398050128,-0.0518550677307793,0.10023173258368435,0.03358942932283641,-0.07619935583575664,-0.005740857791957027,-0.05907606013668444,-0.02852344507612584,-0.2625718874093713,-0.11980461250077339,0.231414539293865
2583,10.390691499997049,0.052401694644777376,-0.0003992680034315007,-0.05231767900291106,0.10020637273860054,0.03334954561592688,-0.07631282199003818,-0.006801966502355882,-0.059557235532269694,-0.027585511714838317,-0.26216923865125497,-0.11820012156642874,0.23240815750418176
2584,10.394218199988243,0.052401694644777376,-0.0003992680034315007,-0.05231767900291106,0.10017672476203461,0.033107729579888036,-0.07642248675246176,-0.007861389726687006,-0.060031899877730104,-0.02664361292173041,-0.2617377048333985,-0.11658484942522315,0.23337524602815254
2585,10.39838639998925,0.053195948221359285,-0.0004143396054113841,-0.052505673600534014,0.10014279570351718,0.03286400763517056,-0.07652833429163385,-0.008919010754990993,-0.06050001025108105,-0.02569785644860452,-0.26127736388323247,-0.11495909977646165,0.23431560311615526
2586,10.402127099994686,0.054149246211513125,-0.0003279125078637429,-0.053328160576689265,0.10010459308423904,0.03261840637291794,-0.07663034921383703,-0.00997471320032517,-0.060961524960815625,-0.024748350856326214,-0.26078829827927247,-0.11332317737871697,0.235229030605546
2587,10.405557999998564,0.05460635724964752,-0.00015911826889351268,-0.05383799075100308,0.10006212489571006,0.032370952549981104,-0.07672851656629098,-0.01102838101718347,-0.061416403549984684,-0.02379520550018449,-0.2602705950321263,-0.11167738797656174,0.2361153339600231
2588,10.409760299997288,0.0551144417694797,-8.847146935566123e-05,-0.0542362154989449,0.10001539959834266,0.03212167308391786,-0.07682282184035344,-0.012079898519838882,-0.061864606799980716,-0.02283853051509376,-0.25972434566453373,-0.11002203822727312,0.23697432230843404
2589,10.413964999999736,0.055651282412579224,-4.760015019629948e-05,-0.054631676442349814,0.09996442611996006,0.03187059504797834,-0.0769132509746609,-0.013129150400604426,-0.0623060967340256,-0.02187843680063989,-0.2591496461904419,-0.1083574356275292,0.23780580848302005
2590,10.417916399994285,0.056208707849589694,-2.194668306233034e-05,-0.05503176922832939,0.0999092138542299,0.031617745666077765,-0.07699979035820831,-0.014176021748008718,-0.06274083662036227,-0.02091503600597269,-0.2585465970931238,-0.10668388844011607,0.23860960905709216
2591,10.421283799994852,0.056208707849589694,-2.194668306233034e-05,-0.05503176922832939,0.09984977265902335,0.031363152307757776,-0.07708242683336669,-0.015220398064882238,-0.06316879097515084,-0.01994844051454725,-0.2579153033023464,-0.10500170562066448,0.2393855443821325
2592,10.424683699995512,0.056208707849589694,-2.194668306233034e-05,-0.05503176922832939,0.09978611285470033,0.031106842483137193,-0.07716114769883814,-0.016262165286350452,-0.06358992556506954,-0.01897876342871664,-0.2572558741705961,-0.10331119674443363,0.2401334386243129
2593,10.428013999990071,0.056208707849589694,-2.194668306233034e-05,-0.05503176922832939,0.09971824522232142,0.030848843837853485,-0.07723594071254797,-0.01730120979772987,-0.06400420740962069,-0.01800611855417841,-0.2565684234483664,-0.10161267193316058,0.2408531198004251
2594,10.431478999991668,0.056208707849589694,-2.194668306233034e-05,-0.05503176922832939,0.09964618100178677,0.03058918414799622,-0.07730679409447339,-0.018337418452323156,-0.0644116047831417,-0.017030620384277235,-0.2558530692585164,-0.09990644178199372,0.24154441981321645
2595,10.434617299993988,0.056208707849589694,-2.194668306233034e-05,-0.05503176922832939,0.09956993188990253,0.030327891315033544,-0.07737369652940784,-0.01937067858910946,-0.06481208721652144,-0.016052384084166392,-0.2551099340697061,-0.09819281728652865,0.2422071744861273
2596,10.43864229999599,0.05708642954708591,-1.6795505755431463e-05,-0.05526080718861696,0.09948951003837525,0.03006499336073288,-0.07743663716966043,-0.020400878050326234,-0.06520562549862252,-0.015071525474830516,-0.2543391446689156,-0.09647210976996427,0.24284122359742266
2597,10.442775199990136,0.059978716421787724,0.000400763245246032,-0.05724407862687758,0.09940492805173448,0.02980051842207686,-0.07749560563768944,-0.021427905198938665,-0.06559219167741008,-0.014088161016972092,-0.25354083213305517,-0.09474463081039701,0.24344641091371252
2598,10.446072399994591,0.059978716421787724,0.000400763245246032,-0.05724407862687758,0.09931619898518444,0.029534494746175588,-0.07755059202866989,-0.022451648935993045,-0.06597175906078753,-0.013102407794764145,-0.25271513179967175,-0.09301069216827054,0.244022584222856
2599,10.449485499993898,0.059978716421787724,0.000400763245246032,-0.05724407862687758,0.09922333634238534,0.029266950685176384,-0.0776015869129947,-0.02347199871785035,-0.06634430221713924,-0.012114383499471642,-0.2518621832367601,-0.09127060571399892,0.24456959536624417
2600,10.452903999990667,0.059978716421787724,0.000400763245246032,-0.05724407862687758,0.09912635407316435,0.02899791469117226,-0.07764858133870879,-0.024488844573296333,-0.06670979697558112,-0.011124206412944185,-0.2509821302116866,-0.08952468335578052,0.24508730027045647
2601,10.456565399988904,0.06057228207160566,0.0004129251921606231,-0.05771882231630036,0.09902526657115654,0.028727415311110196,-0.07769156683387575,-0.02550207712052455,-0.06706822042591994,-0.010131995390982482,-0.2500751206592344,-0.08777323696761977,0.245575558978286
2602,10.460332099988593,0.06210476359916878,0.0008010696210914402,-0.059293961823909065,0.09892008867137646,0.028455481181700496,-0.07773053540887605,-0.026511587583988794,-0.06741955091832243,-0.009137869846581185,-0.24914130664877718,-0.08601657831757395,0.24603423567913
2603,10.463987099996302,0.06282198217597126,0.0008826387528523276,-0.059677386326448346,0.09881083564772125,0.0281821410243284,-0.0777654795586364,-0.02751726781112141,-0.06776376806269525,-0.008141949733050758,-0.24818084435059218,-0.08425501899624206,0.2464631987387398
2604,10.46782359998906,0.06347151359708265,0.0009576960839355504,-0.06017486340644633,0.09869752321040592,0.027907423639968936,-0.0777963922647897,-0.028519010288913932,-0.06810085272777734,-0.007144355527021041,-0.24719389400132089,-0.08248887034551226,0.24686232072832617
2605,10.472149799999896,0.0640870528835802,0.0010173329741998585,-0.06055578001504363,0.0985801675033315,0.02763135790410616,-0.07782326699776483,-0.029516708160356505,-0.06843078703994566,-0.0061452082113291956,-0.2461806198685888,-0.08071844338758483,0.24723147845301366
2606,10.476115299999949,0.0647701922747834,0.0011477166507684487,-0.06102609991247196,0.09845878510138674,0.027353972761658032,-0.07784609771880609,-0.030510255240732472,-0.0687535543817356,-0.00514462925779471,-0.24514119021479328,-0.07894404875428714,0.24757055297964073
2607,10.48038729999098,0.06538052852933135,0.0012022276650756397,-0.06152125389264765,0.09833339300768393,0.027075297221908,-0.07786487888192169,-0.031499546033764814,-0.069069139390077,-0.004142740609884131,-0.24407577726006888,-0.077165996616697,0.24787942966390114
2608,10.484580099990126,0.0660050906211215,0.0012490020998764846,-0.061993986307262716,0.09820400865072934,0.02679536035344447,-0.0778796054357609,-0.032484475747611166,-0.06937752795424681,-0.003139664665268247,-0.24298455714443976,-0.0753845966150905,0.2481579981768231
2609,10.48816639999859,0.0660050906211215,0.0012490020998764846,-0.061993986307262716,0.09807064988152968,0.026514191279109124,-0.07789027282541951,-0.03346494031070399,-0.06967870721353946,-0.0021355242582744615,-0.2418677098891687,-0.07360015778923071,0.24840615253058304
2610,10.49162939999951,0.0660050906211215,0.0012490020998764846,-0.061993986307262716,0.09793333497063476,0.026231819170955267,-0.07789687699417348,-0.03444083638743255,-0.06997266555465591,-0.0011304426422370742,-0.24072541935731448,-0.07181298850901295,0.2486237911036517
2611,10.49642889999086,0.06815044529590389,0.0015943278739263783,-0.06319021995791183,0.09779208260511728,0.025948273245217306,-0.07789941438514071,-0.03541206139366341,-0.07025939260881275,-0.00012454347174820047,-0.23955787321350894,-0.0700233964054825,0.2488108166652695
2612,10.500929099987845,0.06865039908847735,0.0017508323558216026,-0.06376801836306542,0.0976469118854905,0.025663582757292594,-0.07789788194287008,-0.036378513512096346,-0.07053887924857256,0.0008820492151879182,-0.23836526288296528,-0.06823168830223963,0.24896713639924808
2613,10.50523379999504,0.06921908288602344,0.001875299144315854,-0.0642426001267479,0.09749784232256507,0.025377776996736743,-0.07789227711485774,-0.03734009170745243,-0.07081111758439737,0.0018892110150944292,-0.23714778350972934,-0.06643817014724694,0.24909266192709673
2614,10.50932239998656,0.06982383446616142,0.001976306222716536,-0.06472152687602924,0.0973448938342452,0.0250908852822734,-0.07788259785299018,-0.03829669574149129,-0.0710761009609273,0.0028968171770524308,-0.23590563391418684,-0.06464314694505376,0.24918730933047067
2615,10.513548299990362,0.07049169795145585,0.0020472068472112558,-0.0651950476857472,0.0971880867422653,0.024802936956819573,-0.07786884261491339,-0.039248226187854694,-0.07133382395298626,0.003904742620819806,-0.23463901654983907,-0.06284692268945244,0.24925099917293944
2616,10.51788659999147,0.07118649974912707,0.002155510071019263,-0.06564420086324035,0.09702744176886793,0.024513961382527618,-0.07785101036532771,-0.04019458444673347,-0.07158428236131688,0.004912861955035539,-0.23334813745935937,-0.06104980029658095,0.2492836565210722
2617,10.52203519998875,0.07179075001619561,0.0022550631579531066,-0.06612226290743192,0.09686298003342372,0.024223987935844966,-0.07782910057720759,-0.04113567275935487,-0.07182747320804653,0.00592104949550671,-0.2320332062299427,-0.059252081538486406,0.2492852109648396
2618,10.526253999996698,0.07240730202300578,0.0023664377516643266,-0.0666010233239621,0.09669472304899375,0.02393304600259268,-0.07780311323294646,-0.04207139422228728,-0.07206339473188637,0.006929179283575373,-0.23069443594796205,-0.05745406697716389,0.24925559663732905
2619,10.530300099999296,0.0730437540828524,0.0024084366939483496,-0.06706509472266309,0.09652269271883536,0.023641164973063983,-0.07777304882542634,-0.04300165280155931,-0.07229204638306543,0.00793712510456252,-0.2293320431529444,-0.055656055899084435,0.24919475223377238
2620,10.53370799998811,0.0730437540828524,0.0024084366939483496,-0.06706509472266309,0.09634691133285245,0.02334837423714396,-0.07773890835901208,-0.0439263533465905,-0.07251342881800196,0.008944760506286328,-0.22794624779087913,-0.05385834625022651,0.24910262102988348
2621,10.537045999997645,0.0730437540828524,0.0024084366939483496,-0.06706509472266309,0.09616740156399099,0.023054703179451425,-0.07770069335047017,-0.04484540160393068,-0.07272754389371476,0.009951958817651867,-0.22653727316687203,-0.05206123457162487,0.2489791508995029
2622,10.54044939999585,0.0730437540828524,0.0024084366939483496,-0.06706509472266309,0.09598418646458048,0.02276018117450409,-0.07765840582981129,-0.045758704230805754,-0.07293439466197628,0.010958593167309422,-0.22510534589715797,-0.05026501593545029,0.24882429433154826
2623,10.54384049998771,0.0730437540828524,0.0024084366939483496,-0.06706509472266309,0.09579728946262235,0.02246483758190798,-0.0776120483410563,-0.04666616880846698,-0.07313398536320989,0.011964536502378682,-0.22365069586048608,-0.04846998388163328,0.24863800844627004
2624,10.547385999991093,0.07392674297280928,0.002465860769277492,-0.06736115127620178,0.09560673435802619,0.022168701741572205,-0.07756162394292483,-0.047567703855341176,-0.07332632142013329,0.012969661607235916,-0.2221735561488912,-0.04667643035504492,0.24842025501081047
2625,10.551214599996456,0.07642670161171171,0.0027344808887547548,-0.06926023819962687,0.09541254531879471,0.021871802968949947,-0.07750713620944683,-0.048463218839979276,-0.0735114094311506,0.013973841122361334,-0.22067416301786597,-0.04488464564324757,0.2481710004540641
2626,10.55464149999898,0.07642670161171171,0.0027344808887547548,-0.06926023819962687,0.09521474687715784,0.021574170550306766,-0.07744858923049652,-0.04935262419380084,-0.07368925716349577,0.01497694756324375,-0.21915275583594834,-0.04309491831482812,0.2478902158808378
2627,10.558416599989869,0.07642670161171171,0.0027344808887547548,-0.06926023819962687,0.09501336392565668,0.021275833738017155,-0.07738598761224823,-0.050235831323632116,-0.07385987354612956,0.015978853339339703,-0.21760957703373898,-0.04130753515832629,0.24757787708531023
2628,10.563645399990492,0.07812211802874593,0.002916442001024594,-0.07083739065694189,0.09480842171317837,0.02097682174589034,-0.07731933647755354,-0.051112752624035716,-0.07402326866239259,0.016979430773084225,-0.2160448720523649,-0.03952278112176992,0.24723396456378982
2629,10.567864599986931,0.0786700085315788,0.002979177320585576,-0.07137086352413059,0.0945999458409419,0.020677163744526265,-0.07724864146623997,-0.05198330148942975,-0.07417945374241669,0.017978552118950383,-0.21445888929140564,-0.03774093925282929,0.24685846352677096
2630,10.571906699988176,0.07923487489294502,0.0030877289598243074,-0.07184527771772452,0.0943879622584363,0.020376888856702732,-0.07717390873533088,-0.05284739232599398,-0.07432844115529727,0.018976089582554742,-0.21285188005629788,-0.03596229063960231,0.2464513639102902
2631,10.575335499990617,0.07923487489294502,0.0030877289598243074,-0.07184527771772452,0.09417249725931172,0.020076026152794586,-0.07709514495918646,-0.05370494056336096,-0.07447024440102899,0.019971915339805846,-0.21122409850523235,-0.03418711435204203,0.24601266038658245
2632,10.578866899988498,0.07923487489294502,0.0030877289598243074,-0.07184527771772452,0.09395357747722477,0.019774604646225977,-0.077012357329566,-0.054555862666089756,-0.07460487810220791,0.020965901556092764,-0.20957580159555825,-0.032415687384038175,0.2455423523740365
2633,10.583031399990432,0.08004705040633872,0.0029957528555802876,-0.0720988323006467,0.09373122988163864,0.019472653288956702,-0.07692555355561163,-0.05540007614492031,-0.07473235799550264,0.021957920405510978,-0.20790724902971086,-0.030648284596163936,0.24504044404644917
2634,10.586596599998302,0.08004705040633872,0.0029957528555802876,-0.0720988323006467,0.09350548177357802,0.019170200967003566,-0.0768347418637533,-0.05623749956780665,-0.07485270092289731,0.02294784409012269,-0.20621870320067867,-0.028885178659099037,0.24450694434157683
2635,10.590687699994303,0.08129807443977762,0.003056854827589423,-0.07295421821798424,0.09327636078133957,0.0188672764959976,-0.07673993099753519,-0.05706805257072699,-0.07496592482270911,0.023935544859248745,-0.2045104291370261,-0.027126639997739736,0.24394186696898448
2636,10.594711199999438,0.08223379410171602,0.0031442285644373283,-0.07399111002012584,0.09304389485615826,0.01856390861677803,-0.07664113021736352,-0.057891655868268985,-0.07507204872038326,0.024920895028789386,-0.20278269444748742,-0.0253729367360064,0.24334523041719353
2637,10.598995999986071,0.08268943075088007,0.0031638642389293075,-0.07459919566722818,0.09280811226783092,0.018260125991023852,-0.07653834930017575,-0.05870823126398871,-0.07517109271906844,0.025903767000571083,-0.20103576926514677,-0.02362433464235913,0.2427170579601285
2638,10.60338229998888,0.08318169096913161,0.0031567925091597216,-0.07506972390092502,0.0925690416002979,0.017955957196923958,-0.0764315985390311,-0.05951770166054143,-0.07526307798997554,0.026884033281716634,-0.19926992619122041,-0.02188109707603163,0.24205737766286325
2639,10.607640499991248,0.08374312676088867,0.0031811799069586754,-0.07551422651496928,0.0923267117471838,0.017651430724886764,-0.0763208887426226,-0.06031999106958265,-0.07534802676252235,0.02786156650403577,-0.19748544023845868,-0.02014348493399333,0.24136622238666794
2640,10.61164399998961,0.08427941800529337,0.0031932981212272516,-0.07591037024337902,0.09208115190729821,0.01734657497329026,-0.07620623123471064,-0.061115024621437995,-0.07542596231426706,0.02883623944343348,-0.19568258877418404,-0.01841175659864942,0.24064362979335774
2641,10.615427499986254,0.08427941800529337,0.0031932981212272516,-0.07591037024337902,0.09183239158009722,0.017041418244273264,-0.0760876378534778,-0.061902728574540475,-0.07549690896063378,0.029807925039333372,-0.19386165146298198,-0.01668616788628829,0.23988964234894541
2642,10.619772599995486,0.08504152042633112,0.003095245908304979,-0.076158756448537,0.09158046056110722,0.01673598873956869,-0.0759651209508056,-0.06268303032463374,-0.07556089204443259,0.030776496414113338,-0.19202291020906134,-0.014966971996285659,0.2391043073265983
2643,10.623778999986826,0.08601781107702199,0.0031078876803802714,-0.07701173018369653,0.09132538893731122,0.016430314556379683,-0.07583869339147263,-0.06345585841373988,-0.07561793792517724,0.03174182689255069,-0.19016664909829986,-0.013254419461074515,0.23828767680890042
2644,10.628011999986484,0.08637344095950047,0.0031512805302111404,-0.07754014678428042,0.09106720708249859,0.016124423683299364,-0.07570836855227432,-0.06422114253889061,-0.07566807396820403,0.03270379002127419,-0.18829315433999133,-0.01154875809688975,0.23743980768941966
2645,10.632227099995362,0.08678017641916913,0.0031309110189493713,-0.07791792143095118,0.09080594565257882,0.015818343996274953,-0.0755741603210639,-0.06497881356061999,-0.07571132853359457,0.03366225958822016,-0.1864027142083103,-0.00985023295529623,0.23656076167357903
2646,10.636190099990928,0.08725740371802536,0.003102488652243181,-0.07828093003258638,0.09054163558086037,0.015512103254617052,-0.0754360830957145,-0.06572880351121835,-0.07574773096490574,0.03461710964209005,-0.1844956189835122,-0.008159086275508766,0.23565060527883355
2647,10.639990099996794,0.08773288232273996,0.0031212707400361875,-0.0786655173503944,0.09027430807329596,0.01520572909705488,-0.07529415178300253,-0.06647104560274583,-0.07577731157771064,0.03556821451180653,-0.18257216089288508,-0.006475557437512279,0.23470940983415314
2648,10.643483699997889,0.08817443366908742,0.0030899647200916367,-0.07898343338634634,0.0900039946036957,0.01489924903783833,-0.07514838179741233,-0.06720547423480479,-0.07580010164795357,0.03651544882596522,-0.18063263405147023,-0.004799882915990232,0.2337372514788131
2649,10.647034699999494,0.08855886351581721,0.00309945432770325,-0.07933407443497469,0.08973072690890839,0.014592690462887614,-0.07499878905986253,-0.0679320250020703,-0.07581613340012285,0.03745868753227914,-0.1786773344025675,-0.003132296235069274,0.232734211160494
2650,10.655434199987212,0.0892755265598921,0.003053457144888604,-0.07996021063294242,0.08945453698397222,0.014286080625991236,-0.07484538999635369,-0.06865063470157777,-0.07582543999524463,0.038397805917013,-0.1767065596580429,-0.001473027923887786,0.23170037463269166
2651,10.659680899989326,0.08965769080094589,0.0030714847747088086,-0.08026603004835582,0.08917545707723586,0.013979446645052938,-0.0746882015365375,-0.06936124133976687,-0.07582805551870092,0.039332679624404475,-0.17472060923845525,0.0001776945270041975,0.23063583245144034
2652,10.66355109999131,0.09001791578020528,0.003025232198204552,-0.08051000056525903,0.08889351968545112,0.013672815498388342,-0.07452724111220753,-0.07006378413928112,-0.07582401496787501,0.04026318467606989,-0.17271978421301948,0.001819646708406409,0.2295406799713507
2653,10.66779769999266,0.09034526179540217,0.0030281085003170173,-0.08077065481399946,0.08860875754883812,0.013366214021071948,-0.07436252665571182,-0.07075820354552272,-0.0758133542396274,0.04118919749039142,-0.17070438723942452,0.0034526073343840624,0.22841501734096528
2654,10.672151099992334,0.09064615001579374,0.0029829054573572325,-0.08104064370230378,0.08832120364612338,0.013059668901335069,-0.07419407659828807,-0.07144444123296179,-0.07579611011760522,0.04211059490188308,-0.1686747225035233,0.005076358283330984,0.22725894949743397
2655,10.676190599988333,0.09089099314775682,0.002958682022085061,-0.08132063607472492,0.08803089118955162,0.012753206677015304,-0.07402190986832181,-0.07212244011119961,-0.07577232025938874,0.043027254180532874,-0.1666310956589121,0.006690684638173484,0.2260725861605107
2656,10.680428399995437,0.09115631062371898,0.002897351282565593,-0.08154308780367048,0.08773785361987282,0.01244685373205814,-0.07384604588952767,-0.07279214433078524,-0.0757420231834789,0.04393905305111814,-0.16457381376641636,0.008295374725708507,0.22485604182587376
2657,10.683673199993793,0.09115631062371898,0.002897351282565593,-0.08154308780367048,0.08744212460130536,0.012140636293071334,-0.07366650457905377,-0.07345349928878465,-0.0757052582561297,0.044845869712491396,-0.1625031852335004,0.009890220155069787,0.22360943575777292
2658,10.687239499995483,0.09115631062371898,0.002897351282565593,-0.08154308780367048,0.08714373801647651,0.011834580425932663,-0.07348330634550888,-0.07410645163410241,-0.07566206567802862,0.04574758285683384,-0.16041951975361857,0.011475015855315957,0.2223328919810062
2659,10.691265099987504,0.09161784714659714,0.002804491968895887,-0.08160198076654625,0.08684272796134121,0.011528712032451604,-0.07329647208691258,-0.07475094927255524,-0.07561248647082869,0.046644071688874134,-0.15832312824552475,0.013049560112134716,0.2210265392722276
2660,10.69544309999037,0.09204647294982807,0.0027753233897103045,-0.08206607184558595,0.0865391287400802,0.011223056847085498,-0.07310602318856824,-0.07538694137169752,-0.0755565624635357,0.04753521594506954,-0.15621432279255718,0.014613654603657402,0.21969051115058863
2661,10.698871799992048,0.09204647294982807,0.0027753233897103045,-0.08206607184558595,0.0862329748599787,0.010917640433710797,-0.07291198152085968,-0.07601437836539858,-0.07549433627875436,0.04842089591274701,-0.15409341658191536,0.016167104435378547,0.21832494586771609
2662,10.702410399986547,0.09239688019920421,0.0026429477592321117,-0.08222414076321807,0.08592430102628704,0.01061248818244996,-0.07271436943697139,-0.07663321195817208,-0.07542585131879649,0.04930099244920156,-0.15196072384394674,0.017709718174175104,0.2169299863970289
2663,10.705730199988466,0.09239688019920421,0.0026429477592321117,-0.08222414076321807,0.08561314213706411,0.010307625306554541,-0.07251320977053266,-0.0772433951292575,-0.07535115175165455,0.05017538700074932,-0.14981655979145994,0.01924130788142023,0.2155057804223977
2664,10.709195299990824,0.09239688019920421,0.0026429477592321117,-0.08222414076321807,0.08529953327800502,0.01000307683934509,-0.07230852583318521,-0.0778448821364541,-0.07527028249684412,0.05104396162173239,-0.14766124055908153,0.02076168914518663,0.21405248032615018
2665,10.71335989999352,0.09287960000538238,0.00253185937430449,-0.08259393773727887,0.0849835097172536,0.009698867631208297,-0.07210034141207475,-0.0784376285197077,-0.07518328921111875,0.051906598993473094,-0.1454950831426733,0.022270681111534633,0.2125702431764248
2666,10.717645999990054,0.09341203901887424,0.00235255239021528,-0.0832973773316702,0.08466510690020115,0.009395022346651941,-0.07188868076726661,-0.07902159110445046,-0.07509021827406062,0.05276318244317497,-0.1433184053388261,0.02376810651488048,0.2110592307138769
2667,10.722107499997946,0.09360497636092223,0.0023143278838816117,-0.08351462936530035,0.08434436044427235,0.009091565461418141,-0.07167356862908542,-0.07959672800469413,-0.074991116773551,0.05361359596276797,-0.14113152568444703,0.025253791707440357,0.20951960933773997
2668,10.726113599987002,0.09377341045352225,0.0022387125574096596,-0.08372216428231544,0.0840213061336992,0.008788521259655362,-0.07145503019537863,-0.08016299862587713,-0.07488603249112416,0.05445772422769502,-0.1389347633964561,0.026727566687746108,0.20795155009124514
2669,10.729634999996051,0.09377341045352225,0.0022387125574096596,-0.08372216428231544,0.08369597991428417,0.008485913831149567,-0.07123309112870409,-0.08072036366746642,-0.07477501388720872,0.05529545261563704,-0.13672843831160866,0.028189265128228464,0.20635522864640202
2670,10.733180699986406,0.09377341045352225,0.0022387125574096596,-0.08372216428231544,0.08336841788815291,0.008183767068614966,-0.07100777755344174,-0.08126878512531428,-0.07465811008626025,0.05612666722517408,-0.13451287082646066,0.029638724401863964,0.20473082528814424
2671,10.737444299986237,0.09408638667897092,0.002106179847705955,-0.08375014111973646,0.08303865630849756,0.00788210466504482,-0.07077911605282985,-0.08180822629377103,-0.07453537086178925,0.05695125489438018,-0.13228838183749306,0.031075785607881868,0.2030785248978425
2672,10.741690299997572,0.09444738304410788,0.0020213855621114226,-0.08420801377808321,0.08270673157431166,0.00758095011112271,-0.07054713366592566,-0.08233865176755441,-0.07440684662128828,0.057769103219349784,-0.13005529268141153,0.032500293596527584,0.2013985169361888
2673,10.746484199989936,0.09471510238275507,0.0018773416432467842,-0.08461275795614552,0.08237268022511728,0.007280326692694658,-0.07031185788449099,-0.08286002744337623,-0.0742725883910616,0.05858010057265309,-0.12781392507563735,0.033912096992879094,0.19969099542545382
2674,10.750892999989446,0.09489667735166957,0.001827879142380626,-0.0847919917042136,0.08203653893568585,0.006980257488302504,-0.07007331664980303,-0.08337232052132729,-0.07413264780096133,0.0593841361217178,-0.12556460105900513,0.035311048219713065,0.19795615893112095
2675,10.755194999990636,0.0950644871851419,0.0017440797850044195,-0.08497414098758126,0.08169834451075364,0.0066807653667788885,-0.06983153834939064,-0.08387549950602104,-0.0739870770690341,0.060181099847134614,-0.12330764293268281,0.036697003519417716,0.19619421054290015
2676,10.759182499998133,0.0952711675054303,0.0016493953205587684,-0.08519586645324351,0.08135813387973241,0.006381872984904222,-0.06958655181369665,-0.08436953420749731,-0.07383592898608217,0.0609708825608838,-0.12104337320132906,0.03806982297494948,0.19440535785512536
2677,10.763643399986904,0.09543897993669323,0.0015582287683714416,-0.08537174731239099,0.08101594409141617,0.006083602785125988,-0.06933838631266612,-0.08485439574188694,-0.07367925690014276,0.061753375924480235,-0.11877211451450384,0.039429370529830934,0.19258981294653893
2678,10.76801039998827,0.09557160370112022,0.001484457673149721,-0.08555613652205048,0.08067181230868521,0.005785976993340706,-0.06908707155226115,-0.08533005653183835,-0.07351711470088955,0.06252847246703477,-0.11649418960834727,0.040775514007187506,0.19074779235946537
2679,10.772070999999414,0.0957439253108075,0.0014314064893222907,-0.08573075535555938,0.08032577580320861,0.0054890176167388645,-0.06883263767090261,-0.0857964903067075,-0.07334955680396012,0.06329606560322974,-0.11420992124754102,0.0421081251278207,0.18887951707837805
2680,10.776353299996115,0.09589110637519765,0.0013712119781447147,-0.0858990477040046,0.07997787195014645,0.005192746441713146,-0.06857511523583883,-0.08625367210251221,-0.07317663813521263,0.06405604965120558,-0.11191963216756688,0.04342707952731562,0.18698521250786243
2681,10.78032269999676,0.09605555773641,0.001290232454484363,-0.08607397838670215,0.07962813822285254,0.004897185031830178,-0.06831453523944149,-0.08670157826165262,-0.07299841411491523,0.06480831985035547,-0.10962364501727791,0.044732256772180914,0.18506510844997942
2682,10.78497459999926,0.0962338818741121,0.0011961146037328717,-0.08627780317398726,0.07927661218757882,0.004602354725866104,-0.06805092909542942,-0.08714018643239958,-0.07281494064187194,0.0655527723790256,-0.10732228230179662,0.04602354037501924,0.1831194390810321
2683,10.788540499997907,0.09638806709107599,0.0011349422152807736,-0.0864467181238554,0.07892333149818265,0.004308276635906197,-0.06778432863502058,-0.08756947556815253,-0.0726262740774892,0.06628930437211872,-0.10501586632575487,0.04730081780872647,0.18114844292773855
2684,10.792952799994964,0.09654621193228381,0.0010932794647143238,-0.0867164441222825,0.07856833389083788,0.004014971645508778,-0.06751476610301303,-0.08798942592646813,-0.07243247122978634,0.06701781393859876,-0.10270471913688937,0.04856398051971809,0.17915236284281316
2685,10.797262499996576,0.09670334316770568,0.001038633683466896,-0.086897275808242,0.07821165717875049,0.0037224604079336035,-0.06724227415379555,-0.08840001906786142,-0.07223358933735426,0.06773820017889409,-0.10038916247000802,0.04981292394018135,0.17713144597995995
2686,10.801146699988749,0.09684724397767426,0.0009748168983486926,-0.08712370073468759,0.07785333924688001,0.003430763344434915,-0.06696688584728845,-0.08880123785438146,-0.07202968605326647,0.06845036320219691,-0.0980695176913408,0.05104754749935221,0.17508594376828038
2687,10.80533459999424,0.09696434690196777,0.0009350630774462728,-0.0873328273377141,0.07749341804666789,0.003139900642619327,-0.06668863464481549,-0.08919306644796307,-0.07182081942894669,0.06915420414365642,-0.09574610574328955,0.052267754633816076,0.1730161118860981
2688,10.809522099996684,0.09707034533527348,0.0008953747585820166,-0.08750317438497557,0.0771319315907734,0.0028498922548687144,-0.06640755440490723,-0.08957549030855651,-0.071607047897997,0.06984962518146358,-0.09341924708958975,0.05347345279683128,0.17092221023420445
2689,10.813715599986608,0.09718712562960634,0.0008513842141371851,-0.08770545910066563,0.07676891794781807,0.0025607578968282582,-0.06612367937903636,-0.08994849619203667,-0.07138843025999089,0.07053652955382603,-0.09108926166089767,0.054664553466674204,0.16880450290852755
2690,10.817859599992516,0.09730071440791334,0.0008125390574070693,-0.08787359816557834,0.07640441523713942,0.0022725170459597806,-0.06583704420728574,-0.09031207214789305,-0.07116502566423492,0.07121482157583077,-0.08875646880081611,0.05584097215400544,0.16666325817222843
2691,10.821828599990113,0.0974532030062328,0.0007734391273411258,-0.08804313184767963,0.07603846162355508,0.0019851889401605104,-0.06554768391394941,-0.09066620751670212,-0.07093689359350251,0.07188440665619185,-0.08642118721237169,0.05700262840825672,0.16449874842722753
2692,10.826270299992755,0.09759748662406036,0.0007523292006103616,-0.08821278983022648,0.07567109531213785,0.0016987925764473668,-0.0652556339030676,-0.09101089292738374,-0.07070409384774373,0.0725451913138811,-0.08408373490495624,0.058149445823038166,0.1623112501851659
2693,10.829816799989205,0.09759748662406036,0.0007523292006103616,-0.08821278983022648,0.07530235454300287,0.001413346709706853,-0.06496092995389671,-0.0913461202942432,-0.07046668652777488,0.07319708319463952,-0.08174442914174461,0.059281352040565956,0.1601010440378048
2694,10.83331289999478,0.09759748662406036,0.0007523292006103616,-0.08821278983022648,0.07493227758610778,0.001128869851510636,-0.06466360821631462,-0.09167188281380122,-0.0702247320189513,0.07383999108736689,-0.07940358638760021,0.06039827875511046,0.1578684146268681
2695,10.837286199996017,0.09779777118666154,0.000651419543298198,-0.08825645466600605,0.07456090273606718,0.0008453802689968729,-0.064363705206162,-0.09198817496141336,-0.06997829097482766,0.07447382494038712,-0.0770615222574796,0.061500161715464935,0.15561365061333002
2696,10.840887999991535,0.09779777118666154,0.000651419543298198,-0.08825645466600605,0.07418826830698216,0.0005628959838173322,-0.06406125780051997,-0.09229499248768123,-0.06972742430080964,0.07509849587758749,-0.07471855146534774,0.06258694072643495,0.15333704464615197
2697,10.844570799992653,0.09812379846844095,0.0005421882909515197,-0.08867383416489912,0.07381441262728602,0.0002814347711503548,-0.06375630323292439,-0.09259233241465784,-0.06947219313780127,0.07571391621442937,-0.07237498777361528,0.06365855964934872,0.15103889333047205
2698,10.848070799998824,0.09829795928643113,0.0005547471079729582,-0.08925179214518231,0.07343937403460642,1.0141587796664667e-06,-0.06344887908851769,-0.09288019303184966,-0.06921265884585208,0.07631999947382881,-0.07003114394310919,0.0647149664015891,0.14871949719525043
2699,10.851578999994672,0.09839956396384177,0.0005483636361964571,-0.08948228278427707,0.07306319087064483,-0.0002783485737609562,-0.06313902329913836,-0.09315857389201757,-0.06894888298780746,0.07691666040190469,-0.0676873316835873,0.0657561129551481,0.14637916066037307
2700,10.855662799993295,0.09851629678605466,0.0005436653016206087,-0.08969951667590347,0.07268590147607397,-0.0005566363959771801,-0.06282677413834839,-0.09342747580677843,-0.06868092731296634,0.0775038149835921,-0.06534386160480753,0.0667819553342055,0.14401819200321606
2701,10.859924199990928,0.09863314220447605,0.000534234683142145,-0.08987950736480907,0.07230754418545368,-0.0008338325271378025,-0.06251217021639914,-0.09368690084201006,-0.0684088537407496,0.07808138045811892,-0.0630010431681621,0.06779245361173236,0.14163690332467374
2702,10.86365859999205,0.09874623461743288,0.0005270357191494647,-0.09007677924700933,0.071928157322166,-0.0011099204369326796,-0.06219525047513592,-0.09393685231306155,-0.0681327243443838,0.07864927533434365,-0.06065918463888658,0.06878757190512104,0.13923561051465377
2703,10.867835599987302,0.0988582695453832,0.0005098418783691144,-0.09027395558010488,0.07154777919336973,-0.0013848838460649568,-0.06187605418284189,-0.09417733477977143,-0.06785260133460391,0.07920741940595244,-0.058318593038853346,0.0697672783708427,0.13681463321704287
2704,10.871458899986465,0.0988582695453832,0.0005098418783691144,-0.09027395558010488,0.07116644808497574,-0.0016587067267776839,-0.06155462092902162,-0.09440835404129606,-0.06756854704337954,0.0797557337665131,-0.0559795740999593,0.0707315451981343,0.1343742947941464
2705,10.875671999994664,0.09908267984857859,0.00043876778770461904,-0.09035263511791976,0.07078420225664384,-0.0019313733033149072,-0.06123099061912467,-0.09462991713075065,-0.06728062390766859,0.08029414082438435,-0.053642432218117035,0.07168034860171604,0.13191492229060428
2706,10.880025299993576,0.09925532719735683,0.0004661763323944978,-0.09098266246938123,0.07040107993680217,-0.002202868052317341,-0.060905203469209857,-0.09484203230966565,-0.06698889445320202,0.08082256431747817,-0.05130747040785818,0.07261366881354155,0.12943684639678674
2707,10.88418829999864,0.09936412653062593,0.0004294078390752708,-0.09119466938121856,0.07001711931768967,-0.0024731757031527467,-0.06057730000055101,-0.09504470906226115,-0.0666934212783038,0.08134092932787301,-0.048974990257557395,0.07353149007358284,0.1269404014116729
2708,10.887726699991616,0.09936412653062593,0.0004294078390752708,-0.09119466938121856,0.06963235855042244,-0.0027422812381811584,-0.06024732103418418,-0.095237958089542,-0.06639426703774977,0.08184916229627595,-0.04664529188528547,0.07443380061965253,0.12442592520521603
2709,10.890990199986843,0.09936412653062593,0.0004294078390752708,-0.09119466938121856,0.06924683574008472,-0.0030101698929551235,-0.05991530768539695,-0.09542179130321603,-0.06609149442666953,0.0823471910363311,-0.044318673895299664,0.07532059267626538,0.12189375918019783
2710,10.89435199998843,0.09936412653062593,0.0004294078390752708,-0.09119466938121856,0.068860588940845,-0.003276827156355121,-0.059581301358160546,-0.09559622181943865,-0.0657851661644948,0.08283494474877268,-0.041995433335179126,0.07619186244254172,0.11934424823357541
2711,10.898311299999476,0.09960421366392795,0.0003471664344869385,-0.09131069996892273,0.06847365615109761,-0.003542238770660358,-0.059245343739505366,-0.0957612639523869,-0.06547534497895785,0.0833123540354208,-0.039675865653612565,0.07704761007915563,0.11677774071732436
2712,10.901925499987556,0.09990789597253964,0.00031915104899580236,-0.09207311538163111,0.06808607530863134,-0.003806390731555149,-0.0589074767938403,-0.0959169332076655,-0.06516209359014402,0.08377935091301833,-0.037360264658845274,0.07788783969433097,0.1141945883987806
2713,10.905340399986017,0.10003569312454012,0.0003319845426944896,-0.09228429651397109,0.0676978842858252,-0.004069269288071092,-0.05856774275721645,-0.0960632462755477,-0.06484547469460152,0.0842358688269066,-0.03504892247779226,0.07871255932888842,0.11159514642048399
2714,10.908754199990652,0.10003569312454012,0.0003319845426944896,-0.09228429651397109,0.06730912088487195,-0.0043308609424652965,-0.05822618413153575,-0.09620022102405325,-0.06452555094951219,0.08468184266453865,-0.03274212951582395,0.07952178094034658,0.10897977325952637
2715,10.912261199991915,0.10003569312454012,0.0003319845426944896,-0.09228429651397109,0.06691982283302993,-0.004591152450034934,-0.0578828436787055,-0.09632787649186642,-0.06420238495692716,0.08511720876882799,-0.03044017441723056,0.0803155203860802,0.10634883068640735
2716,10.91662949998863,0.10030352815855294,0.00021811532024004808,-0.09240531755853652,0.0665300277779037,-0.004850130818868352,-0.05753776441473934,-0.09644623288109687,-0.06387603924807089,0.08554190495133072,-0.028143344026370944,0.08109379740553889,0.10370268372340054
2717,10.92167119999067,0.10058209693491742,0.0003166792894833143,-0.09324918059580464,0.0661397732827545,-0.00510778330953305,-0.05719098960380551,-0.09655531154988643,-0.06354657626771776,0.0859558705052593,-0.025851923349511266,0.08185663560152992,0.10104170060243331
2718,10.925836700000218,0.100688747807189,0.00031765094755658533,-0.09347751387467863,0.06574909682184103,-0.00536409743470082,-0.056842562752223186,-0.09665513500486453,-0.06321405835864484,0.08635904621832599,-0.023566195517358727,0.0826040624205688,0.09836625272248294
2719,10.929288299987093,0.100688747807189,0.00031765094755658533,-0.09347751387467863,0.06535803577579126,-0.005619060958710374,-0.05649252760240743,-0.09674572689345486,-0.06287854774616444,0.086751374385414,-0.021286441748295203,0.08333610913230145,0.09567671460649217
2720,10.932479499999316,0.100688747807189,0.00031765094755658533,-0.09347751387467863,0.06496662742700586,-0.005872661897067785,-0.05614092812676391,-0.09682711199603594,-0.06254010652274007,0.08713279882107447,-0.019012941312315377,0.08405281080800255,0.0929734638578075
2721,10.936422599988871,0.10091454946368561,0.0002710178956230923,-0.09361540375061377,0.0645749089550945,-0.006124888515885125,-0.05578780852153401,-0.0968993162179582,-0.06219879663268911,0.08750326487184776,-0.01674597149567365,0.08475420629815429,0.09025688111614312
2722,10.94035909998638,0.10104701279131266,0.0002915240108999368,-0.09414355800753622,0.06418291743234493,-0.006375729331257668,-0.055433213200591316,-0.09696236658142002,-0.061854679856976146,0.08786271942840693,-0.014485807566243864,0.08544033820910982,0.08752735001307357
2723,10.944514799994067,0.10117114853133277,0.0002716367497990167,-0.09436022875487234,0.06379068981922549,-0.006625173108580024,-0.05507718678919004,-0.09701629121720584,-0.06150781779810049,0.0882111109375222,-0.012232722739595447,0.08611125287884573,0.0847852571270575
2724,10.948017899994738,0.10128824425388766,0.00023955061257209097,-0.09458340423296585,0.0633982629599216,-0.006873208861801596,-0.054719774117665904,-0.09706111935628957,-0.06115827186508167,0.08854838941384478,-0.009986988145789362,0.08676700035180823,0.08203099193799536
2725,10.951483599987114,0.10145570801715127,0.00021219474914926754,-0.09486892313214633,0.06300567357790687,-0.00711982585262178,-0.05436102021509004,-0.09709688132130581,-0.06080610325854644,0.0888745064515083,-0.0077488727968969655,0.08740763435285732,0.07926494678132417
2726,10.954684899988932,0.10145570801715127,0.00021219474914926754,-0.09486892313214633,0.06261295827154957,-0.007365013589625341,-0.05400097030287663,-0.09712360851789198,-0.06045137295592151,0.0891894152355458,-0.00551864355524456,0.08803321226031378,0.07648751680165257
2727,10.95838989999902,0.10145570801715127,0.00021219474914926754,-0.09486892313214633,0.06222015350975433,-0.0076087618273584035,-0.05363966978834512,-0.09714133342590422,-0.060094141696735895,0.08949307055312085,-0.0032965651023860146,0.08864379507811417,0.0736990999059389
2728,10.963927099990542,0.10189941908800729,0.00023837617601780384,-0.09560142925544626,0.06182729562763988,-0.007851060565345507,-0.05327716425823728,-0.09715008959050987,-0.059734469968036746,0.08978542880457044,-0.0010828999088055076,0.0892394474070786,0.07090009671621579
2729,10.968472599997767,0.10200437841530259,0.0002283313914017253,-0.09581448594344584,0.0614344208222532,-0.008091900047048184,-0.05291349947218987,-0.09714991161315904,-0.0593724179899223,0.09006644801425881,0.001122091795647796,0.08982023741529685,0.06809091052186428
2730,10.972406099986983,0.10210578149143315,0.00022028630028129124,-0.09604121763335127,0.061041565148320556,-0.008331270758765552,-0.05254872135616353,-0.09714083514243817,-0.05900804570119521,0.0903360878412403,0.003318152050591603,0.09038623680763858,0.06527194723143989
2731,10.97613189999538,0.1022238272319406,0.00022870098556479652,-0.0962636753336911,0.06064876451403608,-0.008569163428477349,-0.052182875995828756,-0.09712289686480845,-0.05864141274514017,0.09059430958972942,0.005505025193207698,0.09093752079439403,0.062443615324053375
2732,10.98042729998997,0.10235150503873755,0.0002349226705079194,-0.0964981445762917,0.060256054676888354,-0.008805569024629938,-0.05181600962990973,-0.0970961344952318,-0.05827257845542926,0.09084107621937638,0.0076824578856036045,0.09147416805905104,0.05960632580030875
2733,10.984591699991142,0.10249627672791554,0.00023409622089348974,-0.09676323258716374,0.0598634712395256,-0.00904047875486574,-0.05144816864348658,-0.09706058676768728,-0.05790160184215824,0.09107635235534614,0.0098501991414381,0.0919962607252144,0.05676049213280172
2734,10.988601799996104,0.10268247785501437,0.00019147632297168878,-0.0970420176380017,0.05947104964565989,-0.009273884064696647,-0.051079399561257045,-0.09701629342558121,-0.057528541578017435,0.09130010429819867,0.012008000351810297,0.09250388432267438,0.053906530216181
2735,10.992873399998643,0.10283225921946074,0.0002138356308852129,-0.09729565995955897,0.059078825176010465,-0.009505776636121972,-0.05070974904075864,-0.09696329521205345,-0.057153455984600775,0.09151230003356871,0.014155615310412298,0.09299712775263091,0.051044858316775285
2736,10.997023799995077,0.10302438763524598,0.00017232486211240464,-0.09753446082077961,0.058686832944286706,-0.009736148386191447,-0.05033926386555215,-0.09690163386018277,-0.05677640301885629,0.09171290924164335,0.016292800237945684,0.0934760832520804,0.048175897021788684
2737,11.001130599994212,0.10320670780534952,0.00014585188289095025,-0.0977915292203086,0.058295107893211164,-0.009964991465513799,-0.0499679909383673,-0.09683135208309478,-0.056397440259681124,0.09190190330643604,0.018419313805802376,0.09394084635737188,0.04530006918806791
2738,11.00532199999725,0.10336831782109496,0.0001246261220990948,-0.09801608943406624,0.057903684790582916,-0.010192298256711491,-0.049595977274211236,-0.09675249356397508,-0.05601662489466416,0.0920792553248549,0.020534917159010773,0.09439151586693988,0.042417799890444266
2739,11.00964119999844,0.10353677751194432,0.00011041747396863498,-0.09823383078712593,0.05751259822538159,-0.010418061372822179,-0.049223269993440975,-0.09666510294599108,-0.055634013706979846,0.0922449401155637,0.022639373938448306,0.09482819380322116,0.039529516369653316
2740,11.013821799992002,0.10370605162015896,6.438901137115118e-05,-0.09847260840080167,0.05712188260391245,-0.01064227365564749,-0.048849916314800484,-0.09656922582212538,-0.05524966306243642,0.09239893422763344,0.024732450302321816,0.0952509853737627,0.03663564797983497
2741,11.017969900000026,0.10388717755020768,3.3390954427020385e-05,-0.09868749962390186,0.05673157214599306,-0.010864928174049793,-0.048475963548423345,-0.096464908724924,-0.05486362889668167,0.09254121594898347,0.02681391494691751,0.0956599989315281,0.03373662613561715
2742,11.021985399987898,0.10407314285377041,1.4524574476913223e-05,-0.09893389867797027,0.05634170088118217,-0.011086018222197586,-0.048101459088801674,-0.0963521991161627,-0.05447596670256918,0.09267176531461022,0.02888353912662252,0.09605534593441051,0.03083288425878599
2743,11.026133899998968,0.10427147453976975,-3.4927603121761436e-05,-0.09923117536606174,0.05595230264505111,-0.011305537317760152,-0.04772645040772224,-0.09623114537643422,-0.05408673151768859,0.09279056411460201,0.030941096673220418,0.09643714090395973,0.0279248577245457
2744,11.03131969999231,0.10442432819529146,-6.309387042385903e-05,-0.09950641139205298,0.055563411075498025,-0.011523479200052094,-0.047350985047170745,-0.09610179679465951,-0.053695977912063035,0.09289759590193776,0.03298636401446337,0.09680550138333195,0.025012983807371016
2745,11.039727799987304,0.10480464385549551,-0.00017169355166590707,-0.09997032269404009,0.05517505960910485,-0.011739837828128446,-0.0469751106122049,-0.09596420355752648,-0.05330375997601678,0.09299284600006784,0.03501912019192386,0.09716054789447007,0.022097701626455194
2746,11.044063399996958,0.10502981819655861,-0.00023041076077654973,-0.10020266159512425,0.05478728147753712,-0.011954607378831025,-0.04659887476379727,-0.09581841673885874,-0.05291013130821633,0.09307630151027535,0.03703914687812922,0.09750240389452289,0.01917945209075655
2747,11.048065799986944,0.10518789134528417,-0.00029289844265780775,-0.10042591110116911,0.05440010970398686,-0.012167782244786686,-0.0462223252116487,-0.09566448828891719,-0.05251514500388778,0.09314795131881573,0.03904622839298281,0.09783119573151182,0.016258677843646683
2748,11.051707599996009,0.10535784254737603,-0.00037450806507104443,-0.10068976655417934,0.05401357709965853,-0.012379357032358141,-0.045845509706973306,-0.0955024710236373,-0.052118853643213635,0.09320778610383344,0.04104015171947563,0.09814705259925416,0.01333582320716341
2749,11.05597429999034,0.10554828778184623,-0.000414252699915239,-0.10096459052542102,0.05362771626029846,-0.01258932655954803,-0.045468476035255695,-0.09533241861380515,-0.05172130927991199,0.0932557983420544,0.04302070651869236,0.09845010649155145,0.010411334125871682
2750,11.06030369999644,0.1057583166688438,-0.0005120871848112484,-0.10121539264265347,0.05324255956276769,-0.012797685853857,-0.04509127200898145,-0.09515438557417454,-0.05132256343000125,0.09329198231525257,0.044987685144116274,0.0987404921556523,0.007485658110335614
2751,11.063967899986892,0.10597615076100522,-0.000602980885118419,-0.10148130646197721,0.05285813916165891,-0.013004430150096568,-0.04471394546034179,-0.09496842725252883,-0.050922667060753324,0.09331633411648932,0.046940882655237694,0.09901834704499865,0.004559244180204888
2752,11.068164699987392,0.10617225712815843,-0.0007266661765491286,-0.10170644881895023,0.05247448698595763,-0.013209554888157527,-0.044336544233913394,-0.09477459981869048,-0.05052167057983818,0.09332885165612394,0.04888009683047076,0.09928381127126454,0.0016325428069188454
2753,11.07163049999508,0.10617225712815843,-0.0007266661765491286,-0.10170644881895023,0.05209163473574787,-0.013413055710734666,-0.043959116179314146,-0.09457296025348176,-0.05011962382466287,0.09332953466759379,0.050805128179383464,0.09953702755569636,-0.0012939941439684582
2754,11.076059799990617,0.1064689126241611,-0.0009111252109675182,-0.10186036823893636,0.05170961387896254,-0.013614928461008584,-0.04358170914383551,-0.09436356633763933,-0.0497165760519075,0.09331838471296233,0.05271577995424614,0.0997781411797644,-0.004219913470838909
2755,11.079685899996548,0.1064689126241611,-0.0009111252109675182,-0.10186036823893636,0.05132845564817879,-0.013815169180285419,-0.04320437096505235,-0.0941464766406853,-0.04931257592726089,0.09329540518823318,0.054611858160903984,0.10000729993513524,-0.0071447606944333355
2756,11.083998399990378,0.10692037136924268,-0.0011375646211097047,-0.10235686154617696,0.05094819103745865,-0.01401377410559528,-0.04282714946341108,-0.09392175050975778,-0.048907671515358644,0.09326060132842938,0.056493171568979476,0.10022465407297537,-0.010068080116643414
2757,11.088848299987148,0.1073177242640727,-0.0013051811530376293,-0.10303540945801144,0.05056885079923494,-0.014210739667250246,-0.04245009243479704,-0.09368944805840311,-0.04850191026992621,0.09321398021243621,0.058359531721410604,0.10043035625259601,-0.012989414879669012
2758,11.092865599988729,0.10757452768462504,-0.0013998098066934045,-0.10331608030235401,0.05019046544124262,-0.014406062486362774,-0.042073247643081776,-0.09344963015533259,-0.04809533902412983,0.09315555076760565,0.06021075294333121,0.1006245614894495,-0.01590830702553742
2759,11.096974599990062,0.10786207844021825,-0.0015187839607750326,-0.10359336827024122,0.04981306522349568,-0.014599739372325289,-0.0416966628126512,-0.09320235841314613,-0.04768800398113789,0.09308532377412075,0.062046652350299485,0.1008074271024877,-0.01882429755598088
2760,11.101210199994966,0.10809005975031359,-0.0016333712080405785,-0.10386670409387881,0.04943668015530975,-0.014791767320251873,-0.04132038562091525,-0.09294769517702564,-0.04727995070489498,0.09300331186911853,0.06386704985588089,0.10097911266089361,-0.02173692649266879
2761,11.105472699986422,0.10833855581893696,-0.0017607850795051728,-0.10416006836297481,0.04906133999237093,-0.014982143508382794,-0.040944463690800174,-0.09268570351340043,-0.0468712241111111,0.09290952955057015,0.06567176817859248,0.10113977993019677,-0.02464573293779091
2762,11.11015779999434,0.10862238113679752,-0.0019144585841670016,-0.1044345248356887,0.04868707423385082,-0.015170865295452845,-0.040568944583224416,-0.09241644719858727,-0.04646186845846873,0.09280399318091667,0.06746063284821566,0.10128959281778378,-0.02755025513498793
2763,11.113719499990111,0.10862238113679752,-0.0019144585841670016,-0.1044345248356887,0.04831391211956815,-0.01535793021802434,-0.040193875789559325,-0.09213999070740775,-0.04605192734004988,0.09268672099045892,0.0692334722114852,0.10142871731781546,-0.030450030530625616
2764,11.11798299998918,0.10894514285286734,-0.0021446882977743617,-0.10462093554704294,0.04794188262719696,-0.015543335987785735,-0.0398193047240757,-0.09185639920178507,-0.04564144367498542,0.09255773308050008,0.07099011743716191,0.1015573214555618,-0.03334459583540871
2765,11.122155699995346,0.10948505345400503,-0.0023754443943477454,-0.10523643861993191,0.04757101446952135,-0.015727080488816717,-0.03944527871637712,-0.09156573851932293,-0.045230459700328914,0.09241705142623959,0.07273040252049642,0.10167557523116622,-0.03623348708633075
2766,11.126292399989325,0.10974095408495205,-0.002501133477568967,-0.10554508958152721,0.04720133609173667,-0.01590916177482072,-0.03907184500382103,-0.09126807516186869,-0.04481901696315716,0.09226469987941713,0.07445416428709206,0.1017836505628506,-0.039116239708955766
