,time,x,y,z,vx,vy,vz,ax,ay,az,jx,jy,jz
2243,10.151133699997445,-0.0791832349203626,-0.07707954870768689,-0.015020533564512682,-0.01861147376712632,-0.006039885115036985,0.007078273734594252,0.04149661093546387,0.03160249550107922,0.032721010809995295,0.25047895988310936,0.1376611070060949,-0.0022455210789292662
2244,10.15546720000566,-0.07920344134172103,-0.0770481276474042,-0.014981273638536881,-0.018422064773523174,-0.005896167192465168,0.007225620309689459,0.04262705474846362,0.03222236657046496,0.03270768504639428,0.2515828643623408,0.13763207003359834,-0.0036799225383187693
2245,10.159654600007345,-0.07923874681318303,-0.0770119177656997,-0.014966757325759408,-0.018227554108218684,-0.005749658130670132,0.007372892456247959,0.04376241090488274,0.03284205913819711,0.032687871613876845,0.2526611234910819,0.13758271077166137,-0.005126320978118377
2246,10.1630359999981,-0.07923874681318303,-0.0770119177656997,-0.014966757325759408,-0.01802791992624477,-0.005600358952708336,0.007520060829499415,0.04490256319887274,0.03346148147794053,0.03266151682308195,0.25371340298262945,0.1375129304505833,-0.006584566722555022
2247,10.168866500011063,-0.07927306909444584,-0.0769877429202553,-0.01493207498158673,-0.017823140909166067,-0.0054482710956905,0.0076670958443490695,0.04604739392603544,0.03408054142694644,0.03262856766581679,0.25473937094772076,0.13742263305467536,-0.008054507304995054
2248,10.172498700005235,-0.07933699276089651,-0.0769535697331121,-0.014858637718883336,-0.01761319627178333,-0.005293396412704216,0.007813967678482196,0.047196783894365636,0.03469914639852399,0.03258897182760836,0.25573869797657683,0.1373117253572343,-0.00953598747585778
2249,10.17625410000619,-0.07935567022670668,-0.0769381836909382,-0.014813597269373367,-0.017398065768786716,-0.005135737174679979,0.007960646275525084,0.0483506124355617,0.03531720339466593,0.03254267770021741,0.2567110572210537,0.1371801169553249,-0.011028849210988508
2250,10.180383900005836,-0.07937586833951064,-0.07693566548433843,-0.014775763514233018,-0.01717772970135733,-0.004975296072199954,0.008107101348262381,0.04950875741670479,0.035934619018827794,0.032489634394112614,0.2576561244768836,0.13702772030436267,-0.01253293172049409
2251,10.186669400005483,-0.0793915024616525,-0.07693937504715764,-0.014728882294359836,-0.01695216892371539,-0.004812076217248827,0.008253302381910564,0.050671095252306904,0.036551299488859754,0.032429791750903006,0.2585735782659884,0.1368544507524873,-0.014048071458043964
2252,10.190676500002157,-0.07939431574167023,-0.07694235643652884,-0.014691485207827008,-0.016721364849613448,-0.004646081144906105,0.008399218637447345,0.05183750091672836,0.037167150650090415,0.0323631003557266,0.25946309991884603,0.1366602265747187,-0.01557410213063973
2253,10.197136100003265,-0.07941886393041277,-0.07696452125502878,-0.014589983235942688,-0.01648529945877302,-0.004477314814979198,0.008544819154996773,0.05300784795696498,0.0377820779885616,0.03228951154959316,0.2603243736568897,0.1364449690068869,-0.017110854708856222
2254,10.20134610000241,-0.07941864858210927,-0.07697631593711758,-0.01453588094114338,-0.016243955303262978,-0.00430578161357662,0.008690072757269766,0.05418200850580496,0.03839598664441307,0.032208977441679096,0.2611570866749228,0.13620860227932657,-0.018658157437557023
2255,10.20539600000484,-0.07944636180364352,-0.07698498444840277,-0.014505203778153602,-0.015997315513817983,-0.0041314863546206455,0.008834948053059821,0.055359853295355504,0.039008781425416146,0.03212145092157221,0.2619609292235286,0.1359510536503275,-0.02021583584708741
2256,10.209468900007778,-0.07944911861846257,-0.07700138478068462,-0.014458229374108636,-0.015745363806095404,-0.00395443428129876,0.00897941344079367,0.05654125167093932,0.03962036682065504,0.03202688567146436,0.2627355946914555,0.1356722534393306,-0.021783712764947682
2257,10.214208700010204,-0.07948796793738243,-0.07702150456343171,-0.01445165924109387,-0.01548808448686903,-0.003774631067453268,0.009123437112136645,0.05772607160536084,0.04023064701435487,0.03192523617828968,0.2634807796879591,0.13537213505986037,-0.023361608327949764
2258,10.217852900008438,-0.0795242387041535,-0.07703461859768668,-0.014431780348396284,-0.015225462460157983,-0.0035920828189084193,0.009266987055652461,0.05891417971354225,0.04083952589985512,0.03181645774580617,0.2641961841250817,0.13505063505218465,-0.02494933999485988
2259,10.22211360000074,-0.07954275747812752,-0.07704154535973853,-0.014399767447219713,-0.014957483233289257,-0.0034067960747344124,0.009410031060517101,0.06010544126752947,0.041446907093727295,0.03170050650661869,0.2648815112998525,0.1347076931156921,-0.02654672255953026
2260,10.22607980000612,-0.07956015650622032,-0.07703800282793469,-0.01436827295906757,-0.014684132922892203,-0.0032187778084476434,0.009552536720286567,0.06129972021186768,0.04205269395003555,0.03157733943414096,0.2655364679763859,0.13434325214097834,-0.028153568164522906
2261,10.23046950000571,-0.07958338697526908,-0.07703865549938742,-0.014351104137896817,-0.014405398260823349,-0.0030280354291465994,0.009694471436718147,0.06249687917934596,0.04265678957473902,0.03144691435449487,0.26616076446785936,0.1339572582416312,-0.02976968631522823
2262,10.23512810000102,-0.07960048683691814,-0.07703649714730405,-0.014328466354916674,-0.014121266600019977,-0.002834576782582776,0.009835802423644931,0.06369677950711075,0.04325909684023422,0.031309189958344384,0.2667541147183484,0.1335496607857062,-0.031394883894481446
2263,10.238709400000516,-0.07961327771568531,-0.07703892263450841,-0.01429501825893163,-0.01383172592028081,-0.0026384101521660128,0.00997649671090328,0.06489928125314723,0.04385951840003638,0.031164125812661946,0.26731623638450014,0.13312041242688036,-0.03302896517767945
2264,10.24300729999959,-0.07963193871711075,-0.07703952727668531,-0.014273872771526792,-0.013536764833972122,-0.002439544259903639,0.010116521148312982,0.0661042432131281,0.044457956703598145,0.031011682372425037,0.267846850917022,0.13266946913527491,-0.03467173184840083
2265,10.246540799998913,-0.07963193871711075,-0.07703952727668531,-0.014273872771526792,-0.013236372591657669,-0.00223798826727283,0.010255842409709757,0.06731152293762896,0.04505431401126425,0.03085182099224061,0.26834568364196454,0.13219679022793698,-0.03632298301453161
2266,10.250686900006258,-0.07962354332558075,-0.07703498116714673,-0.014224716541151875,-0.012930539087650803,-0.002033751776025577,0.010394426997029822,0.06852097674970935,0.04564849240936064,0.03068450393789519,0.2688124638417754,0.13170233839896986,-0.03798251522489898
2267,10.255047400001786,-0.07964778047207634,-0.0770038636098732,-0.01416718433602207,-0.012619254865487149,-0.0018268448289256924,0.01053224124444618,0.06973245976285913,0.04624039382541668,0.03050969439782853,0.2692469248361025,0.13118607974930255,-0.03965012248641594
2268,10.259818799997449,-0.07964778047207634,-0.0770038636098732,-0.01416718433602207,-0.01230251112331625,-0.0016172779104172592,0.010669251322556323,0.07094582589930894,0.046829920043519005,0.030327356494528536,0.2696488040623266,0.13064798381608825,-0.041325596281739055
2269,10.263792300000205,-0.07965851209729864,-0.07697841738997391,-0.014128770398745808,-0.011980299719210611,-0.0014050619472239507,0.010805423242620958,0.07216092790870347,0.04741697271979536,0.030137455295845165,0.27001784315579996,0.13008802360172025,-0.0430087255874422
2270,10.26785160000145,-0.0797045988273532,-0.07694350770964752,-0.014073808784886436,-0.011652613176390469,-0.0011902083088786623,0.010940722860853397,0.07337761738713633,0.04800145339802662,0.029939956826221085,0.27035378802976895,0.1295061756024546,-0.04469929689270849
2271,10.272056900008463,-0.0797170573692101,-0.0769221623473365,-0.014032652157937506,-0.011319444688362662,-0.0009727288081829017,0.011075115882759199,0.07459574479654443,0.048583263525385605,0.02973482807783659,0.27065638895495725,0.12890241983662798,-0.046397094218542816
2272,10.276466399998752,-0.0797453078301452,-0.07689864775284189,-0.014010467957300883,-0.010980788123972017,-0.0007526357015953754,0.011208567867525651,0.07581515948446062,0.04916230446830095,0.029522037021666336,0.27092540063878495,0.1282767398724618,-0.04810189913750719
2273,10.280454599997029,-0.0797620067618364,-0.07688448145060728,-0.013983702886832376,-0.010636638032363704,-0.0005299416895492207,0.01134104423246068,0.07703570970412275,0.04973847752844432,0.029301552618445633,0.27116058230419965,0.1276291228554416,-0.04981349079398105
2274,10.284699399999226,-0.07979798378381613,-0.07687278460886293,-0.013956776838265315,-0.010286989647854936,-0.00030465991669734806,0.011472510257480759,0.07825724263493791,0.05031168395883894,0.029073344829543987,0.2713616977680957,0.12695955953526136,-0.051531645924948764
2275,10.28874450000876,-0.07985944187191737,-0.07686502888681199,-0.013925261241928433,-0.009931838894714448,-7.680397208537318e-05,0.011602931089647349,0.07947960440329994,0.050881824980087656,0.028837384627743542,0.2715285155192997,0.1262680442923225,-0.05325613888131659
2276,10.292909900002996,-0.0798878554238932,-0.0768567852743549,-0.013893158465131313,-0.009571182391848176,0.0001536121107483763,0.011732271747751535,0.0807026401037584,0.0514488017967185,0.02859364400792013,0.27166080879609783,0.1255545751637764,-0.0549867416497613
2277,10.297458700006246,-0.07992967818460556,-0.07685870822910133,-0.013856919050401465,-0.00920501745738957,0.00038657385374629287,0.011860497126946373,0.08192619382053647,0.05201251561364585,0.02834209599762446,0.27175835566328316,0.12481915386909986,-0.056723223875112465
2278,10.301235200007795,-0.07995813227716654,-0.07685407671452335,-0.013811740790125293,-0.008833342113193017,0.0006220663343788637,0.01198757200342646,0.08315010864939583,0.052572867652744985,0.028082714667561036,0.2718209390886969,0.1240617858351915,-0.058465352883270254
2279,10.30544589999772,-0.07997534120258076,-0.07686511298830916,-0.013778985517499624,-0.008456155089228862,0.0008600741857664836,0.012113461039154248,0.08437422671984592,0.05312975916953791,0.027815475141962382,0.2718483470192414,0.1232824802209779,-0.060212893704660486
2280,10.30897850000474,-0.07997534120258076,-0.07686511298830916,-0.013778985517499624,-0.008073455827878497,0.0011005815968761963,0.012238128786632586,0.08559838921769493,0.05368309146998818,0.02754035360885636,0.27184037245633735,0.12248124994151822,-0.06196560909822848
2281,10.312300800011144,-0.07997534120258076,-0.07686511298830916,-0.013778985517499624,-0.0076852444881280344,0.0013435723127938446,0.01236153969372297,0.08682243640793993,0.0542327659274025,0.02725732733022414,0.2717968135308037,0.12165811169159656,-0.0637232595759734
2282,10.315588400000706,-0.07997534120258076,-0.07686511298830916,-0.013778985517499624,-0.0072915219496590715,0.0015890296350721006,0.012483658108508917,0.08804620765799336,0.054778683999436674,0.026966374652046224,0.2717174735771341,0.12081308596879112,-0.06548560342802469
2283,10.32014049999998,-0.07997534120258076,-0.07686511298830916,-0.013778985517499624,-0.006892289816834979,0.001836936422154844,0.012604448284203972,0.0892695414612429,0.05532074724520349,0.026667475014233985,0.2716021612071479,0.11994619709600812,-0.06725239674826271
2284,10.324276400002418,-0.07997534120258076,-0.07686511298830916,-0.013778985517499624,-0.006487550422581215,0.0020872750898783383,0.01272387438410382,0.09049227546094228,0.05585885734248009,0.026360608960444162,0.2714506903829918,0.11905747324346952,-0.069023393460485
2285,10.327994999999646,-0.08001144711582256,-0.07686324230639656,-0.013748067529217856,-0.006077306832158184,0.002340027612049653,0.012841900486581969,0.09171424647442979,0.056392916105012236,0.026045758147773972,0.2712628804894685,0.11814694645014312,-0.0707983453451195
2286,10.332242500007853,-0.08019981764940946,-0.0768134537085371,-0.013565855372179107,-0.005661562846825185,0.002595175521102759,0.012958490590128465,0.09293529051767195,0.056922825499912955,0.02572290535633449,0.27103855640566804,0.11721465264460415,-0.07257700206648585
2287,10.33640820000437,-0.08025409994497766,-0.07677822564407907,-0.013543813703104365,-0.005240323007393968,0.002852699908832716,0.013073608618431078,0.09415524283012935,0.05744848766515275,0.025392034498699957,0.2707775485758774,0.11626063166531757,-0.0743591112006057
2288,10.3405819000036,-0.0803187971845905,-0.07673498964085101,-0.013525008910788904,-0.0048135925976704646,0.00311258142720836,0.013187218425498401,0.09537393789994132,0.05796980492713937,0.025053130629230484,0.27047969307974484,0.11528492728033003,-0.07614441826356332
2289,10.34478690000833,-0.08041032931263567,-0.07667430327521971,-0.013537721236470849,-0.0043813776477832885,0.003374800289263897,0.01329928380082427,0.09659120948942612,0.05848667981838468,0.024706179953265628,0.2701448317016748,0.11428758720636054,-0.07793266674041704
2290,10.35321390000172,-0.0804631281993305,-0.07663775881587719,-0.013494720174030514,-0.003943684937397618,0.003639336270069786,0.013409768474592909,0.0978068906608932,0.05899901509525601,0.024351169836186456,0.2697728119994298,0.11326866312727772,-0.07972359811466276
2291,10.359967700002016,-0.08063158432580803,-0.0765194387683654,-0.01340169012500679,-0.00350052199881309,0.003906168707783294,0.01351863612292425,0.0990208138027635,0.059506713755809244,0.023988088812343593,0.26936348737191756,0.11222821071195277,-0.08151695189824987
2292,10.364700300007826,-0.08068967161045529,-0.07648353361130382,-0.013343813045553378,-0.0030518971199443266,0.004175276504779094,0.01362585037315885,0.1002328106559943,0.06000967905770035,0.02361692659384872,0.26891671712613713,0.11116628963147608,-0.0833124656621506
2293,10.368888800003331,-0.08068967161045529,-0.07648353361130382,-0.013343813045553378,-0.0025978193471827473,0.00444663812886025,0.01373137480918178,0.10144271234080393,0.06050781453617274,0.023237674079226958,0.26843236654326047,0.11008296357572601,-0.08510987506748334
2294,10.372092300007353,-0.08076298458806373,-0.07647022024602898,-0.013305738036965109,-0.002138298488138312,0.004720231614549936,0.01383517297678489,0.10265034938369233,0.061001024022117586,0.022850323361927667,0.26791030694382345,0.10897830026927732,-0.08690891389719022
2295,10.376208500005305,-0.08087755934163487,-0.0764507729767722,-0.013188108019291817,-0.001673345114259883,0.004996034564464199,0.01393720838906686,0.10385555174475304,0.061489211660204164,0.022454867738691073,0.2673504157520027,0.10785237148663832,-0.08870931408826975
2296,10.380346600009943,-0.08093331268659651,-0.07644997871978662,-0.013164703635054873,-0.001202970563332873,0.005274024150766066,0.014037444531870297,0.10505814884527212,0.06197228192707734,0.02205130171776828,0.2667525765589533,0.10670525306680564,-0.09051080576456437
2297,10.384842900006332,-0.08100377186688104,-0.07646996349715077,-0.013102492850306032,-0.0007271869418528876,0.005554177116701292,0.014135844869255274,0.1062579695956099,0.062450139649619416,0.021639621026992174,0.2661166791851836,0.10553702492712526,-0.09231311727010262
2298,10.388814000005368,-0.08105894906060031,-0.07648214101616825,-0.013092142188209015,-0.00024600712727407276,0.005836469778216035,0.01423237284900855,0.10745484242336098,0.06292269002327318,0.021219822621696676,0.2654426197419406,0.1043477710764485,-0.09411597520299567
2299,10.392873000004329,-0.08111003067175603,-0.07648783826128829,-0.013103621764087421,0.00024055522986908605,0.006120878025656709,0.014326991908187895,0.10864859530178772,0.06338983863042305,0.020791904692481853,0.2647303006915809,0.10313757962757197,-0.095919104449888
2300,10.398075900011465,-0.0811550472029986,-0.07650569271994746,-0.013101738496317527,0.0007324857039677678,0.006407377325552295,0.014419665478700812,0.1098390557785224,0.06385149145883079,0.020355866672822225,0.26397963090690274,0.10190654280894977,-0.09772222822096242
2301,10.401520700004768,-0.08119684060896477,-0.07652011507825277,-0.013109504898042435,0.0012297690924738488,0.006695942722479343,0.014510356992916985,0.11102605100453374,0.06430755492012218,0.019911709246515766,0.263190525729413,0.10065475697566702,-0.09952506808549848
2302,10.405522300003213,-0.08124534579611878,-0.07653346708766122,-0.013146661541420473,0.00173238941416517,0.006986548841009892,0.014599029889313718,0.11220940776335275,0.06475793586832153,0.01945943435497118,0.26236290702650356,0.0993823226196634,-0.10132734400798381
2303,10.411566700000549,-0.08128368527885826,-0.07655524142737903,-0.013149058577742645,0.002240329907542222,0.007279169887742508,0.014685647618153566,0.11338895250055298,0.06520254161843102,0.018999045204330968,0.26149670324751206,0.09808934437919539,-0.10312877438477767
2304,10.417628900002455,-0.0813427206026698,-0.07660372728869709,-0.01320353888470225,0.00275357302935741,0.007573779653416637,0.014770173647193479,0.11456451135347932,0.06564127996505162,0.018530546272427877,0.2605918494786407,0.0967759310475264,-0.10492907608132596
2305,10.42184609999822,-0.08136372323497269,-0.07663605551952776,-0.01320985783278866,0.0032721004532780358,0.007870351515110433,0.014852571467424766,0.11573591018122069,0.06607405920104209,0.018053943315572262,0.2596482874967098,0.09544219558083329,-0.10672796446992668
2306,10.42609100000118,-0.08138343492182261,-0.07664510403877829,-0.013218312586529146,0.0037958930686841086,0.0081688584385222,0.014932804598843228,0.11690297459482078,0.06650078813621234,0.017569243375167895,0.25866596582172097,0.09408825510531857,-0.10852515346804463
2307,10.430408200001692,-0.08138408118794385,-0.07665004883162287,-0.013218625122016615,0.004324930979602084,0.008469272980335616,0.015010836596248743,0.11806552998772207,0.06692137611604745,0.017076454784153802,0.2576448397682063,0.09271423092351737,-0.11032035557717347
2308,10.434653800009984,-0.08139105102608278,-0.07665510797291591,-0.01323563822411953,0.004859193503775584,0.008771567290668872,0.015086631055073576,0.1192234015664373,0.06733573304045878,0.016575587173269662,0.2565848714953383,0.09132024851978869,-0.11211328192224335
2309,10.438789500010898,-0.08138010285875841,-0.07665746354334656,-0.013223390478188286,0.005398659171874157,0.009075713115607833,0.015160151617238653,0.12037641438144417,0.06774376938255862,0.016066651477142254,0.25548603005577714,0.0899064375649804,-0.11390364229157278
2310,10.442176600001403,-0.08138010285875841,-0.07665746354334656,-0.013223390478188286,0.005943305726841096,0.009381681799823282,0.015231361977036935,0.12152439335829728,0.06814539620745469,0.015549659940190592,0.25434829144323096,0.08847293192025762,-0.1156911451773631
2311,10.446689300006256,-0.0813670971006402,-0.07664783537558821,-0.013239284665613284,0.006493110123381319,0.00968944428927228,0.01530022588704304,0.12266716332895157,0.06854052519106013,0.015024626122347302,0.25317163863870784,0.08701986964008433,-0.11747549781673283
2312,10.45119110000087,-0.08136286356270357,-0.07660348321762067,-0.013267196353161264,0.007048048527590322,0.009998971133983773,0.015366707164048251,0.12380454906329118,0.06892906863891535,0.014491564904593813,0.2519560616554367,0.08554739297434798,-0.1192564062332895
2313,10.455343900001026,-0.08137405717060028,-0.07657276912774236,-0.013292229577486476,0.007608096316725191,0.01031023249092849,0.01543076969502007,0.12493637530085773,0.06931093950501832,0.013950492494306929,0.25070155758243506,0.08405564836961735,-0.12103357527923644
2314,10.459436800010735,-0.0813825817604842,-0.07654483188747993,-0.013314911762278052,0.008173228079118595,0.010623198126973227,0.015492377443085485,0.1260624667827724,0.06968605141066003,0.013401426430414335,0.24940813062670236,0.08254478646952362,-0.12280670867801197
2315,10.463671300007263,-0.08137748259381701,-0.07651336945847209,-0.013341533626378365,0.0087434176142366,0.010937837421919491,0.015551494453537046,0.12718264828384576,0.07005431866326095,0.012844385588356605,0.24807579215401637,0.08101496211425466,-0.12457550906745772
2316,10.472132399998372,-0.08135981557060643,-0.0764591012671182,-0.013409569685818624,0.009318637932881148,0.011254119371626469,0.015608084859860885,0.1282967446448692,0.07041565627520463,0.012279390184853295,0.24670456072830957,0.07946633433915273,-0.12633967804351323
2317,10.47872670000652,-0.08135981557060643,-0.0764591012671182,-0.013409569685818624,0.00989886125753798,0.01157201259121834,0.015662112889785747,0.12940458080508013,0.07076997998266477,0.011706461782470838,0.24529446214960113,0.07789906637240598,-0.12809891620443234
2318,10.483047000001534,-0.08136272319990873,-0.07643794585530993,-0.013415562781165267,0.010484059022870836,0.01189148531837587,0.015713542871352185,0.13050598183479492,0.0711172062644216,0.011125623293989827,0.2438455294904631,0.0763133256318239,-0.1298529231955187
2319,10.48880089999875,-0.08146136812585976,-0.07640652729453927,-0.01341382627277102,0.01107420187636268,0.012212505416712269,0.015762339239001,0.13160077296820308,0.07145725236066333,0.01053689898656931,0.2423578031309996,0.07470928372068758,-0.1316013977543767
2320,10.493978800004696,-0.08149475998741167,-0.0764003009037978,-0.013407367572727513,0.01166925967910467,0.012535040379233304,0.015808466539679985,0.13268877963631634,0.07179003629176897,0.009940314485705766,0.24083133079231778,0.07308711642266541,-0.1333440377566743
2321,10.497338700006368,-0.08151944915186206,-0.0764023188168388,-0.013389448165563974,0.01226920150673364,0.012859057331881528,0.015851889438968005,0.13376982750006486,0.07211547687706864,0.009335896778984496,0.2392661675684673,0.07144700369578555,-0.13508054026241345
2322,10.501248700005815,-0.08155202922231183,-0.07640204052230458,-0.013381365164911263,0.012873995650518725,0.01318452303716447,0.01589257272721551,0.1348437424835343,0.072433493753577,0.008723674219621122,0.2376623759568286,0.06978912966545636,-0.13681060156270516
2323,10.505514200005564,-0.08158518977562748,-0.07639969049777921,-0.013352602486595914,0.013483609618597797,0.013511403897866625,0.015930481325700494,0.13591035080733765,0.07274400739469525,0.008103676529790943,0.23602002588692847,0.06811368261652655,-0.1385339172270453
2324,10.509762400004549,-0.08166032199070694,-0.076397868588111,-0.013340550451563994,0.014098010137364343,0.01383966596084511,0.01596558029279888,0.13696947902211462,0.07304693912887687,0.007475934803743858,0.2343391947476625,0.06642085498437691,-0.1402501821510867
2325,10.51378079999995,-0.08167653061932421,-0.07639667831014064,-0.013307981967666992,0.014717163153005388,0.014169274920908807,0.01599783483016851,0.13802095404215264,0.07334221115825296,0.006840481510702627,0.23261996741290344,0.06471084334503546,-0.1419590906049027
2326,10.517887599999083,-0.08172308350321779,-0.07639703384390548,-0.01327124745046129,0.015341033833191024,0.014500196124780814,0.01602721028894569,0.13906460317912098,0.0736297465772128,0.00619735049754225,0.23086243626547626,0.06298384840430807,-0.1436603362817383
2327,10.52306820001104,-0.08180679471171358,-0.0763905735151812,-0.013281193976021628,0.015969586568916016,0.014832394575143881,0.016053672175953288,0.14010025417591127,0.07390946939093562,0.005546576991248309,0.22906670121948194,0.0612400749859166,-0.14535361234724273
2328,10.526411900005767,-0.08180679471171358,-0.0763905735151812,-0.013281193976021628,0.016602784976494,0.015165834934768642,0.016077186159919408,0.14112773524057717,0.07418130453386897,0.004888197601152119,0.2272328697409508,0.05947973201863683,-0.14703861148917796
2329,10.53149910000502,-0.08180679471171358,-0.0763905735151812,-0.013281193976021628,0.01724059189970473,0.015500481530724376,0.016097718077705606,0.14214687508036564,0.07444517788814929,0.004222250320940574,0.22536105686680727,0.057703032522429046,-0.14871502596759867
2330,10.53971250000177,-0.08187946677564371,-0.07638145737047584,-0.013288950074810313,0.017882969412094857,0.0158362983586721,0.0161152339405436,0.14315750293583213,0.07470101630196037,0.003548774530438541,0.22345138522212876,0.05591019359355416,-0.15038254766549813
2331,10.543278900004225,-0.08199054184725861,-0.07637191525680402,-0.013267380172944482,0.018529878819432646,0.016173249087239865,0.016129699940279428,0.14415944861503138,0.0749487476078247,0.00286781099716169,0.22150398503568172,0.0541014363886685,-0.152040868139915
2332,10.547524499997962,-0.08210341619979869,-0.076375325525188,-0.013250058271353773,0.01918128066231702,0.016511297062479915,0.016141082455623967,0.14515254252777637,0.07518830064082346,0.002179401877637748,0.21951899415371856,0.052276986107890944,-0.15368967867349428
2333,10.551753599997028,-0.08212719639604636,-0.07638681097256347,-0.01324973284003223,0.019837134718941142,0.016850405312407498,0.01614934805840869,0.1461366157199585,0.07541960525674041,0.0014835907184941417,0.21749655805201956,0.050437071976836154,-0.15532867032649697
2334,10.557305100010126,-0.0821262752183846,-0.07638639177784334,-0.013250095397824669,0.020497400008010865,0.017190536551620936,0.016154463519845466,0.14711149990792055,0.07564259235012546,0.0007804224573100443,0.21543682984616253,0.04858192722760781,-0.1569575339892514
2335,10.561550600003102,-0.0821262752183846,-0.07638639177784334,-0.013250095397824669,0.02116203479181818,0.017531653186002614,0.016156395816789435,0.14807702751287402,0.07585719387227331,6.994342323085705e-05,0.2133399703000039,0.046711789078746,-0.15857596043503971
2336,10.565899400011403,-0.0820995694627432,-0.07641781394598683,-0.013230772166607499,0.021830996579469825,0.017873717317500645,0.016155112138003757,0.14903303169535273,0.07606334284911187,-0.00064779866265681,0.21120614783235592,0.04482689871412341,-0.1601836403734112
2337,10.570007500005886,-0.0821408651818141,-0.07639714454380465,-0.01323742066733572,0.022504242130271256,0.018216690748990863,0.016150579890425343,0.1499793463896944,0.07626097339899571,-0.0013727546871915492,0.20903553852184492,0.04292750126078517,-0.16178026450391694
2338,10.57396580000932,-0.08214142010133295,-0.07639210582471846,-0.01323805314688796,0.023181727457266123,0.0185605349892189,0.01614276670543033,0.15091580633854296,0.07645002075039971,-0.00210487414524682,0.20682832610993604,0.041013845765727606,-0.1633655235702578
2339,10.580247400008377,-0.08214282378613157,-0.07637685541716566,-0.01324386003568705,0.023863407830931337,0.018905211257821856,0.016131640445098176,0.15184224712736324,0.07663042125950842,-0.0028441051400856813,0.2045847020021092,0.03908618517161138,-0.16493910841483883
2340,10.584622299997136,-0.0821427486282505,-0.0763624865716253,-0.013233646106304514,0.02454923778302784,0.01925068049042908,0.016117169208473295,0.15275850521895912,0.07680211242769684,-0.0035903943839623842,0.20230486526717364,0.03714477629140482,-0.16650071003372213
2341,10.589122600009432,-0.0821525853412291,-0.07635192341595931,-0.013232310808061306,0.025239171110607184,0.019596903343841576,0.016099321337823165,0.15366441798798627,0.07696503291889764,-0.004343687198972562,0.19998902263470725,0.035189879781953565,-0.16805001963196986
2342,10.592506700006195,-0.0821525853412291,-0.07635192341595931,-0.013232310808061306,0.025933160880173927,0.019943840201289482,0.016078065424891843,0.1545598237554503,0.07711912257684995,-0.005103927518153735,0.19763738849060838,0.03322176011647282,-0.16958672867936897
2343,10.59714920000988,-0.08217548260236031,-0.07633736351205449,-0.013229762531521746,0.02663115943200373,0.02029145117776702,0.016053370317147878,0.15544456182318056,0.07726432244222464,-0.005871057886837792,0.19525018487074872,0.031240685555958853,-0.1711105289665288
2344,10.602699299997768,-0.08221953018239038,-0.07631811833571585,-0.013234879791934554,0.027333118384616967,0.020639696125444272,0.01602520512402555,0.1563184725082711,0.07740057476962098,-0.006645019464257096,0.192827641452715,0.02924692811951656,-0.17262111266134209
2345,10.60619520000182,-0.08224388541351157,-0.07632209740813257,-0.013226064956045797,0.028038988639407705,0.02098853463915523,0.015993539223158177,0.15718139717747967,0.07752782304442933,-0.007425752025405774,0.19036999554562892,0.0272407635536,-0.1741181723657998
2346,10.610685999999989,-0.08227391347926119,-0.07631788985349369,-0.013225912671317024,0.028748720385427858,0.02133792606196136,0.015958342266602362,0.15803317828157543,0.077646011999555,-0.00821319396315775,0.18787749207803345,0.025222471300163394,-0.17560140117315148
2347,10.6143582000077,-0.08227391347926119,-0.07631788985349369,-0.013225912671317024,0.02946226310432637,0.021687829490790154,0.015919584187052045,0.15887365938962633,0.07775508763199826,-0.009007282290642961,0.18535038358383576,0.02319233446372029,-0.17707049272540035
2348,10.6227571000054,-0.08232265263013076,-0.07630962677165434,-0.01319336233015412,0.030179565575443244,0.022038203782147946,0.015877235204041107,0.15970268522321734,0.07785499721928577,-0.009807952643883202,0.18278893018629785,0.021150639777309202,-0.17852514127112382
2349,10.626227900007509,-0.08235501083784906,-0.07631164723911113,-0.013173862905119184,0.030900575881058167,0.022389007557906394,0.015831265830133397,0.16052010169059155,0.07794568933574804,-0.010615139284689039,0.18019339958006597,0.019097677567364267,-0.17996504172360997
2350,10.630507100009709,-0.08238698364054556,-0.0763210464824373,-0.013152587512665096,0.031625241411793424,0.022740199211161962,0.01578164687709896,0.1613257559207057,0.07802711386863866,-0.011428775103819074,0.17756406701123112,0.01703374171748987,-0.18138988971929912
2351,10.634537500009174,-0.08238765363403742,-0.07635996147070409,-0.013126400864759899,0.0323535088721707,0.02309173691216771,0.015728349462075405,0.16211949629719133,0.07809922203409005,-0.012248791624402866,0.17490121525541336,0.014959129631138475,-0.18279938167652038
2352,10.63868889999867,-0.08242702526592674,-0.07638560178631697,-0.0131218161280679,0.033085324286321396,0.02344357861433648,0.015671345013713204,0.16290117249221323,0.0781619663929012,-0.013075119005628756,0.1722051345938626,0.012874142193191067,-0.18419321485451212
2353,10.642809199998736,-0.08246907873407344,-0.07640520493768808,-0.013123151395333831,0.03382063300385005,0.023795682060314738,0.01561060527830381,0.16367063550021588,0.0782153008661527,-0.01390768604669775,0.1694761227875693,0.010779083730440118,-0.18557108741271497
2354,10.647159000000102,-0.0825035288188047,-0.07640690406288035,-0.013113687428658587,0.03455937970585023,0.024148004788126384,0.015546102325889497,0.1644277376715495,0.07825918075064432,-0.014746420191044649,0.16671448504937827,0.008674261970975311,-0.18693269847032598
2355,10.650539399997797,-0.0825035288188047,-0.07640690406288035,-0.013113687428658587,0.03530150841107233,0.02450050413738572,0.015477808556353658,0.16517233274596646,0.07829356273414968,-0.015591247530827437,0.1639205340141002,0.006559988002472711,-0.18827774816610326
2356,10.654323499999007,-0.0825035288188047,-0.07640690406288035,-0.013113687428658587,0.03604696248224282,0.02485313725557879,0.015405696705490385,0.16590427588597872,0.07831840491048288,-0.016442092811685984,0.16109458970661425,0.00443657622938841,-0.18960593771840945
2357,10.65757450000092,-0.0825035288188047,-0.07640690406288035,-0.013113687428658587,0.03679568463253415,0.025205861104412423,0.01532973985105211,0.16662342371006786,0.078333666794372,-0.017298879437770958,0.15823697950795768,0.002304344329058017,-0.19091696948548215
2358,10.661393900008989,-0.0825496454965661,-0.07641622708159729,-0.013106446619681125,0.03754761693218496,0.0255586324662301,0.015249911418774083,0.16732963432573822,0.07833930933613438,-0.018161529477043806,0.1553480381193988,0.00016361320670375915,-0.1922105470259184
2359,10.664774200005922,-0.0825496454965661,-0.07641622708159729,-0.013106446619681125,0.03830270081526961,0.025911407950493945,0.015166185188374526,0.16802276736240387,0.07833529493614834,-0.019029963666848695,0.1524281075244901,-0.0019852930506486072,-0.19348637515935935
2360,10.66824510000879,-0.08265637251049342,-0.07643190980984813,-0.013119473338258174,0.039060877086616534,0.02626414400033173,0.015078535299529239,0.16870268400410124,0.07832158745911667,-0.01990410141975716,0.14947753694909868,-0.0041420472213405425,-0.19474416002736214
2361,10.672230900003342,-0.08272320376804827,-0.07643842685336147,-0.01314654059605105,0.03982208592887431,0.026616796899148087,0.014986936257819449,0.1693692470220184,0.07829815224811751,-0.020783860829686213,0.14649668281941203,-0.006306318997336175,-0.1959836091544469
2362,10.676446400000714,-0.08273237631891635,-0.0764449374094444,-0.013162974103916751,0.040586266909724666,0.02696932277729893,0.014891362940651694,0.17002232080683238,0.07826495613843773,-0.02166915867829063,0.14348590871791747,-0.008477775033559112,-0.19720443150930614
2363,10.680962700003874,-0.08272653299778364,-0.07646491040831749,-0.013158907260413966,0.041353358989241425,0.027321677618828106,0.014791790603148437,0.1706617714008459,0.07822196747118418,-0.02255991044163013,0.1404455853373544,-0.010656078998306855,-0.19840633756616227
2364,10.68852580001112,-0.08270948204109486,-0.07650404724321683,-0.013164059931210332,0.042123300527394505,0.027673817268265195,0.014688194884008215,0.17128746652991436,0.07816915610666768,-0.023456030297112074,0.13737609043263915,-0.012840891624738652,-0.19958903936625938
2365,10.692876700006307,-0.08271605562648952,-0.07652191603843647,-0.013174418505662405,0.04289602929169786,0.02802569743748333,0.014580551811334021,0.1718992756351538,0.07810649343755492,-0.024357431130710077,0.13427780877076265,-0.015031870763432245,-0.20075225057947382
2366,10.697183900003438,-0.08273478474184068,-0.07654404302954793,-0.013189205006500167,0.043671482465000286,0.02837727371261613,0.014468837808428553,0.17249706990442085,0.0780339524017834,-0.025264024544458884,0.1311511320786614,-0.017228671436004626,-0.20189568656603007
2367,10.701342500004102,-0.08274449870296659,-0.07657000472564071,-0.013205143687359722,0.044449596653418195,0.02872850156103259,0.014353029699555089,0.17308072230355584,0.07795150749523438,-0.02617572086422577,0.12799645898906326,-0.01943094588979149,-0.20301906443830703
2368,10.705420800004504,-0.08278056249568987,-0.07659052652803562,-0.013218286677087934,0.04523030789440937,0.02907933633836881,0.014233104715662723,0.1736501076073799,0.07785913478415896,-0.027092429147758834,0.12481419498431086,-0.021638343653579757,-0.2041221031227196
2369,10.711657699997886,-0.08282441856127802,-0.07660145217409146,-0.013248666753467074,0.04601355166498654,0.029429733295615625,0.014109040500074749,0.17420510243043605,0.07775681191735213,-0.02801405719301241,0.12160475233816499,-0.023850511594387086,-0.2052045234216606
2370,10.715637200002677,-0.08286662872831596,-0.07661748337638029,-0.013283378117725885,0.04679926289006971,0.029779647586261008,0.013980815114138952,0.174745585257466,0.07764451813807073,-0.028940511546749773,0.11836855005559284,-0.026067093975281955,-0.20626604807548782
2371,10.719624700010172,-0.08290513491855633,-0.07662838236806573,-0.01331449226528593,0.047587375950976216,0.030129034273486326,0.01384840704283854,0.1752714364736131,0.07752223429569036,-0.02987169751342329,0.11510601381054558,-0.02828773251423743,-0.20730640182454066
2372,10.723891900008311,-0.0829278906930141,-0.07663890253839038,-0.013315677651155997,0.048377824694047236,0.030477848337415143,0.013711795200362425,0.1757825383943427,0.07738994285709658,-0.030807519164331984,0.11181757588173127,-0.030512066444011204,-0.20832531147116928
2373,10.72809910000069,-0.08297015406769068,-0.07664269864168963,-0.013348243010226706,0.04917054243940948,0.03082604468241329,0.013570958935633638,0.17627877529507144,0.07724762791780547,-0.03174787934705654,0.1085036750863889,-0.03273973257304415,-0.20932250594176124
2374,10.732216000003971,-0.0829859627097181,-0.07664862716817271,-0.013351873716764481,0.04996546198987075,0.031173578144438868,0.013425878037794575,0.17676003344049607,0.077095275212809,-0.03269267969517169,0.10516475671207053,-0.034970365347369164,-0.2102977163487499
2375,10.736320600000909,-0.08302335792732225,-0.07664764388041216,-0.01335204376388623,0.050762515639947936,0.03152040349844081,0.013276532741647832,0.17722620111361337,0.07693287212714078,-0.03364182063823579,0.1018012724464392,-0.03720359691352176,-0.2112506760525895
2376,10.739707500004442,-0.0830540572993114,-0.07664128858293215,-0.013352557853488298,0.05156163518502591,0.03186647546580474,0.0131229037330513,0.17767716864442143,0.0767604077061581,-0.03459520141205751,0.09841368030509037,-0.03943905718244319,-0.21218112072367998
2377,10.744341600002372,-0.08306559616118228,-0.07663530937707792,-0.013329993735351946,0.05236275193064601,0.03221174872184473,0.012964972154266305,0.17811282843829346,0.07657787266553558,-0.0355527200692393,0.09500244455740564,-0.04167637389436688,-0.21308878840422615
2378,10.747774400006165,-0.08306559616118228,-0.07663530937707792,-0.013329993735351946,0.05316579670192246,0.03255617790333954,0.012802719609257513,0.17853307500401525,0.07638525940096615,-0.03651427348999722,0.09156803565044809,-0.04391517268467818,-0.21397341957001456
2379,10.751299499999732,-0.08306012949397534,-0.07662545207699786,-0.013306784897491713,0.05397069985308516,0.03289971761611199,0.012636128168943425,0.17893780498147832,0.07618256199756536,-0.03747975739325687,0.08811093013090966,-0.04615507715073728,-0.21483475719209177
2380,10.755669100006344,-0.08307407940584112,-0.07661125204851305,-0.013257673798346994,0.0547773912771473,0.03324232244265023,0.012465180376396181,0.17932691716902074,0.07596977623897402,-0.03844906634802474,0.08463161056512164,-0.04839570891965443,-0.21567254679832706
2381,10.759676500005298,-0.08305684349475359,-0.07661807590574599,-0.013223136042017122,0.055585800415696086,0.03358394694976966,0.012289859251989436,0.17970031255040708,0.07574689961615486,-0.039422093785034876,0.08113056545713995,-0.05063668771700637,-0.21648653653484223
2382,10.763791400007904,-0.08303708757339655,-0.07661902918151726,-0.013195138251788245,0.05639585626880509,0.03392454569631409,0.012110148298493082,0.18005789432143937,0.07551393133587883,-0.04039873200866991,0.07760828916491752,-0.05287763143648254,-0.21727647722729257
2383,10.767925400010428,-0.08301706287195112,-0.07661694111736757,-0.0131731960533472,0.05720748740506612,0.034264073240894415,0.011926031506113474,0.1803995679161898,0.07527087232889677,-0.04137887220915573,0.07406528181457656,-0.05511815621044944,-0.2180421224419815
2384,10.772417100000894,-0.08301454995086154,-0.07660963964408578,-0.013159187363082601,0.05802062197173894,0.03460248414966368,0.011737493357477948,0.18072524103284554,0.07501772525779148,-0.04236240447502896,0.07050204921279402,-0.05735787648142074,-0.21878322854679105
2385,10.776207100003376,-0.08299646325847353,-0.07660402792677967,-0.013162471915627005,0.05883518770501731,0.034939733004127047,0.01154451883256239,0.18103482365915652,0.07475449452450632,-0.04334921780587605,0.06691910275731452,-0.05959640507442063,-0.21949955477191038
2386,10.780199900007574,-0.08298707305727189,-0.07659214807976354,-0.013187791619236873,0.05965111194040994,0.03527577440898526,0.01134709341356062,0.18132822809747753,0.07448118627754628,-0.04433920012534305,0.06331695934560588,-0.06183335327022715,-0.22019086327034568
2387,10.783886600009282,-0.08298707305727189,-0.07659214807976354,-0.013187791619236873,0.06046832162323423,0.03561056300001021,0.011145203089694368,0.18160536898939586,0.07419780841884743,-0.04533223829441513,0.0596961412816729,-0.06406833087948206,-0.22085691917819303
2388,10.788180800009286,-0.08295927144949675,-0.076583616702889,-0.013206023939079289,0.06128674331922097,0.035944053451951244,0.010938834361962607,0.18186616333993588,0.07390437061031102,-0.04632821812496468,0.05605717618104578,-0.0663009463176536,-0.22149749067465566
2389,10.792666800000006,-0.08294062571212182,-0.07657439573315457,-0.013289615243040452,0.06210630322522761,0.03627620048647055,0.010727974247829081,0.18211053054133275,0.07360088427999806,-0.047327024393566945,0.05240059687396014,-0.06853080668083754,-0.22211234904178745
2390,10.797092799999518,-0.08292697454532456,-0.07656442587546111,-0.013330987942095827,0.0629269271800583,0.03660695888010606,0.01051261028584678,0.1823383923963673,0.07328736262798075,-0.04832854085558169,0.048726941306746666,-0.07075751782238258,-0.22270126872394486
2391,10.801995000001623,-0.0829169372401268,-0.07654960923915369,-0.013355254858328038,0.06374854067538843,0.0369362834722601,0.010292730540218259,0.18254967314125467,0.07296382063184675,-0.0493326502594994,0.04503675244144903,-0.07298068443032489,-0.22326402738693
2392,10.8056030000007,-0.08289627912352443,-0.07654167063420761,-0.013362091989667691,0.06457106886679188,0.03726412917321256,0.010068323605290634,0.182744299468079,0.07263027505185277,-0.0503392343615502,0.04133057815368923,-0.07519991010561645,-0.22380040597680714
2393,10.809514400010812,-0.08289194190460182,-0.07653051141809687,-0.013363765389233472,0.06539443658486847,0.037590450972157054,0.009839378609984144,0.1829222005467662,0.07228674443572414,-0.051348173940574025,0.0376089711288003,-0.07741479744113126,-0.22431018877837533
2394,10.813812300009886,-0.08289150736717292,-0.0765192922095198,-0.013354647432275202,0.06621856834646951,0.037915203945258755,0.0096058852221531,0.18308330804658698,0.07193324912309683,-0.05235934881315011,0.03387248875624693,-0.07962494810143324,-0.22479316347327763
2395,10.818980700001704,-0.0829016059483413,-0.07650699330223827,-0.013332813433557371,0.06704338836601924,0.03823834326373223,0.009367833652878067,0.18322755615718175,0.07156981124959826,-0.05337263784898433,0.030121693022355022,-0.08182996290328927,-0.22524912119772936
2396,10.822741299998595,-0.0829016059483413,-0.07650699330223827,-0.013332813433557371,0.06786882056692996,0.03855982420193788,0.009125214660688042,0.18335488160909993,0.0711964547505635,-0.05438791898655267,0.02635715040137238,-0.0840294418969101,-0.2256778565998474
2397,10.826261100010017,-0.0829016059483413,-0.07650699330223827,-0.013332813433557371,0.06869478859310911,0.03887960214549551,0.008878019555711474,0.18346522369384596,0.07081320536438399,-0.055405069248999066,0.022579431744883388,-0.08622298444790191,-0.22607916789656154
2398,10.830357800005004,-0.08289088646586344,-0.07649163076741902,-0.013308081193752304,0.06952121582055584,0.039197632599413286,0.008626240203755043,0.1835585242834241,0.07042009063548524,-0.056423964760285626,0.018789112169601115,-0.08841018931991067,-0.2264528569300883
2399,10.834002400006284,-0.08289088646586344,-0.07649163076741902,-0.013308081193752304,0.07034802536904446,0.0395138711962305,0.008369869030309078,0.1836347278493736,0.07001713991693033,-0.05744448076159325,0.014986770943560834,-0.09059065475794068,-0.22679872922394892
2400,10.838567099999636,-0.08289308062965234,-0.07644650979590363,-0.013219627869382172,0.07117514011389225,0.03982827370417239,0.008108899024478464,0.1836937814812862,0.06960438437264582,-0.0584664916279705,0.011172991370739705,-0.09276397857232878,-0.227116594038512
2401,10.842869800006156,-0.08289948436144048,-0.07641711607527377,-0.013199950331233262,0.07200248269780911,0.04014079603531517,0.007843323742837893,0.18373563490479924,0.0691818569792676,-0.05948987088522835,0.0073483606741280485,-0.09492975822335499,-0.22740626442604292
2402,10.847044000009191,-0.08290610451797051,-0.07640930337626746,-0.013226367645329778,0.07282997554282658,0.04045139425375953,0.007573137313210413,0.18376024049905812,0.06874959252760364,-0.060514491227078804,0.0035134698772781767,-0.09708759090647047,-0.22766755728524243
2403,10.851559800008545,-0.08288585671137186,-0.07640624956514495,-0.013228239519646998,0.07365754086230432,0.04076002458381076,0.007298334438368102,0.18376755331364122,0.06830762762371131,-0.061540224532515,-0.00033108631564258815,-0.09923707363812348,-0.2279002934152544
2404,10.855615699998452,-0.0828525273660016,-0.07640459677018227,-0.013257340843510115,0.07448510067301135,0.041066643418163594,0.00701891039965379,0.1837575310849406,0.06785600068958665,-0.06256694188343058,-0.004184709641267443,-0.10137780334216323,-0.22810429756912406
2405,10.859871300010129,-0.08281108710763675,-0.07640046711866345,-0.0132653951277957,0.07531257680728017,0.04137120732609,0.006734861060522728,0.18373013425199158,0.06739475196346295,-0.0635945135824754,-0.00804679839988628,-0.10350937693680111,-0.22827939850668832
2406,10.86379719999968,-0.08281108710763675,-0.07640046711866345,-0.0132653951277957,0.0761398909252315,0.04167367306162785,0.006446182870003179,0.18368532597174503,0.06692392349971657,-0.06462280917114531,-0.011916747579713949,-0.10563139142210878,-0.22842542904687924
2407,10.867996400003904,-0.0827885669102471,-0.0764047054007647,-0.013300613174906353,0.0769669645270671,0.041973997571768264,0.00615287286607484,0.18362307213377627,0.06644355916837781,-0.065651697448103,-0.01579394898254142,-0.10774344396803218,-0.2285422261194218
2408,10.872012799998627,-0.08266163985682684,-0.07642976199866273,-0.013337290617216039,0.07779371896542739,0.042272138004640226,0.005854928678964083,0.18354334137442474,0.06595370465424459,-0.06668104648772727,-0.019677791350740007,-0.1098451320029004,-0.22862963081590662
2409,10.876254600007089,-0.08259410968240584,-0.07644304036834075,-0.013348490305570965,0.0786200754578116,0.042568051717690604,0.005552348534354988,0.1834461050903583,0.06545440745559708,-0.06771072365888815,-0.023567660495588307,-0.11193605330240836,-0.22868748844022008
2410,10.880275100003928,-0.08254664863442254,-0.07646515563940601,-0.013374737070743863,0.07944595509905732,0.042861696285857814,0.00524513125651519,0.1833313374515562,0.06494571688251127,-0.06874059564394522,-0.02746293942689084,-0.11401580607905103,-0.22871564855831225
2411,10.88763409999956,-0.08248616622090102,-0.07646618489185131,-0.013382718901140858,0.08027127887387675,0.04315302950973729,0.004933276271335533,0.183199015413705,0.06442768405476892,-0.06977052845796637,-0.031363008483856904,-0.11608398907198716,-0.22871396504728492
2412,10.89255000000412,-0.08235062247536812,-0.07649019309598415,-0.013412826771201323,0.08109596766944745,0.043442009423736695,0.004616783609282549,0.18304911873000165,0.0639003618993616,-0.07080038746816426,-0.03526724546720732,-0.11814020163731027,-0.22868229614378058
2413,10.89720400000806,-0.08231421619987044,-0.07645534785168018,-0.013434314588947957,0.08191994228805419,0.04372859430421914,0.00429565390826283,0.18288162996235782,0.06336380514758691,-0.07183003741354725,-0.039175025772476176,-0.12018404383870465,-0.2286205044916539
2414,10.901146900010644,-0.08225803652142027,-0.07644864984899345,-0.013436681815212816,0.08274312345977913,0.04401274267763243,0.003969888416398329,0.18269653449200066,0.06281807033173509,-0.07285934242478166,-0.043085722524474415,-0.12221511653846305,-0.2285284571889072
2415,10.905279500002507,-0.08220173736989997,-0.07643057175283077,-0.013460309494149933,0.08356543185523747,0.04429441332862248,0.0036394889947116323,0.1824938205294639,0.06226321578136387,-0.07388816604426239,-0.0469987067128814,-0.12423302148884226,-0.22840602583387218
2416,10.909623700004886,-0.08213184479236628,-0.07642203578326173,-0.013443826496479922,0.08438678809835536,0.04457356530812905,0.0033044581197202824,0.1822734791239647,0.0616993016191597,-0.07491637124638814,-0.050913347328930235,-0.12623736142373293,-0.22825308657061832
2417,10.913618700011284,-0.08207740738457979,-0.07640986907638649,-0.013449308063194122,0.0852071127791872,0.04485015794146208,0.0029647988859392645,0.18203550417215925,0.06112638975638413,-0.0759438204580374,-0.054829011503151975,-0.1282277401506199,-0.22806952013357137
2418,10.917938800004777,-0.08202471865156277,-0.07639673746324269,-0.013433825897944524,0.08602632646677004,0.04512415083635686,0.002620515008290755,0.1817798924262724,0.06054454388790423,-0.07697037557924152,-0.058745064644143405,-0.13020376264280834,-0.22785521189132388
2419,10.922029699999255,-0.08196584565804407,-0.07636867458689267,-0.013413050034376537,0.08684434972201174,0.04539550389100618,0.00227161082442028,0.1815066435015968,0.05995382948680576,-0.07799589800405105,-0.0626608705783224,-0.13216503513189076,-0.22761005188962075
2420,10.926387900006375,-0.08189522414665137,-0.0763488986872059,-0.013364706565413465,0.08766110311061026,0.04566417730206743,0.0019180912969184317,0.18121575988335664,0.05935431379858813,-0.07902024864159118,-0.06657579169063452,-0.13411116520043082,-0.22733393489350195
2421,10.933776500009117,-0.08184476790354343,-0.07631721132616812,-0.013312131887921212,0.0884765072160013,0.045930131572642904,0.0015599620154473004,0.18090724693293264,0.058746065834939756,-0.08004328793730348,-0.07048918906617373,-0.1360417618748387,-0.22702676042858352
2422,10.937525400004231,-0.08184476790354343,-0.07631721132616812,-0.013312131887921212,0.08929048265233161,0.04619332752023153,0.0011972291987708042,0.18058111289344364,0.058129156367093,-0.08106487589436973,-0.07440042263268028,-0.13795643571841434,-0.22668843282145876
2423,10.94236549999914,-0.08163118189348699,-0.0762394904979376,-0.013111215930835677,0.09010295007745502,0.0464537262846499,0.0008298996966881221,0.18023736889468184,0.057503657918757695,-0.08208487209531473,-0.0783088513038781,-0.13985479892453184,-0.22631886123920286
2424,10.946824400001788,-0.08156742523817377,-0.0761960859784684,-0.013029661761280413,0.09091383020594784,0.04671128933592075,0.0004579809918694568,0.17987602895739668,0.056869644758632626,-0.08310313572378421,-0.08221383312361326,-0.14173646540994048,-0.2259179597279652
2425,10.951188000006368,-0.08151743334431633,-0.07614212996364944,-0.012979084342968723,0.09172304382214097,0.046965978482126844,8.148120159337623e-05,0.17949710999692375,0.056227192892494705,-0.08411952558649424,-0.08611472541075459,-0.1436010509081573,-0.22548564725063358
2426,10.955255900000338,-0.08145027860576684,-0.076102130348571,-0.012915469395422673,0.09253051179316533,0.047217755877228214,-0.0002995909206150029,0.17910063182615504,0.05557638005486513,-0.08513390013534827,-0.09001088490481748,-0.14544817306292507,-0.22502184772355285
2427,10.95875000000524,-0.08145027860576684,-0.076102130348571,-0.012915469395422673,0.09333615508200792,0.04746658402884082,-0.0006852259834457051,0.178686617157848,0.054917285700252255,-0.0861461174897173,-0.09390166791227149,-0.14727745152170926,-0.22452649005228117
2428,10.963361600006465,-0.08135095822666288,-0.07604920479464929,-0.012830768623223694,0.09413989476057553,0.04771242580597472,-0.0010754139563661552,0.17825509160627043,0.05424999099397085,-0.08715603545887933,-0.09778643045349183,-0.1490885080292087,-0.22399950816636718
2429,10.967656000007992,-0.08122662176587492,-0.07593095248767971,-0.012710658922840054,0.0949416520227631,0.047955244446729835,-0.00147014416828468,0.17780608368817843,0.0535745788025376,-0.08816351156461423,-0.10166452841031452,-0.1508809665208537,-0.22344084105313197
2430,10.97198470000876,-0.08110181348669301,-0.07587542285506169,-0.01262903177042904,0.09574134819752328,0.04819500356594733,-0.0018694053063159088,0.17733962482312585,0.052891133683643184,-0.08916840306394946,-0.10553531767415374,-0.1526544532162658,-0.2228504327904386
2431,10.97620070000994,-0.08102191958257134,-0.07582303718058414,-0.012585936496813107,0.09653890476193455,0.048431667162815044,-0.0022731854146487017,0.17685574933310277,0.05219974187570136,-0.09017056697205214,-0.10939815429464046,-0.15440859671265253,-0.22222823257843322
2432,10.98068510000303,-0.080907539732031,-0.07575927832456023,-0.012533682748177344,0.09733424335426462,0.048665199628425096,-0.002681471893517222,0.17635449444150075,0.05150049128697524,-0.09116986008526291,-0.11325239462874082,-0.1561430280781116,-0.22157419477024154
2433,10.98488420000649,-0.08079163056472582,-0.07569609546518959,-0.01247024818947149,0.09812728578702609,0.04889556575328206,-0.0030942514982757515,0.1758359002714024,0.05079347148428106,-0.09216613900426725,-0.11709739549031256,-0.15785738094481735,-0.2208882789016038
2434,10.988756500009911,-0.08065812436203412,-0.07562063379515171,-0.012417073814011557,0.09891795406002156,0.04912273073475954,-0.00351151033857783,0.17530000984319358,0.05007877368126995,-0.09315926015739912,-0.12093251430005815,-0.1595512916020626,-0.22017044971943409
2435,10.993032099999256,-0.08047566754508553,-0.07553020393690531,-0.01232480107623053,0.09970617037337526,0.04934666018450304,-0.003933233877660279,0.17474686907149622,0.049356490726288144,-0.09414907982407256,-0.12475710923583215,-0.1612243990891286,-0.21942067720928807
2436,10.997096400009468,-0.08028439360409145,-0.07543322702986124,-0.012277595947913507,0.10049185714054833,0.04956732013577703,-0.004359406931732652,0.17417652676141943,0.0486267170898167,-0.09513545415833619,-0.12857053938326035,-0.16287634528795628,-0.21863893662172412
2437,11.001089199999114,-0.08010766154554169,-0.07533539133748869,-0.012226156113711185,0.10127493700133465,0.04978467705075432,-0.004790013669472618,0.1735890346041278,0.04788954885149158,-0.09611823921254586,-0.13237216488662829,-0.16450677501559127,-0.21782520849754472
2438,11.005415999999968,-0.07988191174659902,-0.07519428962680608,-0.012200542729973545,0.10205533283483433,0.04999869782774563,-0.005225037611627768,0.172984447171726,0.047145083686705114,-0.09709729096115045,-0.13616134709999642,-0.16611533611637613,-0.2169794786919043
2439,11.009663200005887,-0.07965289431528398,-0.07505804831394491,-0.012172357930834429,0.10283296777240168,0.05020934980836764,-0.005664461630724286,0.17236282191145944,0.046393420852790156,-0.09807246532458544,-0.1399374487384972,-0.16770167955386187,-0.21610173839726973
2440,11.01394760000403,-0.07936966274000003,-0.07491556810199525,-0.012097527054401805,0.10360776521056471,0.050416600784647714,-0.00610826795088293,0.17172421913923158,0.04563466117478819,-0.09904361819326933,-0.14369983402976932,-0.1692654595024116,-0.2151919841652199
2441,11.018077500004438,-0.07909201542134488,-0.07476829944470115,-0.012008165378143799,0.10437964882391286,0.050620419006063656,-0.006556438147742704,0.17106870203243765,0.04486890703080243,-0.10001060545169771,-0.14744786886548591,-0.1708063334384694,-0.21425021792707172
2442,11.022549100001925,-0.07877787934680272,-0.07458975629437094,-0.011982389255269763,0.10514854257795044,0.050820773186516295,-0.007008953148492624,0.1703963366221135,0.04409626233693743,-0.10097328300262967,-0.151180920952932,-0.17232396223146665,-0.2132764470133187
2443,11.02780399999756,-0.07850899084622213,-0.0744059451934851,-0.011964011722147682,0.10591437074191268,0.0510176325112333,-0.007465793232011953,0.16970719178440014,0.04331683253182677,-0.10193150679136093,-0.15489835996658766,-0.173818010234338,-0.21227068417186867
2444,11.03365219999978,-0.07819718455296792,-0.07418869695390984,-0.011929756189134513,0.10667705790154174,0.05121096664360266,-0.007926938029119288,0.16900133923132413,0.04253072456075066,-0.10288513283007836,-0.15859955769967188,-0.17528814537362009,-0.21123294758506886
2445,11.0375245000032,-0.07819718455296792,-0.07418869695390984,-0.011929756189134513,0.1074365289718203,0.05140074573193392,-0.008392366522930765,0.168278853500895,0.041738046859345436,-0.1038340172222908,-0.16228388821560277,-0.17673403923910544,-0.21016326088550516
2446,11.043184800000745,-0.07695224633804475,-0.07355450771076656,-0.011727818959103254,0.1081927092096603,0.05158694041614534,-0.008862057049327647,0.16753981194652062,0.04093890933690681,-0.10477801618733044,-0.16595072799932858,-0.17815536717302427,-0.2090616531705649
2447,11.047035900002813,-0.07645021714143034,-0.0733380131872654,-0.01161976579801003,0.10894552422654374,0.05176952183437517,-0.009335987297533556,0.16678429472574197,0.04013342335928932,-0.10571698608491994,-0.16959945610848426,-0.17955180835872647,-0.20792815901575082
2448,11.051413100009086,-0.07601684541415558,-0.07313338311296452,-0.011580359216373676,0.10969490000111204,0.05194846162951549,-0.009814134310801598,0.16601238478828848,0.039321701731404306,-0.10665078343979963,-0.17322945432432724,-0.18092304590883634,-0.20676281848673522
2449,11.055547700001624,-0.07561992136818296,-0.07291375841547722,-0.011601893653979055,0.11044076289170095,0.052123731955666636,-0.010296474487211663,0.16522416786345553,0.03850385867931895,-0.1075792649664094,-0.17684010730240673,-0.1822687669528526,-0.20556567715014368
2450,11.059491100008016,-0.0752407012417949,-0.07271436525927095,-0.011544279256556735,0.11118303964881769,0.05229530548451034,-0.010782983580578064,0.16441973244680494,0.03768000983195918,-0.1085022875936198,-0.18043080272292103,-0.1835886627241672,-0.2043367860830577
2451,11.066543599998113,-0.0748796237080573,-0.07248177794927542,-0.011530347884781016,0.11192165742755748,0.052463155411599675,-0.011273636701467782,0.1635991697861894,0.036850272202419196,-0.10941970848950694,-0.18400093144071666,-0.18488242864647575,-0.2030762018812271
2452,11.071478900004877,-0.07400221923219137,-0.07208697059183491,-0.011415136303649848,0.11265654379995636,0.05262725546256433,-0.011768408318329428,0.1627625738671023,0.03601476416888038,-0.11033138508616591,-0.18754988763488337,-0.18614976441955108,-0.20178398666598196
2453,11.076570899997025,-0.07353988235717084,-0.07191339578263094,-0.011334618648547387,0.11338762676727791,0.05278757989922951,-0.012267272258733058,0.16191004139735388,0.03517360545514261,-0.11123717510455673,-0.19107706895790008,-0.1873903741043526,-0.20046020808983525
2454,11.080113700008951,-0.07353988235717084,-0.07191339578263094,-0.011334618648547387,0.11411483477223061,0.052944103525646484,-0.012770201710720934,0.16104167179107626,0.034326917110770766,-0.11213693657937676,-0.1945818766842866,-0.18860396620744319,-0.19910493934076748
2455,11.085731900006069,-0.07353988235717084,-0.07191339578263094,-0.011334618648547387,0.11483809671111284,0.05309680169403306,-0.013277169224269343,0.16015756715205906,0.03347482149085967,-0.11303052788395317,-0.19806371585871493,-0.18979025376468722,-0.19771825914518473
2456,11.089413900001093,-0.07353988235717084,-0.07191339578263094,-0.011334618648547387,0.11555734194588253,0.053245650310622415,-0.013788146712861465,0.15925783225641832,0.03261744223542072,-0.11391780775514976,-0.20152199544353497,-0.1909489544242035,-0.19630025176954238
2457,11.093006199997037,-0.07271279626746575,-0.07124750944042912,-0.011094947687346354,0.11627250031614908,0.0533906258414188,-0.014303105455171317,0.15834257453460127,0.03175490424839359,-0.11479863531828251,-0.20495612846566705,-0.19207979052854549,-0.19485100702062666
2458,11.097100800005135,-0.07070703958917676,-0.06997349320533883,-0.010781992694673186,0.11698350215108426,0.053531705317858495,-0.01482201609685884,0.1574119040527294,0.030887333676286204,-0.11567287011203774,-0.2083655321628149,-0.19318248919608205,-0.19337062024448728
2459,11.100612000009278,-0.07070703958917676,-0.06997349320533883,-0.010781992694673186,0.11769027828124945,0.05366886634237437,-0.015344848652476163,0.15646593349328294,0.030014857886446925,-0.11654037211338682,-0.21174962812895284,-0.19425678240155256,-0.19185919232401472
2460,11.10533099999884,-0.07011112760508013,-0.06954375521968884,-0.010573952586000227,0.11839276005033668,0.05380208709386189,-0.01587157250748506,0.15550477813513053,0.029137605444972667,-0.11740100176249262,-0.21510784245904313,-0.19530240705577015,-0.19031682967515595
2461,11.108975100010866,-0.07011112760508013,-0.06954375521968884,-0.010573952586000227,0.11909087932682065,0.05393134633304504,-0.016402156420385616,0.15452855583290795,0.028255706094257083,-0.1182546199876007,-0.21843960589293765,-0.1963191050844475,-0.188743644241764
2462,11.113310600005208,-0.06896622273186583,-0.0686040903241581,-0.010335623812125886,0.11978456851551833,0.054056623407740534,-0.016936568524956046,0.1535373869957505,0.02736929073018306,-0.1191010882299093,-0.22174435395841807,-0.197306623506118,-0.18713975348907647
2463,11.1176589000097,-0.06772559449208648,-0.06758535312543913,-0.01011692836979696,0.1204737605690531,0.05417789825801866,-0.017474776332603685,0.15253139456538295,0.026478491378963562,-0.11994026846841177,-0.22502152711332804,-0.19826471450912664,-0.18550528039581765
2464,11.1222196000017,-0.06772559449208648,-0.06758535312543913,-0.01011692836979696,0.1211583889992201,0.05429515142125905,-0.01801674673482683,0.1515107039935703,0.025583441173635205,-0.12077202324470514,-0.22827057088675215,-0.19919313552766424,-0.18384035344492133
2465,11.126440500011086,-0.06703300925137484,-0.06701647550911437,-0.009899037789331334,0.12183838788825,0.05440836403709978,-0.018562446005787415,0.15047544321893364,0.02468427433020911,-0.12159621568775866,-0.23149093601919626,-0.20009164931681947,-0.18214510661287084
2466,11.131654800003162,-0.06571263663546806,-0.06585302249510641,-0.009717374500848143,0.12251369189996841,0.054517517852278395,-0.01911183980499425,0.14942574264313585,0.023781126123483494,-0.122412709538636,-0.23468207860172452,-0.20096002402662427,-0.18041967935765352
2467,11.135213000001386,-0.06494196092292971,-0.06531580053051389,-0.00954658242418425,0.12318423629084861,0.05462259522536329,-0.01966489318009666,0.14836173510644293,0.02287413286252267,-0.12322136917516477,-0.237843460214009,-0.2017980332750675,-0.17866421660532694
2468,11.138941099998192,-0.06423655725676167,-0.06484567182687878,-0.009445098009548196,0.12384995692095442,0.054723579131374045,-0.02022157056978821,0.14728355586266464,0.021963431865807063,-0.1240220596365472,-0.24097454806124727,-0.20260545622005252,-0.17687886873519526
2469,11.142474899999796,-0.06423655725676167,-0.06484567182687878,-0.009445098009548196,0.12451079026477047,0.054820453166289466,-0.02078183580682031,0.14619134255347987,0.021049161436059095,-0.12481464664790617,-0.24407481510990425,-0.2033820776302739,-0.17506379156359453
2470,11.147001999997885,-0.06338174420431648,-0.06434202333165555,-0.009257244176368808,0.1251666734219167,0.0549132015514414,-0.02134565212112531,0.14508523518215152,0.02013146083474979,-0.12559899664476093,-0.2471437402222361,-0.2041276879549902,-0.17321914632628538
2471,11.151708999997936,-0.06189897294496024,-0.06343104771338261,-0.009112854310831121,0.1258175441277445,0.055001809137792936,-0.02191298214304876,0.14396537608663723,0.019210470256291256,-0.12637497679742615,-0.25018080828955064,-0.2048420833926685,-0.1713450996594524
2472,11.159536899998784,-0.060317441781285945,-0.062494537838444296,-0.008899632005855645,0.12646334076381127,0.05508626141009951,-0.022483787906690485,0.1428319099121024,0.018286330801920367,-0.12714245503532765,-0.2531855103641611,-0.20552506595847794,-0.16944182357930995
2473,11.163910800009036,-0.059597760117138736,-0.06204829610287205,-0.008777239007515288,0.12710400236823127,0.05516654449095123,-0.023058030853354193,0.14168498358284132,0.017359184453278925,-0.12790130007122683,-0.2561573437899888,-0.20617644355060946,-0.16750949546031418
2474,11.169399600010363,-0.05879948227344395,-0.06156726605568495,-0.008648612681503121,0.12773946864589944,0.05524264514469525,-0.0236356718351051,0.14052474627361275,0.01642917404569568,-0.12865138142534732,-0.25909581233177137,-0.2067960300153988,-0.16554829801198276
2475,11.172953600005712,-0.05794176508511745,-0.061041947734814195,-0.008521552396943261,0.1283696799785848,0.055314550781236656,-0.02421667111843511,0.13935134938039687,0.015496443241175686,-0.12939256944939678,-0.2620004263028327,-0.20738364521122946,-0.16355841925432354
2476,11.176397300005192,-0.057154338447885235,-0.06052508384267626,-0.008511223901312969,0.12899457743489026,0.055382249459716204,-0.02480098838803511,0.13816494649057962,0.014561136501102493,-0.13012473535047675,-0.2648707026913729,-0.20793911507119317,-0.16154005249187509
2477,11.180507700002636,-0.056257420184665036,-0.060122674310679566,-0.008334879607686023,0.12961410278007565,0.05544572989206386,-0.025388582750673797,0.13696569335257117,0.013623399058659051,-0.1308477512148745,-0.2677061652852361,-0.20846227166448691,-0.15949339628636094
2478,11.184524500000409,-0.055395856356254075,-0.059732314680147475,-0.008221001010369216,0.1302281984857416,0.055504981446426946,-0.025979412739182577,0.13575374784486513,0.012683376890973055,-0.13156149003173018,-0.27050634479511304,-0.20895295325652433,-0.15741865442796033
2479,11.188662000000477,-0.054536396041645285,-0.05936814855534811,-0.00820151613917389,0.13083680773937187,0.05555999415047168,-0.026573436316546063,0.13452926994454562,0.011741216690992673,-0.1322658257165732,-0.27327077897613866,-0.20941100436774016,-0.15531603590519893
2480,11.192828700004611,-0.05358495417429092,-0.05915830498667495,-0.008009452872261074,0.1314398744537317,0.055610758694556485,-0.027170610880097687,0.13329242169524863,0.010797065839098658,-0.1329606331347213,-0.2759990127478435,-0.20983627583106682,-0.1531857548734645
2481,11.19715210000868,-0.05251093226252601,-0.058946131742670736,-0.007775274059087868,0.13203734327611957,0.055657266434776115,-0.027770893265819867,0.13204336717458529,0.009851072374459013,-0.13364578812453673,-0.27869059831241777,-0.21022862484806235,-0.15102803062215095
2482,11.201416000010797,-0.05147457752383318,-0.05869233133521539,-0.007605791552549969,0.13262915959747032,0.05569950939587551,-0.028374239752748148,0.13078227246103502,0.008903384966132398,-0.13432116752053336,-0.28134509527124857,-0.21058791504366906,-0.1488430875404369
2483,11.205442999998922,-0.05059225989932583,-0.05841728237485187,-0.007543472770995194,0.1332152695613079,0.055737480274032546,-0.028980606067478664,0.12950930560031695,0.007954152883926598,-0.13498664917632913,-0.28396207073969243,-0.21091401651958172,-0.1466311550817051
2484,11.208881900005508,-0.05059225989932583,-0.05841728237485187,-0.007543472770995194,0.13379562007254517,0.05577117243950887,-0.02958994738877825,0.12822463657124808,0.0070035259690184115,-0.1356421119874377,-0.2865410994600439,-0.2112068059062056,-0.1443924677266085
2485,11.21229160000803,-0.05059225989932583,-0.05841728237485187,-0.007543472770995194,0.13437015880612757,0.0558005799391675,-0.030202218352296462,0.12692843725109665,0.006051654604341516,-0.13628743591389408,-0.2890817639126614,-0.2114661664131853,-0.14212726494479114
2486,11.216331900010118,-0.049621311783691155,-0.05809923158549849,-0.0074199278072770315,0.1349388342155171,0.05582569749885636,-0.03081737305537865,0.1256208813804393,0.005098689684748835,-0.1369225020027085,-0.29158365442521295,-0.21169198787848642,-0.13983579115527153
2487,11.220013400001337,-0.049621311783691155,-0.05809923158549849,-0.0074199278072770315,0.13550159554101496,0.05584652052565664,-0.03143536506197931,0.1243021445275318,0.004144782586956083,-0.13754719241014185,-0.294046369280004,-0.21188416681601127,-0.13751829568549614
2488,11.22761210000317,-0.045976730946352636,-0.05698826072141715,-0.006697284574031409,0.13605839281792045,0.05586304510999507,-0.032056147407675054,0.12297240405220305,0.0031900851392732063,-0.13816139042379594,-0.2964695148193493,-0.2120426064617313,-0.13517503272907067
2489,11.23119430000952,-0.044900401833735254,-0.056703359477007075,-0.006495359178388111,0.13660917688452429,0.055875268027619156,-0.03267967260477647,0.12163183906928103,0.002234749591130521,-0.1387649804845131,-0.2988527055489521,-0.2121672168183191,-0.13280626130217796
2490,11.235229300000356,-0.04386264327725236,-0.056391834264457125,-0.0062875260081533815,0.13715389938993378,0.05588318674143443,-0.033305892647538124,0.12028063041155947,0.0012789285824064617,-0.1393578482080793,-0.3011955642392535,-0.21225791469826252,-0.13041224519869188
2491,11.238880400007474,-0.042792745622090705,-0.05618948270632147,-0.006084494578652313,0.13769251280172887,0.05588679940320283,-0.03393475901746573,0.11891896059231433,0.00032277511256391666,-0.13993988040672467,-0.3034977220247151,-0.21231462376544297,-0.12799325294399677
2492,11.243045700000948,-0.041252592509093446,-0.05562550543566957,-0.006218536721712566,0.13822497041344659,0.055886104855101405,-0.03456622268871966,0.1175470137673796,-0.0006335574903977726,-0.14051096511041533,-0.30575881850099973,-0.2123372745751625,-0.12554955774752288
2493,11.246446899996954,-0.041252592509093446,-0.05562550543566957,-0.006218536721712566,0.13875122635189263,0.05588110263114041,-0.03520023413361371,0.11616497569679145,-0.0015899156011680107,-0.14107099158793093,-0.30797850182001424,-0.21232580461260508,-0.12308143745400892
2494,11.25093029999698,-0.04072357021679448,-0.055040337270776375,-0.006581801627226034,0.13927123558427792,0.05587179295844022,-0.035836743328208326,0.11477303370600989,-0.0025461453285201344,-0.14161985036772284,-0.31015642878278227,-0.21228015832971747,-0.12058917449350293
2495,11.255020800002969,-0.0371243298626954,-0.05508224970771169,-0.0044182102197883235,0.13978495392517837,0.05585817675836604,-0.03647569975799702,0.1133713766467272,-0.0035020925468692973,-0.1421574332585472,-0.31229226493011303,-0.21220028718049377,-0.11807305583011284
2496,11.260765300001369,-0.03673114895773998,-0.05405463637939728,-0.0054377886307435536,0.1402923380433164,0.055840255647519675,-0.03711705242368501,0.11196019485727327,-0.004457602927985689,-0.14268363336986614,-0.31438568463103395,-0.21208614965464967,-0.11553337290951954
2497,11.26469760001055,-0.03570808400667661,-0.05384441790328674,-0.005312780835465677,0.14079334546816313,0.055818031938587545,-0.03776074984705912,0.11053968012262788,-0.005412521972855664,-0.14319834513201116,-0.3164363711689558,-0.21193771130967232,-0.11297042160526585
2498,11.26863200000662,-0.03350107166215426,-0.05381620113851033,-0.004270739009814005,0.1412879345963596,0.055791508641044325,-0.03840674007694788,0.10911002563404935,-0.0063666950436833,-0.14370146431610342,-0.3184440168255413,-0.2117549448012327,-0.11038450216383497
2499,11.272505800006911,-0.032386975985748793,-0.05331644847634271,-0.004133909773360254,0.14177606469795484,0.05576068946171164,-0.039054970695270856,0.1076714259483308,-0.007319967396024861,-0.1441928880537264,-0.320408322962247,-0.21153782991194706,-0.1077759191485326
2500,11.276377700007288,-0.03145290248464041,-0.052849946031203555,-0.004085018407240708,0.1422576959224587,0.05572557880517104,-0.03970538882317634,0.10622407694669506,-0.00827218421104856,-0.14467251485634475,-0.3223290000995085,-0.21128635357847494,-0.10514498138218738
2501,11.280393699998967,-0.030402829255403767,-0.0522458178244079,-0.00421800465538021,0.14273278930470812,0.055686181774030945,-0.040357941127266185,0.10476817579333893,-0.009223190627911975,-0.14514024463446423,-0.3242057679935397,-0.2110005099169417,-0.10249200188868478
2502,11.284519699998782,-0.029328359435785073,-0.05171818935876678,-0.004166233203235715,0.14320130677054535,0.05564250416904719,-0.041012573825906576,0.10330392089363857,-0.01017283177624935,-0.14559597871652732,-0.3260383557107184,-0.21068030024667433,-0.09981729783335026
2503,11.288541200003236,-0.028437674695568137,-0.05132597586681513,-0.004111146295531926,0.14366321114230768,0.05559455248909665,-0.04166923269562355,0.10183151185202675,-0.011120952808761084,-0.1460396198675389,-0.3278265016995306,-0.2103257331122391,-0.09712119046219728
2504,11.292830200007302,-0.027431063592090608,-0.050771952985891315,-0.004321112005043577,0.1441184661441269,0.055542333931003246,-0.042327863077582135,0.10035114942955269,-0.012067398933897612,-0.14647107230741785,-0.32956995386004606,-0.20993682430377003,-0.09440400504005646
2505,11.297176000007312,-0.02637353860231771,-0.05025891751891736,-0.004271422269215719,0.1445670364070386,0.0554858563892159,-0.042988409884148,0.09886303550113572,-0.013012015448629838,-0.14689024172906906,-0.3312684696108996,-0.2095135968755787,-0.09166607078760294
2506,11.301410000000033,-0.025420172219464514,-0.049815388563751416,-0.004274693490518609,0.14500888747389956,0.055425128455337994,-0.04365081760553056,0.09736737301252416,-0.01395464777129825,-0.14729703531617167,-0.33292181595375325,-0.2090560811630349,-0.08890772081729982
2507,11.30554739999934,-0.02446459172302911,-0.0494238296436392,-0.004145654629305842,0.14544398580411197,0.05536015941750783,-0.0443150303165063,0.09586436593697074,-0.014895141474532775,-0.14769136176067774,-0.3345297695352125,-0.2085643147977096,-0.08612929206827545
2508,11.30893840000499,-0.02446459172302911,-0.0494238296436392,-0.004145654629305842,0.14587229877815333,0.05529095925962996,-0.044980991683221415,0.09435421923163638,-0.015833342318235414,-0.14807313128001595,-0.3360921167061748,-0.2080383427207718,-0.0833311252401527
2509,11.313778800002185,-0.02446639058380144,-0.049047698466249935,-0.0045177905872126395,0.14629379470191123,0.055217538660456915,-0.0456486449700723,0.09283713879373401,-0.016769096282617562,-0.14844225563399513,-0.33760865357858916,-0.2074782171946301,-0.08051356472584899
2510,11.317956400002004,-0.021526114772645835,-0.04768365795833934,-0.004206760445794444,0.14670844281082138,0.05513990899252145,-0.04631793304666266,0.09131333141642425,-0.017702249601284022,-0.14879864814140217,-0.33907918607960724,-0.20688399781281178,-0.07767695854336683
2511,11.321438700004364,-0.021526114772645835,-0.04768365795833934,-0.004206760445794444,0.14711621327380722,0.055058082320918994,-0.04698879839483564,0.08978300474447456,-0.018632648794355663,-0.14914222369629035,-0.34050353000310374,-0.20625575150807213,-0.07482165826659448
2512,11.326447800005552,-0.021829138987693373,-0.04699273689049788,-0.0049831467194701665,0.14751707719702017,0.05497207140194057,-0.047661183115779666,0.08824636722969323,-0.019560140701622573,-0.14947289878395362,-0.34188151105854553,-0.20559355255872822,-0.07194801895513733
2513,11.330300100002203,-0.018392219491220135,-0.046101697126514705,-0.00422038047555536,0.14791100662737952,0.05488188968155589,-0.04833502893720657,0.08670362808615015,-0.020484572515719546,-0.14979059149658247,-0.34321296491719155,-0.20489748259321117,-0.06905639908320116
2514,11.334647900002892,-0.01713073913139515,-0.04567447178000348,-0.0041542617027787885,0.14829797455590957,0.05478755129374652,-0.04901027722060082,0.08515499724519683,-0.02140579181531565,-0.15009522154859778,-0.34449773725560423,-0.2041676305928313,-0.06614716046754865
2515,11.338757600009558,-0.016121181614849066,-0.04513715985358682,-0.004196808042192112,0.1486779549208733,0.054689071058688574,-0.049686868968538404,0.08360068531029824,-0.022323646598309738,-0.15038671029165795,-0.34573568379645486,-0.20340409289275022,-0.06322066819455058
2516,11.342491700008395,-0.016121181614849066,-0.04513715985358682,-0.004196808042192112,0.14905092261070174,0.05458646448078511,-0.0503647448320739,0.08204090351168866,-0.023237985315023784,-0.150664980729335,-0.34692667034660807,-0.20260697318115667,-0.060277290546353654
2517,11.346732400008475,-0.015970703116816202,-0.04517329001403709,-0.004213819031832419,0.14941685346671812,0.05447974774654792,-0.05104384511819428,0.08047586366086389,-0.02414865690138579,-0.15092995753145502,-0.34807057283247167,-0.20177638249664273,-0.05731739892618767
2518,11.350877200005923,-0.014350123592917362,-0.04291076875032537,-0.006822056044142549,0.1497757242856573,0.05436893772232882,-0.05172410979733815,0.07890577810492194,-0.025055510812094138,-0.15118156704809885,-0.34916727733259556,-0.20091243922377722,-0.054341367782834424
2519,11.355331300001126,-0.013107611907411878,-0.04256101944846761,-0.0067918304678343715,0.15012751282198003,0.05425405195190052,-0.052405478510978855,0.07733085968076436,-0.025958397053755095,-0.15141973732325936,-0.35021668010750406,-0.20001526908687287,-0.051349574534281454
2520,11.3593847000011,-0.012087533933808996,-0.04232846647497851,-0.006745908689706423,0.15047219778998108,0.0541351086538873,-0.053087890579269575,0.07575132166917037,-0.026857166217985222,-0.15164439810815072,-0.3512186876267498,-0.199085005141945,-0.04834239949058382
2521,11.363713800004916,-0.01111649877619762,-0.041925499926113566,-0.0070352675422390085,0.15080975886569092,0.05401212671904534,-0.05377128500874886,0.0741673777487568,-0.02775166951447039,-0.15185548087416598,-0.35217321659317785,-0.1981217877668598,-0.045320225775957956
2522,11.367940299998736,-0.010150386200527054,-0.04136008194809138,-0.0069869649517068574,0.1511401766885711,0.0538851257073929,-0.054455600500104846,0.0725792419498367,-0.028641758803973252,-0.15205291882548033,-0.3530801939643898,-0.19712576464967066,-0.04228343925013186
2523,11.37154659999942,-0.010150386200527054,-0.04136008194809138,-0.0069869649517068574,0.151463432863003,0.05375412584519089,-0.05514077545599678,0.07098712860818884,-0.029527286631280958,-0.15223664691129635,-0.353939556971397,-0.19609709077514215,-0.03923242842897627
2524,11.37612739999895,-0.009860116381841512,-0.04069328804330426,-0.007433265453502102,0.15177950995956938,0.05361914802177417,-0.05582674798893228,0.06939125231875073,-0.030408106258084704,-0.15240660183772806,-0.3547512531344545,-0.19503592840946005,-0.036167584404441996
2525,11.38026780000655,-0.007531180831707742,-0.039927842574883035,-0.007122195709468578,0.1520883915161266,0.05348021378623397,-0.05651345592919882,0.06779182788924774,-0.03128407169578284,-0.1525627220793206,-0.35551524027606607,-0.19394244708312824,-0.033089300763828856
2526,11.384402000010596,-0.006529775147786008,-0.039418428046540194,-0.0071887236251655055,0.1523900620386677,0.053337345343951785,-0.0572008368328476,0.06618907029377125,-0.03215503773819924,-0.1527049478902028,-0.3562314865311536,-0.19281682357205268,-0.02999797350841211
2527,11.387919100001454,-0.006529775147786008,-0.039418428046540194,-0.0071887236251655055,0.15268450700197583,0.05319056555298515,-0.05788882798972828,0.06458319462631823,-0.03302085999420884,-0.1528332213148704,-0.3568999703543858,-0.19165924187681452,-0.02689400097145245
2528,11.391346700009308,-0.006529775147786008,-0.039418428046540194,-0.0071887236251655055,0.15297171285006828,0.05303989792030556,-0.05857736643157342,0.06297441605430491,-0.03388139492026186,-0.15294748619859733,-0.35752068052466085,-0.190469893200135,-0.0237777837356158
2529,11.395847400010098,-0.006269859583249498,-0.03879449205585402,-0.007723033822792721,0.15325166699643095,0.052885366597888936,-0.059266388940130886,0.06136294977206683,-0.034736499852798836,-0.15304768819747386,-0.3580936161467367,-0.18924897592253478,-0.02064972454982953
2530,11.40084570000181,-0.002864271586209185,-0.037468156928586516,-0.007737243022195692,0.15352435782404317,0.05272699637865904,-0.05995583205534241,0.05974901095435814,-0.03558603304054824,-0.15313377478806828,-0.35861878665000335,-0.18799669557619073,-0.017510228245601757
2531,11.404256599998916,-0.002864271586209185,-0.037468156928586516,-0.007737243022195692,0.1537897746851931,0.05256481269228447,-0.06064563208356681,0.05813281470986311,-0.036429853676698674,-0.15320569527671066,-0.3590962117843933,-0.18671326481699416,-0.014359701652830733
2532,11.407658000010995,-0.002864271586209185,-0.037468156928586516,-0.007737243022195692,0.15404790790108355,0.05239884160082989,-0.06133572510584595,0.05651457603473252,-0.03726782193093708,-0.1532634008083965,-0.3595259216134275,-0.1853989033948147,-0.011198553515131642
2533,11.411493699997663,0.00026316245827015614,-0.03726610402869136,-0.005426443406126316,0.1542987487612282,0.052229109794262436,-0.06202604698621196,0.05489450976615778,-0.03809979898134505,-0.15330684437530798,-0.35990795650439683,-0.1840538381219733,-0.00802719440470847
2534,11.415329700001166,0.00026316245827015614,-0.03726610402869136,-0.005426443406126316,0.1545422895226378,0.05205564458581378,-0.06271653338003388,0.05327283053599579,-0.03892564704614524,-0.15333598082494965,-0.36024236711568053,-0.18267830283992903,-0.004846036636798777
2535,11.41888270000345,0.0020487946800454345,-0.035840798438806214,-0.005735721857258063,0.15477852340879583,0.05187847390719858,-0.06340711974240204,0.051649752724457085,-0.03974522941529015,-0.1533507668678966,-0.3605292143812036,-0.18127253838418586,-0.0016554941837193281
2536,11.422770999997738,0.0015507064295617627,-0.03429458678346444,-0.008216370812269638,0.15500744460842292,0.05169762630369011,-0.06409774133654846,0.05002549041387041,-0.04055841048188551,-0.153351161085152,-0.3607685694920382,-0.17983679254742418,0.001544017411459174
2537,11.426249000011012,0.0024674878186828984,-0.03386747558304817,-0.008158672450958956,0.1552290482740306,0.05151313092905359,-0.06478833324230147,0.04840025734253678,-0.04136505577344033,-0.15333712393511237,-0.3609605138751509,-0.17837132004086523,0.004752081121579804
2538,11.432485800003631,0.0035991821025339373,-0.033454763820444114,-0.008278766734857425,0.1554433305202651,0.051325017540338115,-0.06547883036457287,0.046774266858686096,-0.04216503198293559,-0.15330861776013766,-0.3611051391692999,-0.17687638245387516,0.007968278522380969
2539,11.436658300008276,0.004643415904782895,-0.032987380352609605,-0.008264282382288563,0.1556502884220415,0.051133316492528454,-0.06616916744187544,0.04514773187454927,-0.042958206999703555,-0.1532656067927258,-0.36120254719808825,-0.1753522482118161,0.011192189879762988
2540,11.443309200010845,0.006377000875935778,-0.03212798169499992,-0.008454346687533126,0.15584992001246992,0.0509380587330576,-0.06685927905486917,0.04352086482055863,-0.04374444994011003,-0.15320805716128993,-0.3612528499401782,-0.17379919253215273,0.01442339423731074
2541,11.448505100008331,0.00723127058280691,-0.03166164909013202,-0.008532414065929111,0.1560422242805741,0.05073927579618126,-0.06754909963493405,0.04189387759968939,-0.044523631178031854,-0.1531359368955373,-0.3612561694966764,-0.17221749737882283,0.01766146950404324
2542,11.455470100001548,0.009343373436973185,-0.03107746123699615,-0.008559442808537317,0.1562272011688043,0.05053699979721501,-0.06823856347276777,0.04026698154195497,-0.04529562237512208,-0.15304921593144843,-0.3612126380556969,-0.17060745141488146,0.020905992542360932
2543,11.460640000004789,0.010182111584931056,-0.03057533858235802,-0.00838209585234662,0.1564048515703454,0.05033126342663534,-0.06892760472700656,0.03864038735906868,-0.04606029651085521,-0.1529478661158554,-0.3611223978541128,-0.1689693499534277,0.024156539256161326
2544,11.465645100004622,0.01070227615984653,-0.030211613564403515,-0.008147996256196582,0.1565751773262214,0.05012209994404577,-0.06961615743286759,0.037014305099284515,-0.046817527912344885,-0.1528318612106181,-0.3609856011365042,-0.16730349490682442,0.02741268467909354
2545,11.47213740000734,0.012323000096578662,-0.029692340249572617,-0.007593583114632823,0.15673818122219635,0.04990954317200916,-0.07030415551081091,0.03538894410242942,-0.04756719228392616,-0.15270117689639787,-0.3608024101113127,-0.16561019473422173,0.030674003062922214
2546,11.476476800002274,0.012086318944967516,-0.02987108348642622,-0.00819519316131106,0.15689386698547145,0.0496936274897472,-0.07099153277521916,0.03376451295513966,-0.048309166736495046,-0.15255579077602816,-0.3605729969042162,-0.16388976438739522,0.03394006796597115
2547,11.48240120000264,0.012643298324181642,-0.02893060624220401,-0.008614402733340116,0.1570422392811788,0.04947438782670822,-0.07167822294309358,0.0321412194463136,-0.04904332981659774,-0.15239568237748122,-0.36029754350873655,-0.16214252525491082,0.03721045234161692
2548,11.486630300001709,0.014254718892353352,-0.027430022283159813,-0.009974248166013798,0.15718330370867303,0.049251859656004614,-0.0723641596427645,0.030519270522793414,-0.04976956153526221,-0.15222083315643165,-0.3599762417340948,-0.16036880510462842,0.04048472862680272
2549,11.489979700010736,0.014254718892353352,-0.027430022283159813,-0.009974248166013798,0.15731706679762203,0.04902607898772131,-0.073049276422614,0.028898872245288112,-0.05048774339656471,-0.15203122649841708,-0.35960929315032636,-0.15856893802455768,0.04376246883054243
2550,11.501937900000485,0.01774377677295981,-0.02542052348132206,-0.01140387225060591,0.15744353600389832,0.04879708236209634,-0.07373350675980855,0.027280229744550223,-0.05119775842592385,-0.15182684772059657,-0.3591969090306713,-0.1567432643620794,0.04704324462238522
2551,11.506062800006475,0.018771779786917353,-0.024871586635487483,-0.011791581817943259,0.15756271970527322,0.04856490684257509,-0.0744167840690399,0.02566354717781811,-0.051899491198115114,-0.15160768407310674,-0.3587393102912556,-0.15489213066154503,0.05032662742081068
2552,11.51107680000132,0.018771779786917353,-0.024871586635487483,-0.011791581817943259,0.15767462719691508,0.04832959000873956,-0.07509904171127207,0.024049027685536045,-0.052592827864998706,-0.15137372474001587,-0.35823672742808055,-0.15301588960026918,0.05361218848152481
2553,11.515378700001747,0.019516843614292782,-0.024542682171997343,-0.012251530010137058,0.15777926868669329,0.04809116994911397,-0.0757802130024936,0.022436873348364195,-0.05327765618295346,-0.15112496083987662,-0.3576894004513402,-0.1511148999229291,0.05689949898562683
2554,11.518936100008432,0.022061496120078662,-0.02331595512833793,-0.012958670379588267,0.1578766552902897,0.04784968525384823,-0.0764602312224731,0.02082728514449041,-0.05395386554000973,-0.15086138542587782,-0.3570975788170844,-0.14918952637438712,0.060188130127616805
2555,11.52283850000822,0.023243021638460315,-0.022831449731322895,-0.013364433857987343,0.15796679902611868,0.047605175007280606,-0.07713902962351661,0.019220462907255764,-0.05462134698267434,-0.1505829934855964,-0.3564615213562469,-0.14724013963095206,0.06347765320321437
2556,11.526360000003478,0.023243021638460315,-0.022831449731322895,-0.013364433857987343,0.15804971281005684,0.04735767878038082,-0.07781654143922437,0.01761660528310562,-0.055279993242440546,-0.1502897819403499,-0.3557814962010575,-0.1452671162300949,0.06676763969695876
2557,11.530562300002202,0.023853152263494028,-0.022410592922001805,-0.013985004155390645,0.15812541044998452,0.04710723662307492,-0.07849269989324502,0.016015909689877896,-0.0559296987619761,-0.14998174964415167,-0.3550577807088593,-0.14327083849863637,0.07005766136956049
2558,11.53476270000101,0.02644241396324333,-0.021127296146366506,-0.014642734336774443,0.1581939066401406,0.04685388905645321,-0.07916743820802563,0.014418572275440132,-0.05657035972098257,-0.1496588973822699,-0.3542906613833523,-0.14125169447942276,0.07334729034497485
2559,11.538857400009874,0.02765485307035404,-0.02061427367927205,-0.01487336968394836,0.1582552169552924,0.046597677064862786,-0.07984068961355563,0.012824787876686871,-0.05720187406171926,-0.14932122786939175,-0.3534804337932878,-0.13921007785650769,0.0766360991971675
2560,11.542930499999784,0.028736903645398812,-0.020336486592340376,-0.01516701928825744,0.1583093578447221,0.04633864208788624,-0.08051238735610308,0.011234749978908855,-0.05782414151418498,-0.14896874574739455,-0.35262740248863894,-0.13714638787885655,0.079923661036543
2561,11.546338600004674,0.028736903645398812,-0.020336486592340376,-0.01516701928825744,0.1583563466260321,0.046076826012208305,-0.08118246470694117,0.009648650675545281,-0.05843706362095152,-0.1486014575827252,-0.3517318809142714,-0.13506102928259214,0.08320954959600715
2562,11.553267100011,0.031201672829579682,-0.02015076619388095,-0.013788911882046243,0.15839620147877173,0.045812271163372054,-0.08185085497106316,0.008066680628330313,-0.05904054376164195,-0.14821937186339093,-0.35079419132114215,-0.1329544122118,0.08649333931663382
2563,11.558046300007843,0.032890862678778506,-0.01946971674311225,-0.01490857948006448,0.15842894143788755,0.045545020297426235,-0.08251749149588404,0.006489029027844898,-0.05963448717704725,-0.1478224989955634,-0.34981466467505445,-0.13082695213791123,0.08977460543290702
2564,11.561521399999036,0.032890862678778506,-0.01946971674311225,-0.01490857948006448,0.15845458638699852,0.04527511659246557,-0.08318230767992675,0.00491588355448481,-0.06021880099287454,-0.14741085129979847,-0.3487936405629984,-0.12867906977768123,0.09305292405750949
2565,11.565102599997772,0.032890862678778506,-0.01946971674311225,-0.01490857948006448,0.15847315705149762,0.045002603640065676,-0.08384523698149103,0.0033474303398557228,-0.06079339424312093,-0.14698444300687397,-0.34773146709710506,-0.12651119100978364,0.09632787226562874
2566,11.568585700006224,0.033717612742857464,-0.01912624222315376,-0.015535465978940783,0.15848467499148186,0.04472752543661426,-0.08450621292730266,0.001783853928606003,-0.06135817789306665,-0.14654329025324733,-0.3466285008162422,-0.1243237467900406,0.09959902817875263
2567,11.572212800005218,0.03445268145461809,-0.01857468283361635,-0.018420587658837577,0.1584891625945131,0.04444992637454045,-0.08516516912114123,0.00022533724070777122,-0.061913064861881605,-0.14608741107613613,-0.3454851065852811,-0.12211717306530993,0.10286597104792607
2568,11.576788600010332,0.03532961258534004,-0.018099372218956043,-0.019171793419017036,0.15848664306821098,0.04416985123344414,-0.085822039252444,-0.0013279384658033853,-0.062457970044839245,-0.14561682540822377,-0.34430165749206587,-0.11989191068604944,0.10612828133644031
2569,11.580383300009998,0.03754715229174446,-0.01753799949016907,-0.018369774352229938,0.15847714043268077,0.04388734517112735,-0.08647675710488362,-0.002875793631619789,-0.06299281033513164,-0.14513155507199352,-0.34307853474211764,-0.11764840531757956,0.10938554080192699
2570,11.58672469999874,0.03824660498676556,-0.01729524233181949,-0.019018749846836998,0.15846067951277817,0.04360245371452901,-0.08712925656491803,-0.004418050432474027,-0.06351750464527998,-0.144631623773693,-0.3418161275511075,-0.11538710735006644,0.11263733257782946
2571,11.590682499998366,0.039055472994340784,-0.017062104746519435,-0.019522153916455807,0.15843728593021333,0.04331522275056523,-0.08777947163031033,-0.005954532814962316,-0.06403197392813527,-0.14411705709693204,-0.34051483303513275,-0.11310847180724745,0.11588324125422451
2572,11.595194100009394,0.03989964639399433,-0.01673184119948612,-0.020071401318447167,0.15840698609549644,0.04302569851687679,-0.0884273364186169,-0.0074850665318690725,-0.06453614119746345,-0.1435878824959165,-0.3391750560988292,-0.11081295825392136,0.11912285295796728
2573,11.598870400004673,0.04068666104993672,-0.016568476958817024,-0.02068236261815782,0.15836980719972688,0.0427339275924861,-0.08907278517564243,-0.00900947917698301,-0.06502993154810949,-0.14304412928832125,-0.3377972093213546,-0.1085010307022261,0.12235575543213204
2574,11.607043500000144,0.040683782860596956,-0.01656214575643629,-0.022743378509297814,0.15832577720622806,0.04243995688836556,-0.08971575228385996,-0.010527600219395292,-0.06551327217573491,-0.14248582864780504,-0.336381712840279,-0.10617315751672712,0.1255815381147226
2575,11.611332000000402,0.04077500709498827,-0.01612234578113687,-0.023190236202152652,0.1582749248420293,0.04214383363791945,-0.09035617227079461,-0.012039261037270358,-0.06598609239612396,-0.1419130135961715,-0.33492899423341804,-0.10382981131833897,0.12879979221662555
2576,11.615520699997433,0.04134867618973745,-0.016187929174353792,-0.024445784674164875,0.1582172795891963,0.04184560538738096,-0.09099397981736954,-0.013544294951080211,-0.06644832366405315,-0.14132571899517876,-0.33343948839864623,-0.10147146888710275,0.13201011079878053
2577,11.619631100009428,0.041936899380771324,-0.016268041169664724,-0.025246895919322943,0.15815287167601288,0.041545319986126344,-0.09162910976621239,-0.015042537256293101,-0.066899899591719,-0.14072398153800125,-0.33191363743173036,-0.09909861106384271,0.13521208884854324
2578,11.623578800004909,0.041936899380771324,-0.016268041169664724,-0.025246895919322943,0.1580817320680167,0.041243025576908066,-0.09226149712992068,-0.016533825255507784,-0.06734075596671872,-0.1401078397403481,-0.33035189050221964,-0.09671172265072617,0.13840532335521508
2579,11.62703830000828,0.04246903435369128,-0.016405873681909714,-0.02607760213845392,0.15800389245889115,0.04093877058600883,-0.09289107709928454,-0.018017998290024703,-0.06777083076957838,-0.13947733393124204,-0.3287547037274298,-0.09431129231075162,0.1415894133847153
2580,11.635117400001036,0.04562920436109716,-0.016592122348831548,-0.027241441589080775,0.1579193852612159,0.04063260371331855,-0.09351778505146544,-0.019494897770845513,-0.0681900641908242,-0.13883250624346238,-0.3271225400445595,-0.09189781246619005,0.14476396015337079
2581,11.642652499998803,0.04782609673831954,-0.016662868233144938,-0.028117717353476096,0.15782824359707898,0.0403245739223365,-0.09414155655812925,-0.020964367209092675,-0.06859839864759217,-0.1381734006036567,-0.3254558690809794,-0.08947177919600446,0.14792856710079907
2582,11.646381500002462,0.04782609673831954,-0.016662868233144938,-0.028117717353476096,0.1577305012885532,0.04001473043010099,-0.09476232739353217,-0.02242625224584102,-0.06899577879977137,-0.13750006272212478,-0.32375516702273616,-0.08703369213227333,0.15108283996186106
2583,11.650633900004324,0.04911464106613474,-0.015661747090621462,-0.029739048902723976,0.15762619284803986,0.03970312269704876,-0.09538003354255807,-0.023880400681353466,-0.06938215156567695,-0.13681254008227903,-0.32202091648131026,-0.08458405435564348,0.1542263868376592
2584,11.655001400009496,0.049745089272337874,-0.01633715285385683,-0.03219068489706428,0.15751535346848197,0.039389800416806446,-0.09599461120870623,-0.02532666250371324,-0.06975746613724859,-0.13611088192978543,-0.32025360635866984,-0.08212337228983799,0.1573588182655587
2585,11.659326300010434,0.05037869742254766,-0.01637574845549053,-0.0327818922887966,0.1573980190134497,0.039074813505916385,-0.09660599682202788,-0.026764889916845048,-0.07012167399477037,-0.13539513926139005,-0.31845373171066266,-0.07965215559524488,0.1604797472882088
2586,11.663767700010794,0.05108128742686959,-0.016059509606697706,-0.0337488685517509,0.15727422600709948,0.0387582120934988,-0.09721412704701085,-0.028194937367917908,-0.07047472892110834,-0.13466536481343616,-0.3166217936087904,-0.07717091706161312,0.16358878952154277
2587,11.672214700010954,0.05166146184509689,-0.015639136152364057,-0.03455422340338113,0.15714401162400968,0.03844004651085226,-0.09781893879041063,-0.02961666157412253,-0.07081658701546185,-0.13392161305007683,-0.31475829900041,-0.07468017249988161,0.16668556322173375
2588,11.676311800008987,0.05312118810658939,-0.015348953227806423,-0.03604780538456086,0.15700741367889565,0.03812036728099462,-0.09842036920902614,-0.031029921548816283,-0.07114720670662514,-0.13316394015118752,-0.3128637605674069,-0.07218044063316699,0.16976968935108583
2589,11.68140190000122,0.05375222637891472,-0.015251262483301326,-0.03666111291768908,0.15686447061620695,0.037799225108146234,-0.09901835571741877,-0.03243457862702907,-0.07146654876575534,-0.13239240399998328,-0.3109386965833847,-0.06967224298693693,0.1728407916428396
2590,11.685098600006311,0.05375222637891472,-0.015251262483301326,-0.03666111291768908,0.15671522149960976,0.0374766708671579,-0.09961283599557356,-0.033830496490323415,-0.07177457631864347,-0.131607064170345,-0.30898363076941826,-0.06715610377839583,0.17589849666487206
2591,11.688566299999366,0.05375222637891472,-0.015251262483301326,-0.03666111291768908,0.15655970600135766,0.03715275559288587,-0.10020374799650135,-0.03521754119100221,-0.07207125485748522,-0.13080798191385867,-0.3069990921484145,-0.06463254980511013,0.17894243388227057
2592,11.692520500000684,0.05434671951604729,-0.015147879380174627,-0.03740745284033754,0.15639796439155343,0.03682753046951616,-0.10079102995378035,-0.03659558117565797,-0.07235655225214879,-0.12999522014657333,-0.3049856148981276,-0.062102110332900105,0.18197223571876248
2593,11.697034800003166,0.056312226404408305,-0.01512264605394828,-0.039514789358411045,0.15623003752730416,0.036501046819840385,-0.10137462038903583,-0.03796448730805747,-0.07263043876093676,-0.12916884343548374,-0.30294373820287607,-0.05956531698302551,0.18498753761698117
2594,11.70127620000858,0.057148322698935015,-0.015241561150357914,-0.04018457363331564,0.15605596684177248,0.036173356094485284,-0.10195445811935674,-0.03932413289135611,-0.07289288704083903,-0.12832891798474183,-0.30087400610400705,-0.05702270361869252,0.18798797809755097
2595,11.705431000009412,0.05795005376487574,-0.015325244261843075,-0.04071552794205934,0.1558757943331276,0.035844509861098175,-0.1025304822646479,-0.04067439368963644,-0.07314387215727361,-0.12747551162160228,-0.2987769673491548,-0.05447480623090985,0.19097319881697336
2596,11.71004210000683,0.05857261173307727,-0.0153360624259241,-0.04133473862725135,0.15568956255339914,0.035514559793490615,-0.10310263225491616,-0.042015147948765444,-0.0733833715933126,-0.12660869378210718,-0.29665317524034074,-0.05192216282372179,0.1939428446242969
2597,11.715744900007849,0.05918239981320274,-0.015284678233119962,-0.041964546764603934,0.15549731459723642,0.03518355766074263,-0.1036708478374891,-0.0433462764165658,-0.07361136525839071,-0.12572853549651436,-0.2945031874809629,-0.049365313298846296,0.19689656361655408
2598,11.719862199999625,0.05986126728284025,-0.015296499907207993,-0.042502755820818694,0.15529909409057666,0.03485155531626998,-0.10423506908416569,-0.04466766236229635,-0.07382783549649408,-0.1248351093744756,-0.292327566021724,-0.04680479933974562,0.1998340071929487
2599,11.725005600004806,0.06054082722552449,-0.015387965874370354,-0.0430870673241146,0.15509494517922573,0.034518604686856344,-0.10479523639829727,-0.04597919159543712,-0.07403276709382726,-0.12392848958997017,-0.2901268769055469,-0.04424116429515813,0.20275483010777673
2600,11.730103599998984,0.061240751261827694,-0.015435423487635968,-0.043681865157658185,0.1548849125173549,0.034184757761652695,-0.10535129052179822,-0.04728075248377451,-0.07422614728595607,-0.12300875186599908,-0.28790169011152505,-0.04167495306211922,0.2056586905220657
2601,11.7344305000006,0.06198288888609266,-0.015543755685974972,-0.04420550971277432,0.15466904125591713,0.0338500665811461,-0.10590317254208526,-0.04857223597078266,-0.07440796576442398,-0.12207597345904637,-0.28565257939795846,-0.03910671196849967,0.20854525005391758
2602,11.739561700000197,0.06337480816294119,-0.01577338549965475,-0.045414742531159846,0.1544473770309869,0.0335145832261001,-0.10645082389894482,-0.0498535355922967,-0.07457821468284051,-0.12113023314331427,-0.2833801221445249,-0.03653698865508971,0.21141417382754235
2603,11.744728000005123,0.06412291857861563,-0.015859678553900667,-0.04596573101313145,0.15421996595202733,0.033178359806469056,-0.10699418639132716,-0.051124547492474255,-0.07473688866243951,-0.12017161119473907,-0.28108489919363505,-0.03396633195725759,0.21426513052096974
2604,11.7492995000066,0.06488133913101916,-0.015959253197895703,-0.04662557885778746,0.15398685459008804,0.03284144845028902,-0.10753320218406638,-0.05238517043904177,-0.0748839847971056,-0.11920018937479361,-0.2787674946910207,-0.0313952917862113,0.21709779241242755
2605,11.753534000003128,0.06567026485639002,-0.01602899967172177,-0.04720239314316248,0.1537480899659366,0.032503901292547537,-0.10806781381452507,-0.053635305837822306,-0.07501950265786764,-0.11821605091408197,-0.276428495925608,-0.028824419009892275,0.21991183542537399
2606,11.757536500008428,0.06642610146482421,-0.016073869161291984,-0.04781593534305015,0.15350371953812733,0.03216577046403504,-0.10859796419916268,-0.05487485774654151,-0.075143444296858,-0.11721928049573285,-0.2740684931687282,-0.026254265333529755,0.22270693917217282
2607,11.761545500005012,0.0671831370458481,-0.01612240051101894,-0.048514641951774726,0.15325379119101082,0.03182710808017989,-0.10912359664002728,-0.05610373288790883,-0.07525581425073674,-0.11620996423859822,-0.2716880795127183,-0.023685383179884827,0.22548278699640076
2608,11.765495500003452,0.06786573147762479,-0.016175318067914165,-0.04915655425529053,0.1529983532226885,0.03148796622986961,-0.10964465483117024,-0.05732184066197128,-0.07535661954357929,-0.11518818968026381,-0.2692878507089626,-0.021118325569213017,0.22823906601377736
2609,11.76926660000754,0.06786573147762479,-0.016175318067914165,-0.04915655425529053,0.1527374543329149,0.03114839696426081,-0.11016108286498298,-0.05852909315773749,-0.0754458696892265,-0.11415404575987799,-0.2668684050054274,-0.01855364599897433,0.2309754671517088
2610,11.772800400009146,0.06847917087798969,-0.016176275741860684,-0.04980315594193953,0.15247114361095082,0.030808452285580046,-0.11067282523845542,-0.05972540516407019,-0.07552357669309587,-0.11310762280080422,-0.2644303429837372,-0.015991898323319733,0.23369168518743652
2611,11.776267900000676,0.06983949337545181,-0.016166174442769413,-0.051149520638051886,0.15219947052337152,0.030468184135918088,-0.11117982685935515,-0.06091069417984529,-0.07558975505345362,-0.11204901249310338,-0.2619742673958465,-0.013433636632383006,0.23638741878478406
2612,11.78035909999744,0.07060179023098201,-0.016135119851331273,-0.051803240803601144,0.15192248490183358,0.03012764438602002,-0.11168203305232624,-0.062084880423375365,-0.07564442176214693,-0.11097830787585225,-0.2595007830003592,-0.010879415131406906,0.2390623705294946
2613,11.784705400001258,0.07134354431022889,-0.016094705189754328,-0.052512765058341015,0.1516402369308037,0.029786884824073663,-0.11217938956490651,-0.06324788684109622,-0.07568759630479538,-0.10989560331930498,-0.25701049639854606,-0.008329788019732635,0.2417162469631515
2614,11.78885930000979,0.07198472052558479,-0.016038498852397717,-0.05309410196148203,0.15135277713525294,0.029445957144498543,-0.11267184257346284,-0.06439963911551541,-0.07571930066044114,-0.10880099450690453,-0.2545040158701139,-0.005785309369681686,0.24434875861567662
2615,11.792906300004688,0.07267308862458788,-0.01597893526309476,-0.05377527111345677,0.15106015636831985,0.029104912936737958,-0.11315933868904464,-0.0655400656724215,-0.07573955930065722,-0.10769457841715112,-0.2519819512087782,-0.003246533005359007,0.24695962003640173
2616,11.796889300007024,0.07335867956628314,-0.015942315416359067,-0.05446720606227434,0.1507624257989459,0.028763803674056534,-0.11364182496315478,-0.06666909768735342,-0.07574839918811387,-0.10657645330533422,-0.24944491355769002,-0.0007140123814063779,0.24954854982370975
2617,11.802178600002662,0.07402163642653509,-0.015910582414553405,-0.05501557656011197,0.1504596368994866,0.028422680702345778,-0.11411924889343666,-0.06778666909132963,-0.0757458497746029,-0.10544671868513468,-0.24689351524476924,0.0018116995382650863,0.25211527065324296
2618,11.806047100006252,0.07402163642653509,-0.015910582414553405,-0.05501557656011197,0.1501518414333012,0.02808159522894009,-0.1145915584292775,-0.06889271657583663,-0.07573194299852057,-0.10430547531010333,-0.24432836961799492,0.004330050401734452,0.25465950930467474
2619,11.809570099998382,0.07466209982344765,-0.015897777385278755,-0.05573453993317392,0.14983909144232382,0.02774059831144573,-0.11505870197732744,-0.06998717959707663,-0.07570671328180886,-0.1031528251550228,-0.24175009088070507,0.00684048859029368,0.2571809966870429
2620,11.814091400010511,0.07612010121541629,-0.015822104747176855,-0.0569584571461208,0.1495214392346199,0.02739974084658514,-0.1155206284069338,-0.07107000037947445,-0.07567019752635565,-0.10198887139715947,-0.2391592939269573,0.009342463339604777,0.259679467862644
2621,11.81796490000852,0.0768277477115836,-0.015772230004569274,-0.0576081789385605,0.14919893737193082,0.027059073559059097,-0.11597728705549003,-0.07214112391844384,-0.07562243510985402,-0.10081371839741228,-0.23655659417700153,0.011835424860762712,0.26215466206948596
2622,11.82222410000395,0.0768277477115836,-0.015772230004569274,-0.0576081789385605,0.14887163865720912,0.026718646990428977,-0.11642862773369916,-0.07320049798241386,-0.07556346788112135,-0.09962747168136538,-0.2339426074129153,0.014318824461235462,0.26460632274229884
2623,11.826381799997762,0.07764266527550992,-0.01575300585591533,-0.05823237412809497,0.14853959612214757,0.026378511488021592,-0.11687460073075152,-0.07424807311411583,-0.07549334015487848,-0.0984302379202506,-0.23131794961445226,0.0167921146656526,0.2670341975321048
2624,11.830431900001711,0.07905445253795267,-0.015745307747838215,-0.059582477858767,0.14820286301470395,0.02603871719385889,-0.1173151568194166,-0.07528380263113162,-0.07541209870598971,-0.09722212491182626,-0.22868323679515568,0.019254749336413943,0.2694380383243479
2625,11.834635400009574,0.07976668560671407,-0.015735750091243037,-0.06029193735987007,0.1478614927866242,0.02569931403361491,-0.11775024726104893,-0.07630764262570448,-0.07531979276316436,-0.0960032415611786,-0.22603908483878776,0.021706183794089888,0.2718176012555846
2626,11.840719400002854,0.08044161196655941,-0.015701919034525755,-0.06098167688132018,0.14751553908096693,0.02536035170560262,-0.11817982381050741,-0.07731955196381393,-0.07521647400212073,-0.09477369786145257,-0.2233861093361229,0.024145874937585157,0.27417264672873576
2627,11.846123900002569,0.08117310897485391,-0.01568522734124011,-0.06169812540705766,0.1471650557196328,0.025021879669793114,-0.11860383872098754,-0.07831949228351633,-0.07510219653821282,-0.09353360487451841,-0.2207249254221545,0.02657328136403782,0.27650293942690346
2628,11.850896400006604,0.08259039971272794,-0.015636202678037232,-0.0631815819842749,0.14681009669090164,0.024683947136869496,-0.11902224474876727,-0.07930742799255304,-0.07497701691852116,-0.09228307471158068,-0.2180561476137663,0.028987863488425605,0.27880824832575624
2629,11.855435600009514,0.08327304297869167,-0.01559523396499505,-0.06392419301583606,0.1464507161369816,0.02434660305731785,-0.11943499515786606,-0.08028332626522884,-0.07484099411340837,-0.09102222051373586,-0.2153803896479194,0.031389083662851584,0.28108834670448846
2630,11.8597596000036,0.08394922520807557,-0.015562526292609666,-0.06456408982225782,0.14608696834157256,0.024009896110557642,-0.11984204372461603,-0.0812471570385629,-0.07469418950754057,-0.08975115643248475,-0.21269826432040387,0.03377640629548168,0.2833430121553574
2631,11.864238399997705,0.08453969375248366,-0.015513830777655072,-0.06525384339603615,0.1457189077174477,0.023673874694113924,-0.12024334474214478,-0.082198893007715,-0.07453666689037623,-0.08846999761020521,-0.21001038332520408,0.03614929796910644,0.28557202659180536
2632,11.868908200005537,0.0851699824191875,-0.015480342616118262,-0.0659545143053041,0.14534658879405585,0.023338586912833678,-0.12063885302476965,-0.08313850962069011,-0.07436849244612462,-0.08717886016059159,-0.20731735709452773,0.03850722755929966,0.2877751762551749
2633,11.87219229999755,0.08587345492720179,-0.015380306078878844,-0.06654990113290996,0.1449700662051481,0.023004080568148642,-0.12102852391230379,-0.08406598507232448,-0.07418973474317578,-0.08587786114906748,-0.2046197946395487,0.04084966635214668,0.2899522517200228
2634,11.876732300006552,0.0863250878136319,-0.015290337553509108,-0.06731557733591503,0.14458939467643162,0.02267040314738694,-0.12141231327427413,-0.0849813002975564,-0.07400046472300416,-0.08456711857317788,-0.20191830339191202,0.0431760881615151,0.29210304789804126
2635,11.880369899998186,0.08706214490992842,-0.015167545742458436,-0.0678444780456118,0.14420462901325437,0.022337601813135877,-0.12179017751405058,-0.08588443896398487,-0.073800755688548,-0.08324675134296707,-0.19921348904604938,0.045485969445841296,0.2942273640405931
2636,11.884633900001065,0.0876179246585211,-0.015076704814083079,-0.06847720544629567,0.1438158240883239,0.02200572339265808,-0.12216207357288592,-0.08677538746371993,-0.0735906832920667,-0.08191687926134858,-0.19650595540235383,0.047778789424405714,0.29632500373987236
2637,11.88869780000823,0.0876179246585211,-0.015076704814083079,-0.06847720544629567,0.143423034829463,0.021674814367363335,-0.12252795893386648,-0.08765413490452925,-0.07337032552247791,-0.0805776230044738,-0.19379630421126015,0.05005403019307029,0.2983957749287011
2638,11.892835799997556,0.08802981289076153,-0.014945699416579906,-0.06918393963307562,0.1430263162074043,0.02134492086233837,-0.1228877916257742,-0.08852067310028461,-0.07313976269217747,-0.07922910410210526,-0.19108513501827848,0.05231117683945128,0.3004394898789714
2639,11.89719889999833,0.0893437873197735,-0.014661857629132566,-0.07040121602674007,0.14262572322362835,0.02101608863593691,-0.1232415302268603,-0.089374996560713,-0.07289907742334475,-0.07787144491800059,-0.1883730450100283,0.05454971755750115,0.30245596519874335
2640,11.901153800004977,0.08988807978025495,-0.014563061554863744,-0.07106437907231318,0.1422213108982482,0.020688363069432114,-0.12358913386853047,-0.0902171024804569,-0.0726483546337361,-0.07650476863031304,-0.18566062886131948,0.05676914376147343,0.3044450218280093
2641,11.905410500010476,0.0908948174441425,-0.014583973513939693,-0.07170304799953754,0.1418131342579439,0.020361789156733888,-0.12393056223894229,-0.09104699072744854,-0.07238768152196906,-0.07512919921201533,-0.1829484785833252,0.05896895019924493,0.30640648503313567
2642,11.90982630000508,0.09142460282256096,-0.014471405819489,-0.07237791406181059,0.14140124832395098,0.020036411494173356,-0.12426577558651429,-0.09186466383060254,-0.07211714755230068,-0.07374486141135332,-0.18023718337289252,0.061148635064969724,0.30834018439999533
2643,11.913698200005456,0.09204231298647805,-0.014387810447542369,-0.07305863663422371,0.1409857081001058,0.019712274270356638,-0.12459473472334723,-0.09267012696683201,-0.07183684443890234,-0.07235188073233581,-0.17752732946303537,0.06330770011103941,0.31024595382580444
2644,11.917777200011187,0.09272127510852246,-0.014297569676496563,-0.07364563353797349,0.14056656856095123,0.01938942125609015,-0.12491740102855836,-0.09346338794739338,-0.07154686612963447,-0.0709503834152661,-0.1748194999746538,0.06544565075932471,0.3121236315096756
2645,11.921984900007374,0.09343642174499359,-0.014147997368203703,-0.07422752738934674,0.14014388463990538,0.01906789579437968,-0.12523373645152883,-0.09424445720356615,-0.07124730878932416,-0.06954049641732138,-0.17211427476952276,0.0675619962116735,0.31397305994190067
2646,11.92531869999948,0.09343642174499359,-0.014147997368203703,-0.07422752738934674,0.1397177112174963,0.01874774079050547,-0.12554370351506475,-0.09501334777167313,-0.07093827078254891,-0.06812234739318539,-0.16941223030459462,0.06965624955964055,0.31579408589197683
2647,11.928926799999315,0.09343642174499359,-0.014147997368203703,-0.07422752738934674,0.13928810310966547,0.018428998702175455,-0.1258472653184718,-0.0957700752774469,-0.07061985265593024,-0.06669606467574019,-0.16671393948765637,0.07172792789342426,0.3175865603953897
2648,11.93224160000682,0.09343642174499359,-0.014147997368203703,-0.07422752738934674,0.13885511505614387,0.018111711529758878,-0.12614438554054372,-0.09651465791974899,-0.07029215711994079,-0.06526177725682243,-0.16401997153438364,0.0737765524099861,0.3193503387391682
2649,11.937098399997922,0.0941068387086187,-0.014076816649499977,-0.07484129469984635,0.13841880170890367,0.017795920806602295,-0.1264350284424644,-0.09724711645364775,-0.06995528903022903,-0.06381961476804983,-0.16133089182683288,0.07580164852032878,0.32108528044622625
2650,11.942417700003716,0.09652779327325743,-0.013951124306104672,-0.0773500878454425,0.13797921762068863,0.01748166758943006,-0.12671915887062496,-0.09796747417286202,-0.06960935536846517,-0.062369707461723496,-0.1586472617734124,0.07780274595590954,0.3227912492585081
2651,11.94675719999941,0.09715457140437139,-0.013894607057394842,-0.0779194140456728,0.13753641723362608,0.017168992448831487,-0.12699674225935723,-0.09867575689157745,-0.06925446522271213,-0.06091218619181165,-0.15596963867037322,0.07977937887416514,0.3244681131189538
2652,11.951070700000855,0.0977631550706681,-0.013809012476030794,-0.07849628195561739,0.13709045486792354,0.016857935459836843,-0.12726774463358406,-0.09937199292564207,-0.06889072976732512,-0.05944718239501964,-0.15329857556485899,0.08173108596312549,0.3261157441523018
2653,11.95517590000236,0.09827408420470979,-0.01376085531615993,-0.07916876191607423,0.13664138471065287,0.016548536192584215,-0.12753213261138718,-0.10005621307314772,-0.06851826224238389,-0.0579748280719516,-0.15063462111955375,0.08365741054509312,0.3277340186447484
2654,11.959354700011318,0.09876836273903286,-0.013709637349129698,-0.07980957353360355,0.1361892608046246,0.01624083370307935,-0.12778987340649325,-0.10072845059440479,-0.06813717793266152,-0.056495255768368474,-0.14797831947896667,0.08555790067936589,0.3293228170224836
2655,11.962694000001648,0.09876836273903286,-0.013709637349129698,-0.07980957353360355,0.13573413703735454,0.015934866524050587,-0.12804093483067844,-0.10138874119131751,-0.06774759414613422,-0.05500859855654749,-0.14533021013739128,0.08743210926398066,0.33088202382912363
2656,11.965921299997715,0.09876836273903286,-0.013709637349129698,-0.07980957353360355,0.13527606713012472,0.01563067265590095,-0.12828528529609168,-0.10203712298616785,-0.06734963019203649,-0.053514990016747706,-0.14269082780857664,0.08927959413645604,0.33241152770205895
2657,11.969933800006402,0.09924009973697223,-0.013603319293044178,-0.08040123165587464,0.13481510462714075,0.015328289557759564,-0.12852289381749687,-0.10267363649981562,-0.06694340735846628,-0.05201456421878665,-0.14006070229714673,0.09109991817351255,0.33391122134773965
2658,11.974090000003343,0.10008894106850735,-0.01344162499833049,-0.08171484035047699,0.13435130288478828,0.015027754138634341,-0.12875373001443471,-0.10329832462932237,-0.06652904888954506,-0.050507455703732336,-0.13744035837180432,0.0928926493897489,0.33538100151591865
2659,11.978094999998577,0.10050679968719473,-0.013329559231237034,-0.08230220589460249,0.13388471506099067,0.014729102748667977,-0.12897776411330464,-0.10391123262500726,-0.0661066799621378,-0.048993799465715415,-0.13483031564035414,0.09465736103525328,0.3368207689728767
2660,11.982395500002896,0.10089524251233928,-0.013145939841669382,-0.08294356115557519,0.13341539410467013,0.01443237117049919,-0.1291949669493666,-0.10451240806694351,-0.0656764276621377,-0.04747373093386591,-0.13223108842657916,0.09639363169212904,0.3382304284736497
2661,11.988378800000646,0.101487607815884,-0.012931068410347683,-0.08431933298535071,0.13294339274531483,0.01413759461073111,-0.12940530996866348,-0.10510190084090396,-0.06523842096032022,-0.04594738595437927,-0.12964318564900348,0.09810104536991354,0.33960988873328113
2662,11.99280200000794,0.10182476650257649,-0.0127945699657699,-0.08496108531122065,0.13246876348265432,0.013844807691508735,-0.12960876522986395,-0.10567976311376442,-0.06479279068777165,-0.04441490077271592,-0.1270671107015742,0.09977919159987034,0.34095906239712087
2663,11.996848900002078,0.10208739623336868,-0.01262591837105527,-0.08564458039311021,0.1319915585764457,0.013554044442207399,-0.12980530540602603,-0.10624604930837336,-0.06433966951089663,-0.04287641201593857,-0.12450336133629439,0.10142766552813488,0.3422778660101921
2664,12.00160109999706,0.10208739623336868,-0.01262591837105527,-0.08564458039311021,0.13151183003637298,0.01326533829123414,-0.1299949037862826,-0.10680081607789671,-0.06387919190600959,-0.04133205667519155,-0.12195242954783912,0.10304606800769352,0.34356621998564935
2665,12.005415100007667,0.10208739623336868,-0.01262591837105527,-0.08564458039311021,0.1310296296120622,0.012978722057943782,-0.1301775342774494,-0.10734412227964672,-0.06341149413351542,-0.039781972088326054,-0.11941480146018572,0.10463400568917618,0.34482404857234994
2666,12.009447300006286,0.10238747216775197,-0.012453807842107159,-0.08626759377501018,0.13054500878321493,0.012694227944671463,-0.13035317140555627,-0.10787602894840438,-0.06293671421168454,-0.03822629592267564,-0.1168909572152876,0.10619109111044368,0.34605127982156286
2667,12.013647500003572,0.10352144793414358,-0.011855800976574387,-0.08788880964823323,0.13005801874986242,0.01241188752888347,-0.1305217903173015,-0.10839659926924455,-0.062454991890027636,-0.03666516615798552,-0.11438137086382025,0.10771694278495092,0.3472478455528379
2668,12.017778900000849,0.10385145569661829,-0.011607413095293777,-0.08855163060559529,0.12956871042274182,0.01213173175544805,-0.13068336678143033,-0.10890589854987301,-0.06196646862227545,-0.03509872106949957,-0.11188651025802838,0.10921118528886764,0.3484136813190599
2669,12.022025700003724,0.10409212462388501,-0.011389974823126758,-0.08928315447127963,0.12907713441379737,0.011853790929028012,-0.130837877190038,-0.10940399419248516,-0.061471287538969056,-0.033527099211208646,-0.10940683694670177,0.11067344934693849,0.34954872637071327
2670,12.02544100000523,0.10409212462388501,-0.011389974823126758,-0.08928315447127963,0.12858334102680938,0.011578094706596829,-0.13098529855979776,-0.10989095566515604,-0.06096959341966625,-0.03195043939926385,-0.10694280607230665,0.11210337191706427,0.3506529236193795
2671,12.029915699997218,0.10434223875200863,-0.011185247496877878,-0.0900474772912673,0.12808738024815314,0.011304672090079864,-0.131125608533115,-0.11036685447277114,-0.0604615326647696,-0.030368880695558074,-0.10449486627029804,0.11350059627358743,0.35172621960049294
2672,12.034524900009274,0.10458841321329221,-0.010891961976327236,-0.09153706687592564,0.12758930173768968,0.011033551419122453,-0.13125878537920727,-0.110831764127508,-0.05994725326698215,-0.028782562391478826,-0.10206345957063781,0.11486477208926486,0.3527685644353804
2673,12.038588399998844,0.10470534443075302,-0.010793891111829216,-0.09234619799467497,0.1270891548197904,0.010764760363986445,-0.13138480799511112,-0.1112857601188783,-0.05942690478239658,-0.027191623991835587,-0.09964902130154286,0.1161955555159111,0.3537799117926103
2674,12.04289530000824,0.10484549369076873,-0.010725809794625875,-0.09315509487456756,0.12658698847449737,0.010498325918576783,-0.13150365590661597,-0.11172891988333945,-0.05890063830122345,-0.025596205198964835,-0.0972519799954865,0.1174926092636954,0.35476021884867703
2675,12.047007100001792,0.10491054559872076,-0.010671724489043868,-0.09388984849734242,0.12608285132882113,0.010234274393599734,-0.1316153092691258,-0.11216132277348612,-0.058368606418164624,-0.023996445897015665,-0.09487275729747495,0.1187556026790771,0.35570944624804307
2676,12.051119499999912,0.10498347793076596,-0.010666198730891797,-0.09456746457710864,0.12557679164817867,0.00997263140985437,-0.13171974886844892,-0.11258305002683164,-0.057830963202437725,-0.02239248613641879,-0.0925117678756204,0.11998421182136328,0.3566275580625644
2677,12.055695400005789,0.10509330102398627,-0.010685404488405215,-0.0953862849809653,0.1250688573279725,0.009713421891658821,-0.13181695612151653,-0.11299418473418961,-0.05728786416745812,-0.020784466118541615,-0.09016941933403098,0.12117811953787369,0.3575145217503266
2678,12.05947880000167,0.10504176247526315,-0.010674331849570215,-0.09624973585978508,0.12455909588531343,0.00945667006041287,-0.1319069130770299,-0.11339481180766568,-0.056739466240184555,-0.019172526180531956,-0.08784611212803697,0.1223370155376977,0.3583703081139175
2679,12.063980699997046,0.10499768361265481,-0.010646682652323027,-0.09702563132524678,0.12404755445088894,0.009202399428298431,-0.1319896024160379,-0.11378501794827026,-0.056185927730134755,-0.017556806780352895,-0.08554223948177231,0.1234605964640281,0.35919489125816406
2680,12.06819840001117,0.10499768361265481,-0.010646682652323027,-0.09702563132524678,0.12353427976097808,0.008950632792119433,-0.1320650074524458,-0.1141648916131619,-0.05562740829807733,-0.015937448482011143,-0.08325818730812941,0.12454856596505788,0.3599882485473619
2681,12.072318600010476,0.10492052647327511,-0.010635177877457339,-0.09774641076742195,0.12301931814961492,0.008701392227282561,-0.1321331121334559,-0.11453452298253239,-0.0550640689244064,-0.014314591940981109,-0.08099433413110446,0.125600634763426,0.3607503605620244
2682,12.07704350000131,0.10467265525638658,-0.010748872356809866,-0.09927873083372399,0.12250271554090164,0.008454699081920335,-0.13219390103994177,-0.11489400392614453,-0.054496071877205385,-0.012688377889826767,-0.0787510510105492,0.12661652072419902,0.36148121105517905
2683,12.080406300010509,0.10467265525638658,-0.010748872356809866,-0.09927873083372399,0.12198451744147269,0.008210573971157842,-0.132247359386756,-0.11524342796953406,-0.05392358068000661,-0.011058947124023253,-0.07652870146934433,0.12759594892137588,0.3621807869082374
