,time,x,y,z,vx,vy,vz,ax,ay,az,jx,jy,jz
3141,14.950561699995887,0.07031760933191704,0.06456824047780589,-0.2433083281945248,-0.0024748552842655705,0.008113161933432735,-0.007952150586167836,-0.027891183245234104,-0.0860640339729676,0.11626557343125818,0.04818066910551111,-0.2094173512537749,0.18814848720897737
3142,14.954534200005584,0.07040214422694435,0.06461201381000707,-0.24321221581067637,-0.0026073126031136117,0.007700462945583597,-0.007395703417471152,-0.027659519581888052,-0.08705803680747785,0.11715412740788587,0.04899762376258265,-0.2075662830904033,0.18467679466760648
3143,14.958753600003549,0.0704802553329497,0.06463513673530538,-0.24311736147412685,-0.0027386562844189397,0.007283045987071038,-0.00683506089768855,-0.027423966046839367,-0.0880431495840201,0.1180260291024705,0.04981089050889042,-0.20568715421378955,0.18116183534629116
3144,14.962893799995072,0.07055826544476022,0.06466173472443872,-0.2430437509956114,-0.0028688677978023444,0.006860953753003825,-0.006270302884106417,-0.027184540520590626,-0.08901923885220062,0.1188810736686714,0.050620344605257044,-0.20378009296274083,0.1776040925486948
3145,14.967781800005469,0.07064517807218704,0.06468494076331581,-0.24298804091058096,-0.002997928699318174,0.006434229573382575,-0.0057015102034503615,-0.026941261480925772,-0.08998617178315771,0.1197190585809156,0.05142586166858304,-0.20184523232904136,0.17400405802429914
3146,14.972259300004223,0.07076028526803926,0.06469067466671802,-0.24294485360242696,-0.0031258206343269044,0.006002917410088879,-0.005128764640758092,-0.026694148001165534,-0.09094381619180984,0.12053978367423428,0.05222731769279788,-0.1998827099854079,0.17036223191055214
3147,14.976261000003433,0.07090106724692744,0.06468844456664252,-0.24288018796408978,-0.0032525253403595336,0.005567061853767675,-0.0045521489280646995,-0.02644321974831965,-0.09189204055923424,0.12134305118382346,0.05302458906971543,-0.1978926683126401,0.1666791226734627
3148,14.980214299997897,0.07104204907401288,0.06469497946094968,-0.242854007197709,-0.003378024649973293,0.005126708120602251,-0.003971746732901674,-0.026188496981136497,-0.09283071405517196,0.12212866578432224,0.0538175526097883,-0.19587525442594395,0.16295524704664263
3149,14.984787299996242,0.07116553074130813,0.06467385649301416,-0.24283900553846888,-0.0035023004935981505,0.004681902048981264,-0.0033876426466109546,-0.025930000548050693,-0.09375970656065562,0.12289643462880122,0.054606085562755535,-0.1938306202004077,0.15919112996879603
3150,14.992796399994404,0.07144281273828432,0.06468384450987569,-0.24284118028994278,-0.0036253349023735687,0.004232690096057193,-0.0027999221724753645,-0.02566775188502918,-0.09467888869075568,0.12364616738745347,0.055390065638178304,-0.1917589222956087,0.15538730451965577
3151,14.997204300001613,0.07157071488422016,0.06470433877328899,-0.24287019567854667,-0.0037471100109749936,0.003779119334195665,-0.0022086717136667773,-0.025401773013316375,-0.09558813181744111,0.12437767628598144,0.05616937102585806,-0.18966032217933051,0.15154431185436787
3152,15.00165069999639,0.07157071488422016,0.06470433877328899,-0.24287019567854667,-0.003867608060429561,0.0033212374473151223,-0.0016139785610134196,-0.02513208653707898,-0.09648730809254977,0.12509077614367314,0.056943880416131826,-0.18753498615036923,0.1476627011363239
3153,15.00615149999794,0.07187703880287316,0.06485544829676262,-0.2429662201679265,-0.003986811400920509,0.0028590927271163005,-0.0010159308805877698,-0.02485871564095118,-0.09737629047086441,0.12578528441116016,0.057713473020039326,-0.18538308536040812,0.14374302946844308
3154,15.010161900005189,0.07192287642297816,0.06483584504993702,-0.24306470957901838,-0.004104702494579763,0.002392734069200994,-0.00041461770111654735,-0.024581684087480876,-0.09825495273328996,0.12646102120785,0.05847802858935663,-0.18320479583493982,0.13978586182290512
3155,15.014345000003232,0.07199675232271144,0.06486564738638284,-0.24315112609473735,-0.004221263918268188,0.001922210969079631,0.00018987109878569556,-0.02430101621447753,-0.09912316951012726,0.12711780935902606,0.059237427436491054,-0.18100029849321586,0.1357917709693353
3156,15.0189168999932,0.0720833489679901,0.06492975343483824,-0.2432338127464151,-0.004336478366342976,0.0014475735180672,0.0007974448035578452,-0.02401673693226223,-0.09998081630443832,0.12775547443260787,0.05999155045423196,-0.17876977916720432,0.13176133740144386
3157,15.022545500003616,0.07218759110291725,0.06504331863788124,-0.24333142984870318,-0.00445032865341167,0.0009688723990671063,0.001408011873806783,-0.023728871720820565,-0.10082776951549793,0.1283738447755643,0.06074027913535265,-0.17651342861953398,0.1276951492621204
3158,15.026480000000449,0.07226642070733093,0.06508953041845175,-0.24343013918739767,-0.0045627977170723385,0.0004861588822425591,0.002021479959593624,-0.02343744662685902,-0.10166390646232638,0.1289727515499726,0.06148349559205837,-0.17423144256040446,0.12359380226698538
3159,15.030104399993434,0.0723144868865411,0.06516645202973621,-0.24353811223682748,-0.004673868620639378,-5.151794248747287e-07,0.0026377559138899944,-0.02314248826076563,-0.1024891054072988,0.12955202876871655,0.06222108257527555,-0.17192402166344248,0.11945789962639973
3160,15.034358799995973,0.07235280582838327,0.06521318174057272,-0.24365052650880903,-0.004783524555854472,-0.0004910973546899117,0.0032567458062026863,-0.022844023793475703,-0.10330324557982601,0.1301115133308165,0.06295292349377754,-0.16959137158048412,0.11528805196593486
3161,15.037899499991909,0.07237757447857943,0.065230413539926,-0.2437939781275468,-0.004891748845582205,-0.0009855346387117085,0.0038783549363649705,-0.0225420809532434,-0.10410620720010212,0.13065104505638436,0.06367890243314199,-0.1672337029552631,0.11108487724530597
3162,15.042010000004666,0.07234890981137408,0.06525306556353629,-0.2439491726063726,-0.004998524946489865,-0.0014837734578358375,0.004502487848492854,-0.022236688022319987,-0.1048978715029144,0.13117046672119614,0.06439890417453586,-0.16485123143598526,0.10684900067577104
3163,15.045938399998704,0.07229483761461523,0.06525131404319802,-0.24410683873698735,-0.005103836451710937,-0.001985759674490351,0.005129048345104521,-0.021927873833539665,-0.10567812076151047,0.13166962409087393,0.06511281421332311,-0.16244417768676989,0.10258105463599893
3164,15.050250300002515,0.07222319985186536,0.0652605718682876,-0.24427197521762448,-0.005207667093491852,-0.002491438592196181,0.005757939501401155,-0.021615667766813847,-0.10644683831151762,0.13214836595467108,0.06582051877749087,-0.1600127673979381,0.09828167858640927
3165,15.054611400002614,0.07217024857964596,0.06526769031165942,-0.24444152320000365,-0.005310000745821483,-0.0030007549606920966,0.006389063679707336,-0.02130009974553483,-0.10720390857490904,0.1326065441588537,0.06652190484588982,-0.1575572312951289,0.09395151898198727
3166,15.058330500003647,0.07205099596678663,0.06525644860454226,-0.2446355437621395,-0.005410821427042956,-0.003513652981174409,0.007022322544069135,-0.020981200232889883,-0.1079492170840114,0.1330440136396715,0.06721686016628434,-0.15507780514722444,0.08959122918357712
3167,15.062986599994474,0.07195763606139882,0.06526420650248549,-0.24482839200292889,-0.0055101133024472795,-0.004030076311651591,0.007657617075008021,-0.020659000228086696,-0.10868265050554847,0.13346063245591097,0.06790527327320817,-0.15257472977306555,0.08520146936765793
3168,15.066943900004844,0.0718673026005278,0.0652619672677,-0.24499674893461018,-0.005607860686848339,-0.004549968072413944,0.008294847584428609,-0.02033353126249131,-0.10940409666471514,0.13385626182102384,0.06858703350562209,-0.15004825104694047,0.08078290643460628
3169,15.070939400000498,0.07177278530986973,0.06530474092041262,-0.2451629137518785,-0.005704048047138812,-0.005073270851618412,0.0089339137306783,-0.020004825395679326,-0.11011344456927602,0.13423076613482482,0.06926203102437008,-0.14749861990282806,0.07633621391544985
3170,15.075260700003128,0.0716756864222468,0.06534512817448723,-0.24534741740452196,-0.005798660004826546,-0.005599926710988631,0.009574714533756773,-0.019672915211401465,-0.11081058443368291,0.13458401301475162,0.06993015682943032,-0.14492609233737827,0.07186207187711657
3171,15.079335000002176,0.07160442043773975,0.06538899256635984,-0.24549824236542941,-0.005891681338550966,-0.006129877191630283,0.01021714839067327,-0.019337833813464447,-0.11149540770320492,0.13491587332667965,0.07059130277695762,-0.14233092941161118,0.06736116682618415
3172,15.083891500005848,0.07149212389768278,0.06541786336733679,-0.24568976993917233,-0.005983096986579073,-0.006663063319961734,0.010861113090949627,-0.01899961482152833,-0.11216780707806565,0.13522622121528421,0.07124536159611358,-0.13971339725131723,0.0628341916111356
3173,15.087623200000962,0.07137831088033388,0.0654604332408831,-0.245838524779285,-0.006072892049280607,-0.0071994256137599385,0.011506505832266875,-0.0186582923668213,-0.11282767653758088,0.1355149341339421,0.07189222690568156,-0.13707376704614113,0.0582818453231259
3174,15.09355869999854,0.07132353989795609,0.06551974918640549,-0.2459834390868774,-0.006161051791581963,-0.007738904088321582,0.01215322323625332,-0.018313901087773164,-0.11347491136429058,0.13578189287416637,0.07253179323046302,-0.1344123150473326,0.05370483319526557
3175,15.09804979999899,0.07122378568480299,0.06557394079556916,-0.24615654000823606,-0.006247561645398416,-0.008281438262739369,0.012801161364411891,-0.01796647612556866,-0.11410940816807894,0.13602698159456683,0.07316395601745226,-0.13172932256414693,0.04910386650042725
3176,15.104534500002046,0.07101985635541622,0.06567128987892418,-0.24648417007128354,-0.006332407212044264,-0.008826967166293333,0.01345021573418448,-0.017616053119621826,-0.1147310649102761,0.13625008784932985,0.07378861165178688,-0.1290250759588794,0.04447966244758165
3177,15.1086798000033,0.07092661566511678,0.06573308320265073,-0.24664846767118276,-0.00641557426462048,-0.00937542934495705,0.014100281335150979,-0.017262668202972634,-0.11533978092773481,0.13645110261620952,0.0744056574724715,-0.1262998666405173,0.03983294407666928
3178,15.113973700004864,0.07081746041416695,0.06580782501236983,-0.24682685385523848,-0.006497048750379461,-0.009926762868018616,0.014751252645360736,-0.016906357997607067,-0.11593545695687449,0.13662992032402374,0.0750149917878724,-0.12355399105699486,0.03516444015201523
3179,15.121974099994986,0.07056856256295946,0.0660110436342222,-0.24720279326206768,-0.006576816793066476,-0.010480905334816189,0.015403023647794093,-0.016547159609701857,-0.11651799515768684,0.1367864388796495,0.07561651389098001,-0.12078775068603714,0.030474885054294267
3180,15.127325800000108,0.07042753749721811,0.06611713549881744,-0.24741551923091953,-0.006654864695237466,-0.011037793881587881,0.016055487846951665,-0.016185110624795183,-0.11708729913769626,0.13692055969451045,0.0762101240744373,-0.11800145202457875,0.025765018671053987
3181,15.13794699999562,0.06987789146954479,0.06655607067403775,-0.24802379946008454,-0.006731178940552799,-0.011597365188435734,0.016708538285568984,-0.015820249102884647,-0.11764327397586888,0.13703218771054956,0.07679572364533103,-0.11519540657674383,0.021035586285804292
3182,15.149463499998092,0.0692335843510038,0.06698410253999046,-0.24858046927155414,-0.006805746196046611,-0.012159555486403508,0.01736206756145406,-0.015452613573453754,-0.11818582624646363,0.13712123142567983,0.07737321493974453,-0.11236993084037411,0.016287338465681558
3183,15.154291099999682,0.06901118437551731,0.06711207401849861,-0.2487212393072994,-0.006878553314371332,-0.012724300564667891,0.018015967844445393,-0.015082243030428131,-0.11871486404281892,0.1371876029187067,0.07794250133706979,-0.1095253462920918,0.011521030947696412
3184,15.158750699993108,0.06879908389983762,0.06723422925231928,-0.24892608618075684,-0.006949587336017038,-0.013291535777842688,0.018670130893487985,-0.014709176927062709,-0.11923029700106734,0.13723121787371584,0.07850348727407808,-0.10666197937088452,0.0067374245235744205
3185,15.16266539999924,0.06855805358270008,0.0673349086721266,-0.2491108195236743,-0.007018835491505296,-0.013861196053395647,0.01932444807382475,-0.014333455170761143,-0.11973203632377172,0.13725199560391896,0.07905607825874698,-0.10378016146020015,0.0019372849231994414
3186,15.16693540000415,0.06831550515889942,0.06746076112563534,-0.2492837756552895,-0.0070862852035571775,-0.014433215899177506,0.019978810374300795,-0.013955118117828638,-0.12021999480347513,0.13724985907495119,0.07960018088384264,-0.10088022886854044,-0.0028786173033301652
3187,15.173062500005472,0.06806531494483856,0.06754646886934662,-0.2495026371486459,-0.0071519240892351284,-0.015007529411062818,0.02063310842477793,-0.013574206568159516,-0.12069408684615715,0.13722473492761292,0.08013570284025534,-0.09796252280854129,-0.0077095069050219294
3188,15.17707479999808,0.06780324902080681,0.06767841779783165,-0.2497199399215717,-0.007215739962058384,-0.015584070280702052,0.02128723251365677,-0.013190761759860845,-0.12115422849458873,0.13717655350004945,0.0806625529300866,-0.09502738937452901,-0.01255460405067525
3189,15.181321600000956,0.06753314916403359,0.06775967582617336,-0.24994771443432998,-0.007277720834091663,-0.016162771803384435,0.021941072605503775,-0.012804825363813483,-0.12160033745157857,0.1371052488493616,0.08118064107948716,-0.09207517951854183,-0.017413124450921507
3190,15.185679200003506,0.06730385725975474,0.06787586087762511,-0.2501860301966144,-0.007337854918006822,-0.016743566886010895,0.022594518358780378,-0.012416439478171863,-0.12203233310310412,0.13701075877264113,0.08168987835124537,-0.08910624902480646,-0.02228427948160643
3191,15.189603000006173,0.06709840319224991,0.06803259298035494,-0.25041317579868266,-0.007396130629117152,-0.017326388055176552,0.023247459143671573,-0.01202564662280382,-0.12245013654131998,0.13689302482742435,0.08219017695712583,-0.08612095848266016,-0.027167276308502294
3192,15.194103799993172,0.06687202380270041,0.06821599489292443,-0.2506534425744564,-0.007452536587383999,-0.017911167465362133,0.02389978406001128,-0.011632489733671808,-0.12285367058743538,0.1367519923515573,0.08268145026995732,-0.0831196732579094,-0.03206131801333711
3193,15.197956599993631,0.06662498055172898,0.06839017295476219,-0.2509073870015093,-0.007507061619395431,-0.01849783690723382,0.0245513819553016,-0.01123701215715677,-0.12324285981445343,0.1365876104824649,0.08316361283546991,-0.0801027634626173,-0.03696560372112755
3194,15.20223629999964,0.06639486817791708,0.06855784876585612,-0.2511315205594864,-0.007559694760316707,-0.019086327816050908,0.025202141442823043,-0.01083925764432597,-0.12361763056976445,0.13639983217581828,0.08363658038388055,-0.07707060392331196,-0.04187932872880197
3195,15.206689200000255,0.06616291171488889,0.06869669816828444,-0.25133688509874674,-0.007610425255812257,-0.019676571280180494,0.025851950919832875,-0.01043927034514616,-0.12397791099758569,0.13618861422359382,0.0841002698412271,-0.07402357414760842,-0.04680168463509916
3196,15.211396800004875,0.06594741549931002,0.06886571087842092,-0.2515646018006793,-0.007659242563938931,-0.0202684980497184,0.02650069858584866,-0.010037094802643347,-0.1243236310612398,0.13595391727151823,0.08455459934045068,-0.07096205828923746,-0.05173185947172811
3197,15.21682359999977,0.06547316675649308,0.06915986373543552,-0.2520225084724992,-0.007706136357010189,-0.02086203854521554,0.02714827246101421,-0.009632775947010494,-0.12465472256526437,0.1356957058358937,0.08499948823222665,-0.06788644511147456,-0.056669037835773324
3198,15.22371039999416,0.065221351367993,0.06928867658320446,-0.2522697652452351,-0.00775109652343095,-0.021457122866509023,0.027794560404545005,-0.009226359089664427,-0.12497111917734523,0.13541394831979697,0.0854348570955435,-0.06479712794896325,-0.061612401023329724
3199,15.228711999996449,0.06469982475039443,0.06955771229671476,-0.25273280174182683,-0.007794113169502755,-0.022053680801657146,0.02843945013325013,-0.008817889917253222,-0.12527275645006442,0.1351086170286459,0.08586062774803013,-0.06169450466792787,-0.06656112716435124
3200,15.23298739999882,0.06446784713789588,0.06976035597028678,-0.2529424585116461,-0.007835176621198977,-0.02265164183597726,0.02908282924012794,-0.008407414485615397,-0.1255595718424554,0.13477968818512737,0.08627672325603174,-0.058578977624771045,-0.07151439135869624
3201,15.237618800005292,0.0641808983212593,0.06988680065590727,-0.2532282680463875,-0.007874277425909857,-0.023250935161185458,0.029724585213032468,-0.007994979213692242,-0.12583150474135768,0.13442714194348165,0.08668306794443527,-0.055450953623052336,-0.07647136581335225
3202,15.24168930000451,0.06387439696706301,0.06996230043457355,-0.25347902532804023,-0.007911406354157123,-0.02385148968463717,0.030364605453407544,-0.007580630877394544,-0.1260884964825628,0.13405096240313838,0.08707958740624513,-0.0523108438688445,-0.08143121998082155
3203,15.245808299994678,0.06361143369034412,0.07012552690257819,-0.25368684426513965,-0.007946554401278038,-0.024453234038667667,0.03100277729508546,-0.007164416603424983,-0.12633049037174326,0.13365113762169775,0.08746620851191027,-0.04915906392446452,-0.08639312069864911
3204,15.250430400003095,0.06325578377623736,0.07023557447450772,-0.25390341019307383,-0.007979712789078667,-0.025056096590031395,0.03163898802314722,-0.006746383863057508,-0.12655743170515724,0.13322765962725278,0.08784285941840371,-0.04599603366057704,-0.09135623233007409
3205,15.259362199998575,0.06276380183201799,0.07040645732597489,-0.2542770970470941,-0.00801087296745614,-0.025660005449439135,0.03227312489284117,-0.006326580465874951,-0.12676926779012038,0.13278052443004715,0.08820946957805607,-0.04282217720666856,-0.09631971690578543
3206,15.26311149999674,0.06252255798996768,0.07047581582309315,-0.2544465300786841,-0.008040026615989786,-0.026264888481191812,0.03290507514855693,-0.0059050545534662015,-0.1269659479652366,0.13230973203346305,0.0885659697471446,-0.03963792289989143,-0.10128273426676201
3207,15.26687469999888,0.0622629749746241,0.07052482370185782,-0.25462754876384025,-0.008067165645500952,-0.026870673312909803,0.03353472604285149,-0.0054818545930842,-0.12714742362037978,0.13181528644433269,0.08891229199423926,-0.036443703232276935,-0.10624444220817685
3208,15.271032399992691,0.062014519552611565,0.07056577972509974,-0.2548155487537254,-0.00809228219958137,-0.027477287345356573,0.03416196485552405,-0.005057029371265999,-0.1273136482164186,0.13129719568256834,0.08924836970830748,-0.03323995479631744,-0.11120399662434423
3209,15.274269200002893,0.062014519552611565,0.07056577972509974,-0.2548155487537254,-0.008115368656089871,-0.028084657762355365,0.03478667891273658,-0.004630627987416177,-0.12746457730467783,0.13075547179010547,0.08957413760657895,-0.030027118228918497,-0.11616055165468883
3210,15.279001599992624,0.06159695636143217,0.07068419695203357,-0.25519910020693926,-0.008136417628617321,-0.028692711540797704,0.03540875560617664,-0.004202699847354858,-0.12760016854612743,0.13019013083915254,0.08988953174217276,-0.026805638153722347,-0.12111325983071447
3211,15.283443599997554,0.06141117692425389,0.07078410633208583,-0.2553712404879074,-0.008155421967919617,-0.029301375460742424,0.03602808241225904,-0.0037732946568315765,-0.12772038173029246,0.12960119293974282,0.09019448951148797,-0.023575963121804953,-0.12606127222394964
3212,15.287664000003131,0.061216190838744536,0.07082456130785798,-0.2555301945352269,-0.008172374763318635,-0.02991057611560396,0.03664454691136307,-0.0033424624150062074,-0.12782517879387584,0.12898868224658233,0.09048894966135967,-0.02033854555074932,-0.1310037385948469
3213,15.29192420000618,0.06104547082261635,0.0708720680493485,-0.2556701381897933,-0.008187269344071033,-0.03052023992242859,0.037258036807102,-0.0029102534078981686,-0.12791452383908639,0.12835262696518956,0.09077285229598245,-0.017093841662098437,-0.13593980754261228
3214,15.29590989999997,0.06089540077827673,0.0709491311260587,-0.25584329848199255,-0.00820009928070483,-0.031130293132257146,0.03786843994562158,-0.0024767182018051058,-0.12798838315166372,0.12769305935732267,0.09104613888360331,-0.013842311417191876,-0.14086862665594058
3215,15.300128599992604,0.06072279889871005,0.07099462693446941,-0.2559994224100804,-0.008210858386323674,-0.031740661840572816,0.03847564433492385,-0.0020419076366922635,-0.1280467252185922,0.1270100157456906,0.09130875226298653,-0.010584418451390718,-0.1457893426646315
3216,15.304413399993791,0.06057310001315595,0.07099712443462486,-0.2561336425576166,-0.008219540717878667,-0.03235127199783239,0.03907953816421303,-0.0016058728195537263,-0.1280895207454968,0.12630353651794368,0.09156063664965214,-0.007320630006696147,-0.1507011015920604
3217,15.30898879999586,0.06038803259240093,0.071089647717332,-0.2562782517728141,-0.008226140577407639,-0.03296204942007957,0.03968000982326,-0.001168665117746705,-0.1281167426737135,0.1255736661299397,0.09180173764189146,-0.004051416862767589,-0.15560304890847704
3218,15.320297800004482,0.05977263501126286,0.07133150726963249,-0.25675835647840806,-0.008230652513241734,-0.03357291979963858,0.04027694792178207,-0.0007303361523000237,-0.12812836619702728,0.12482045310828159,0.0920320022265622,-0.0007772532663470735,-0.16049432968510613
3219,15.324562499998136,0.059494086629557415,0.07135827246821365,-0.2568781437217299,-0.008233071321179218,-0.03418380871588638,0.04087024130883448,-0.000290937791197944,-0.12812436877806935,0.12404395005212285,0.0922513787846658,0.0025013831409028448,-0.1653740887490226
3220,15.3288787999918,0.05925429442505846,0.07139943010783828,-0.25702725276351457,-0.008233392045626446,-0.03479464164610204,0.041459779092210214,0.00014947785735954677,-0.1281047301643667,0.12324421363423574,0.09245981709670972,0.0057840113961396674,-0.1702414708387746
3221,15.333447199998773,0.05901489871840496,0.07146030945572851,-0.2571506078221589,-0.008231609980705865,-0.03540534397639167,0.04204545065784455,0.0005908584517188772,-0.1280694324040362,0.12242130460133878,0.09265726834785745,0.009070147290651413,-0.17509562076072643
3222,15.338941499998327,0.058799683620849814,0.07153917350183277,-0.2573085627850091,-0.008227720671331025,-0.03601584101268727,0.04262714568922093,0.001033151423556372,-0.1280184598611157,0.12157528777368026,0.09284368513286857,0.012359303446727666,-0.17993568354609235
3223,15.342705100003514,0.058544734255184395,0.07155153299084704,-0.2573846053322744,-0.00822171991424846,-0.036626057991818,0.04320475418677456,0.0014763039846819944,-0.12795179923052427,0.12070623204387482,0.0930190214608317,0.01565098939608122,-0.1847608046086324
3224,15.346454300000914,0.05832269962265856,0.07161047157964973,-0.25750363386741215,-0.008213603759046385,-0.03723592009265209,0.0437781664872904,0.0019202631338622956,-0.1278694395526448,0.11981421037498999,0.09318323275969322,0.01894471165980973,-0.18957012990298014
3225,15.350089999992631,0.0580841833083621,0.07166764293603496,-0.2575993322531378,-0.008203368509130124,-0.03784535244730746,0.044347273283291896,0.0023649756636615338,-0.12777137222752075,0.11889929979787973,0.09333627588058531,0.022239973829886066,-0.19436280608357137
3226,15.354791000005209,0.05785588246268686,0.0717275897365719,-0.2576778104426366,-0.008191010722664246,-0.03845428015242912,0.044911965642416625,0.0028103881672999404,-0.12765759102866026,0.1179615814077617,0.09347810910195634,0.025536276652165492,-0.19913798066414207
3227,15.359698600004776,0.05763742073129726,0.07178698563700352,-0.2577547491928643,-0.008176527213481324,-0.03906262828053151,0.04547213502677553,0.0032564470455281355,-0.12752809211644023,0.11700114036003492,0.09360869213350673,0.028833118110897147,-0.20389480217776415
3228,15.363341699994637,0.057454102493513855,0.07186653988553408,-0.25781724574373155,-0.008159915051957293,-0.03967032189140383,0.046027673312292024,0.0037030985135167124,-0.12738287405110374,0.11601806586533499,0.09372798611993385,0.032129993514726576,-0.20863242033738663
3229,15.366998900004546,0.05728387222165364,0.07199006859207199,-0.2578702459110477,-0.008141171565853327,-0.04027728604357637,0.04657847280801734,0.004150288607760028,-0.1272219378053439,0.11501245118382324,0.09383595364448902,0.0354263955841755,-0.21334998619684944
3230,15.375371799993443,0.057002317623820686,0.07215293684943899,-0.2579356467410601,-0.00812029434112424,-0.04088344580584608,0.047124426275418484,0.004597963192993256,-0.12704528677646781,0.11398439361870782,0.09393255873234989,0.03872181454058421,-0.2180466523123373
3231,15.380301400000462,0.05688492106492811,0.07225486755215368,-0.2579355518244445,-0.008097281222693408,-0.04148872626885909,0.0476654269476352,0.005046067969121768,-0.1268529267981344,0.11293399450899463,0.09401776685381145,0.042015738196501416,-0.22272157290423827
3232,15.384018900003866,0.05681620538969133,0.07239970137099606,-0.25793075341072547,-0.008072130315194135,-0.04209305255674844,0.04820136854870259,0.005494548478161957,-0.1266448661516589,0.1118613592214656,0.09409154492729882,0.04530765204750548,-0.2273739040193721
3233,15.387945900001796,0.05673893724858521,0.07251380692404256,-0.2579120359294335,-0.008044839983677457,-0.04269634983882501,0.04873214531273543,0.005943350111192603,-0.1264211155768773,0.11076659714188287,0.09415386132220484,0.04859703936544035,-0.23200280369355444
3234,15.392080299992813,0.0566574829278495,0.07265013599053227,-0.25785960471930697,-0.008015408854286322,-0.04329854334131935,0.049257652003070605,0.006392418115315899,-0.12618168828256338,0.10964982166541701,0.09420468586155624,0.05188338129304916,-0.23660743211446142
3235,15.396231399994576,0.056602893043027444,0.07276163986150637,-0.2578148490627243,-0.007983835814896112,-0.04389955835917187,0.04977778393136397,0.006841697600627313,-0.12592659995639244,0.10851115018629767,0.09424398982451168,0.055166156939987644,-0.24118695178476016
3236,15.400114799995208,0.056531153049628025,0.0728781846071913,-0.2577630736005633,-0.00795012001572147,-0.04449932026786929,0.05029243697663778,0.007291133547193412,-0.12565586877444448,0.10735070408668611,0.09427174594869511,0.05844484348019903,-0.24574052768546872
3237,15.404426199995214,0.056480304184196216,0.07300986216346145,-0.2577071126271033,-0.0079142608698894,-0.045097754535325045,0.05080150760427478,0.0077406708120368005,-0.12536951541024036,0.10616860872476779,0.09428792843236804,0.06171891625063143,-0.2502673274395092
3238,15.409996300004424,0.056440789103564815,0.07318124600587522,-0.2576451106484628,-0.007876258053978624,-0.04569478673380149,0.0513048928849554,0.008190254136127352,-0.12506756304330416,0.10496499342206421,0.09429251293644436,0.06498784885127797,-0.2547665214754174
3239,15.41453169999295,0.056329668966199134,0.07320678871780664,-0.25761044123505283,-0.007836111508525211,-0.046290342551871685,0.051802490513534444,0.00863982815137896,-0.1247500373672458,0.10373999144996274,0.09428547658635163,0.06825111324651932,-0.25923728319117284
3240,15.41839579999214,0.05626058544759703,0.07331631811484429,-0.25752280686130147,-0.0077938214384944485,-0.04688434780641847,0.05229419882785361,0.009089337387651051,-0.12441696659735771,0.10249374001546294,0.09426679797374207,0.07150817986774785,-0.26367878911811043
3241,15.422714400003317,0.05616318486889055,0.0733824737787992,-0.2573974044077472,-0.007749388313719057,-0.04747672845466854,0.05277991682748622,0.009538726279754174,-0.12406838147771918,0.10122638024613896,0.09423645715805659,0.07475851771725146,-0.2680902190848757
3242,15.427254299997005,0.05609735138121139,0.07344203397576665,-0.25730041188483155,-0.007702812869303736,-0.048067410606259076,0.053259544192410364,0.009987939174458857,-0.12370431528780258,0.09993805717431753,0.0941944356679452,0.07800159447333435,-0.2724707563813839
3243,15.433313400004408,0.055948755597379836,0.07357846808717185,-0.2570544790952551,-0.007654096105996046,-0.04865632053533437,0.053732981301606725,0.010436920337507061,-0.1233248038485756,0.09862891972047158,0.09414071650254685,0.08123687659665173,-0.2768195879227451
3244,15.43879339999694,0.055908935180874225,0.073663311671887,-0.256941277251873,-0.0076032392905236905,-0.049243384692670165,0.05420012925157729,0.010885613960625519,-0.12292988552809303,0.09729912067582924,0.09407528413263151,0.08446382943773498,-0.2811359044131128
3245,15.44620209999266,0.05579431145438439,0.07380830467316775,-0.2566248873548527,-0.007550243955898233,-0.04982852971782307,0.054660889874781085,0.011333964168540343,-0.122519601246572,0.09594881668419822,0.09399812450160785,0.08768191734568277,-0.28541890050941665
3246,15.450611799999024,0.055727065951923074,0.07384648494092606,-0.256430135665162,-0.0074951119016852955,-0.050411682451302724,0.05511516575798307,0.011781915025992306,-0.12209399448094535,0.09457816822300595,0.09390922502640008,0.09089060377799282,-0.28966777498493795
3247,15.454463000001851,0.05569116358596213,0.07394719399893358,-0.2562204815508482,-0.007437845194241312,-0.05099276994676401,0.05556286026051234,0.012229410544752212,-0.12165311126888863,0.09318733958355657,0.09380857459819707,0.09408935141150947,-0.2938817308926877
3248,15.45798599999398,0.05569116358596213,0.07394719399893358,-0.2562204815508482,-0.0073784461669168635,-0.051571719483216746,0.056003877532425625,0.012676394690635783,-0.12119700021231566,0.09177649885050528,0.09369616358307753,0.0972776222544607,-0.29805997572854614
3249,15.46247480000602,0.05565022732008009,0.07410003896515607,-0.25583502618748905,-0.0073169174202266495,-0.05214845857725065,0.05643812253257265,0.013122811390517533,-0.1207257124803365,0.09034581788055093,0.09357198382251404,0.10045487775955832,-0.30220172159412134
3250,15.467619499991995,0.05571116839884264,0.07420614563227076,-0.2556042151995011,-0.007253261821986072,-0.05272291499527313,0.05686550104655925,0.013568604539343023,-0.12023930181167276,0.08889547228034797,0.09343602863375958,0.10362057893813383,-0.30630618535928616
3251,15.472768999999971,0.05577058051892752,0.07425684822837593,-0.25539409202834623,-0.00718748250741448,-0.05329501676575749,0.0572859197046046,0.014013718007138957,-0.11973782451652569,0.08742564138363924,0.09328829281011972,0.10677418647528172,-0.31037258882435254
3252,15.47717559999728,0.0558282882798132,0.07429329758167835,-0.25518868587604526,-0.00711958287920511,-0.05386469219149863,0.057699285999289,0.01445809564602065,-0.119221339477892,0.08593650822761134,0.09312877262111367,0.10991516084598159,-0.31440015888184114
3253,15.483534800005144,0.056102527203306295,0.07440639586657025,-0.2546823092423679,-0.007049566607561763,-0.05443186986187334,0.058105508303188246,0.01490168129719636,-0.11868990815232308,0.08442825952847431,0.09295746581252773,0.11304296243216971,-0.3183881276778026
3254,15.487744300000486,0.056225313690064824,0.07440445511787944,-0.25446391143624914,-0.00697743763020226,-0.05499647866510283,0.058504495886391075,0.015344418797968091,-0.11814359457012291,0.08290108565626728,0.09277437160636443,0.11615705164073092,-0.3223357327726471
3255,15.49201919999905,0.056369910321494604,0.0743964419715822,-0.2542586672885163,-0.006903200152328756,-0.05555844780051482,0.058896158933896055,0.01578625198872838,-0.11758246533498047,0.08135518060889207,0.09257949070069062,0.11925688902237987,-0.3262422173014391
3256,15.496224400005303,0.05653778115081057,0.07438409613100797,-0.2540112726067453,-0.006826858646564997,-0.056117706790802274,0.0592804085628843,0.016227124719952673,-0.11700658962303215,0.07979074198537768,0.09237282526938714,0.1223419353914007,-0.3301068301336157
3257,15.500398499993024,0.05667599855267045,0.07437694127861443,-0.2537993335032589,-0.006748417852860574,-0.05667418549427613,0.0596571568398645,0.016666980859186907,-0.11641603918134978,0.07820797095837809,0.09215437896180326,0.12541165194621381,-0.3339288260320843
3258,15.504178000002868,0.05685683872141192,0.074348803297766,-0.25361238577491235,-0.006667882778362248,-0.057227814117109324,0.06002631679768655,0.01710576429802989,-0.11581088832585089,0.07660707224590689,0.09192415690231846,0.12846550039073765,-0.3377074658116574
3259,15.5097523000004,0.05702206632197625,0.074289679358545,-0.2534135404802141,-0.006585258697252388,-0.05777852322556971,0.06038780245241999,0.01754341895911001,-0.11519121393862719,0.07498825408231162,0.09168216568981484,0.13150294305651433,-0.34144201649678096
3260,15.514028299992788,0.057203109429124446,0.07422644148265053,-0.2532040204045814,-0.006500551150554604,-0.058326243758239193,0.06074152882009344,0.017979888803056027,-0.11455709546468812,0.07335172818849094,0.09142841339706285,0.13452344302556654,-0.3451317514785107
3261,15.517726899997797,0.0573931005149197,0.0741558978503503,-0.2529763155457904,-0.006413765945906615,-0.058870907038216236,0.06108741193329178,0.018415117835461826,-0.11390861490811577,0.07169770974135872,0.09116290957002388,0.13752646425395193,-0.34877595067069306
3262,15.521389100002123,0.05761718294675901,0.07410012093095666,-0.2527197752846885,-0.006324909157300447,-0.059412444785299334,0.061425368857607444,0.018849050113844714,-0.11324585682762826,0.07002641734255922,0.09088566522707164,0.14051147169598077,-0.3523739006653059
3263,15.52566790000128,0.05774029976118174,0.07397286645767566,-0.2525192226419981,-0.0062339871247900315,-0.05995078912814906,0.061755317707942285,0.019281629754597022,-0.11256890833154885,0.06833807298643718,0.09059669285813526,0.14347793142906293,-0.35592489488691476
3264,15.52947110000241,0.05788416136595687,0.07386246994522819,-0.25229293592401736,-0.006141006454166291,-0.06048587261642559,0.062077177664656265,0.019712800939930632,-0.11187785907217787,0.06663290202726727,0.09029600642376656,0.14642531077915039,-0.35942823374619837
3265,15.533474299998488,0.05803017262610299,0.07377014478826233,-0.2520483656346388,-0.006045974016599745,-0.06101762823289877,0.062390868989559284,0.020142507924814236,-0.11117280123956459,0.06491113314574691,0.08998362135413424,0.14935307844673965,-0.3628832247924987
3266,15.537562199999227,0.058144578199547825,0.07366998015205721,-0.25181094256321057,-0.005948896948250725,-0.061545989405527614,0.06269631304174243,0.020570695043903083,-0.11045382955467674,0.06317299831475703,0.08965955454794727,0.15226070463339939,-0.3662891828653517
3267,15.541817399993306,0.058214834806833406,0.07354958449717182,-0.2515161583189004,-0.005849782649847274,-0.06207089001950637,0.06299343229324546,0.020997306718460902,-0.10972104126196516,0.061418732764395696,0.08932382437130996,0.1551476611687879,-0.3696454302449546
3268,15.545870200003264,0.05830523011319841,0.07343606567733997,-0.25124679329633526,-0.0057486387862308135,-0.06259226442927412,0.0632821503445569,0.02142228746327373,-0.10897453612132174,0.05964857494629017,0.08897645065651048,0.15801342163812399,-0.3729512968015223
3269,15.550041199996484,0.05839640977950167,0.07332251380101114,-0.2509954801703024,-0.005645473285869642,-0.06311004747048513,0.06356239193994313,0.021845581893555413,-0.10821441639942837,0.05786276649719218,0.08861745470074504,0.16085746151007438,-0.37620612014348875
3270,15.55452299999888,0.05849912494833899,0.07321169148634539,-0.2507092638462762,-0.005540294340340322,-0.06362417447193656,0.06383408298260261,0.0222671347318445,-0.10744078686049517,0.0560615522018618,0.08824685926477946,0.16367925826501997,-0.37940924576450796
3271,15.55843069999537,0.05858551207158395,0.07309543234263997,-0.2504101825454137,-0.005433110403777029,-0.06413458126745121,0.06409715054964217,0.022686890814892304,-0.10665375475638594,0.05424517995524554,0.08786468857155051,0.16647829152366375,-0.3825600271892089
3272,15.566809900003136,0.05878300828177391,0.0727942557208649,-0.24980652121691113,-0.0053239301922889505,-0.06464120420771194,0.06435152290687139,0.02310479510054208,-0.10585342981612945,0.05241390072395428,0.0874709683047092,0.169254043175942,-0.38565782611766
3273,15.57123760000104,0.05886419731610956,0.07265173242611003,-0.24947717481107307,-0.0052127626833458115,-0.06514398017204515,0.06459712952341187,0.0235207926745991,-0.10503992423481515,0.050567968507047145,0.08706572560710713,0.17200599751020043,-0.3887020125684973
3274,15.576132000001962,0.05896947721993164,0.07246934832380036,-0.24909158607581888,-0.005099617115131589,-0.06564284658014993,0.06483390108611808,0.023934828757691363,-0.10421335266187229,0.04870764029612785,0.08664898907922784,0.17473364134259728,-0.3916919650206733
3275,15.581673699998646,0.059076320259959875,0.07229895918880873,-0.24874495106634134,-0.004984502985866505,-0.06613774140377021,0.06506176951380625,0.024346848712120717,-0.10337383218873145,0.04683317603476007,0.08622078877756463,0.17743646414669434,-0.3946270705537811
3276,15.586226899991743,0.059207153879374634,0.07215694774764173,-0.24840687984583285,-0.004867430053097352,-0.06662860317830675,0.06528066797128776,0.024756798048704308,-0.10252148233586769,0.044944838577208684,0.08578115621294607,0.1801139581831959,-0.3975067249869092
3277,15.591332600000896,0.05949529862016883,0.07179668177406195,-0.2476949072196895,-0.0047484083329562415,-0.06711537101436667,0.06549053088320407,0.025164622433606173,-0.10165642503922513,0.04304289364651405,0.08533012434881092,0.18276561862979618,-0.4003303330159827
3278,15.595914499994253,0.059666438339573385,0.07164077792073877,-0.24733296162427879,-0.004627448099387843,-0.06759798460924732,0.06569129394765982,0.025570267695158938,-0.10077878463602208,0.04112760979190671,0.0848677275994333,0.18539094371109663,-0.40309730834954566
3279,15.60015879999264,0.059825403501271836,0.07146653022247636,-0.24701011611630488,-0.00450455988334518,-0.06807638425835226,0.0658828941496508,0.02597367983067551,-0.09988868784993653,0.0391992583455703,0.08439400182809925,0.18798943482855238,-0.4058070738429421
3280,15.60547619999852,0.06001313327458756,0.07134316165793607,-0.24656970857324362,-0.004379754471954057,-0.06855051086653605,0.06606526977428377,0.026374805013250836,-0.09898626377567152,0.03725811337876062,0.08390898434523555,0.19056059669040867,-0.40845906163085155
3281,15.610361700004432,0.060197849509933746,0.07115905913331269,-0.24620613824583817,-0.0042530429076461495,-0.0690203059593751,0.06623836041978462,0.02677358959855364,-0.09807164386290051,0.035304451657288696,0.08341271390649113,0.1931039374415873,-0.4110527132581357
3282,15.61449900000298,0.0603333686576364,0.07085856974170111,-0.2458672214442435,-0.004124436487260822,-0.06948571169436213,0.06640210701029178,0.02716998013160811,-0.09714496189959301,0.03333855259637615,0.0829052307107714,0.19561896879348276,-0.41358747980895477
3283,15.62046000000555,0.06071384802627215,0.07050086556151167,-0.24503834383529857,-0.003993946761115771,-0.06994667087202137,0.06655645180843203,0.027563923353565528,-0.0962063539947212,0.03136069821489138,0.08238657639822637,0.1981052061536277,-0.4160628220341097
3284,15.63115739999921,0.06099558381842564,0.06997485352163253,-0.24410142673115645,-0.003861585532046533,-0.07040312694694166,0.06670133842767569,0.027955366208465827,-0.09525595856034813,0.029371173088974984,0.08185679404819336,0.20056216875518695,-0.4184782104765715
3285,15.638141799994628,0.06135100017221763,0.06960645663162969,-0.24314305629876956,-0.003727364854414906,-0.07085502403872444,0.06683671184446811,0.028344255849989015,-0.09429391629309815,0.027370264305063136,0.08131592817709457,0.202989379786239,-0.42083312559515335
3286,15.641766899992945,0.06149196151012306,0.06940954512901239,-0.24271610915249883,-0.003591297033086325,-0.07130230694284331,0.06696251841013436,0.02873053964819644,-0.09332037015501111,0.02535826141231785,0.08076402473629006,0.2053863665188033,-0.4231270578862821
3287,15.646387999993747,0.06164415706006052,0.06914097026821146,-0.2422531898240961,-0.003453394622376267,-0.07174492114141193,0.06707870586255446,0.029114165196261747,-0.09233546535378147,0.023335456374473134,0.08020113110988591,0.20775266043757307,-0.4253595080038274
3288,15.649980400005006,0.06182837956565382,0.06891934595884777,-0.24180100137172722,-0.0033136704249657513,-0.07218281281385744,0.06718522333760665,0.029495080317191186,-0.09133934932238415,0.021302143521106445,0.07962729611249748,0.21008779736831174,-0.4275299868769451
3289,15.65429160000349,0.06193939648970981,0.06865887561889975,-0.24130080485174601,-0.00317213749078601,-0.07261592884749676,0.06728202138037578,0.029873233070533065,-0.09033217169808894,0.019258619498344905,0.07904256998696726,0.21239131760587265,-0.42963801582589445
3290,15.658404200003131,0.06210856010124663,0.06843641030914982,-0.2408017488454091,-0.0030288091158723897,-0.07304421684801247,0.06736905195612473,0.030248571759076175,-0.089314084300865,0.017205183219016075,0.07844700440203703,0.21466276604180004,-0.43168312667578945
3291,15.662642700001015,0.06226197046198798,0.06818884210699126,-0.24027026309908878,-0.002883698841187522,-0.07346762514982484,0.06744626846102607,0.03062104493553709,-0.08828524111117783,0.015142135812253304,0.07784065244997343,0.21690169229147024,-0.433664861868247
3292,15.666811599992798,0.06241866658724031,0.06794942889141192,-0.23971772997290303,-0.0027368204514138217,-0.07388610282635671,0.06751362573265146,0.030990601409236027,-0.0872457982471807,0.013069780572565814,0.07722356864414673,0.2191076508207311,-0.4355827745708932
3293,15.670807599992258,0.0624562378752261,0.06760460456200523,-0.23923152574403092,-0.0025881879737153566,-0.07429959970018842,0.0675710800602168,0.03135719025276136,-0.08619591394130302,0.010988422908383779,0.07659580891656168,0.22128020107199858,-0.43743642878468997
3294,15.675301099996432,0.06257212447034585,0.06732573995901009,-0.2386655522257546,-0.002437815676469152,-0.07470806635309936,0.0676185891945802,0.031720760808622565,-0.08513574851623812,0.008898370290088928,0.07595743061533991,0.2234189075897693,-0.439225399449043
3295,15.67951919999905,0.06272062043864766,0.06707509841555494,-0.23808968931278096,-0.0022857180679659805,-0.07511145413599332,0.06765611235799049,0.032081262695891455,-0.08406546436033331,0.006799932197541444,0.0753084925021535,0.22552334014550576,-0.4409492725446547
3296,15.683397700006026,0.06291182718643096,0.06683813421241468,-0.23755280997546158,-0.002131909895080687,-0.07550971517870457,0.0676836102535832,0.0324386458168314,-0.08298522590238464,0.00469342006711409,0.07464905474960877,0.22759307386185312,-0.44260764519408663
3297,15.687762200002908,0.06308848506254186,0.06656207190420023,-0.2370030014031384,-0.0019764061419120806,-0.07590280239968222,0.06770104507462221,0.03279286036351436,-0.08189519958583988,0.0025791472382447078,0.07397917893857947,0.229627689336145,-0.4442001257599944
3298,15.691745399992216,0.06326038168183461,0.06626056096378873,-0.23641254758936658,-0.0018192220283924363,-0.07629066951554977,0.06770838051348434,0.03314385682442539,-0.08079555384241302,0.00045742889951842666,0.07329892805548785,0.23162677276315666,-0.44572633394100053
3299,15.696576000002096,0.06335309867434637,0.06592036049219649,-0.23578956990571218,-0.0016603730088666597,-0.07667327105053683,0.06770558177038452,0.03349158599105466,-0.07968645906511347,-0.0016714179657089624,0.07260836648953185,0.2335899160570645,-0.4471859008651685
3300,15.705941799998982,0.06354531510211825,0.06515383851974996,-0.23462672479365404,-0.0014998747706411483,-0.07705056234578024,0.06769261556183942,0.03383599896447653,-0.07856808758069395,-0.003807074634134834,0.07190756002985664,0.23551671697257034,-0.4485784691810463
3301,15.710784399998374,0.06375064544683262,0.06495098269230157,-0.2339337864058392,-0.0013377432325023997,-0.07742249956849165,0.06766945012886717,0.03417704716191565,-0.07744061362152087,-0.005949220697768973,0.07119657586266893,0.2374067792251488,-0.449903693146249
3302,15.71503130000201,0.06393440070945672,0.06467893342466753,-0.23329683885288607,-0.0011739945432054151,-0.07778903972098833,0.0676360552449212,0.0345146823232998,-0.07630421329687195,-0.008097534119616275,0.07047548256829277,0.23925971261037707,-0.45116123871354674
3303,15.724563199997649,0.06431522628906451,0.06349615755866297,-0.23141817913433158,-0.0010086450799319394,-0.078150140649585,0.06759240222355627,0.034848856517799585,-0.07515906456366521,-0.010251691289770817,0.06974435011816461,0.24107513312230544,-0.45235078361442443
3304,15.72943769999256,0.0644377813727573,0.06308136760494681,-0.23074211209518572,-0.0008417114467185803,-0.07850576105334345,0.06753846392582526,0.03517952215035482,-0.07400534719662395,-0.012411367081908974,0.06900324987176523,0.24285266307082654,-0.45347201744008087
3305,15.73326549999183,0.06451945186705121,0.06264495181227482,-0.2301175146678067,-0.0006732104728548561,-0.07885586049267698,0.0674742147674047,0.03550663196818769,-0.07284324275788315,-0.014576234910169218,0.06825225457348605,0.24459193119800282,-0.4545246417198358
3306,15.738765699992657,0.06466617207404067,0.062254991071545376,-0.2294830298211815,-0.0005031592112512244,-0.07920039939780743,0.06739963072544769,0.03583013906730248,-0.07167293456604272,-0.01674596678640598,0.06749143834942789,0.246292572793311,-0.4555083699969145
3307,15.74401539999235,0.06486627250400115,0.061855401328501855,-0.22883770856373384,-0.0003315749367771311,-0.07953933907707181,0.06731468934516206,0.03614999689897172,-0.07049460766467296,-0.018920233377804862,0.06672087670412936,0.2479542298077621,-0.4564229279015781
3308,15.747694399993634,0.0650552347604618,0.0614079085130204,-0.22816878989454384,-0.00015847514456912367,-0.07987264172507642,0.06721936974611202,0.0364661592762083,-0.06930844879027724,-0.021098704064846378,0.0659406465172229,0.24957655096685735,-0.4572680532215715
3309,15.75272479999694,0.0651689162673953,0.06091903975752912,-0.22742919772240916,1.6122451690927167e-05,-0.08020027043069593,0.0671136526282417,0.03677858038022316,-0.06811464633971762,-0.02328104699960513,0.06515082604001551,0.2511591918823375,-0.45804349596986144
3310,15.758947900001658,0.06533928314368506,0.05993584762672634,-0.2260776436015452,0.0001921999215274531,-0.08052218918491479,0.06699752027761943,0.03708721476686829,-0.06691339033710882,-0.02546692916437129,0.06435149489199118,0.25270181516268714,-0.4587490184496408
3311,15.763958199997433,0.06550916675887207,0.05950976874122207,-0.2254287295558858,0.00036973911945261843,-0.08083836288850937,0.06687095657190134,0.0373920173730648,-0.06570487240018684,-0.0276560164305811,0.06354273405723167,0.25420409052235404,-0.4593843953165761
3312,15.767820900000515,0.06566025395970326,0.05902444510444671,-0.22479630330604508,0.0005487216867775109,-0.08114875735956821,0.06673394698551334,0.03769294352321581,-0.06448928570615832,-0.02984797361804326,0.06272462588075291,0.25566569488964636,-0.4599494136382739
3313,15.771550299992668,0.0658089416950247,0.05855172996837109,-0.2241794962474218,0.0007291290534530479,-0.081453339340848,0.06658647859454957,0.03798994893560404,-0.06326682495703727,-0.03204246455444775,0.06189725406475393,0.25708631251326924,-0.4604438729509438
3314,15.776336800001443,0.06593817601779783,0.05799140589636489,-0.22344856719518993,0.0009109424399405517,-0.08175207650696303,0.06642854008138584,0.03828298972877376,-0.06203768634447576,-0.0342391521351435,0.0610607036647751,0.2584656350674621,-0.4608675853132396
3315,15.780204299997422,0.06608525181169418,0.05750427012229563,-0.22280193281720473,0.0010941428591119524,-0.0820449374714055,0.06626012173900667,0.03857202242789677,-0.060802067514095184,-0.03643769838317105,0.06021506108576237,0.25980336175569785,-0.4612203753572573
3316,15.784551000004283,0.06621718142855926,0.05697722260608441,-0.22218538628564852,0.0012787111181795734,-0.08233189179339476,0.06608121547504475,0.038857003971122094,-0.059560167529324595,-0.03863776450953658,0.05936041407803415,0.2610991994129048,-0.46150208033666923
3317,15.794105399996624,0.06656443027091448,0.05620632090342914,-0.22085905342360895,0.0014646278206554568,-0.08261290998455408,0.06589181481553177,0.039137891715908764,-0.05831218683475377,-0.04083901097371366,0.058496851733147295,0.2623528626061724,-0.4617125501719755
3318,15.798245199999656,0.06660445561547655,0.055592001987709874,-0.220247815749695,0.001651873368340173,-0.08288796351541246,0.06569191490835995,0.03941464344534133,-0.05705832721900817,-0.04304109754435892,0.05762446447965895,0.263564073733902,-0.4618516474928512
3319,15.802076099993428,0.06672093758561871,0.05512006676193355,-0.21962307931053604,0.0018404279633410614,-0.08315702482172926,0.06548151252645319,0.0396872173744274,-0.05579879177715362,-0.04524368336022758,0.05674334407878051,0.26473256312336657,-0.4619192476775718
3320,15.806171200005338,0.06683271800885546,0.054598455350828703,-0.21896905461781258,0.002030271610119852,-0.08342006731063949,0.06526060607064686,0.039955572156376754,-0.054533784872638456,-0.04744642699127461,0.05585358361991989,0.2658580691266417,-0.4619152388894983
3321,15.810329999992971,0.06696531663936695,0.05406297008417278,-0.21833660408830693,0.002221384117569614,-0.08367706536661755,0.06502919557227543,0.040219666888861326,-0.0532635120987811,-0.049648986499927106,0.05495527751610832,0.2669403382148717,-0.4618395221106054
3322,15.8145635999972,0.06708271076012506,0.05356164280948533,-0.2177439644003226,0.002413745101120975,-0.08392799435725753,0.06478728269546744,0.040479461120255675,-0.051988180239811124,-0.051851019502513314,0.05404852149930781,0.26797912507083355,-0.4616920111720352
3323,15.821131000004245,0.06721570716225808,0.05251868692768823,-0.21653967048373465,0.002607333984877552,-0.08417283063886791,0.06453487073914703,0.04073491485585712,-0.05070799723147232,-0.05405218323083407,0.05313341261559538,0.2689741926797646,-0.4614726327816607
3324,15.825564999991911,0.0672550189374145,0.05198300903495344,-0.21587884036844904,0.002802130003780543,-0.08441155156187853,0.06427196463874142,0.04098598856408518,-0.04942317212119594,-0.056252134593862066,0.052210049220220135,0.26992531241841755,-0.46118132654864463
3325,15.829183299996656,0.06735695701648947,0.05152463419382526,-0.21523388208681307,0.002998112205802416,-0.084644135476058,0.06399857096759329,0.041232643182659574,-0.04813391502785267,-0.058450530239554065,0.05127853097252941,0.2708322641423087,-0.460818045004981
3326,15.840233299997635,0.06754136980414695,0.05060017194097086,-0.2139654794351405,0.0031952594541696353,-0.08487056173553947,0.06371469793807777,0.041474840124755996,-0.04684043710109201,-0.06064702661676104,0.05033895883075969,0.271694836271125,-0.4603827536240071
3327,15.844082299998265,0.06760517216084358,0.05018264546631575,-0.21335665280383956,0.0033935504296143527,-0.08509081070365315,0.06342035540242348,0.04171254128513925,-0.0455429504802778,-0.06284128003722157,0.04939143504668831,0.27251282587225706,-0.4598754308358729
3328,15.848039200005587,0.06763406244357364,0.04975574346979427,-0.21272253401484953,0.003592963632655009,-0.08530486375756346,0.06311555485323737,0.04194570904627327,-0.04424166825302897,-0.0650329467376238,0.048436063160141415,0.27328603874242435,-0.45929606803996
3329,15.85249710000062,0.06768876259143672,0.04926026935215619,-0.21212905911199728,0.003793477385905752,-0.08551270329270944,0.06280030942373288,0.042174306284407416,-0.04293680441337455,-0.06722168294172132,0.0474729479933539,0.2740142894873604,-0.45864466961423966
3330,15.858389799992436,0.06776517141820693,0.048296211481032164,-0.2108736196384125,0.003995069836414589,-0.08571431272704627,0.06247463388766102,0.04239829637563852,-0.041628573819532576,-0.06940714492248826,0.04650219564517692,0.2746974015995254,-0.4579212529215653
3331,15.863887999992585,0.0678432863514688,0.04783937478847407,-0.21024826106172378,0.004197718958030188,-0.08590967650508607,0.062138544658944625,0.042617643201947684,-0.04031719215132205,-0.07158898906429885,0.045523913485128756,0.2753352075338146,-0.45712584831289116
3332,15.868447100001504,0.0678811321826294,0.04729796870721777,-0.20957856940186312,0.004401402553797245,-0.0860987801017355,0.06179205979101521,0.04283231115721125,-0.039002875867217617,-0.07376687192511662,0.04453821014728446,0.2759275487812316,-0.4562584991274094
3333,15.8729222999973,0.06791873053235506,0.04673212675476213,-0.2088724690615817,0.004606098258380316,-0.08628161002592849,0.061435198975852666,0.04304226515318529,-0.03768584216105677,-0.07594045029867827,0.043545195523999894,0.27647427594049506,-0.45531926168960113
3334,15.877313200006029,0.06798391528158992,0.04626004822859936,-0.2082469631518038,0.004811783540516018,-0.08645815382405225,0.061067983542727834,0.04324747062546268,-0.0363663089184096,-0.07810938127665729,0.042544980759465806,0.27697524878754826,-0.454308205303198
3335,15.883367500005988,0.06815822757084282,0.04526049274829567,-0.2069875625350341,0.005018435705493513,-0.08662840008316453,0.06069043645664795,0.04344789353940216,-0.035044494672621364,-0.08027332231079223,0.04153767824308749,0.2774303363429421,-0.45322541224205043
3336,15.88767129999178,0.06810862306260082,0.04471270800403529,-0.20628925721259475,0.0052260318976631555,-0.08679233843400108,0.060302582316505156,0.043643500396028476,-0.03372061856053797,-0.08243193127496486,0.040523401602685666,0.2778394169370615,-0.4520709777379026
3337,15.89606850000564,0.06811674596353395,0.043564122330046536,-0.20499231367068593,0.005434549102973223,-0.08694995955377205,0.05990444735292846,0.043834258237902615,-0.032394900277924646,-0.08458486652721244,0.039502265697514,0.27820237827316696,-0.45084500996507654
3338,15.900123300001724,0.06820718844328644,0.04309981401746432,-0.20432065571565813,0.005643964151534641,-0.08710125516874562,0.059496059425839326,0.04402013465496162,-0.031067560034588142,-0.0867317869716592,0.03847438661108889,0.27851911748822533,-0.4495476300220652
3339,15.904621099994984,0.06820571009495138,0.04253780010722884,-0.20365729059788337,0.005854253720213577,-0.08724621805661759,0.05907744802171093,0.04420109779032679,-0.02973881850921306,-0.08887235212035187,0.03743988164382692,0.2787895412115013,-0.44817897191003436
3340,15.908781099991756,0.06814158411407524,0.04191321510453404,-0.2029770294769023,0.006065394335251802,-0.08738484204866521,0.058648644250531116,0.044377116346079375,-0.028408896803923122,-0.09100622215498419,0.03639886930548567,0.27901356562088303,-0.4467391825082354
3341,15.913025600006222,0.06814123148939985,0.041366949212773896,-0.20229795951993812,0.006277362374914712,-0.08751712203168384,0.05820968084246991,0.04454815958900285,-0.02707801639857822,-0.09313305798849582,0.035351469307403474,0.2791911164969163,-0.4452284215463334
3342,15.917411899994477,0.06823554515744723,0.04093354865082195,-0.20157944184749188,0.00649013407216689,-0.0876430539497048,0.05776059214425184,0.044714197356290904,-0.025746399104818275,-0.09525252132653035,0.03429780255453384,0.27932212927452066,-0.4436468615736556
3343,15.92137840000214,0.06817314894530256,0.04022409677692573,-0.2008551283506843,0.0067036855173750656,-0.08776263480549353,0.057301414115233776,0.0448752000612204,-0.024414267019865037,-0.09736427472873756,0.033237991137269864,0.2794065490923637,-0.44199468792536617
3344,15.926282600004924,0.06813655853684086,0.03966618856478335,-0.2002013312131952,0.006917992661038326,-0.08787586266182632,0.05683218432318905,0.0450311386987884,-0.023081842480093265,-0.09946798166990477,0.03217215832305411,0.2794443308398695,-0.44027209868557415
3345,15.931507100001909,0.06807449781353084,0.03901405016971156,-0.1994375829902733,0.007133031316545442,-0.08798273664254455,0.056352941939798694,0.04518198485131197,-0.021749348014382695,-0.10156330660090292,0.03110042854776971,0.2794354392018407,-0.43847930464738255
3346,15.935468199997558,0.0679579053666091,0.03825231800140945,-0.19875053932551118,0.007348777162959151,-0.08808325693338523,0.055863727735850986,0.0453277106939898,-0.020417006297262244,-0.10364991500943294,0.030022927406908415,0.27937984870067145,-0.4366165292698875
3347,15.9398860999936,0.06789806161552309,0.03761972124905047,-0.19805285781896667,0.007565205747827252,-0.08817742478258632,0.05536458407615027,0.045468289000424496,-0.019085040101858075,-0.10572747348055794,0.02893978164651111,0.2792775437361326,-0.4346840086321394
3348,15.944776899996214,0.06788276160620904,0.037248397521339266,-0.19732291501352742,0.007782292490020325,-0.08826524250126676,0.05485555491413603,0.04560369314810418,-0.017753672252657164,-0.1077956497570069,0.027851119153876683,0.2791285186227077,-0.4326819913840804
3349,15.950185499998042,0.06758956387386235,0.03583611785470256,-0.19579097137235857,0.00800001268259593,-0.08834671346357996,0.054336685786213326,0.045733897123842654,-0.016423125578098188,-0.10985411279923515,0.026757068948035093,0.2789327776244596,-0.43061073869447214
3350,15.95473800000036,0.06752271075262763,0.03537960150127481,-0.19508620498677517,0.008218341495689124,-0.08842184210663995,0.05380802380579564,0.04585887552917695,-0.015093622863001564,-0.11190253284522744,0.02565776116998041,0.2786903349874089,-0.4284705241958304
3351,15.959216799994463,0.06742311695757336,0.03485503870406702,-0.1943221692313215,0.008437253979429139,-0.08849063393021911,0.053269617657061896,0.04597860358572124,-0.013765386800850602,-0.11394058147002842,0.02455332707265978,0.27840121496940534,-0.42626163392638206
3352,15.96343099999649,0.06730063442038801,0.03419985758396318,-0.19360015190178442,0.00865672506688206,-0.08855309549621704,0.052721517588428794,0.04609305714047571,-0.01243863994593587,-0.1159679316449865,0.023443899010714312,0.27806545186747633,-0.42398436626906055
3353,15.966965300001904,0.06716570606220401,0.03351126529626245,-0.19284674233969104,0.008876729577019276,-0.08860923442789999,0.05216377540573961,0.046202212671089156,-0.011113604665374855,-0.11798425779669688,0.0223296104299678,0.2776830900426361,-0.4216390318875576
3354,15.971068600003491,0.06704964789499838,0.03289411683822949,-0.19211281183212828,0.009097242217711542,-0.08865905940891074,0.051596444465170664,0.046306047291074064,-0.00979050309101916,-0.11998923586562904,0.021210595856659364,0.27725418394214063,-0.41922595365944804
3355,15.975294899995788,0.06698989876473574,0.03240975829723433,-0.19138440861366646,0.009318237588748368,-0.08870258018204809,0.05101957966585719,0.04640453875497261,-0.008469557071261473,-0.12198254336442545,0.020086990886415967,0.2767787981191739,-0.4167454666064103
3356,15.98010030000296,0.066854104025925,0.031699940622945164,-0.1905831851465389,0.009539690184882588,-0.08873980754781531,0.05043323744224048,0.04649766546347246,-0.007150988122754743,-0.12396385943585747,0.018958932172961015,0.27625700724994906,-0.4141979178215649
3357,15.984020200005034,0.06672140896346448,0.031001722719542935,-0.18978983785610234,0.009761574398899919,-0.08877075336273696,0.04983747575613792,0.04658540646847098,-0.0058350173820559065,-0.1259328649104246,0.017826557416555217,0.27568889614821174,-0.4115836663939542
3358,15.988063700002384,0.0666195773349516,0.030434121969118787,-0.18913736548992696,0.009983864524713334,-0.0887954305374439,0.04923235408853755,0.04666774147808631,-0.004521865557206686,-0.1278892423635834,0.016690005352166058,0.27507455977713263,-0.40890308333018605
3359,15.992242799999076,0.06649248699336736,0.02968667612797888,-0.1885020321189327,0.010206534760482082,-0.08881385303452591,0.04861793343111879,0.04674465086161413,-0.003211752879263951,-0.1298326761725928,0.015549415737362224,0.2744141032585793,-0.40615655147326557
3360,15.995902399998158,0.06635128834881193,0.028977987645690817,-0.18779904244052384,0.010429559211755078,-0.08882603586615204,0.04799427627750143,0.04681611565442851,-0.001904899053792276,-0.1317628525729627,0.014404929339929557,0.27370764187975466,-0.4033444654186394
3361,16.000187099998584,0.06620375608366848,0.028271976209178908,-0.18709493598519056,0.010652911894638446,-0.08883199509145898,0.04736144661422485,0.04688211756282545,-0.0006015232123313207,-0.13367945971449147,0.013256687925205223,0.2729553010971939,-0.40046723142747886
3362,16.00489070000185,0.06606855557111758,0.02751427261487932,-0.18639465089373877,0.01087656673898694,-0.08883174781370722,0.046719509911459574,0.04694263896880766,0.0006981561361492616,-0.13558218771687974,0.012104834243126814,0.2721572165381105,-0.39752526733723215
3363,16.00863019999815,0.06600625211850468,0.02683287980169692,-0.18568044249639412,0.011100497591619041,-0.08882531217720467,0.046068533113453415,0.046997662934809024,0.0019939211537946364,-0.13747072872490662,0.010949512014993152,0.27131353399908387,-0.39451900246947186
3364,16.01299289999588,0.06587693018381754,0.026127809667596424,-0.1850113719232745,0.01132467821955547,-0.08881270736399798,0.04540858462871439,0.04704717320835733,0.0032855547223965514,-0.1393447769631559,0.009790865919933766,0.2704244094420814,-0.3914488775350688
3365,16.016876599998795,0.0656617105520214,0.025359109296600086,-0.18431313668307925,0.01154908231328087,-0.08879395359033136,0.04473973431993229,0.047091154226673745,0.004572840491899227,-0.14120402879027963,0.008629041581084088,0.26949000898780784,-0.38831534453672273
3366,16.021099499994307,0.06550563707704075,0.024690082415642772,-0.18371686837709555,0.011773683490028313,-0.08876907210287326,0.04406205349364121,0.04712959112120754,0.005855562928866533,-0.14304818275278675,0.007464185551463608,0.2685105089063781,-0.3851188666688809
3367,16.03023089999624,0.06519390104835383,0.0231949740613381,-0.182453962154864,0.011998455297086373,-0.08873808517471048,0.04337561488962521,0.04716246972210476,0.007133507364897584,-0.1448769396383441,0.006296445299554251,0.26748609560530817,-0.3818599182150771
3368,16.03412890000618,0.06500203136909703,0.022326077980242665,-0.18179177452488704,0.012223371215128455,-0.0887010161011103,0.04268049267006957,0.047189776562609365,0.008406460044977878,-0.1466900025285772,0.005125969194576384,0.26641696561481903,-0.37853898444272416
3369,16.03788990000612,0.06484567096934729,0.021530314960562884,-0.18115753019816352,0.01244840466156407,-0.08865788919505055,0.041976762408459996,0.04721149888339536,0.009674208175753107,-0.1484870768513575,0.003952906491460062,0.2653033255704489,-0.3751565614953942
3370,16.042090799994185,0.0646727099300892,0.020762843095705065,-0.18061882587802705,0.012673528993911705,-0.08860872978251813,0.04126450107823233,0.047227624636828475,0.010936539973712738,-0.15026787043256573,0.0027774073155092094,0.26414539219297056,-0.37171315628261975
3371,16.046048300006078,0.0644538036329969,0.019951134743734653,-0.18004911111896607,0.012898717513192928,-0.08855356419757596,0.04054378704117525,0.047238142491155447,0.012193244713270487,-0.15203209354731873,0.0015996226467566356,0.2629433922656145,-0.368209286367252
3372,16.0510651999939,0.06427934706463112,0.01917365091785345,-0.17942636590726047,0.01312394346734741,-0.08849241977719871,0.03981470003558837,0.04724304183461925,0.0134441127747287,-0.15377945897064854,0.00041970430400788095,0.26169756260859606,-0.36464547985041385
3373,16.056444600006216,0.06410815346577135,0.018385448933602024,-0.17889683939882442,0.013349180054668461,-0.0884253248558778,0.0390773211641985,0.04724231277949863,0.01468893569211374,-0.15550968202762258,-0.0007621950714279621,0.26040815005094853,-0.3610222752540856
3374,16.06277129999944,0.06379503526043906,0.016810602373992217,-0.17773344697000681,0.013574400427258746,-0.08835230875999613,0.03833173288183684,0.0472359461660706,0.01592750620086945,-0.15722248064289326,-0.0019459220323221611,0.2590754113996615,-0.35734022140136
3375,16.0671985999943,0.06359805837329416,0.01598517094479085,-0.17708693563685168,0.013799577694505738,-0.08827340180197346,0.03757801898287996,0.047223933566494465,0.017159618285395792,-0.15891757538966564,-0.003131322342426548,0.2576996134061272,-0.3535998772944057
3376,16.071096200001193,0.0634207783948421,0.015117834577358127,-0.17658121663351797,0.01402468492657656,-0.0881886352741833,0.036816264588457395,0.04720626728861576,0.018385067226419805,-0.16059468953807138,-0.0043182409936914105,0.25628103272989716,-0.34980181199017696
3377,16.07545570000366,0.06329291753896639,0.014239947138187489,-0.17611757823902752,0.014249695157931824,-0.08809804144264248,0.03604655613342872,0.04718294037968871,0.01960364964818612,-0.16225354910293788,-0.005506522223802317,0.25481995589975226,-0.34594660447391234
3378,16.079957599999034,0.06309762247078597,0.01334971271466889,-0.17562468358284025,0.014474581390858065,-0.08800165354047437,0.03526898135313332,0.047153946630015396,0.02081516356545425,-0.16389388289094164,-0.006696009534036952,0.25331667927209045,-0.34203484353046115
3379,16.084346499992535,0.06283752642699103,0.012478080925898331,-0.17508656363775665,0.014699316599018335,-0.08789950576114683,0.034483629269915904,0.04711928057649978,0.02201940843028983,-0.16551542254713555,-0.007886545707442875,0.2517715089866378,-0.3380671276134798
3380,16.088184499996714,0.06261771575719607,0.011642630971124023,-0.17460347560490064,0.014923873731020455,-0.08779163325148627,0.03369059017943093,0.04707893750611512,0.023216185178637026,-0.16711790260084078,-0.009077972827336923,0.25018476091948855,-0.3340440647125398
3381,16.092099500005133,0.06253011980514923,0.010963774576849857,-0.17414968758610688,0.015148225714002527,-0.08767807210446898,0.0328899556367293,0.04703291345928326,0.02440529627665942,-0.16870106051089337,-0.010270132296126822,0.24855676063348078,-0.32996627221818897
3382,16.100209500000346,0.062144110463723846,0.009147477939573606,-0.1731502931641767,0.015372345457235334,-0.08755885935179102,0.03208181844213045,0.046981205233163965,0.025586545766836687,-0.17026463671023617,-0.011462864854455405,0.24688784332591499,-0.3258343767850107
3383,16.10438350000186,0.061900410714603525,0.008135905515537863,-0.17273109209070467,0.015596205855741155,-0.0874340329562184,0.03126627262688321,0.046923810384852875,0.02675973931380447,-0.17180837464984658,-0.01265601060066764,0.2451783537736251,-0.3216490141927251
3384,16.109923800002434,0.06168569764300217,0.007271586074597583,-0.17237966706789376,0.015819779793928554,-0.08730363180371871,0.03044341343861865,0.04686072723448645,0.02792468424992493,-0.173332020841991,-0.013849409010600517,0.2434286462754125,-0.3174108292053778
3385,16.113903699995717,0.061481234048097924,0.006429904285688334,-0.17200131585132952,0.01604304014924273,-0.08716769569537557,0.02961333732659823,0.04679195486825262,0.02908118962057539,-0.1748353249027965,-0.015042898957695682,0.24163908459185202,-0.31312047542865956
3386,16.120644800001173,0.06119500602190577,0.00465844088461307,-0.17123015899022806,0.016265959795830898,-0.08702626533908794,0.02877614192676062,0.046717493141305515,0.03022906622914256,-0.17631803959413175,-0.016236318733434472,0.23981004188248264,-0.30877861516540367
3387,16.12416839999787,0.06119500602190577,0.00465844088461307,-0.17123015899022806,0.01648851160822219,-0.08687938234105587,0.02793192604657048,0.04663734268058253,0.03136812668170981,-0.1777799208647882,-0.01742950606809486,0.23794190064039517,-0.3043859192693063
3388,16.13049409999803,0.06095791847003084,0.0029057365236183283,-0.1706032168034151,0.01671066846502155,-0.08672708919705378,0.02708078964967266,0.04655150488752215,0.032498185431425006,-0.17922072789095203,-0.018622298151829593,0.23603505262422864,-0.29994306699691936
3389,16.135355199992773,0.060812539782591934,0.0020734582833791537,-0.17024890191609446,0.01693240325261719,-0.08656942928349338,0.026222833840355224,0.04645998194068101,0.03361905882253664,-0.18064022311595962,-0.019814531656064692,0.2340898987875901,-0.2954507458579637
3390,16.139956099999836,0.06058020091938994,0.0008891426093448548,-0.16991423010510726,0.017153688868901132,-0.08640644684827758,0.025358160847824707,0.0463627767982486,0.03473056513408626,-0.18203817228932836,-0.021006042755217266,0.23210684920591265,-0.29090965146401065
3391,16.143786600005114,0.06045333021196033,1.4168837456359634e-05,-0.1696080619448937,0.017374498227002304,-0.0862381870014475,0.024486874010297182,0.046259893200457765,0.03583252462324478,-0.18341434450505617,-0.02219666714873139,0.23008632300076776,-0.2863204873755802
3392,16.14801129999978,0.060408137235599846,-0.000783357280244857,-0.1694038209600291,0.017594804259031576,-0.0860646957056243,0.023609077758908612,0.04615133567188966,0.03692475956828094,-0.18476851223918184,-0.023386240083430557,0.22802874826164976,-0.2816839649477059
3393,16.154200100005255,0.06019867100098583,-0.0026598035769128323,-0.16889406914828567,0.01781457991983817,-0.08588601976624752,0.022724877601448108,0.04603710952367148,0.03800709431115,-0.1861004513865993,-0.02457459637618493,0.22593456196525122,-0.27700080317401826
3394,16.159064599996782,0.06011881976685443,-0.003452722556803147,-0.16871257359998107,0.01803379819077694,-0.0857022068216115,0.021834380105917817,0.04591722085556554,0.03907935529969086,-0.18740994129711847,-0.025761570436891628,0.2238042098922461,-0.27227172852939724
3395,16.162990400000126,0.060011507350921554,-0.004408097194974887,-0.16851198977872395,0.01825243208348594,-0.0855133053327021,0.02093769288392306,0.04579167655794811,0.04014137112941971,-0.18869676481076575,-0.026946996291765852,0.2216381465416006,-0.26749747481124586
3396,16.168550300004426,0.0599517606828148,-0.005378810644367172,-0.16837307238758345,0.018470454643673768,-0.08531936457283533,0.020034924573896395,0.04566048431367664,0.041192972584908706,-0.18996070829231745,-0.02813070760694078,0.21943683504243092,-0.2626787829794345
3397,16.172873799994704,0.05999643403969644,-0.006062672062708371,-0.16821256285269182,0.01868783895491597,-0.08512043461709985,0.019126184824159353,0.0455236525998434,0.04223399268073789,-0.19120156166505953,-0.029312537712373733,0.2172007470634296,-0.25781640099496606
3398,16.176962900004582,0.060007613622750075,-0.006793997036043348,-0.1680314486706939,0.01890455814245992,-0.08491656633160496,0.01821158427582554,0.04538119068941388,0.043264266702009155,-0.19241911844376705,-0.030492319626056013,0.21493036271988303,-0.2529110836574159
3399,16.1836159999948,0.05979475547406486,-0.008725608300284127,-0.1677707777835207,0.019120585377037636,-0.0847078113625363,0.017291234545548886,0.0452331086527483,0.044283632244410724,-0.19361317576689738,-0.03166988607852359,0.2126261704783023,-0.24796359244119856
3400,16.189927800005535,0.05973308622244268,-0.009721811775821348,-0.16769052159503559,0.019335893878685975,-0.08449422212502163,0.01636524820812084,0.045079417359004566,0.04529192925382093,-0.19478353442799046,-0.032845069537665514,0.21028866705868998,-0.24297469533071595
3401,16.194528299995,0.059740967230900034,-0.010561932764806773,-0.1676367407016877,0.01955045692057359,-0.08427585179180927,0.015433738778920375,0.044920128477421474,0.04628900006544011,-0.1959299989062721,-0.03401770223382661,0.2079183573344677,-0.23794516665443805
3402,16.198251900001196,0.05986717074244041,-0.011140457062216436,-0.16760939105674003,0.019764247832834175,-0.08405275428176166,0.014496820696220748,0.04475525447848062,0.04727468944243969,-0.1970523773964549,-0.03518761618520101,0.20551575423008897,-0.2328757869179719
3403,16.20421769999666,0.0598112421750555,-0.012890753260038145,-0.16741484398710227,0.01997724000640534,-0.08382498424816641,0.013554609303356778,0.044584808634945496,0.04824884461411727,-0.19815048183773162,-0.036354643223512735,0.20308137861636363,-0.22776734263617207
3404,16.20850110000174,0.05980095904923168,-0.01361224255802674,-0.16742953284241555,0.02018940689687252,-0.08359259706686711,0.012607220830756573,0.04440880502277633,0.04921131531354654,-0.19922412794195626,-0.03751861501997931,0.20061575920351904,-0.22262062616434664
3405,16.21582440000202,0.059715664442372786,-0.014408187368993432,-0.16745567392860622,0.02040072202831725,-0.08335564882421688,0.01165477237784164,0.044227258521919305,0.05016195381471126,-0.20027313522100768,-0.038679363111554545,0.19811943243202393,-0.21743643552861294
3406,16.221936999994796,0.05970254880260842,-0.016161177009190168,-0.16749958500186207,0.020611158997169077,-0.08311419630485668,0.010697381894799239,0.044040184816968635,0.051100614969112425,-0.20129732701333203,-0.03983671892744593,0.19559294236120167,-0.21221557425545817
3407,16.225542000000132,0.05971150272456997,-0.016961740699655687,-0.16758129695343382,0.020820691476060502,-0.08286829697932159,0.009735168164230965,0.04384760039770026,0.05202715624183822,-0.2022965305096611,-0.04099051381590222,0.19303684055566,-0.20695885120055893
3408,16.2295993000007,0.05963926090903046,-0.017775861465441238,-0.1676321259918753,0.021029293217684323,-0.08261800899147695,0.008768250782681532,0.04364952255947572,0.05294143774708637,-0.20327057677790347,-0.0421405790712665,0.19045168596956524,-0.2016670803769134
3409,16.23752819999936,0.05955166035804562,-0.019300450388621153,-0.16774783813678412,0.021236938058652722,-0.08236339114578703,0.007796750142051741,0.04344596940351464,0.05384332228312856,-0.20421930078720527,-0.04328674596129,0.18783804482878955,-0.19634108078233953
3410,16.241899600005127,0.05946326974846517,-0.02003639473385654,-0.1678612981237015,0.02144359992335742,-0.0821045028944183,0.006820787410899649,0.04323695983703454,0.05473267536670693,-0.20514254143117802,-0.044428845754701456,0.18519649051096165,-0.19098167622639234
3411,16.24671639999724,0.059443858246016654,-0.020828872068942038,-0.16792423368164366,0.021649252827830253,-0.0818414043241807,0.00584048451563394,0.0430225135732566,0.05560936526685274,-0.20604014155029057,-0.04556670974902688,0.18252760342345148,-0.18558969515675322
3412,16.25145280000288,0.05944063995742496,-0.021604508868460683,-0.16803318968068548,0.02185387088360355,-0.08157415614330955,0.004855964121603439,0.042802651131276376,0.05647326303811716,-0.2069119479534236,-0.04670016929865452,0.17983197087932057,-0.18016597048514618
3413,16.255323199991835,0.05946390613302481,-0.02233017429378162,-0.1681551307698348,0.022057428301569624,-0.08130281966809066,0.0038673496140868703,0.04257739383579799,0.05732424255320459,-0.2077578114385861,-0.04782905584313927,0.17711018697126996,-0.17471133941283543
3414,16.259081199998036,0.059420597956337855,-0.02301054513749766,-0.16826358823332144,0.022259899395838816,-0.08102745680933186,0.0028747650791869127,0.04234676381673072,0.05816218053499902,-0.2085775868127924,-0.048953200935740515,0.1743628524436179,-0.16922664325575854
3415,16.262864599993918,0.059393178567368324,-0.023664535050898314,-0.1683976315170198,0.022461258587595418,-0.08074813005868396,0.0018783352846326023,0.04211078400864661,0.05898695658797416,-0.20937113291109885,-0.05007243627218719,0.17159057456234084,-0.1637127272693497
3416,16.266788199995062,0.05935155516705299,-0.024341088322488595,-0.16854180319958634,0.022661480408950854,-0.08046490247481383,0.000878185660494122,0.04186947815009795,0.059798453228978324,-0.21013831261479854,-0.05118659371966378,0.16879396698321159,-0.1581704404731071
3417,16.271093300005305,0.05928478717560006,-0.025003426807466905,-0.16872100865930087,0.022860539506793346,-0.0801778376694322,-0.0001255577201859698,0.04162287078279326,0.06059655591738502,-0.21087899286877346,-0.05229550534601101,0.1659736496180689,-0.15260063547495875
3418,16.27553529999568,0.05929120867889517,-0.025631343665895184,-0.1688500134813508,0.023058410646633373,-0.07988699979317924,-0.0011327681608410054,0.04137098725063061,0.061381153084600876,-0.2115930446980032,-0.05339900344913449,0.16313024849925278,-0.14700416829548063
3419,16.28331299999263,0.05938335537669332,-0.026794573001562547,-0.16919314471195226,0.023255068716444196,-0.07959245352137093,-0.0021433183609038996,0.04111385369858747,0.06215213616292197,-0.21228034322323144,-0.05449692058661457,0.16026439564224118,-0.14138189819201968
3420,16.28743690000556,0.059445807422358235,-0.027367676797372464,-0.16943619603965812,0.023450488730496773,-0.07929426403960976,-0.003157080435402204,0.04085149707146619,0.06290939961373039,-0.2129407676757896,-0.05558908960551048,0.1573767289065244,-0.13573468748277498
3421,16.292061100000865,0.05949800894182096,-0.02788248033580221,-0.16974376466858204,0.02364464583318836,-0.07899249702926306,-0.00417392593462046,0.04058394511249417,0.06365284095502242,-0.2135742014115777,-0.056675343672351525,0.15446789185475399,-0.13006340137088998
3422,16.29635309999867,0.05963106821724282,-0.028439917849086293,-0.16994990290197196,0.023837515302864074,-0.07868721865281197,-0.005193725863825801,0.04031122636177771,0.06438236078826011,-0.2141805319242027,-0.057755516303307865,0.15153853361020303,-0.12436890776860919
3423,16.30041739999433,0.059770487980348286,-0.02897529837111422,-0.1701395130059877,0.024029072555630734,-0.07837849553907453,-0.006216350703052731,0.040033370154608464,0.06509786282453767,-0.21475965085727317,-0.058829441394533326,0.14858930871257575,-0.11865207712155132
3424,16.304558000003453,0.059913116539366644,-0.029497167209968814,-0.17037425776789455,0.024219293149162213,-0.07806639476830574,-0.007241670426943047,0.039750406619621835,0.06579925391005496,-0.21531145401585217,-0.05989695325267259,0.14562087697220422,-0.11291378223315156
3425,16.30897840000398,0.06020266780117313,-0.029981316341496488,-0.17056773874217018,0.024408152786495625,-0.0777509838571784,-0.008269554524636881,0.0394623666768066,0.06648644405089041,-0.21583584137706954,-0.06095788662552518,0.1426339033226696,-0.1071548980893253
3426,16.313880799993058,0.060333176084737226,-0.030501120486133883,-0.17082726213101623,0.024595627319817657,-0.07743233074364757,-0.009299872019710822,0.03916928203536489,0.06715934643706574,-0.21633271709989438,-0.06201207673285842,0.13962905767188716,-0.10137630168340515
3427,16.317343799993978,0.06040250194355405,-0.031107919535304278,-0.17124241852622096,0.02478169275424024,-0.07711050377170253,-0.010332491490159131,0.038871185191422034,0.06781787746589536,-0.21680198953406818,-0.06305935929736088,0.13660701475169396,-0.09557887184140254
3428,16.321249500004342,0.060547427048058315,-0.031598792910024195,-0.1716203212049814,0.02496632525156482,-0.07678557167600954,-0.011367281088414036,0.03856810942558573,0.06846195676461334,-0.21724357122820015,-0.0640995705757283,0.13356845396597972,-0.08976348904764485
3429,16.32562639999378,0.06071670294472324,-0.032083559649067186,-0.17193946703309698,0.025149501134034552,-0.07645760356644857,-0.01240410856140112,0.03826008880035417,0.06909150721227122,-0.2176573789370272,-0.0651325473898734,0.13051405923740136,-0.08393103527083841
3430,16.329350700005307,0.060847186280130514,-0.03255653311396324,-0.1722885494010652,0.025331196888073605,-0.0761266689125473,-0.01344284127062579,0.03794715815737231,0.06970645496089999,-0.2180433336278413,-0.06615812715825076,0.12744451885272184,-0.07808239379060736
3431,16.333583700004965,0.06096250331937477,-0.03301396608330849,-0.1726248536713754,0.025511389168012915,-0.07579283752781583,-0.01448334621228692,0.03762935311453568,0.07030672945592936,-0.21840136048608688,-0.0671761479272882,0.12436052530681456,-0.07221844902455843
3432,16.337571500000195,0.06105273568754868,-0.03348924818271021,-0.17300978850942558,0.02569005479980172,-0.07545617955398608,-0.01552549003741373,0.037306710062940895,0.07089226345585872,-0.2187313889201305,-0.06818644840291575,0.12126277514537556,-0.06634008635592074
3433,16.342638799993438,0.06106280069586422,-0.03383922150100788,-0.1734668743553789,0.02586717078470407,-0.07511676544515931,-0.016569139072021934,0.03697926616368263,0.07146299305117321,-0.219033352565206,-0.06918886798218293,0.11815196880638533,-0.0604481919618098
3434,16.347183599995333,0.061153236109962976,-0.03417706477374169,-0.17390453153085558,0.02604271430297957,-0.07477466595186598,-0.01761415933728519,0.03664705934449614,0.07201885768249947,-0.2193071892865392,-0.07018324678495547,0.11502881046036222,-0.054543652642163494
3435,16.35056170000462,0.06124559582886184,-0.03455121463013038,-0.17429511347255597,0.026216662717547533,-0.0744299521050407,-0.018660416569718008,0.03631012829624529,0.07255980015799546,-0.21955284118165702,-0.07116942568568203,0.111894007849451,-0.04862735564939782
3436,16.35585859999992,0.061333588186791514,-0.034899608366739505,-0.17465641180232505,0.02638899357763392,-0.07408269519991649,-0.019707776241366205,0.03596851246925545,0.07308576666996923,-0.21977025458188576,-0.07214724634522156,0.10874827212538951,-0.042700188518829396
3437,16.359829099994386,0.061418109687836654,-0.03518842564209214,-0.17502751569803304,0.026559684622400218,-0.07373296677984145,-0.020756103580001156,0.035622252069491385,0.07359670681072131,-0.21995938005304067,-0.07311655124272176,0.1055923176863971,-0.036763038899911706
3438,16.36390989999927,0.06150541149318982,-0.035470111445110954,-0.17542109607353654,0.02672871378455366,-0.07338083862002222,-0.021805263589313964,0.0352713880545797,0.07409257358760553,-0.22012017239531229,-0.07407718370753916,0.10242686201302775,-0.03081679438833111
3439,16.367979300004663,0.06162340911474412,-0.03574468669549475,-0.17582915557394524,0.026896059193937973,-0.07302638271119788,-0.022855121069105786,0.034915962129675814,0.07457332343730327,-0.22025259064235386,-0.07502898795119063,0.09925262550303211,-0.024862342359008464
3440,16.37326690000191,0.06174982514501655,-0.03596967380392721,-0.176242000854256,0.02706169918110387,-0.07266967124324807,-0.023905540635470568,0.034556016743175405,0.0750389162393067,-0.22035659805957447,-0.07597180909932653,0.09607033130527257,-0.0189005698000512
3441,16.378177999999025,0.061887248986608676,-0.036158204818898886,-0.17665511918837373,0.02722561228085848,-0.07231077658873844,-0.024956386740966507,0.03419159508227021,0.07548931532860637,-0.22043216214164216,-0.07690549322371579,0.09288070515273601,-0.01293236314770029
3442,16.38512730000366,0.062213006299163216,-0.03646372777511145,-0.1774774593879038,0.027387777235793102,-0.07194977128640695,-0.026007523694772446,0.033822741068348094,0.07592448750757902,-0.22047925460920245,-0.07782988737423353,0.08968447519468913,-0.006958608122315623
3443,16.39178879999963,0.062697217517723,-0.036749900060587745,-0.17837149328838317,0.027548172999788588,-0.07158672802459513,-0.027058815682825383,0.03344949935223765,0.07634440305707192,-0.22049785140481737,-0.07874483961084101,0.08648237182802176,-0.000980189565442739
3444,16.396049899994978,0.06295431126876654,-0.03688009796543289,-0.178791530483108,0.027706778741497677,-0.07122171962462838,-0.028110126787935456,0.03307191530929756,0.07674903574668025,-0.2204879326881315,-0.07965019903554789,0.08327512752782372,0.005002008721996768
3445,16.40025869999954,0.06322132861412583,-0.036985217678242886,-0.1792295025558318,0.0278635738478036,-0.07085481902414918,-0.029161321009874615,0.03269003503435096,0.07713836284421396,-0.22044948283027158,-0.08054581582434679,0.08006347667724008,0.010987104140349563
3446,16.404643300003954,0.06350777429579235,-0.03706237809113558,-0.17965469511950355,0.028018537927254113,-0.07048609926040783,-0.030212262285435464,0.03230390533646519,0.07751236512435049,-0.2203824904074865,-0.08143154125910941,0.07684815539665048,0.016974215450668705
3447,16.409084800005076,0.06382589465131844,-0.03714310078415321,-0.18008903063852416,0.028171650813470228,-0.07011563345351449,-0.03126281450845666,0.03191357373357728,0.07787102687646975,-0.22028694819403388,-0.08230722775943392,0.07362990137221792,0.022962462932905468
3448,16.413148799998453,0.06415984504249785,-0.03719941532748741,-0.1805385878258259,0.02832289256852891,-0.06974349478965695,-0.032312841549811205,0.03151908844696537,0.0782143359116689,-0.22016285315431877,-0.08317272891443338,0.07040945368385335,0.028950968542815363
3449,16.417180499993265,0.06449127873444384,-0.03722801574716364,-0.1810072572933161,0.02847224348631914,-0.06936975650428756,-0.03336220727735402,0.031120498395566302,0.0785422835689546,-0.22001020643429056,-0.0840278995144545,0.06718755263264146,0.034938856067539756
3450,16.421260899995104,0.06483386104379726,-0.0372571094022348,-0.18152822706100122,0.028619684095870578,-0.06899449186528313,-0.03441077557582539,0.030717853190139827,0.07885486472061085,-0.2198290133521047,-0.08487259558271584,0.06396493956777435,0.04092525127982517
3451,16.425438499994925,0.0651653966919687,-0.03727609135268022,-0.18201440464394492,0.028765195164654242,-0.06861777415608203,-0.03545841036670699,0.0303112031272795,0.07915207777674027,-0.2196192833880548,-0.08570667440685548,0.060742356713038945,0.04690928209084313
3452,16.429825999992318,0.06559326110529852,-0.03719145968245663,-0.1824240064293018,0.02890875770185438,-0.06823967665880212,-0.03650497562802676,0.029900599183271072,0.0794339246889765,-0.21938103017378055,-0.0865299945703775,0.0575205469929042,0.05289007870157414
3453,16.434238200003165,0.06591455104222996,-0.03718411003833806,-0.18290618925858604,0.029050352961610876,-0.06786027263734344,-0.03755033541410949,0.029486093007798822,0.07970041095336616,-0.2191142714807575,-0.08734241598398695,0.05430025385825396,0.05886677375272066
3454,16.438630599994212,0.06612818821660645,-0.03722289246247011,-0.1834368290794354,0.02918996244623135,-0.06747963532047917,-0.03859435387526953,0.029067736917500607,0.07995154561241906,-0.21881902920807644,-0.08814379991680231,0.05108222111181237,0.06483850247311414
3455,16.44230229999812,0.06638503543828214,-0.037208014516707986,-0.18398031754289937,0.02932756790937223,-0.06709783788493905,-0.0396368952774424,0.02864558388937213,0.08018734125632557,-0.2184953293695183,-0.08893400902743484,0.04786719273330846,0.07080440282658211
3456,16.446884299992234,0.06665177259464394,-0.037159867240293534,-0.184526740491481,0.029463151359187915,-0.06671495343848902,-0.040677824021752025,0.028219687554021235,0.08040781402333987,-0.2181432020799314,-0.08971290739492406,0.0446559127044262,0.07676361565724242
3457,16.451074500000686,0.06691577741517825,-0.03711096609328107,-0.1850405233855131,0.029596695061447298,-0.06633105500301137,-0.041717004664010376,0.027790102188772862,0.08061298359932806,-0.21776268154091938,-0.09048036054951798,0.04144912483358643,0.08271528483319258
3458,16.456302000005962,0.06713007953085577,-0.03703843920288538,-0.18556560608280076,0.029728181542616815,-0.06594621549758957,-0.04275430193414642,0.027356882710625575,0.08080287321648004,-0.2173538060258473,-0.09123623550328737,0.03824757258060729,0.08865855738856258
3459,16.461037100001704,0.06738681614908595,-0.03696289226808333,-0.18604984808473665,0.02985759359290912,-0.06556050772160205,-0.04378958075556114,0.026920084669060443,0.08097750965118447,-0.21691661786417563,-0.0919804007805632,0.03505199888128946,0.09459258366390086
3460,16.46515869999712,0.06763082240002884,-0.03686640128522877,-0.18656530914795738,0.029984914269296725,-0.06517400433782909,-0.04482270626440556,0.02647976423870333,0.081136923221067,-0.2164511634251294,-0.09271272644818636,0.03186314597197255,0.10051651744486373
3461,16.46908799999801,0.06783117804366609,-0.03683299416298251,-0.18721000516528513,0.03011012689849003,-0.06478677785557671,-0.0458535438287786,0.02603597821184164,0.08128114778119168,-0.21595749310071125,-0.09343308414555869,0.028681755214108755,0.10642951609917967
3462,16.473308300002827,0.06808851711265324,-0.03676724314449084,-0.18780234200243157,0.03023321507987902,-0.06439890061382136,-0.04688195906784164,0.02558878399079646,0.08141022071942573,-0.21543566128806685,-0.09414134711448527,0.025508566918900202,0.11233074071186087
3463,16.47739640000509,0.06835948496155826,-0.036695469008521525,-0.18837924359802685,0.03035416268843797,-0.0640104447643797,-0.04790781787084651,0.025138239580151208,0.0815241829509683,-0.21488572637121245,-0.09483739022879688,0.022344320172046173,0.11821935621863527
3464,16.481625999993412,0.06863070334634157,-0.03662633873421947,-0.18892282278151212,0.03047295387759243,-0.06362148225510716,-0.04893098641607401,0.024684403578837926,0.08162307891204418,-0.21430775070213254,-0.09552109002374198,0.019189752658646458,0.12409453153757326
3465,16.487183899997035,0.06920211615863908,-0.03645365498931257,-0.19008806789470137,0.030589573082047797,-0.06323208481312934,-0.0499513311896802,0.024227335172082493,0.08170695655276344,-0.21370180058125782,-0.09619232472513753,0.016045600488306635,0.12995543969888465
3466,16.492322999998578,0.06955740538494048,-0.03638190287231493,-0.19069621700161704,0.030704005020578837,-0.06284232392810946,-0.0509687190044475,0.02376709412321001,0.08177586732914816,-0.2130679462373331,-0.09685097427826798,0.01291259802049109,0.13580125797286172
3467,16.496272699994734,0.069884074259772,-0.036346015135759385,-0.19130374184765184,0.03081623469877942,-0.0624522708355564,-0.0519830170184379,0.023303740765311696,0.08182986619432742,-0.21240626180668415,-0.09749692037652209,0.009791477690169406,0.14163116799594522
3468,16.50186340000073,0.07028998638490776,-0.03627731855667364,-0.1918634984664245,0.03092624741177176,-0.062061996500177,-0.052994092753545316,0.022837335992774686,0.08186901158890314,-0.21171682531189334,-0.09813004648975665,0.006682969833801606,0.1474443558948909
3469,16.50594750000164,0.07057234369966431,-0.036336223434449505,-0.19246278808183012,0.03103402874687433,-0.06167157159927699,-0.0540018141139444,0.022367941252676167,0.08189336543048877,-0.21099971863989367,-0.09875023789237705,0.003587802515707497,0.15324001240901503
3470,16.509592500005965,0.07089018519193752,-0.03633705079883501,-0.19308915514584085,0.03113956458622781,-0.061281066506214295,-0.05500604940443314,0.02189561853604333,0.08190299310242329,-0.21025502751948946,-0.09935738169112479,0.0005067013548651852,0.1590173330104985
3471,16.514984299996286,0.07126634382063099,-0.03632791536459304,-0.19381939295433823,0.03124284110937814,-0.0608905512739087,-0.0560066673486664,0.021420430368980697,0.0818979634416624,-0.2094828414983133,-0.09995136685256177,-0.0025596106478163287,0.16477551802272986
3472,16.519182599993655,0.07165965728123397,-0.03630809561657561,-0.19454328417873168,0.03134384479581602,-0.0605000956184122,-0.05700353710727768,0.020942439803666578,0.08187834872584922,-0.20868325391922848,-0.10053208423024088,-0.00561041328170579,0.17051377273666873
3473,16.52312019999954,0.07206257607279482,-0.03627011788235372,-0.19519890115381414,0.031442562427472204,-0.06010976890254379,-0.05799652829588646,0.020461710409220246,0.08184422465956745,-0.20785636189618603,-0.10109942659155242,-0.008644989298095103,0.1762313075252129
3474,16.527348300005542,0.07245849246448385,-0.03625741238419308,-0.19587157749619918,0.03153898109116809,-0.059719640119592875,-0.058985511002988746,0.019978306262441528,0.08179567035977972,-0.2070022662895467,-0.10165328864423641,-0.01166262458123732,0.18192733795555138
3475,16.53141670000332,0.07279559914412348,-0.03634783277306189,-0.196569403096133,0.03163308818102121,-0.05932977787709505,-0.05997035580772834,0.0194922919384245,0.08173276834045376,-0.20612107168087793,-0.10219356706255028,-0.014662608318733217,0.18760108489948737
3476,16.538293599995086,0.07347168643241427,-0.03645976311833643,-0.19796893332592883,0.03172487140080495,-0.05894025038068385,-0.06095093379754616,0.019003732501047033,0.08165560449638003,-0.20521288634723478,-0.10272016051308197,-0.017644233171222837,0.19325177464171614
3477,16.544219400006114,0.07381254887829537,-0.036525877041146654,-0.19861672533701036,0.031814318766261826,-0.058551125418022376,-0.06192711658570531,0.01851269349333793,0.0815642680861841,-0.20427782223493526,-0.10323296968019874,-0.020606795441338605,0.19887863898604502
3478,16.551150900006178,0.07446076406796606,-0.036661714096452754,-0.19993043792906473,0.03190141860736975,-0.05816247034281845,-0.06289877632868923,0.018019240927723557,0.0814588517145373,-0.20331599493284006,-0.10373189729112176,-0.02354959524187689,0.20448091535954324
3479,16.55615950000356,0.07474380467501086,-0.03671161171020902,-0.20059822128367152,0.031986159570560745,-0.0577743520589273,-0.06386578574347097,0.017523441276155925,0.08133945131356951,-0.20232752364514728,-0.10421684814061677,-0.026471936663145214,0.21005784691460927
3480,16.562579000004916,0.07527218199782128,-0.03679908872096586,-0.2018225860188783,0.03206853062089136,-0.057386837004545506,-0.0648280181246513,0.0170253614601242,0.08120616612348763,-0.20131253116371356,-0.10468772911529102,-0.02937312793944278,0.2156086826289448
3481,16.566587499997695,0.07551172638552418,-0.03686055775109701,-0.20237887180419598,0.03214852104416427,-0.05699999113649988,-0.06578534736146369,0.016525068840551542,0.08105909867240413,-0.20027114383991207,-0.10514444921748707,-0.03225248161463226,0.22113267740342563
3482,16.571169899994857,0.07574066641749351,-0.03684872853170779,-0.20292491016279662,0.03222612044900035,-0.056613879914635026,-0.06673764795464346,0.01602263120757934,0.08089835475537989,-0.19920349155603795,-0.10558691958876434,-0.03510931470676122,0.22662909215786095
3483,16.577407799995854,0.07587121808459119,-0.036890615915492725,-0.20346886103355064,0.03230131876886059,-0.05622856828630311,-0.0676847950331589,0.015518116770240911,0.08072404341268587,-0.19810970769627065,-0.1060150535329588,-0.03794294887169169,0.23209719392463393
3484,16.581102700001793,0.0760123277235709,-0.03694415598811169,-0.2039966033152945,0.032374106264017516,-0.05584412067095952,-0.06862666437080227,0.01501159414602677,0.08053627690728833,-0.19698992911720206,-0.10642876653881189,-0.04075271056569698,0.23753625594021677
3485,16.585424200005946,0.07612887445526095,-0.036935727611940465,-0.2045619821090333,0.032444473523475584,-0.05546060094486797,-0.0695631324026392,0.014503132350343641,0.08033517070156267,-0.1958442961179409,-0.10682797630216004,-0.043537931206985056,0.24294555773455453
3486,16.59009349999542,0.07626127293974784,-0.036895719124585835,-0.20512912961919672,0.0325124114668402,-0.05507807242591867,-0.07049407624131496,0.01399280078586941,0.08012084343324107,-0.19467295240980428,-0.10721260274767529,-0.046297947336108064,0.24832438521831285
3487,16.594404000003124,0.0764064088809999,-0.03685406953767391,-0.20577149535458958,0.03257791134613483,-0.054696597858562915,-0.07141937369321556,0.013480669231806349,0.07989341689059916,-0.19347604508560612,-0.10758256805014828,-0.049032100775218225,0.2536720307679857
3488,16.599032500002068,0.07660631617556331,-0.03681344421448285,-0.20637342102540993,0.03264096474756572,-0.054316239398867566,-0.0723389032744818,0.012966807833034978,0.07965301598688736,-0.1922537245885543,-0.10793779665530548,-0.051739738786130765,0.25898779330886135
3489,16.604255900005228,0.07698359097450552,-0.036780990510655504,-0.20750558244666725,0.03270156359323393,-0.05393705859969304,-0.07325254422687408,0.012451287089170858,0.07939976873401285,-0.1910061446807661,-0.10827821530015302,-0.05442021422715488,0.26427097839584296
3490,16.608384399994975,0.07716288938380653,-0.03679262426336749,-0.2080686885611663,0.03275970014279411,-0.05355911639599841,-0.07416017653348614,0.011934177843526718,0.079133806215478,-0.1897334624114116,-0.10860375303283906,-0.05707288570865396,0.26952089829212433
3491,16.61259039999277,0.07734763905140218,-0.036853629106373326,-0.2086318636770071,0.03281536699505946,-0.05318247309027707,-0.07506168093430542,0.011415551271982249,0.07885526255858188,-0.18843583808449577,-0.10891434123202653,-0.05969711774729714,0.27473687204572045
3492,16.616836600005627,0.07754342151558742,-0.03692116877353073,-0.20921290202715384,0.03286855708955237,-0.052807188338126365,-0.07595693894161892,0.010895478871763977,0.0785642749058915,-0.18711343522628981,-0.10920991362576862,-0.06229228091896473,0.2799182255638551
3493,16.621240799999214,0.07771983110839725,-0.037002490235793585,-0.2098412836018338,0.032919263708000225,-0.05243332113395455,-0.07684583285526261,0.01037403245013764,0.07826098338598868,-0.18576642055242235,-0.10949040630987905,-0.06485775201027032,0.28506429168520697
3494,16.625600800005486,0.07799530262392979,-0.03701062200836024,-0.21048828816595946,0.032967480475775884,-0.0520609297968283,-0.07772824577771242,0.009851284113015602,0.07794553108349925,-0.1843949639346403,-0.10975575776578926,-0.06739291416866319,0.29017441025001717
3495,16.6300981999957,0.07821498808056215,-0.03706574449203154,-0.2111731318645455,0.0330132013632825,-0.05169007195646423,-0.07860406162901554,0.009327306253481726,0.07761806400841105,-0.18299923836725007,-0.11000590887788504,-0.06989715705107467,0.295247928168062
3496,16.638597900004243,0.07865795133326008,-0.03716477480382568,-0.21244778298435524,0.03305642068728222,-0.051320804539367916,-0.07947316516156044,0.008802171540236277,0.07727873106468774,-0.1815794199332483,-0.11024080295031574,-0.07236987697107224,0.30028419948449464
3497,16.642048599998816,0.07880102187138184,-0.037262130961339436,-0.21310781302387702,0.033097133112168504,-0.05095318375512355,-0.08033544197468427,0.008275952905963441,0.07692768401818538,-0.18013568777015246,-0.11046038572326915,-0.0748104770444863,0.3052825854435613
3498,16.646193599997787,0.07895561660779929,-0.03735542715098965,-0.21377817230312327,0.03313533365118185,-0.050587265082837625,-0.08119077852911541,0.0077487235356241,0.0765650774638791,-0.17866822403554095,-0.11066460538870539,-0.07721836733347484,0.3102424545501968
3499,16.650362100001075,0.0791234319169228,-0.03746395399484147,-0.21443500129384405,0.0331710176675686,-0.05022310325773975,-0.08203906216125036,0.007220556854676544,0.07619106879240772,-0.17717721387231294,-0.11085341260554316,-0.079592964988992,0.3151631826295054
3500,16.656154900003457,0.07930491781815618,-0.037546553779958136,-0.21510413251741617,0.03320418087568279,-0.04986075225794386,-0.08288018109726343,0.006691526517227831,0.07580581815594375,-0.1756628453736777,-0.11102676051429226,-0.08193369439162769,0.3200441528841343
3501,16.66280530000222,0.07961984778179752,-0.037763255839631533,-0.2164153661523839,0.033234819342030576,-0.04950026529137297,-0.0837140244670478,0.006161706394118445,0.07540948843339695,-0.17412530954788355,-0.11118460475112665,-0.0842399872907849,0.32488475594954563
3502,16.672960099997,0.07987542764074083,-0.0380305077324772,-0.2177463539164705,0.03326292948625725,-0.049141694782850937,-0.08454048231798707,0.00563117056094301,0.07500224519495993,-0.17256480028269558,-0.11132690346139269,-0.08651128294216195,0.32968438994719435
3503,16.679403100002673,0.0800403666865863,-0.038344720811742956,-0.21914846396722606,0.03328850808207661,-0.04878509236136469,-0.08535944562855592,0.005099993286009819,0.07458425666600399,-0.17098151430963204,-0.11145361731254727,-0.0887470282435077,0.33444246053562177
3504,16.68341430000146,0.08016841090782795,-0.03847081722505695,-0.219778157424829,0.03331155225814249,-0.048430508847499686,-0.08617080632174903,0.004568249018241966,0.07415569369033322,-0.16937565116796782,-0.11156470950652037,-0.09094667786861795,0.33915838095947554
3505,16.687796900005196,0.08028511368265322,-0.0385685218053753,-0.22040382308187764,0.03333205949886248,-0.0480779942410514,-0.08697445727833712,0.004036012375022866,0.07371672969280539,-0.16774741316851496,-0.11166014579149679,-0.09310969439954209,0.3438315720964683
3506,16.69190940000408,0.08037840091475786,-0.038745112466718815,-0.22109188390172688,0.03335002764515354,-0.0477275977088158,-0.0877702923499491,0.0035033581299889274,0.07326754064132823,-0.16609700535719044,-0.11173989447311164,-0.09523554845696987,0.3484614625022889
3507,16.700007899999036,0.08059398668387466,-0.03904907434970287,-0.22241735997485793,0.03336545489513924,-0.04737936757256186,-0.08855820637197917,0.0029703612007722178,0.07280830500823944,-0.16442463547838163,-0.11180392642505502,-0.09732371882876806,0.35304748845347783
3508,16.704232000003685,0.08075265585818721,-0.0391680598949796,-0.22310953779326914,0.033378339804788555,-0.047033351297188865,-0.08933809517631841,0.0024370966366960073,0.07233920373107951,-0.16273051393811921,-0.1118522150990814,-0.0993736925966378,0.35758909398828337
3509,16.70938899999601,0.08099452519041347,-0.03927628217796854,-0.223784989285588,0.03338868128849565,-0.04668959547907175,-0.09010985560390997,0.0019036396064260458,0.07186042017276592,-0.16101485376706792,-0.11188473653441955,-0.101384965260864,0.3620857309455118
3510,16.71345019999717,0.08119217354806106,-0.039390732679518356,-0.22448806363026266,0.03339647861960051,-0.04634814583459729,-0.09087338551712726,0.0013700653855804694,0.07137214008117801,-0.15927787058334372,-0.11190146936657852,-0.10335704086312879,0.36653685900138705
3511,16.717004699996323,0.08132476835057051,-0.03951150375539296,-0.2251971704716246,0.03340173143085014,-0.04600904718889415,-0.09162858381197467,0.0008364493443012429,0.07087455154816177,-0.15751978255516644,-0.1119023948355463,-0.10528943210736146,0.37094194570443295
3512,16.721686100005172,0.08147137134398304,-0.03962462884332247,-0.22585661164713935,0.03340443971480026,-0.045672343464759464,-0.09237535043011026,0.0003028669347900482,0.07036784496796414,-0.15574081036335793,-0.11188749679337849,-0.10718166047859823,0.37530046650839466
3513,16.726944499998353,0.0816046051597934,-0.03978029940263052,-0.22656163431944878,0.0334046038241575,-0.04533807767178478,-0.09311358637069028,-0.00023060632118846022,0.06985221299510576,-0.15394117716369507,-0.11185676171117395,-0.10903325635982507,0.37961190480321433
3514,16.731188899997505,0.08176438359219645,-0.03995427969575313,-0.22727580986284124,0.03340222447206167,-0.045006291895684114,-0.09384319370203476,-0.0007638948448330991,0.06932785050170204,-0.15212110854912628,-0.11181017868543439,-0.11084375914677756,0.38387575194407675
3515,16.735235700005433,0.08193152800886243,-0.04014617038047348,-0.22791998149123463,0.033397302732308246,-0.0446770272878269,-0.09456407557311368,-0.0012969230128593444,0.06879495453424204,-0.15028083251186142,-0.11174773944380563,-0.11261271736067281,0.38809150727854336
3516,16.739308999996865,0.08210773723300141,-0.04035187626284717,-0.22853799749251696,0.033389840039510656,-0.04435032405497823,-0.09527613622485308,-0.0018296151700763102,0.06825372426983531,-0.1484205794053434,-0.11166943835019745,-0.11433968875884808,0.3922586781717931
3517,16.74329499999294,0.08229277570457523,-0.040566605494673065,-0.22915888119503397,0.03337983818920239,-0.04402622144924904,-0.09597928100126056,-0.00236189564198455,0.06770436097193638,-0.14654058190611002,-0.11157527240927972,-0.11602424044328218,0.3963767800299882
3518,16.747576800000388,0.08245433832995364,-0.040752294606891906,-0.22979873904975268,0.03336729933787887,-0.04370475775825879,-0.09667341636037018,-0.002893688747391705,0.06714706794555711,-0.14464107497555506,-0.11146524127035334,-0.11766594896697642,0.4004453363217835
3519,16.751407300005667,0.08264462893701136,-0.040918193244875195,-0.23047039303662117,0.03335222600297919,-0.04338597029551262,-0.09735844988500614,-0.003424918811043019,0.06658205049197696,-0.14272229582159762,-0.11133934723059406,-0.11926440043817192,0.40446387859800004
3520,16.756922600005055,0.08279333337986715,-0.041082681333521956,-0.23118344456652784,0.03333462106280771,-0.04306989539099533,-0.09803429029336541,-0.0039555101762637195,0.0660095158629618,-0.1407844838602678,-0.11119759523766819,-0.12081919062238171,0.4084319465094865
3521,16.761392300002626,0.08299305763134411,-0.041188180342903474,-0.23182043209064154,0.03331448775639527,-0.0427565683819846,-0.09870084744941894,-0.004485387217610295,0.06542967321450109,-0.13882788067721788,-0.11103999289171843,-0.12232992504221579,0.4123490878231893
3522,16.76667909999378,0.08334795918015427,-0.041476438934917786,-0.23303468001495903,0.03329182968330036,-0.042446023604085587,-0.09935803237313115,-0.005014474353527689,0.06484273356007436,-0.13685272998916695,-0.11086655044671881,-0.12379621907497783,0.41621485843645467
3523,16.771368200003053,0.08354584169311868,-0.04165151532334587,-0.23360256570606525,0.03326665080335023,-0.0421382943824892,-0.10000575725049732,-0.005542696059009424,0.06424890972345754,-0.13485927760528732,-0.11067728081119844,-0.12521769804801366,0.4200288223895835
3524,16.775209200000972,0.08354584169311868,-0.04165151532334587,-0.23360256570606525,0.03323895543632176,-0.04183341302345617,-0.1006439354433984,-0.006069976878257667,0.06364841629107965,-0.13284777138854087,-0.1104721995483341,-0.12659399733179166,0.4237905518766617
3525,16.779478700002073,0.08368852704619928,-0.04180285637003224,-0.23417854407129965,0.03320874826156226,-0.04153141080602931,-0.1012724814992733,-0.00659624143734028,0.06304146956394074,-0.13081846121697266,-0.11025132487541167,-0.12792476243069648,0.42749962725468654
3526,16.787896099995123,0.08406351587857938,-0.04216753739313284,-0.23577909545705222,0.03317603431755014,-0.041232317973975995,-0.10189131116060803,-0.007121414456841842,0.062428287509101565,-0.128771598944969,-0.11001467766265648,-0.1292096490715175,0.4311556370510133
3527,16.793035199996666,0.08425011881226087,-0.04226183239174691,-0.2362660779067861,0.03314081900139561,-0.04093616372796281,-0.10250034137424123,-0.007645420764505653,0.061809089710755924,-0.12670743836448772,-0.10976228143143305,-0.1304483232896146,0.43475817796914706
3528,16.796610100005637,0.0844086657385203,-0.04232738655646914,-0.23679316629217556,0.033103108068281345,-0.040642976217964366,-0.10309949030048612,-0.008168185307863781,0.06118409732089666,-0.12462623516626871,-0.10949416235181615,-0.13164046151274408,0.43830685489290533
3529,16.800474799994845,0.08455381099425346,-0.04235946074899037,-0.23735783771249988,0.03306290763084301,-0.04035278253590798,-0.10368867732206882,-0.008689633166852078,0.060553533009586054,-0.12252824690103205,-0.10921034923953349,-0.13278575064252865,0.4418012808889739
3530,16.81195750000188,0.08497826993478312,-0.04249601890792966,-0.23888706443761973,0.03302022415848988,-0.04006560870855602,-0.10426782305288311,-0.009209689566407222,0.059917620914842186,-0.1204137329406705,-0.1089108735522815,-0.13388388813355565,0.44524107720788236
3531,16.81728089999524,0.08514240924734921,-0.04252019915343474,-0.23935864259203318,0.03297506447666559,-0.0397814796906278,-0.1048368493465617,-0.009728279889042865,0.059276586592153076,-0.11828295443944413,-0.10859576938541551,-0.1349345820700885,0.44862587328342224
3532,16.821242399993935,0.08530308884413662,-0.04254849627344645,-0.23978003237992457,0.03292743576604902,-0.03950041935816275,-0.10539567930486406,-0.010245329687401978,0.05863065696363004,-0.1161361742951847,-0.10826507346701598,-0.1359375512403762,0.4519553067305329
3533,16.825333799992222,0.08543027616129241,-0.0425872887840227,-0.24024833976666765,0.03287734556169544,-0.03922245050212686,-0.10594423728588043,-0.01076076469678245,0.05798006026681128,-0.11397365711051613,-0.10791882515233296,-0.1368925252085469,0.45522902334168264
3534,16.82938880000438,0.085595458001101,-0.042613067087830483,-0.2407563878546598,0.03282480175211798,-0.038947594822263905,-0.10648244891205239,-0.01127451084763301,0.05732502600312727,-0.11179566915409854,-0.10755706641761051,-0.13779924438407198,0.45844667708177045
3535,16.833714199994574,0.08570758976697591,-0.04265210195543433,-0.24129779014153735,0.03276981257830969,-0.03867587292119332,-0.10701024107800927,-0.011786494278016608,0.05666578488603907,-0.10960247832190276,-0.10717984185329393,-0.13865746008878832,0.4616079300815757
3536,16.837803300004452,0.08581056000982225,-0.04270773576208192,-0.2418026727380231,0.03271238663270633,-0.03840730429875611,-0.10752754195822099,-0.012296641346038325,0.05600256878886111,-0.10739435409852145,-0.1067871986566226,-0.13946693462146603,0.46471245262978367
3537,16.84601589999511,0.08616552873073222,-0.042726417058786714,-0.24294093127338479,0.03265253285809003,-0.03814190734661003,-0.10803428101446731,-0.012804878642234892,0.05533561069228009,-0.10517156751852307,-0.10637918662361102,-0.14022744131991113,0.4677599231636136
3538,16.852851699994062,0.08630579512342063,-0.042735747113937905,-0.2435080431355876,0.03259026054643406,-0.03787969934307551,-0.10853038900312373,-0.013311133001922942,0.05466514463158193,-0.10293439112785518,-0.10595585814042117,-0.14093876462059277,0.47075002825807677
3539,16.858448200000566,0.0866415105731493,-0.04278005114442028,-0.24470278138124643,0.03252557933768921,-0.037620696448233626,-0.10901579798226502,-0.013815331517503207,0.05399140564359857,-0.10068309894530425,-0.1055172681741295,-0.14160070011578407,0.4736824626138932
3540,16.864303700000164,0.08685493320317321,-0.04287802710953671,-0.24521568352906745,0.032458499218512106,-0.037364913699277434,-0.10949044131858676,-0.014317401550717812,0.05331462971338667,-0.09841796642401789,-0.10506347426289213,-0.14221305460820718,0.47655692904409525
3541,16.86805789999198,0.08704765715963317,-0.042971206807865904,-0.24577371731238773,0.032389030520935856,-0.03711236500611801,-0.10995425369414503,-0.01481727074485785,0.05263505372065021,-0.09613927041309564,-0.10459453650551244,-0.14277564616317392,0.47937313845934926
3542,16.871469799996703,0.08723565417704449,-0.04307639319995274,-0.24629381719431961,0.03231718392098324,-0.03686306314724641,-0.1104071711129149,-0.015314867036918551,0.051952915385918765,-0.0938472891192537,-0.10411051755041476,-0.14328830415821334,0.4821308098520238
3543,16.87654119999206,0.08738816236723813,-0.04316710976576092,-0.24683704886955857,0.03224297043722289,-0.03661701976585287,-0.11084913090716846,-0.015810118669699346,0.05126845321649375,-0.09154230206856961,-0.10361148258402823,-0.14375086933017842,0.4848296702790303
3544,16.880160700005945,0.08754193217709227,-0.04326601423989804,-0.2475427397548073,0.03216640142926869,-0.036374245366204476,-0.11128007174367244,-0.016302954203846063,0.050581906452174696,-0.08922459006831235,-0.10309749931858538,-0.14416319381982545,0.48746945484346205
3545,16.884047700004885,0.08774635772202091,-0.04329571652795727,-0.24809328856607613,0.03208748859622238,-0.03613474931028233,-0.1116999336297055,-0.016793302529832608,0.04989351501077761,-0.08689443516886351,-0.1025686379793401,-0.14452514121385868,0.4900499066750599
3546,16.891388699994422,0.08813146280456344,-0.043317881004980505,-0.24914289468779358,0.032006243975059925,-0.03589853981467912,-0.11210865791889532,-0.017281092879879403,0.0492035194334573,-0.08455212062573449,-0.1020249712912105,-0.14483658658443488,0.49257077690953105
3547,16.89660759999242,0.08841261108906616,-0.0431531537064332,-0.24969385372360842,0.031922679938961473,-0.03566562394775807,-0.11250618731687621,-0.017766254839805904,0.0485121608298456,-0.0821979308616845,-0.10146657446485152,-0.14509741652612335,0.49503182466674717
3548,16.901851300004637,0.08866712028204524,-0.04309197439311399,-0.25015590916146757,0.031836809195585354,-0.03543600762707408,-0.11289246588676795,-0.01824871836081448,0.0478196808230176,-0.0798321514289447,-0.10089352518216227,-0.14530752919031664,0.49743281702784814
3549,16.905291799994302,0.08866712028204524,-0.04309197439311399,-0.25015590916146757,0.031748644785286426,-0.035209695617058195,-0.11326743905447627,-0.018728413771203142,0.04712632149429825,-0.0774550689715526,-0.10030590358123372,-0.14546683431708848,0.49977352901128363
3550,16.909390799992252,0.08887642250235146,-0.0431137428953497,-0.25136581676769565,0.03165820007927941,-0.034986691526965874,-0.11363105361381515,-0.019205271788004404,0.04643232532792139,-0.07506697118780192,-0.09970379224074206,-0.14557525326449514,0.5020537435478222
3551,16.91329399999813,0.08899965988345768,-0.043085694553219686,-0.2518772476943906,0.03156548877774776,-0.03476699780908979,-0.11398325773145199,-0.019679223528547722,0.04573793515555358,-0.07266814679281244,-0.0990872761637941,-0.1456327190353178,0.5042732514545599
3552,16.921957800004748,0.08933122725164508,-0.04291108270494966,-0.2527812806476964,0.03147052490789857,-0.03455061575723781,-0.11432400095167627,-0.020150200521943003,0.04504339410069476,-0.07025888548122493,-0.09845644276123107,-0.14563917630124487,0.5064318514079553
3553,16.926517100000638,0.08948969165905446,-0.04282301803142616,-0.25320219362719926,0.0313733228219638,-0.034337545505476484,-0.11465323420099208,-0.020618134720482625,0.04434894552296816,-0.06783947789002524,-0.09781138183439753,-0.14559458142449253,0.5085293499159178
3554,16.938431599992327,0.08994962251538624,-0.042530994018338084,-0.25444200190156674,0.03127389719514852,-0.034127786027140415,-0.11497090979253483,-0.02108295851095944,0.04365483296231167,-0.06541021556150224,-0.09715218555738209,-0.14549890247686248,0.5105655612889795
3555,16.94295470000361,0.09006534967389533,-0.04236808752565241,-0.2550436630403122,0.031172263023526346,-0.03392133513410793,-0.11527698143031294,-0.021544604725898288,0.042961300083082764,-0.06297139090634361,-0.09647894845873671,-0.14535211925623684,0.512540307610577
3556,16.947280299995327,0.09016975402873545,-0.042287578226313675,-0.25544328007434036,0.031068435621882603,-0.033718189476343446,-0.11557140421327518,-0.022003006654698596,0.042268590618089054,-0.0605232971668735,-0.09579176740268172,-0.14515422330051014,0.5144534187064749
3557,16.951614199992036,0.09022686383329331,-0.04220878165150775,-0.2558636416243128,0.0309624306215055,-0.033518344541706956,-0.1158541346392044,-0.022458098054685658,0.041576948312556726,-0.058066228380435854,-0.09509074156980409,-0.14490521789895916,0.516304732113357
3558,16.956303200000548,0.0903286552251094,-0.042105774294734506,-0.25626585427159426,0.030854263967925816,-0.033321794656030614,-0.11612513060843851,-0.022909813162068197,0.040886616868049,-0.05560047934292722,-0.09437597243725636,-0.14460511810105264,0.5180940930466168
3559,16.961267199993017,0.09043242637228287,-0.0419875220310397,-0.2566397399583036,0.030743951918605548,-0.03312853298346249,-0.11638435142741899,-0.023358086702800044,0.040197839886346884,-0.053126345572482164,-0.09364756375846409,-0.14425395072270267,0.5198213543673741
3560,16.967087700002594,0.09069686808878763,-0.041749464443039314,-0.25743358731797755,0.030631511040575852,-0.03293855152707737,-0.1166317578120674,-0.023802853903343673,0.03951086081330447,-0.050644123273314794,-0.09290562154234944,-0.1438517543499592,0.5214863765487479
3561,16.971563200000674,0.09082608812566406,-0.041616034452855576,-0.25780786537103995,0.030516958208024778,-0.03275184112975462,-0.11686731189099117,-0.02424405050133337,0.03882592288269129,-0.048154109299719694,-0.0921502540320784,-0.14339857934015038,0.5230890276414113
3562,16.975605999992695,0.09091076201367587,-0.04146961213608284,-0.25815089555851917,0.03040031059983531,-0.03256839147532307,-0.11709097720851935,-0.02468161275613603,0.03814326906003395,-0.04565660112023525,-0.09138157168333948,-0.14289448782047234,0.5246291832384603
3563,16.979730099992594,0.0910215968835019,-0.041302630912116146,-0.2585053322089117,0.03028158569707423,-0.03238819108997289,-0.11730271872756874,-0.025115477459307433,0.037463141986469016,-0.043151896781972454,-0.09059968714216227,-0.14233955368403287,0.5261067264396234
3564,16.98408520000521,0.0911170577630579,-0.04113226917528215,-0.25885542087105273,0.030160801280432414,-0.03221122734393433,-0.11750250283234029,-0.025545581944941744,0.03678578392261914,-0.04064029487511208,-0.08980471522228474,-0.14173386258335352,0.5275215478148372
3565,16.987820800000918,0.09118010574624265,-0.04094899528276924,-0.25930411142078064,0.0300379754276171,-0.03203748645342322,-0.11769029733084647,-0.02597186409991221,0.03611143669250463,-0.03812209449757293,-0.088996772882078,-0.141077511921336,0.5288735453672172
3566,16.991905400005635,0.09127922747928462,-0.04077040331329544,-0.25960412090840385,0.029913126510696685,-0.03186695348285296,-0.11786607145727085,-0.02639426237400089,0.035440341627502536,-0.03559759521985367,-0.08817597920103708,-0.14037061083969793,0.5301626244954549
3567,16.995849500002805,0.09144791667247512,-0.040562332796809625,-0.25995816638299873,0.029786273193398428,-0.03169961234731293,-0.11802979587416061,-0.026812715789915446,0.0347727395103656,-0.033067097050050634,-0.08734245535584621,-0.13961328020488406,0.5313886979556698
3568,17.000372399998014,0.0915489904395739,-0.04037348017454328,-0.26021019191990724,0.029657434428359702,-0.031535445815313215,-0.11818144267445298,-0.027227163953191125,0.03410887051931279,-0.030530900399053967,-0.08649632459602734,-0.1388056525914605,0.5325516858227449
3569,17.004559499997413,0.0916657893019675,-0.0401573198220673,-0.2604468913881588,0.029526629454333188,-0.03137443551179543,-0.11832098538333574,-0.02763754706197598,0.033448974172203494,-0.027989306045924665,-0.08563771221918079,-0.137947872263,0.5336515154511718
3570,17.008547299992642,0.09178379974912314,-0.039944117644709724,-0.260681801792389,0.029393877793346596,-0.031216561921409248,-0.11844839895994264,-0.02804380591669751,0.03279328927080735,-0.025442615103454434,-0.0847667455458275,-0.13704009515046506,0.5346881214354303
3571,17.012649399999646,0.09191144846710714,-0.03972131923971341,-0.260892281713055,0.029259199247817412,-0.031061804392054183,-0.11856365979888454,-0.02844588192960902,0.032142053845181484,-0.022891128983910318,-0.08388355389386222,-0.13608248882809632,0.535661445569928
3572,17.01706959999865,0.09205251133325561,-0.03947223050317329,-0.2610766046147134,0.0291226138976232,-0.030910141138686276,-0.11866674573161726,-0.02884371713421395,0.0314955050981675,-0.020335149364965936,-0.08298826855262714,-0.13507523248681583,0.5365714368085251
3573,17.021055699995486,0.09216079401426373,-0.03923906481661339,-0.26124794798799134,0.02898414209712794,-0.030761549247389094,-0.11875763602764745,-0.029237254194566485,0.03085387935002024,-0.01777497815582097,-0.08208102275661591,-0.13401851690515332,0.5374180512236713
3574,17.02495859999908,0.09222542984964362,-0.03901574237394705,-0.2614569178618674,0.028843804472165023,-0.030616004679708524,-0.11883631139557799,-0.029626436414446677,0.030217411983180016,-0.015210917463510507,-0.08116195165881751,-0.132912544417705,0.5382012519651777
3575,17.029193599999417,0.09231069648703823,-0.03878354128967314,-0.26161791673200663,0.02870162191697757,-0.03047348227725056,-0.11890275398399329,-0.030011207746408565,0.02958633738720032,-0.012643269559405697,-0.08023119230370976,-0.13175752888113554,0.5389210092186553
3576,17.033816600000137,0.09242563704083218,-0.03855629753122865,-0.2617379162867729,0.028557615591116442,-0.030333955766541413,-0.11895694738218612,-0.030391512800699894,0.028960888903842512,-0.010072336845907116,-0.07928888359991226,-0.13055369563773367,0.5395773001636432
3577,17.037825799998245,0.09252828218277229,-0.038359632089424944,-0.2618682513877132,0.02841180691629673,-0.030197397764149144,-0.11899887662072646,-0.030767296854052,0.028341298772349092,-0.007498421823332081,-0.07833516629250827,-0.12930128147653325,0.5401701089314513
3578,17.0418503999972,0.09262439994157495,-0.038156355750997545,-0.26199201625538204,0.02826421757321318,-0.03006377978206583,-0.11902852817187315,-0.031138505858338484,0.0277277980749072,-0.004921827056997043,-0.07737018293504547,-0.12800053459201075,0.5406994265627387
3579,17.046015300002182,0.09273094257019368,-0.03793702050975464,-0.262117381613316,0.028114869498315112,-0.0299330722333493,-0.11904588994982972,-0.03150508644910128,0.02712061668231392,-0.002342855144496075,-0.07639407786122585,-0.12665171454037075,0.5411652509648536
3580,17.052051399994525,0.09281665856352747,-0.037726711199450695,-0.26222830962485916,0.027963784880541437,-0.029805244438023404,-0.1190509513108455,-0.03186698595394258,0.02651998319985493,0.00023819131682354264,-0.07540699715629504,-0.1252550921934314,0.5415675868689585
3581,17.056355599997914,0.09290918015834573,-0.03753401483620987,-0.2623195810103696,0.027810986158016453,-0.02968026462923567,-0.11904370305316293,-0.03222415240078141,0.025926124913407934,0.00282100976218779,-0.07440908862814136,-0.12381094969012306,0.5419064457869666
3582,17.06038539999281,0.09300701713089979,-0.03731914270695379,-0.26240289383851045,0.027656496014707235,-0.029558099959671246,-0.11902413741681211,-0.032576534525973325,0.025339267735782333,0.005405297691523667,-0.07340050177811466,-0.12231958038561368,0.5421818459683088
