,time,x,y,z,vx,vy,vz,ax,ay,az,jx,jy,jz
2262,9.85251270000299,-0.022850983816401382,-0.039799660885158294,0.007030513806359634,-0.004104321999503932,-0.007376017226167356,0.005996330676147163,0.033480403730978964,0.049154249697168674,0.0052401338708309335,0.0753800629333255,0.1795639901592949,-0.06301679124517827
2263,9.856454799999485,-0.022846322836084617,-0.03976549549965354,0.007007913130164334,-0.003957204247983822,-0.007159383393904827,0.006018653324959515,0.033809334622047583,0.049940622512605934,0.0049623060096394625,0.07507113786659232,0.18012401284443275,-0.06406420655885432
2264,9.860626300011065,-0.022834485477304073,-0.03970321885814677,0.006966454335046112,-0.0038086512038077018,-0.006939305862405798,0.006039751089402524,0.03413689115066827,0.05072939548334137,0.0046798976367625365,0.07475177493038525,0.18066171641956955,-0.06511174909696081
2265,9.864608800009592,-0.0228520343711788,-0.03966827747398398,0.006923953899274546,-0.003658668979566809,-0.006715774344981322,0.00605960393707376,0.034463027689835495,0.05152047046482644,0.0043929084980691155,0.07442197247305328,0.1811768375044475,-0.06615928235046366
2266,9.868987300011211,-0.02287330204351864,-0.03962959098426825,0.006873272262325748,-0.00350726388733322,-0.006488778986475431,0.006078191835869552,0.03478769860998061,0.05231374816821406,0.004101338938440407,0.0740817306071426,0.18166911578358938,-0.06720666891756905
2267,9.87311810000392,-0.022873546505977414,-0.039604332219392205,0.006835424524588132,-0.0033544424386513457,-0.006258310368249595,0.006095494756617211,0.03511085828668089,0.05310912817391686,0.0038051899056269827,0.07373105121754742,0.18213829407934648,-0.06825377051842688
2268,9.877286200004164,-0.022873614397894888,-0.039588955107845485,0.006796028039855212,-0.0032002113444956674,-0.0060243595131073855,0.006111492675723864,0.03543246110840249,0.0539065089454827,0.003504462954040474,0.07336993796942755,0.1825841184247158,-0.06930044801013621
2269,9.881666300003417,-0.022878900302332743,-0.03955720556521625,0.006751820211403019,-0.003044577515194564,-0.005786917890157918,0.006126165577841589,0.035752461484276125,0.05470578784378638,0.0031991602484785654,0.0729983963158901,0.18300633813590678,-0.07034656140205194
2270,9.885531700012509,-0.022888154387482762,-0.0395209509816334,0.006726025841297487,-0.002887548060320098,-0.005545977419616713,0.006139493458548533,0.03607081385190473,0.0555068611415361,0.0028892845677819874,0.07261643350543207,0.1834047058846368,-0.07139196987139164
2271,9.889911600010237,-0.022896409692611225,-0.039495126491208926,0.006713339945667167,-0.0027291302885436223,-0.005301530477542541,0.00615145632704567,0.036387472685201865,0.056309624038093295,0.002574839308422245,0.07222405858914074,0.1837789777701355,-0.0724365317791414
2272,9.894159000003128,-0.022898655321260498,-0.03946940677481182,0.0066999373993291466,-0.0025693317074570684,-0.005053569900508843,0.006162034208868913,0.0367023925022601,0.05711397067460429,0.0022558284880188043,0.07182128242764878,0.18412891339083703,-0.073480104686259
2273,9.898003300011624,-0.02290041755178182,-0.03944174349808902,0.006692757406000318,-0.002408160023359804,-0.004802088990208318,0.006171207148616255,0.03701552787324841,0.057919794149442295,0.0019322567487844635,0.07140811769784028,0.1844542759157404,-0.07452254537017296
2274,9.90239780000411,-0.02293351756362362,-0.03942855210567051,0.006678847904825492,-0.0022456231410109334,-0.004547081517989307,0.006178955212689635,0.03732683342833753,0.05872698653395842,0.0016041293608976418,0.07098457889930485,0.18475483215541608,-0.07556370984157587
2275,9.905722200011953,-0.02293351756362362,-0.03942855210567051,0.006678847904825492,-0.0020817291633469016,-0.004288541729322623,0.006185258492051223,0.03763626386565218,0.059535438888539995,0.0012714522258003402,0.07055068236053645,0.185030352632639,-0.0766034533615104
2276,9.90934160001052,-0.02293351756362362,-0.03942855210567051,0.006678847904825492,-0.0019164863911642796,-0.004026464348197442,0.006190097104993773,0.0379437739592492,0.06034504127897462,0.000934231879420526,0.07010644624487378,0.18528061165262638,-0.07764163045874613
2277,9.915104100000462,-0.022988470982650513,-0.03938428483078036,0.006673297826775147,-0.0017499033227676203,-0.003760844581444911,0.006193451199924708,0.038249318567120744,0.061155682793118386,0.0005924754953177022,0.06965189055617917,0.18550538737285915,-0.07867809494744507
2278,9.918883000005737,-0.02297248050125224,-0.03937840629229797,0.00669494628211229,-0.00158198865358229,-0.00349167812298811,0.00619530095816358,0.03855285263922142,0.06196725155786634,0.0002461908877504437,0.06918703714425264,0.1857044618724653,-0.07971269994511448
2279,9.923095300007844,-0.022979107969783915,-0.03937263323658597,0.006711229018876382,-0.001412751275732177,-0.0032189611580169973,0.0061956265967525286,0.03885433122551817,0.06277963475642313,-0.00010461348533531481,0.06871190970997798,0.18587762122114407,-0.08074529789084514
2280,9.929121400011354,-0.02295997906766841,-0.03936478235627282,0.006722529055708739,-0.0012422002775821783,-0.0029426903670870135,0.006194408371279391,0.03915370948406174,0.06359271864587202,-0.0004599285193984452,0.06822653381019751,0.18602465554760947,-0.08177574056383326
2281,9.93546230001084,-0.022930032557223368,-0.039343269615930265,0.006720997508377213,-0.0010703449432453744,-0.0026628629301400156,0.006191626578713094,0.03945094268907852,0.06440638857503982,-0.0008197444604764396,0.06773093686231253,0.1861453591075311,-0.0828038791021836
2282,9.938912500001608,-0.022930032557223368,-0.039343269615930265,0.006720997508377213,-0.0008971947520548007,-0.0023794765304462327,0.006187261560250975,0.03974598623908178,0.06522052900265593,-0.0011840509024420565,0.06722514814860567,0.18623953035095134,-0.08382956402199179
2283,9.94411980001314,-0.02291327601752138,-0.03934075371455679,0.006713516608280298,-0.0007227593779997473,-0.002092529358465946,0.006181293704177657,0.0400387956650009,0.066035023515803,-0.0015528367843439708,0.06670919882028219,0.1863069719891581,-0.08485264523670291
2284,9.94740480001201,-0.02291327601752138,-0.03934075371455679,0.006713516608280298,-0.0005470486891265142,-0.0018020201156295924,0.006173703448735073,0.040329326638327355,0.06684975484865725,-0.0019260903878325906,0.06618312190122716,0.18634749106099155,-0.0858729720767445
2285,9.95427230000496,-0.02286539199714751,-0.039337287245117585,0.00669710526314114,-0.0003700727469035503,-0.0015079480180350147,0.006164471285003285,0.04061753497927611,0.06766460490151595,-0.002303799334672188,0.06564695229147482,0.1863608989985625,-0.08689039330943128
2286,9.957820000010544,-0.02286539199714751,-0.039337287245117585,0.00669710526314114,-0.00019184180555091346,-0.0012103128000605658,0.00615357775979172,0.04090337666496116,0.06847945476010915,-0.0026859505843404895,0.0651007267703871,0.18634701169236137,-0.08790475715913916
2287,9.961147400012123,-0.022856750419152857,-0.03934862381485462,0.0066842133029289055,-1.2366311333994853e-05,-0.0009091147178928037,0.0061410034785404416,0.04118680783758427,0.06929418471519301,-0.0030725304317168497,0.06454448399953801,0.18630564955573528,-0.08891591132774636
2288,9.965365300013218,-0.022864421757434535,-0.039346818127048364,0.006645012347047338,0.00016834309817854385,-0.0006043545529675218,0.006126729108231048,0.04146778481263564,0.07010867428242225,-0.003463524504860131,0.06397826452530067,0.18623663758871192,-0.08992370301533872
2289,9.969177700011642,-0.02286088286085527,-0.039353351821168864,0.006627409168261113,0.0003502755948926668,-0.0002960336153228749,0.0061107353803067895,0.0417462640871052,0.07092280222249932,-0.003858917762877386,0.06340211078113309,0.18613980544114797,-0.09092797894117646
2290,9.97315270001127,-0.022863674774854466,-0.039358036705879416,0.006594806743624893,0.0005334201610027354,1.5846253136626322e-05,0.006093003093601487,0.042022202347703284,0.07173644656159736,-0.004258694493884439,0.06281606708955953,0.18601498747518133,-0.09192858536491949
2291,9.977374300011434,-0.02286559871687466,-0.03936824306641118,0.0065838359400425175,0.00071776558984119,0.0003312826754664624,0.006073513117276895,0.04229555647908929,0.07254948461205439,-0.004662838313059446,0.06222017966384438,0.18586202282696487,-0.0929253681081081
2292,9.98144350000075,-0.022876648742088605,-0.03938545487971881,0.006574808230921433,0.0009033004867641732,0.0006502727365999894,0.006052246393768091,0.042566283572107,0.07336179299333517,-0.005071332160790491,0.06161449660935456,0.18568075546765964,-0.09391817257589606
2293,9.985627200003364,-0.02287144288208902,-0.03940038359343607,0.006578563873535991,0.001090013270073118,0.0009728129803590434,0.0060291839417365035,0.04283434093202504,0.07417324765325779,-0.005484158300918251,0.06099906792460732,0.18547103426366557,-0.09490684377903336
2294,9.989616200007733,-0.022860676008266495,-0.039422673561627805,0.006570905739513597,0.0012778921719723202,0.0012988994065584335,0.006004306859030124,0.043099686086781226,0.07498372388948119,-0.005901298319074771,0.06037394550200028,0.18523271303606764,-0.09589122635609541
2295,9.993994800010114,-0.022866276182276563,-0.03944792233993045,0.006567265888482658,0.0014669252395625052,0.0016285274682054744,0.00597759632565049,0.0433622767952296,0.0757930963712503,-0.006322733121119388,0.05973918312822042,0.18496565061927536,-0.09687116459595542
2296,9.998203900002409,-0.022866276182276563,-0.03944792233993045,0.006567265888482658,0.001657100335870397,0.001961692068795698,0.005949033606726022,0.043622071055388824,0.07660123916139579,-0.006748442931672829,0.0590948364843289,0.18466971091883455,-0.09784650246049642
2297,10.002284300004249,-0.022851054755212295,-0.039461779298454194,0.006565311736460602,0.001848405140914287,0.002298387559705861,0.005918600055491292,0.04387902711269053,0.07740802573858462,-0.007178407292750525,0.058440963145518166,0.18434476296838923,-0.09881708360755896
2298,10.005710700002965,-0.022851054755212295,-0.039461779298454194,0.006565311736460602,0.002040827152805604,0.0026386077376853545,0.005886277116271814,0.044133103468226194,0.07821332901981805,-0.007612605062496091,0.05777762258053824,0.18399068098577204,-0.09978275141412049
2299,10.009780700012923,-0.022851054755212295,-0.039461779298454194,0.006565311736460602,0.0022343536888864645,0.002982345842447095,0.005852046327473906,0.044384258886991185,0.07901702138317317,-0.008051014414015952,0.0571048761507891,0.18360734442820056,-0.10074334899970273
2300,10.014325000011011,-0.022813300376939134,-0.03950698952103781,0.006567155051374121,0.0024289718869031905,0.0033295945543589493,0.005815889324579142,0.04463245240612461,0.07981897469078422,-0.008493612834316046,0.056422787109076125,0.183194638046557,-0.10169871925000336
2301,10.01890030001232,-0.022793730172351315,-0.039589034625366344,0.006576903545101528,0.002624668706215767,0.0036803459922367466,0.005777787843142965,0.04487764334314338,0.08061906031206006,-0.008940377123341567,0.0557314205980251,0.18275245193873127,-0.10264870484074796
2302,10.02298230001179,-0.022794930819139508,-0.03963356632713896,0.006563495684125922,0.0028214309290431933,0.004034591711239907,0.005737723721796995,0.04511979130416907,0.08141714914713365,-0.009391283393120686,0.055030843648153506,0.18228068160200692,-0.10359314826175799
2303,10.027352700009942,-0.02281144236163291,-0.039672390650666856,0.006555640304076831,0.003019245161744696,0.00439232270087069,0.005695678905254564,0.04535885619214618,0.08221311165053954,-0.009846307067013185,0.054321125175594856,0.18177922798446877,-0.10453189184123005
2304,10.032625800013191,-0.02281144236163291,-0.039672390650666856,0.006555640304076831,0.0032180978361367528,0.004753529383078056,0.005651635447319032,0.04559479821504992,0.083006817855115,-0.01030542287906486,0.0536023359794731,0.1812479975354106,-0.10546477777022231
2305,10.03622940000787,-0.02283738775870238,-0.03971133347388538,0.006542657285079373,0.003417975210845867,0.005118201610467084,0.005605575513894428,0.04582757789408235,0.08379813739612013,-0.010768604873468523,0.05287454873892391,0.1806869022547207,-0.1063916481273434
2306,10.040586500006611,-0.022857915396506938,-0.039781962305631594,0.0065284608674234645,0.003618863372697044,0.005486328664614896,0.005557481385997942,0.04605715607185523,0.08458693953557261,-0.011235826404132454,0.05213783800975957,0.18009585974122502,-0.10731234490364018
2307,10.044231200008651,-0.022868341987988223,-0.0398288754689327,0.00652933081428088,0.0038207482381379084,0.005857899254493978,0.00550733546277381,0.04628349392055849,0.0853730931867922,-0.011707060134357157,0.051392280220774376,0.17947479323996715,-0.10822671002767945
2308,10.048433300005854,-0.022869217675906498,-0.03988754846155298,0.0065512808023469255,0.004023615554698373,0.006232901515003826,0.005455120264508119,0.04650655295011285,0.08615646693915041,-0.0121822780366212,0.050637953669687305,0.1788236316884048,-0.1091345853908186
2309,10.052365600000485,-0.0228629236384309,-0.03993366925090768,0.006569208114004031,0.0042274509024857595,0.006611323005611794,0.005400818435644113,0.046726295016304834,0.08693692908302086,-0.012661451392476937,0.04987493851871894,0.17814230976150233,-0.11003581287266076
2310,10.058268799999496,-0.02285767243125392,-0.03998803421465747,0.006600150845012366,0.0044322396957152755,0.006993150709104032,0.0053444127477974964,0.046942682328902516,0.08771434763492542,-0.013144550792556898,0.04910331678979976,0.17743076791569926,-0.11093023436668992
2311,10.062475400001858,-0.022857868506219785,-0.04003342653619502,0.006617252439155103,0.004637967184275715,0.007378371030447351,0.005285886102771293,0.047155677459750536,0.08848859036287128,-0.013631546136691614,0.04832317235940668,0.17668895243173363,-0.11181769180608168
2312,10.066883600011352,-0.022854890304437162,-0.04008436150020825,0.006634168507503625,0.004844618455330305,0.007766969795762863,0.005225221535569751,0.0473652433508429,0.08925952481187423,-0.014122406634139646,0.04753459095302487,0.17591681545630103,-0.1126980271896841
2313,10.070807000010973,-0.02284638685575692,-0.04013152902632979,0.006656375113391426,0.005052178434952604,0.00815893225141215,0.005162402217410808,0.0475713433223718,0.0900270183296629,-0.014617100803930534,0.0467376601392316,0.1751143150425297,-0.11357108260816301
2314,10.075246400010656,-0.022840921632110277,-0.04017475576016366,0.0066729064210592085,0.005260631889797372,0.008554243063196734,0.005097411458736603,0.04777394108075099,0.09079093809255877,-0.015115596475321392,0.04593246932339947,0.17428141518925114,-0.11443670027030721
2315,10.081499100007932,-0.02287130107595581,-0.040264503748310476,0.006707599329068433,0.00546996342880628,0.00895288631567156,0.005030232712221529,0.04797300072661194,0.09155115113152629,-0.015617860788367854,0.0451191097410161,0.17341808587904683,-0.11529472252948818
2316,10.085629699999116,-0.02289031143760758,-0.0403120373532081,0.006714065226240721,0.00568015750494833,0.00935484551157327,0.004960849575777329,0.04816848676277107,0.09230752435838799,-0.01612386019461004,0.04429767445061747,0.17252430311505135,-0.11614499191026977
2317,10.09013940001023,-0.0229295475480046,-0.04035965552610877,0.006729590973205733,0.0058911984169948495,0.009760103571363877,0.004889245795554748,0.04836036410216656,0.09305992459219914,-0.016633560457874147,0.04346825832633223,0.17160004895649295,-0.1169873511351625
2318,10.0944051000115,-0.02296689268377379,-0.04040163562724512,0.006729328123599708,0.006103070311328927,0.010168642832890496,0.004815405268941277,0.04854859807576278,0.09380821858577611,-0.0171469266551904,0.042630958050034445,0.1706453115529539,-0.1178216431515166
2319,10.098170299999763,-0.022988343312021434,-0.04044125599147686,0.006736007874821912,0.006315757183789115,0.010580445051161805,0.00473931204755449,0.048733154440420846,0.09455227305237239,-0.017663923177827855,0.04178587210310222,0.16966008517733236,-0.11864771115854815
2320,10.10439320000296,-0.023022465688973946,-0.04048320376540466,0.006747905579048827,0.006529242881547241,0.010995491398241847,0.0046609503402304684,0.04891399938673347,0.09529195469249654,-0.01818451373244657,0.04093310075777935,0.1686443702574882,-0.11946539863449263
2321,10.109189900002091,-0.023022465688973946,-0.04048320376540466,0.006747905579048827,0.00674351110502019,0.011413762463261732,0.004580304516006816,0.04909109954682277,0.09602713022086595,-0.018708661342367722,0.04007274606813772,0.16759817340655508,-0.12027454936388056
2322,10.113439200009452,-0.02305518993026817,-0.04053820207166636,0.006772045900883768,0.006958545409815485,0.011835238252549729,0.00449735910709974,0.04926442200209915,0.09675766639349069,-0.019236328348962117,0.039204911860637896,0.16652150745190075,-0.12107500746492969
2323,10.117364100005943,-0.02307653830182686,-0.040647916900226386,0.0068668241877917115,0.007174329208710494,0.012259898189880294,0.004412098811874701,0.04943393429097953,0.097483430034882,-0.019767476413157646,0.038329703724285576,0.16541439146271858,-0.12186661741704784
2324,10.123264900001232,-0.02310750290627473,-0.04076563776413165,0.00694827373575633,0.007390845773665084,0.01268772111684253,0.004324508497810108,0.04959960441656312,0.09820428806537947,-0.02030206651706604,0.03744722900038151,0.1642768507762327,-0.12264922408844005
2325,10.12674479999987,-0.02310750290627473,-0.04076563776413165,0.00694827373575633,0.007608078237867537,0.013118685293328596,0.004234573204453568,0.04976140085426286,0.09892010752859065,-0.02084005896572941,0.03655759677186295,0.16310891702249938,-0.12342267276381438
2326,10.130782400010505,-0.02310750290627473,-0.04076563776413165,0.00694827373575633,0.007826009597813504,0.013552768398142533,0.004142278146370155,0.04991929255939059,0.09963075561893701,-0.021381413388987,0.03566091785223429,0.16191062814778748,-0.12418680917218122
2327,10.134987500001444,-0.02313016342838487,-0.040837072802229576,0.006974959420636071,0.008044622715417773,0.013989947529729993,0.004047608716082167,0.050073248974694215,0.1003360997093004,-0.02192608874346253,0.03475730477408489,0.16068202843652135,-0.12494147951474054
2328,10.139239100011764,-0.023134128676350743,-0.04102453797848299,0.007052832787491058,0.008263900320158633,0.014430199207029298,0.003950550486999833,0.05022324003784486,0.10103600737876377,-0.022474043314672603,0.033846871777192075,0.1594231685317707,-0.1256865304928516
2329,10.14360760001,-0.023161710582992184,-0.04110403195822461,0.007063208584416539,0.008483825011254578,0.014873499370444186,0.0038510892163424485,0.05036923618887241,0.1017303464404397,-0.02302523471925648,0.03292973479620737,0.15813410545427076,-0.12642180933607922
2330,10.148095600001398,-0.023187753136544052,-0.041179032606010316,0.007064339084685366,0.008704379259873107,0.015319823382938667,0.0037492108480494343,0.050511208377547516,0.10241898496938044,-0.023579619907327536,0.03200601144792414,0.1568149026199585,-0.12714716383030997
2331,10.15253870000015,-0.02323927525014637,-0.041265092146510474,0.007043282473853051,0.008925545411371428,0.01576914603125428,0.0036449015156807974,0.05064912807070829,0.10310179133056323,-0.02413715516494672,0.031075821018124766,0.1554656298560093,-0.12786244234593339
2332,10.158547200000612,-0.02328128455594323,-0.041344497417351876,0.007029100682198307,0.009147305687568727,0.016221441527249983,0.00353814754530647,0.05078296725952976,0.10377863420694405,-0.024697796116718393,0.030139284448005975,0.15408636341535883,-0.12856749386608163
2333,10.16255620001175,-0.02332252583919467,-0.041413931024628786,0.00701742244167286,0.009369642189049837,0.01667668350936486,0.0034289354583840375,0.050912698466734296,0.10444938262757282,-0.0252614977285088,0.02919652432018066,0.15267718598969607,-0.12926216801492207
2334,10.166517200006638,-0.023355693976834024,-0.041479421995667294,0.007002333894436463,0.00959253689750004,0.01713484504420404,0.0033172519746243402,0.05103829475374132,0.10511390599576294,-0.025828214310287406,0.028247664844254648,0.1512381867209138,-0.12994631508599558
2335,10.170510900003135,-0.02336727534395837,-0.04154825165032487,0.007003061075073652,0.00981597167807076,0.017595898628247977,0.003203084014844429,0.05115972972775426,0.10577207411730848,-0.026397899519091408,0.02729283184197698,0.14976946121100312,-0.13061978607059432
2336,10.174206600000616,-0.02337073532675175,-0.04160866614189281,0.007005200127566167,0.010039928281775886,0.018059816189685208,0.003086418703807345,0.05127697754878326,0.10642375722874176,-0.02697050636211347,0.026332152731962516,0.14827111153037914,-0.13128243268617318
2337,10.177860800002236,-0.023358211531299734,-0.04164997878120633,0.007010070864947217,0.010264388347918447,0.01852656909036871,0.002967243373048203,0.05139001293660173,0.10706882602562509,-0.027545987199912948,0.025365756513985614,0.14674324622462542,-0.1319341074047884
2338,10.18142649999936,-0.023352437410052326,-0.04170274814850037,0.007006459498477661,0.010489333406547346,0.01899612812789614,0.002845545563686076,0.051498811177634767,0.10770715169086979,-0.028124293749750808,0.024393773752843833,0.1451859803196454,-0.13257466348155783
2339,10.185736900006304,-0.023325480161508712,-0.04173048230962806,0.007019718369668987,0.010714744880943839,0.019468463537813924,0.0027213130292211315,0.051603348131777284,0.10833860592307594,-0.02870537708904835,0.023416336561790593,0.14359943532520902,-0.13320395498313534
2340,10.189715100001196,-0.023307580510512956,-0.04176120909250625,0.0070282921086151995,0.010940604090137555,0.019943544995945195,0.0025945337383165,0.05170360023913975,0.1089630609648856,-0.02928918765896967,0.022433578585535924,0.14198373923688382,-0.1338218368161934
2341,10.19381080000312,-0.023283335782196855,-0.04178181430863935,0.007047954788086015,0.011166892251451763,0.020421341620841693,0.0024651958775643345,0.05179954452671949,0.10958038963134256,-0.029875675268128024,0.02144563498281454,0.14033902653634053,-0.1344281647559073
2342,10.197943300008774,-0.023269851379629482,-0.04180599847315059,0.00705481854102062,0.01139359048307758,0.02090182197635951,0.002333287854235543,0.05189115861499544,0.11019046533825166,-0.030464789096416298,0.02045264240852053,0.13866543819002175,-0.1350227954744342
2343,10.202280800003791,-0.02326558805638767,-0.04183717204954453,0.007062433403547599,0.011620679806676776,0.02138495407435865,0.0021987982990126463,0.05197842072444452,0.1107931621305309,-0.03105647769896168,0.019454738995408113,0.13696312164616423,-0.1356055865693799
2344,10.207310800004052,-0.02326364911735897,-0.04186726014663559,0.007072684069570955,0.011848141150012903,0.021870705377526316,0.0020617160687052324,0.05206130968197768,0.11138835471054845,-0.03165068901020459,0.018452064335357933,0.1352322308301655,-0.13617639659224806
2345,10.212785600000643,-0.02326364911735897,-0.04186726014663559,0.007072684069570955,0.01207595534961045,0.02235904280232383,0.0019220302489474739,0.05213980492729368,0.11197591846643691,-0.0322473703481019,0.01744475946020854,0.1334729261382853,-0.13673508507686508
2346,10.218057300007786,-0.023287106639937327,-0.04190653297534929,0.0070734071155511315,0.01230410315344161,0.0228499327220569,0.001779730156877185,0.05221388651914829,0.11255572950037718,-0.03284646841845423,0.016432966822152947,0.13168537442967265,-0.13728151256777454
2347,10.221684800009823,-0.023287106639937327,-0.04190653297534929,0.0070734071155511315,0.012532565223640298,0.02334334097006919,0.0016348053437958783,0.05228353514153723,0.11312766465684469,-0.033447929319357424,0.015416830273700438,0.12986974901671103,-0.1378155406485949
2348,10.227003600011813,-0.02342133883128552,-0.042129891777604345,0.007067758558692856,0.012761322139243008,0.023839232843058958,0.0014872455978092952,0.05234873210979097,0.11369160155081069,-0.03405169854577788,0.014396495047203793,0.128026229653674,-0.1383370319703326
2349,10.230633099999975,-0.02342133883128552,-0.042129891777604345,0.007067758558692856,0.012990354398956202,0.024337573104518558,0.0013370409464478871,0.05240945937657954,0.11424741859589142,-0.03465772099425172,0.013372107733952216,0.1261550025236849,-0.1388458502796455
2350,10.235689400011324,-0.023446792114143418,-0.0422139534795,0.007107764952295859,0.013219642423949853,0.024838325988296505,0.001184181659266715,0.052465699537825365,0.11479499503243683,-0.03526594096770757,0.01234381626283031,0.12425626022397347,-0.13934186044705058
2351,10.239912200006074,-0.02351152605337911,-0.04241797127458822,0.007150033674988664,0.013449166560676712,0.025341455202281867,0.0010286582504242523,0.05251743583852207,0.1153342109555509,-0.035876302180412774,0.011311769878543569,0.12233020174942408,-0.13982492849506967
2352,10.244121100011398,-0.023514311756338408,-0.04252647437951389,0.007203934457426186,0.013678907083716952,0.02584692393221062,0.0008704614812395619,0.05256465217845716,0.1158649473430363,-0.03648874776304298,0.010276119119411108,0.12037703247441031,-0.1402949216263075
2353,10.248796800005948,-0.023513467195975482,-0.04262495292209299,0.007251398044315343,0.013908844198647765,0.02635469484559352,0.0007095823627273278,0.052607333117836524,0.1163870860832558,-0.03710322026787487,0.009237015794726454,0.11839696413291143,-0.14075170825145597
2354,10.25231920000806,-0.023345727637168412,-0.04272914161357168,0.007383554693528735,0.014138958044937474,0.026864730095765135,0.0005460121581102261,0.052645463882808795,0.11690051000290302,-0.03771966167410186,0.00819461296168728,0.11639021479690644,-0.1411951580172188
2355,10.257286000007298,-0.023235672656086365,-0.042820871348282684,0.007432289477557294,0.014369228698863697,0.02737699132605365,0.0003797423853081202,0.052679030370887905,0.11740510289467472,-0.03833801339327262,0.007149064901895129,0.11435700885304197,-0.14162514183414893
2356,10.260790800006362,-0.02318837951381431,-0.042923965346578524,0.007473378639054865,0.01459963617645518,0.027891439674070925,0.00021076481940356386,0.05270801915627183,0.11790074954483756,-0.03895821627485211,0.0061005270974263314,0.11229757697757074,-0.14204153190439278
2357,10.264843800003293,-0.02319973822781951,-0.0430210913785101,0.007496776582958865,0.014830160436456822,0.02840803577612221,3.9071495083090754e-05,0.05273241749505575,0.11838733576068215,-0.039580210611904844,0.0050491562064754955,0.11021215610955806,-0.1424442017493342
2358,10.269116400013443,-0.02321995630252785,-0.04310243322347629,0.007510468276194436,0.015060781383317429,0.02892673977173497,-0.0001353452909462286,0.05275221333033791,0.11886474839785693,-0.040203936146900106,0.0039951100385731,0.10810098942235447,-0.14283302623713162
2359,10.273173800000222,-0.023245349076136932,-0.0431978449543991,0.007522322799754665,0.015291478870199732,0.029447511308306286,-0.00031249297756547837,0.05276739529721651,0.11933287538757445,-0.04082933207763851,0.0029385475293789085,0.10596432629333316,-0.14320788161014247
2360,10.278035499999532,-0.023251727418358525,-0.04327476439416392,0.007513296549251345,0.01552223270201216,0.029970309545868188,-0.0004923787368783521,0.05277795272767558,0.11979160576368252,-0.04145633706329961,0.0018796287150530226,0.10380242227189133,-0.1435686455122272
2361,10.281623400005628,-0.023273689702926814,-0.04334655934320758,0.007489191134987678,0.015753022638461896,0.030495093161970188,-0.0006750094718718845,0.052783875655358,0.12024082968959311,-0.04208488923060993,0.0008185147062065559,0.10161553904571463,-0.14391519701592653
2362,10.285622900002636,-0.02329933880605167,-0.043410740061854414,0.007472329869826951,0.015983828397128853,0.031021820356678387,-0.0008603918141039723,0.05278515482022369,0.12068043848506098,-0.042714926180130564,-0.00024463233856595305,0.09940394440530492,-0.14424741664950552
2363,10.289118300002883,-0.02329933880605167,-0.043410740061854414,0.007472329869826951,0.016214629656559988,0.031550448857690455,-0.0010485321214181943,0.05278178167309118,0.12111032465280404,-0.043346384992663814,-0.0013096492395700933,0.09716791220677203,-0.14456518642385738
2364,10.293485700007295,-0.023303776101932405,-0.04345741752467433,0.0074540084763523,0.016445406059383508,0.032080935925565685,-0.0012394364756864377,0.052773748380060444,0.12153038190495835,-0.043979202235777864,-0.0023763718233086343,0.09490772233289063,-0.14486838985926084
2365,10.298122100008186,-0.023292766188148177,-0.043538861847711365,0.007417030901737844,0.016676137215442317,0.03261323835906944,-0.0014331106805798358,0.05276104782681518,0.12194050518935992,-0.04461331397044892,-0.0034446349501894547,0.09262366065242432,-0.14515691201198475
2366,10.302147700000203,-0.023267434386413575,-0.043563186295416466,0.007406963868935243,0.01690680270494621,0.03314731250063106,-0.0016295602593685203,0.052743673622802856,0.12234059071564592,-0.04524865575782017,-0.004514272542641562,0.09031601897771949,-0.14543063950073387
2367,10.306428500000038,-0.02324202817032608,-0.043581179132547485,0.0073957803484210145,0.01713738208164228,0.03368311424191438,-0.0018287904527506931,0.05272162010529074,0.12273053598116818,-0.04588516266607697,-0.005585117613636249,0.0879850950205723,-0.1456894605329293
2368,10.3099390000134,-0.02324202817032608,-0.043581179132547485,0.0073957803484210145,0.017367854876003026,0.034220599029499775,-0.002030806216711515,0.05269488234329604,0.12311023979671146,-0.0465227692774372,-0.006657002295610258,0.08563119234637226,-0.14593326493081651
2369,10.31418400000257,-0.023214200730169512,-0.043589881264152606,0.007381608194228494,0.01759820059843166,0.034759721870677,-0.002235612220412307,0.052663456141388267,0.1234796023120094,-0.04716140969525624,-0.007729757869787667,0.08325462032652703,-0.14616194415739517
2370,10.319974400001229,-0.023145482601420356,-0.043582370322837016,0.007383008335550211,0.017828398742483997,0.03530043733934769,-0.0024432128441105577,0.052627338043361754,0.12383852504105054,-0.047801017551245814,-0.008803214795897041,0.08085569408917327,-0.14637539134216454
2371,10.325040399999123,-0.023129346954236286,-0.04357599768635062,0.007373069976429485,0.018058428788106394,0.035842699582036674,-0.0026536121771112207,0.052586525335776756,0.12418691088716627,-0.048441526012805665,-0.0098772027422802,0.07843473446817913,-0.14657350130667787
2372,10.329132200000458,-0.023070511524275847,-0.043547371468468106,0.007409176637722309,0.018288270204889177,0.03638646232401131,-0.0028668140157497835,0.052541016051367365,0.12452466416789308,-0.04908286779046721,-0.010951550616388837,0.07599206795044423,-0.1467561705899003
2373,10.333342600002652,-0.02304067530333609,-0.043531354157843045,0.0074186666528213725,0.018517902455334932,0.0369316788755078,-0.0030828218614075867,0.05249080897231446,0.12485169063960098,-0.04972497514544806,-0.012026086595665071,0.07352802662150432,-0.1469232974733632
2374,10.340069199999562,-0.023039158142712526,-0.04352656021599388,0.007394284288612318,0.018747304998140996,0.037478302138063316,-0.0033016389185598787,0.052435903633381964,0.12516789752188026,-0.050367779897316604,-0.013100638158801846,0.0710429481094476,-0.1470747820061095
2375,10.344000700002653,-0.023039158142712526,-0.04352656021599388,0.007394284288612318,0.018976457291495597,0.03802628461095287,-0.00352326809285707,0.05237630032491491,0.12547319352167938,-0.05101121343176576,-0.01417503211737889,0.06853717552715134,-0.1472105260294227
2376,10.34830330000841,-0.02300710365431172,-0.043500629463580444,0.007398885632724479,0.01920533879638709,0.038575578397729904,-0.0037477119892396675,0.05231200009569762,0.12576748885718667,-0.05165520670849512,-0.015249094647869754,0.06601105741284695,-0.14733043320133318
2377,10.352926899999147,-0.02300256598487189,-0.043492079275494464,0.007384681640436066,0.01943392897992565,0.039126135212869464,-0.003974972910087364,0.05224300475567059,0.12605069528144905,-0.052299690269200276,-0.01632265132401528,0.06346494766902261,-0.1474344090208951
2378,10.356444900011413,-0.023000638066011703,-0.04349852274343359,0.007362072416835036,0.019662207318676916,0.03967790638851286,-0.004205052853402764,0.05216931687850448,0.12632272610572137,-0.052944594245668476,-0.01739552714955868,0.0608992054996731,-0.1475223608522275
2379,10.360749700004815,-0.02299572670094028,-0.04351218053897422,0.007319825183503249,0.019890153302006927,0.040230842881312574,-0.004437953511030198,0.05209093980402958,0.12658349622253928,-0.0535898483679795,-0.018467546591337165,0.05831419534590732,-0.1475941979483128
2380,10.365080700008548,-0.02295015771196018,-0.043524957275497794,0.00730929980166774,0.020117746435437584,0.04078489527937635,-0.004673676266910094,0.05200787764051917,0.12683292212850772,-0.054235381972810706,-0.019538533612725076,0.055710286819924626,-0.1476498314745471
2381,10.36901840000064,-0.02289291732554585,-0.043536454562333717,0.0072830527870981,0.02034496624401192,0.04134001380930935,-0.004912222195369373,0.0519201352668252,0.12707092194679792,-0.05488112401184487,-0.02060831170742318,0.053087854637371736,-0.147689174532037
2382,10.373084900013056,-0.02281483590200704,-0.043546732736881255,0.007261588742000551,0.0205717922756686,0.0418961483433532,-0.005153592059448311,0.051827718334365155,0.12729741544934617,-0.05552700306028008,-0.021676703933588493,0.05044727854809273,-0.1477121421806378
2383,10.377226800002973,-0.02282811022066214,-0.043596657776860406,0.007199714159834029,0.02079820410462498,0.04245324840662055,-0.005397786309264308,0.051730633268958465,0.12751232407874794,-0.056172947325440314,-0.02274353294829892,0.04778894326528502,-0.1477186514617262
2384,10.3814115000132,-0.02276649703507811,-0.04360723577304742,0.0071495152892101285,0.021024181334768046,0.04301126318442395,-0.0056448050804130435,0.05162888727251088,0.1277155709698397,-0.056818884655485506,-0.023808621042346833,0.04511323839307478,-0.14770862142070182
2385,10.386293100003968,-0.0226935811786982,-0.04362106492415069,0.0071140603888607025,0.021249703603052634,0.04357014152969789,-0.005894648192407458,0.05152248832454565,0.12790708097096087,-0.05746474254821998,-0.02487179017535557,0.042420558352526054,-0.14768197312921197
2386,10.392694900001516,-0.022593635943407235,-0.04362871355974745,0.00708750108067698,0.021474750582906234,0.04412983197051259,-0.006147315147154981,0.05141144518358031,0.12808678066488907,-0.05811044815999816,-0.025932862011212587,0.039711302306098165,-0.14763862970709302
2387,10.3980489000096,-0.022593635943407235,-0.04362871355974745,0.00708750108067698,0.021699301987639676,0.04469028271767789,-0.006402805127473473,0.05129576738834778,0.12825459838944228,-0.05875592831472665,-0.02699165795381281,0.036985874080566666,-0.1475785163440226
2388,10.402349100011634,-0.022506227165477573,-0.04363016042363377,0.0070606584489355155,0.021923337573862958,0.0452514416724357,-0.006661116995646276,0.0511754652588606,0.1284104642577405,-0.05940110951296164,-0.028047999183105608,0.0342446820884236,-0.1475015603208769
2389,10.406625900010113,-0.022243945999683722,-0.04359063026483159,0.006990788521161586,0.022146837144905587,0.04581325643423958,-0.006922249292016822,0.0510505498973169,0.12855431017811994,-0.06004591794110022,-0.02910170669143876,0.03148813924777374,-0.14740769103078813
2390,10.410814700007904,-0.022197626804405412,-0.043561669711548616,0.006958826001470207,0.022369780554240694,0.04637567430862011,-0.007186200233623228,0.050921033188846665,0.1286860698736933,-0.06069027948066461,-0.030152601320192457,0.02871666290074388,-0.14729683999989682
2391,10.416558700002495,-0.022158693578089382,-0.04352973277897062,0.0069289258780067245,0.022592147708912203,0.046938642315134824,-0.007452967712873344,0.050786927802097356,0.1288056789015503,-0.061334119717678146,-0.03120050379669622,0.025930674730422914,-0.14716894090779387
2392,10.42095060000429,-0.02213380157787362,-0.0434984691738529,0.006897706522745969,0.022813918572964335,0.047502107195401135,-0.007722549296260684,0.05064824718965752,0.12891307467159216,-0.06197736395213178,-0.03224523477142145,0.02313060067635105,-0.147023929607647
2393,10.425004600008831,-0.02208846500842227,-0.043458574868116946,0.006880300080670988,0.023035073170872736,0.048066015421210716,-0.007994942223121648,0.050505005588317234,0.12900819646499329,-0.0626199372075398,-0.03328661485544231,0.020316870848577084,-0.14686174414600656
2394,10.429129000011017,-0.02204883696324356,-0.043414893185319686,0.006874264693413441,0.02325559159097651,0.048630313202724054,-0.008270143404434509,0.05035721801916431,0.1290909854522844,-0.06326176424058359,-0.034324464658157326,0.017489919440303064,-0.1466823247822846
2395,10.43327870000212,-0.021971245930682958,-0.04335828951272787,0.006874463313802711,0.023475453988910364,0.04919494649674356,-0.008548149421660566,0.0502049002875151,0.1291613847110505,-0.06390276955084208,-0.03535860482526374,0.01465018463913637,-0.1464856140079023
2396,10.437426300006337,-0.021914422022922864,-0.04330956615119913,0.006878383014161903,0.023694640591036126,0.04975986101506369,-0.008828956525627825,0.050048068982679064,0.1292193392432381,-0.06454287739060746,-0.03638885607697664,0.011798108536969927,-0.1462715565651
2397,10.441385600002832,-0.02184344688393358,-0.043246435835543155,0.006891654499128862,0.023913131697872972,0.050325002232896425,-0.00911256063545756,0.04988674147755645,0.12926479599206553,-0.06518201177478489,-0.03741503924648458,0.00893413703851172,-0.14604009946540417
2398,10.444946700008586,-0.021782428754097652,-0.043205163376515206,0.006893816014324444,0.024130907687525713,0.05089031539737026,-0.009398957337534056,0.049720935928067846,0.1292977038585307,-0.06582009649087431,-0.038436975318633174,0.006058719768485419,-0.14579119200774618
2399,10.448272300011013,-0.021750662878019453,-0.04317645135194887,0.0069056036800983125,0.02434794901911041,0.05145574553610098,-0.009688141884517902,0.049550671272414706,0.1293180137175107,-0.06645705510903294,-0.039454485468828335,0.003172309977524427,-0.14552478579622902
2400,10.452237800011062,-0.02171892542228994,-0.043135236159480776,0.006918852211809929,0.024564236236176575,0.05202123746583247,-0.009980109194403178,0.049375967230169904,0.12932567843344667,-0.06709281099221669,-0.04046739110215088,0.00027536444678222694,-0.14524083475753788
2401,10.456663700009813,-0.02166070487149333,-0.043100078663825765,0.00693822725002466,0.024779749970125303,0.052586735801145694,-0.010274853849618888,0.04919684430119745,0.12932065287561004,-0.06772728730639878,-0.04147551389267363,-0.0026316566087175547,-0.14493929515798942
2402,10.460659400006987,-0.02162349847044083,-0.043063389685396,0.006962389628091518,0.024994470943622633,0.05315218496323403,-0.010572370096175019,0.04901332376440066,0.1293028939329443,-0.06836040703086377,-0.04247867582297226,-0.0055482896379674025,-0.14462012562021548
2403,10.46505199999956,-0.021594347478742337,-0.04302668465413811,0.006977968638358038,0.025208379974007357,0.053717529188742896,-0.01087265184285354,0.04882542767629798,0.129272360528477,-0.06899209296857536,-0.04347669922382104,-0.008474067853073983,-0.14428328713947755
2404,10.469031800006633,-0.021553906374275515,-0.0429858435301621,0.006988828209822292,0.025421457976692458,0.05428271253867168,-0.011175692660444688,0.048633178869425885,0.12922901363329578,-0.06962226775661641,-0.04446940681406418,-0.011408521329543,-0.14392874309960668
2405,10.47308310000517,-0.02151307918192955,-0.042943756668173544,0.007004590597748126,0.025633685968559326,0.054847678907336064,-0.011481485781028936,0.04843660095056778,0.12917281628008398,-0.07025085387669922,-0.045456621740653416,-0.014351177107725278,-0.143556459288564
2406,10.477536100006546,-0.021490628272173913,-0.04289611504534331,0.007003609958730693,0.02584504507134401,0.05541237203138902,-0.011790024097304978,0.04823571829880832,0.12910373357621016,-0.07087777366574433,-0.046438167618842174,-0.01730155929539798,-0.14316640391361773
2407,10.481359900004463,-0.02144955851599537,-0.04283020926587681,0.00698150738880338,0.026055516515014594,0.05597673549889868,-0.012101300161964075,0.04803055606341239,0.12902173271636677,-0.07150294932652577,-0.04741386857252664,-0.020259189171454337,-0.14275854761613258
2408,10.48543550001341,-0.021381792762375642,-0.04277170751233322,0.006988047393000295,0.026265081641138943,0.05654071275848121,-0.012415306187111006,0.04782114016152797,0.12892678299475197,-0.07212630293838104,-0.04838354927472363,-0.023223585290674743,-0.14233286348596808
2409,10.489746700011892,-0.021268007492493288,-0.04273104628573109,0.007007964252519659,0.026473721906242028,0.057104247128486225,-0.012732034043731964,0.047607497275712174,0.12881885581678973,-0.07274775646798418,-0.049347034988175074,-0.026194263589551667,-0.1418893270754821
2410,10.493392400006996,-0.021268007492493288,-0.04273104628573109,0.007007964252519659,0.026681418885151926,0.057667281806232956,-0.0130514752612097,0.047389654851279744,0.12869792471038435,-0.07336723178018015,-0.05030415160606896,-0.02917073749314025,-0.14142791641313585
2411,10.498060600002646,-0.021167601062851104,-0.04266098609589839,0.006973631010667521,0.026888154274333845,0.05822975987729505,-0.013373621026886178,0.047167641093473656,0.12856396533670472,-0.07398465064887863,-0.051254725692866175,-0.032152518022906106,-0.1409486120166967
2412,10.50214790001337,-0.020912749028764846,-0.042521559358475715,0.006927606796886865,0.02709390989521147,0.058791624324832044,-0.013698462185672977,0.04694148496445746,0.128416955500495,-0.07459993476800539,-0.05219858452522294,-0.035139113905541274,-0.1404513969060358
2413,10.506417299999155,-0.020762070922907928,-0.042464859995486604,0.006884290950690833,0.027298667697474722,0.059352818038965555,-0.01402598923970975,0.04671121618012907,0.12825687515990805,-0.07521300576250947,-0.05313555613299818,-0.038130031682718765,-0.13993625661551704
2414,10.510580500005744,-0.020628479751277195,-0.042403572560830084,0.006823266759171611,0.02750240976237315,0.059913283826198364,-0.014356192348071006,0.04647686520675566,0.12808370643585792,-0.07582378519942405,-0.054065469340335355,-0.04112477582175579,-0.13940317920597317
2415,10.516331999999238,-0.020459760023669216,-0.04230920962398178,0.00677277094980604,0.027705118305994095,0.060472964418874474,-0.01468906132652143,0.0462384632574294,0.127897433620887,-0.07643219459897947,-0.0549881538068078,-0.04412284882715545,-0.13885215527626513
2416,10.519989300009913,-0.020338090382377202,-0.0422197709489724,0.0066797754488009,0.02790677568252484,0.06103180248467804,-0.015024585647320007,0.04599604228834381,0.12769804318754432,-0.07703815544576631,-0.05590344006861675,-0.047123751352996124,-0.13828317797442022
2417,10.523568300006444,-0.020232908462138394,-0.04212430393800393,0.006577314839775012,0.02810736438749806,0.06158974063616909,-0.015362754439073246,0.045749634994890286,0.1274855237962717,-0.07764158919994636,-0.056811159579831044,-0.05012698231613778,-0.13769624300834638
2418,10.527458900003694,-0.02009586342171189,-0.04199245663154654,0.0064833954670907605,0.028306867061019595,0.06214672144035382,-0.01570355648663779,0.045499274807574465,0.12725986630279418,-0.07824241730850981,-0.057711144753657254,-0.05313203901021355,-0.13709134865611886
2419,10.531430400005776,-0.019993138889750336,-0.04186868387715957,0.006361006250301247,0.028505266490977735,0.06270268742828725,-0.016046980231072656,0.045244995887752104,0.12702106376501013,-0.07884056121657683,-0.05860322900372877,-0.05613841722037467,-0.13646849577583633
2420,10.535612200008472,-0.019968596704409532,-0.04173305551222647,0.006228030347468917,0.02870254561623337,0.06325758110470658,-0.01639301376964132,0.044986833123184314,0.12676911144937872,-0.07943594237874108,-0.05948724678540217,-0.05914561133875636,-0.13582768781504378
2421,10.53988830000162,-0.019908549230906656,-0.04160371007160288,0.006125736989853693,0.028898687529790086,0.06381134495769329,-0.01674164485586389,0.04472482212341197,0.12650400683680174,-0.08002848227045313,-0.0603630336370494,-0.06215311448063178,-0.13516893081971776
2422,10.543847300010384,-0.019826436942526445,-0.04147357993520242,0.006022737370720388,0.02909367548194337,0.0643639214683618,-0.017092860899619526,0.04445899921494932,0.12622574962799607,-0.08061810239944199,-0.06123042622133427,-0.06516041860122095,-0.13449223344281164
2423,10.547900600009598,-0.019826436942526445,-0.04147357993520242,0.006022737370720388,0.029287492883408137,0.06491525312057256,-0.017446648967299142,0.04418940143629713,0.12593434174835402,-0.0812047243171727,-0.062089262366461374,-0.06816701461312087,-0.1337976069523585
2424,10.552132900003926,-0.019847054994256076,-0.041347574902553745,0.0058084597848868024,0.029480123308423853,0.06546528241066706,-0.017802995782008533,0.043916066532775425,0.1256297873522888,-0.08178826963033824,-0.06293938110738599,-0.07117239250432356,-0.13308506523912975
2425,10.556506100008846,-0.0196929683005785,-0.04112153158757074,0.005568193795392156,0.029671550497836395,0.06601395185722245,-0.018161887723822105,0.04363903295117618,0.1253120928270616,-0.0823686600123832,-0.06378062272697271,-0.07417604145678797,-0.13235462482384727
2426,10.560848100009023,-0.01955684202570067,-0.04104037428948189,0.00549679671556527,0.029861758362155818,0.06656120401082362,-0.018523310830087448,0.04335833983423613,0.12498126679608808,-0.08294581721505738,-0.0646128287970913,-0.07717744996553146,-0.13160630486394784
2427,10.564658800009056,-0.019422658549186785,-0.04095776584155078,0.005436742704800208,0.030050730984589186,0.06710698146385013,-0.018887250795780967,0.04307402701492992,0.1246373201217219,-0.08351966307999699,-0.0654358422196377,-0.08017610595820557,-0.13084012715989654
2428,10.568966900013038,-0.019308815217367305,-0.0408769777861425,0.005371540875499222,0.03023845262404771,0.06765122686027601,-0.019253692973914625,0.042786135010583995,0.12428026590751287,-0.0840901195503314,-0.0662495072674682,-0.08317149691512109,-0.1300561161610476
2429,10.573286600003485,-0.019194228022331596,-0.040811990456387094,0.005300308471917913,0.03042490771812735,0.06819388290548031,-0.019622622375994152,0.042494705016811705,0.12391011949993776,-0.08465710868231344,-0.06705366962523433,-0.086163109989687,-0.12925429897105087
2430,10.57727930000692,-0.019070494917539017,-0.04074378370093469,0.005234598435228591,0.030610080886062284,0.06873489237606636,-0.019994023672528918,0.04219977890127019,0.12352689848960173,-0.08522055265697116,-0.06784817643010606,-0.08915043212922795,-0.1284347053528022
2431,10.582485200007795,-0.01895223985839986,-0.04068224127395288,0.005176438752488614,0.030793956931650462,0.06927419812968669,-0.02036788119359358,0.04190139919723934,0.1231306227119087,-0.08578037379177915,-0.0686328763123708,-0.09213295019614444,-0.12759736773293456
2432,10.585916500000168,-0.01884424618812535,-0.04062370961646536,0.005136960429106222,0.03097652084615033,0.06981174311487144,-0.020744178929441755,0.04159960909702315,0.12272131424719973,-0.08633649455234702,-0.06940761943589606,-0.09511015108937926,-0.126742321205849
2433,10.590109299999312,-0.018755047885843187,-0.04056994200799251,0.005076800758685022,0.03115775781114781,0.07034747038085772,-0.021122900531171718,0.04129445244517396,0.12229899742035863,-0.08688883756412287,-0.07017225753844356,-0.09808152186615382,-0.1258696035372832
2434,10.596120200003496,-0.018658262255716075,-0.040506369326254996,0.00501234712921624,0.03133765320139275,0.07088132308741725,-0.02150402931144412,0.04098597373154045,0.12186369879988324,-0.08743732562410951,-0.07092664397182266,-0.10104654986393781,-0.12497925516741638
2435,10.599942000000738,-0.018566764932111724,-0.040461612366871715,0.004954225626219431,0.03151619258760394,0.07141324451468035,-0.021887548245251815,0.04067421808414003,0.12141544719642265,-0.08798188171259175,-0.07167063374187041,-0.10400472282261546,-0.12407131921350856
2436,10.60414340000716,-0.018496492401584196,-0.04042424497689919,0.004879444831670152,0.03169336173924196,0.07194317807295317,-0.022273439970741892,0.04035923126185646,0.12095427366077945,-0.08852242900487288,-0.07240408354824537,-0.10695552900681156,-0.12314584147207239
2437,10.608523800008696,-0.018382145698914738,-0.04035860427711574,0.004833732853270488,0.03186914662724915,0.07247106731252581,-0.022661686790090126,0.04004105964696323,0.12048021148137653,-0.08905889088301859,-0.07312685182402298,-0.10989845732834004,-0.12220287042057726
2438,10.612361999999848,-0.018286629699847103,-0.04030099962522987,0.004791740063647866,0.032043533426755956,0.07299685593346919,-0.023052270670427814,0.03971975023747354,0.11999329618118804,-0.08959119094760586,-0.07383879877507947,-0.11283299746873818,-0.12124245721868446
2439,10.616812600012054,-0.01818520105407406,-0.04023620590269697,0.004757463065871628,0.032216508519752926,0.07352048779541863,-0.023445173244820986,0.039395350639317615,0.11949356551413329,-0.09011925302947425,-0.07453978641925157,-0.1157586400018496,-0.12026465570901257
2440,10.620728699999743,-0.01803191730993393,-0.04014235651912641,0.004734381447522897,0.03238805849772758,0.07404190692734196,-0.02384037581330201,0.03906790905834854,0.11898105946093357,-0.09064300120147788,-0.07522967862525923,-0.11867487651641886,-0.11926952241743245
2441,10.624231500012684,-0.01803191730993393,-0.04014235651912641,0.004734381447522897,0.03255817016426553,0.07456105753728987,-0.02423785934395362,0.03873747429217761,0.11845582022443187,-0.09116235979023606,-0.07590834115137811,-0.12158119973866047,-0.11825711655289066
2442,10.627550200006226,-0.01787901284733692,-0.04004533893923493,0.004706211343550253,0.03272683053761521,0.07507788402212641,-0.024637604474045397,0.03840409572184037,0.11791789222437575,-0.09167725338788062,-0.07657564168384969,-0.12447710365476465,-0.11722750000676052
2443,10.631339200001094,-0.01787901284733692,-0.04004533893923493,0.004706211343550253,0.032894026853215276,0.07559233097723692,-0.02503959151122271,0.03806782330329455,0.11736732209166323,-0.09218760686379784,-0.07723144987501578,-0.12736208363330276,-0.11618073735172059
2444,10.635302900001989,-0.017587815252683794,-0.039807457614767526,0.004635850945909956,0.03305974656618418,0.07610434320621116,-0.02544380043474801,0.03772870755875125,0.11680415866205242,-0.09269334537636337,-0.07787563738116457,-0.13023563654749437,-0.11511689584016006
2445,10.639656600003946,-0.017214214235347896,-0.039482064702451136,0.004575953663451765,0.03322397735377101,0.07661386573049955,-0.02585021089679436,0.03738679956784059,0.11622845296933607,-0.09319439438466788,-0.07850807790007476,-0.1330972608972988,-0.11403604540211106
2446,10.644317199999932,-0.017020221873829264,-0.039288700184929186,0.004522706800718904,0.03338670711776711,0.07712084379903936,-0.02625880222379103,0.03704215095861343,0.115640258237982,-0.09369067966023134,-0.07912864720824503,-0.1359464569312926,-0.11293825864270803
2447,10.648387400011416,-0.01686618318305071,-0.03907676737049595,0.004445481305767183,0.03354792398687737,0.07762522289784911,-0.02666955341782123,0.0366948138983805,0.11503962987524025,-0.0941821272987031,-0.0797372231977954,-0.13878272676829537,-0.1118236108391751
2448,10.652961400002823,-0.016711826829109273,-0.03883932894464618,0.0043786942274766085,0.03370761631905055,0.07812694875958866,-0.02708244315807196,0.036344841084390594,0.11442662546271816,-0.09466866373154524,-0.08033368591302745,-0.1416055745187063,-0.11069217993734072
2449,10.656635600011214,-0.016589982109161433,-0.038591433327792204,0.004286400825628411,0.033865772703768206,0.07862596737308272,-0.02749744980233591,0.03599228573434896,0.1138013047474254,-0.09515021573769712,-0.08091791758663056,-0.1444145064055134,-0.10954404654767974
2450,10.660702600012884,-0.016442933791172832,-0.03832939426893108,0.004198091088908778,0.03402238196429171,0.07912222499280519,-0.027914551388565488,0.035637201576777695,0.1131637296322898,-0.09562671045521878,-0.08148980267552133,-0.1472090308849376,-0.10837929394088318
2451,10.664911600004416,-0.016293547265839595,-0.03807794593337474,0.004104289908089798,0.03417743315986664,0.07961566814832136,-0.02833372563647874,0.035279642841219684,0.11251396416614565,-0.0960980753929113,-0.08204922789630374,-0.1499886587666742,-0.10719800804295611
2452,10.669395100005204,-0.016293547265839595,-0.03807794593337474,0.004104289908089798,0.03433091558788362,0.08010624365368563,-0.028754949949217165,0.034919664248287824,0.1118520745331971,-0.09656423844191205,-0.08259608226033781,-0.1527529033336925,-0.10600027742984414
2453,10.673263000004226,-0.01606670215953787,-0.0377924087047858,0.004009106799952637,0.034482818785995115,0.08059389861679236,-0.029178201415055255,0.034557320999561096,0.11117812904195898,-0.09702512788726289,-0.08313025710840466,-0.15550128046155592,-0.10478619332158853
2454,10.677231699999538,-0.015631736865431338,-0.03723988377273856,0.0038240031363645415,0.034633132534187545,0.08107858044867738,-0.02960345680916161,0.03419266876732917,0.11049219811367714,-0.09748067241944969,-0.08365164614495475,-0.15823330873722566,-0.10355584957601038
2455,10.681321200012462,-0.015397315796759445,-0.0369409313492129,0.0037118129213037712,0.03478184685680812,0.08156023687276778,-0.030030692595411412,0.03382576368418758,0.10979435427023018,-0.09793080114591127,-0.08416014547192599,-0.1609485095773103,-0.10230934268192439
2456,10.685615200010943,-0.015157502240233024,-0.036607724735406647,0.0035983630680786467,0.034928952024545865,0.08203881593407765,-0.030459884928250178,0.03345666233248529,0.10908467212151558,-0.0983754436025161,-0.08465565362211891,-0.16364640734572364,-0.1010467717518824
2457,10.689851400005864,-0.01489437870190259,-0.036237276883302756,0.0034947762692468212,0.035074438556365994,0.08251426600834731,-0.030891009654608646,0.03308542173362651,0.10836322835232277,-0.09881452976500435,-0.08513807159211637,-0.16632652947071422,-0.09976823851444798
2458,10.694211100009852,-0.014705797495038251,-0.035859132179485775,0.003403562049831977,0.03521829722139715,0.082986535811124,-0.03132404231586846,0.03271209933722924,0.10763010170869597,-0.09924799006039331,-0.08560730287473511,-0.16898840656122913,-0.09847384730600256
2459,10.698272500012536,-0.014480616683780114,-0.03542963082842159,0.0033273865739652264,0.035360519040770956,0.08345557440678138,-0.03175895814987846,0.03233675301014256,0.10688537298378957,-0.0996757553783442,-0.08606325349099644,-0.17163157252257455,-0.09716370506208444
2460,10.702302100005909,-0.014233832217760787,-0.034944534352124544,0.003294436141168753,0.03550109528941334,0.08392133121747529,-0.03219573209302138,0.03195944102532499,0.10612912500321915,-0.1000977570824882,-0.08650583202160367,-0.17425556467133588,-0.09583792130826224
2461,10.708785400012856,-0.014233832217760787,-0.034944534352124544,0.003294436141168753,0.035640017497787106,0.08438375603203377,-0.0326343387823306,0.031580222050585895,0.10536144260991098,-0.10051392702171001,-0.08693494963791414,-0.1768599238495204,-0.09449660815054389
2462,10.71274760000233,-0.013994067907927834,-0.034430097066324425,0.0032519414929403556,0.03577727745358526,0.0848427990147796,-0.03307475255765679,0.031199155137192302,0.10458241264845389,-0.10092419754138651,-0.08735052013239339,-0.17944419453788554,-0.09313988026532276
2463,10.717259700002614,-0.013555906864814333,-0.033419233899564096,0.0032227698766312558,0.03591286720337469,0.08529841071428301,-0.033516947463883964,0.03081629970834317,0.10379212394895738,-0.10132850149457934,-0.08775245994853927,-0.1820079249684159,-0.09176785488886255
2464,10.721138600012637,-0.01337802316983048,-0.03291600316983174,0.0032378436184595403,0.03604677905418984,0.08575054207204169,-0.03396089725319494,0.03043171554751347,0.10299066731041966,-0.10172677225317993,-0.08814068821026416,-0.18455066723591315,-0.09038065180632215
2465,10.72497400001157,-0.01290331499141245,-0.032332138886824346,0.003360815159328666,0.036179005575076015,0.08619914443108632,-0.03440657538738583,0.030045462786670356,0.10217813548360899,-0.1021189437190049,-0.08851512675072341,-0.1870719774086624,-0.08897839334032252
2466,10.729083700003684,-0.012715298916996506,-0.03165683725553168,0.003369123657933107,0.036309539598581776,0.08664416954450957,-0.034853955040229374,0.02965760189436411,0.10135462315346275,-0.10250495033483993,-0.08887570014057804,-0.18957141563813895,-0.08756120433905752
2467,10.733115100010764,-0.012614086435992376,-0.031082331824651605,0.0033480931010302388,0.036438374222199865,0.0870855695839163,-0.035303009099886824,0.029268193663696335,0.10052022692100786,-0.10288472709543062,-0.08922233571568021,-0.19204854626771972,-0.08612921216395039
2468,10.73663120000856,-0.012344354976318124,-0.030435557051486747,0.003399454614113498,0.036565502809756116,0.08752329714779357,-0.03575371017136801,0.02887729920016786,0.09967504528480721,-0.10325820955841829,-0.08955496360416963,-0.1945029379403645,-0.08468254667685775
2469,10.7409112000023,-0.012145514941553795,-0.029822875787355978,0.003422274229859271,0.03669091899274572,0.0879573052697979,-0.03620603057903983,0.02848497990940902,0.09881917862193654,-0.10362533385521885,-0.08987351675296922,-0.19693416370523184,-0.0832213402268227
2470,10.744624900005874,-0.011979392562539593,-0.029134555127908603,0.0034632851591364193,0.036814616671616125,0.08838754742695772,-0.036659942369182706,0.028091297484795077,0.09795272916849643,-0.10398603670184262,-0.0901779309536687,-0.19934180112319483,-0.0817457276363791
2471,10.748821100001804,-0.011827231991493048,-0.028434268440758515,0.0034928752216517103,0.03693659001699623,0.08881397754778836,-0.03711541731259476,0.027696313894949434,0.09707580099966394,-0.10434025540965271,-0.09046814486778526,-0.2017254323712212,-0.08025584618740905
2472,10.752754100001766,-0.011875114669564611,-0.02774312021472329,0.003415539922965641,0.03705683347087165,0.08923655002031844,-0.03757242690724316,0.027300091371137397,0.09618850000928907,-0.10468792789606064,-0.09074410005138962,-0.2040846443455838,-0.07875183560655574
2473,10.75659760000417,-0.011670560697554722,-0.027039396993937013,0.0034041593456085118,0.037175341747705606,0.08965521970002571,-0.038030942380962336,0.026902692394553132,0.09529093388904085,-0.10502899269515681,-0.09100574097908684,-0.2064190287638676,-0.07723383805019411
2474,10.760582000002614,-0.011483746643195071,-0.02632233361018067,0.0033820896929109005,0.03729210983550494,0.0900699419176802,-0.038490934694198495,0.026504179683502656,0.09438321210710847,-0.10536338896827413,-0.09125301506734117,-0.20872818226574083,-0.07570199808896164
2475,10.766196200012928,-0.011287027405560477,-0.02553677850782714,0.0033104095441384204,0.037407132996830766,0.09048067248709286,-0.03895237454280026,0.026104616180485797,0.09346544588646241,-0.10569105651448324,-0.09148587269713415,-0.2110117065124557,-0.07415646269185161
2476,10.76995810000517,-0.011171983106603823,-0.02476269936695637,0.0032004437484808423,0.03752040676975321,0.09088736771276769,-0.03941523236085507,0.02570406503918006,0.09253774818268125,-0.10601193578101764,-0.09170426723594506,-0.21326920828504617,-0.07259738120987111
2477,10.7733212000021,-0.010957663273855032,-0.024029905323176434,0.0031257482418586293,0.03763192696874961,0.09128998439745513,-0.039879478323570965,0.0253025896113293,0.09160023366135012,-0.10632596787362718,-0.09190815505904275,-0.2155002995811895,-0.07102490535926664
2478,10.777393100011976,-0.010793991532571328,-0.0232174435983183,0.0029500746701655992,0.0377416896855456,0.09168847984960513,-0.04034508235020332,0.024900253433540152,0.09065301867503671,-0.10663309456685731,-0.09209749557007868,-0.2177045977107004,-0.06943918920432009
2479,10.781700100007583,-0.01069412239659017,-0.0223384930916218,0.0027692360206228624,0.03784969128989888,0.09208281189071774,-0.040812014107026,0.02449712021398925,0.08969622123985091,-0.10693325831425175,-0.0922722512209708,-0.21988172538962544,-0.06784038913971766
2480,10.785625000004076,-0.010671247985221849,-0.021545863246757887,0.0025794982421638475,0.03795592843032525,0.09247293886258943,-0.04128024301034653,0.02409325381904428,0.0887299610115943,-0.10722640225847713,-0.09243238753106864,-0.22203131083290611,-0.06622866387249503
2481,10.789952400009495,-0.010546040801425745,-0.020744964614429574,0.0023744786607991565,0.03806039803476646,0.09285881963445351,-0.041749738229564626,0.02368871825980203,0.08775435926150563,-0.10751247024136806,-0.09257787310558976,-0.22415298784558094,-0.06460417440356173
2482,10.79387060001318,-0.01031393316582157,-0.019881151420027218,0.002144100869552877,0.038163097311199455,0.09324041361001267,-0.04222046869027339,0.023283577678546788,0.08676953885160865,-0.10779140681389054,-0.0927086796533178,-0.22624639591249643,-0.06296708400880788
2483,10.798382700013462,-0.010046170377185821,-0.019015905897121852,0.0019471206453096912,0.0382640237481867,0.09361768073436207,-0.04269240307740286,0.022877896335132382,0.08577562420966907,-0.10806315724602161,-0.09282478200355268,-0.2283111802864969,-0.061317558219796856
2484,10.802468699999736,-0.009860225097393144,-0.018208653015452925,0.0016832825060829116,0.03836317511536742,0.09399058150080111,-0.04316550983840553,0.022471738593291237,0.08477274130376741,-0.10832766753654434,-0.0929261581223041,-0.23034699207506332,-0.05965576480404694
2485,10.806811400005245,-0.009860225097393144,-0.018208653015452925,0.0016832825060829116,0.038460549463889306,0.09435907695753236,-0.043639757186483656,0.022065168906873614,0.08376101761649472,-0.10858488442275623,-0.09301278912771997,-0.23235348832537236,-0.057981873744905016
2486,10.810910600004718,-0.009632807456685329,-0.017409261389754793,0.0014729977721786732,0.038556145126780655,0.09472312871424565,-0.04411511310385793,0.021658251806020393,0.08274058211877815,-0.10883475539008894,-0.09308465930474116,-0.23433033210774792,-0.056296057221015265
2487,10.814719500005594,-0.00932227091514094,-0.01579634601158811,0.000935765989294545,0.038649960719262744,0.09508269894858608,-0.04459154534507702,0.021251051883272823,0.08171156524334372,-0.10907722868163802,-0.09314175611897392,-0.23627719259747612,-0.0545984895853865
2488,10.819009300001198,-0.009174195514141746,-0.01508309161330411,0.0006550679663972477,0.03874199513900219,0.09543775041250388,-0.04506902144036774,0.02084363377962267,0.08067409885782383,-0.10931225330760112,-0.09318407022977153,-0.23819374515495798,-0.05288934734406167
2489,10.822938800003612,-0.008967891511532182,-0.01434533290054066,0.00038717986610820623,0.0388322475663032,0.0957882464384846,-0.045547508699025394,0.020436062170506215,0.07962831623751669,-0.10953977905462264,-0.09321159550251709,-0.24007967140417286,-0.05116880913439318
2490,10.827080000002752,-0.008967891511532182,-0.01434533290054066,0.00038717986610820623,0.03892071746423932,0.09613415094565748,-0.04602697421284403,0.020028401751745677,0.07857435203780541,-0.10975975649504295,-0.0932243290200996,-0.24193465930942834,-0.04943705570292792
2491,10.83156570000574,-0.008820986189715605,-0.013555722079900122,0.00011466695317284125,0.039007404578724404,0.0964754284457803,-0.04650738485958621,0.019620717225441592,0.07751234226624383,-0.10997213699605059,-0.09322227109357578,-0.24375840325037076,-0.04769426988290589
2492,10.835495500010438,-0.008561367465444121,-0.01207244875790426,-0.000509354599326171,0.03909230893852228,0.09681204404909932,-0.04698870730649175,0.01921307328581978,0.07644242425431674,-0.11017687272873675,-0.09320542527201013,-0.24555060409523163,-0.04594063657137649
2493,10.839316500001589,-0.008561367465444121,-0.01207244875790426,-0.000509354599326171,0.039175430855195176,0.0971439634700831,-0.0474709080138253,0.018805534605036603,0.0753647366288823,-0.11037391667705003,-0.09317379835148634,-0.2473109692722868,-0.04417634270593633
2494,10.84351880000031,-0.008384178866682367,-0.011351025416287576,-0.0008011618826349153,0.03925677092299048,0.09747115303302888,-0.047953953238462105,0.018398165818946124,0.07427941928330456,-0.11056322264664942,-0.09312740038328379,-0.24903921283950461,-0.04240157724109274
2495,10.848031600005925,-0.007843252063437242,-0.009837507157969383,-0.0012769960650721994,0.039336330018665815,0.0977935796775401,-0.04843780903751194,0.017991031512832954,0.07318661334828433,-0.11074474527365359,-0.09306624468121251,-0.2507350555523605,-0.0406165311242569
2496,10.852438000001712,-0.007571760114996391,-0.009112682813739104,-0.0015432515134361508,0.03941410930125218,0.09811121096387401,-0.048922441271980796,0.017584196207114322,0.07208646116239587,-0.11091844003328558,-0.09299034782809995,-0.252398224929794,-0.03882139727137099
2497,10.856284600013169,-0.007396297527332223,-0.008380480797176876,-0.0018163319384505137,0.03949011021175473,0.09842401507815818,-0.04940781561046977,0.017177724343015236,0.0709791062423374,-0.11108426324841124,-0.09289972968142367,-0.25402845531828827,-0.03701637054217328
2498,10.860653300012928,-0.007363210653246636,-0.0075864357043692815,-0.0021804686057425174,0.039564334472791014,0.09873196083747446,-0.049893897532910965,0.01677168026822049,0.06986469325290375,-0.11124217209797022,-0.09279441337808396,-0.25562548795404905,-0.03520164771510529
2499,10.86497650000092,-0.006974021029263147,-0.006868503694267566,-0.0023151917782223727,0.03963678408816665,0.0990350176948096,-0.050380652334339845,0.016366128222507374,0.06874336797668959,-0.11139212462529782,-0.09267442533831058,-0.2571890710232646,-0.03337742746186506
2500,10.869077700001071,-0.006527920545795171,-0.006161496571399334,-0.0024736515435336156,0.03970746134238828,0.09933315574387128,-0.050868045128703826,0.015961132323362832,0.06761527728353159,-0.11153407974633688,-0.09253979526869818,-0.2587189597204272,-0.03154391032161109
2501,10.873523500005833,-0.0061300673541143,-0.005402084791372059,-0.0026506781689708313,0.039776368800113863,0.09962634572376887,-0.05135604085270663,0.01555675655158885,0.06648056909969743,-0.11166799725773807,-0.09239055616436527,-0.26021491630469634,-0.029701298674820988
2502,10.87718510000559,-0.005733855521588487,-0.004606065626531165,-0.0029947681644333767,0.039843509305540106,0.09991455902355759,-0.05184460426968785,0.01515306473689992,0.0653393923768303,-0.11179383784484777,-0.09222674431023171,-0.26167671015428434,-0.027849796716809063
2503,10.88171539999894,-0.005463485296865306,-0.003945593343551109,-0.0032822983579327133,0.039908885981726906,0.10019776768664501,-0.05233369997353692,0.014750120543516586,0.06419189706065775,-0.11191156308958147,-0.09204839928141079,-0.26310411781884807,-0.02598961043090738
2504,10.88557800000126,-0.005238381070573254,-0.0032978350392491636,-0.0035619922601310906,0.039972502229858764,0.10047594441505894,-0.052823292392640706,0.014347987455758998,0.06303823405947438,-0.11202113547818121,-0.09185556394271088,-0.2644969230698705,-0.024120947561314585
2505,10.889778800003114,-0.004914650795598199,-0.00259378611725275,-0.003808587489219559,0.0400343617284431,0.10074906257357524,-0.05331334579386391,0.01394672876364434,0.06187855521240683,-0.11212251840885547,-0.09164828444724286,-0.2658549169490124,-0.02224401758561718
2506,10.894061900005909,-0.004636041118784499,-0.0019306867244093169,-0.004079515126823423,0.04009446843244526,0.10101709619370433,-0.05380382428656169,0.013546407548492116,0.06071301325747017,-0.11221567619930048,-0.09142661023412978,-0.2671778978144192,-0.020359031686987727
2507,10.89801570000418,-0.004177657401239252,-0.0012244902316519914,-0.00417956804389488,0.040152826572360203,0.10128001997753588,-0.05429469182662402,0.013147086668541214,0.05954176179942489,-0.11230057409410094,-0.09119059402531507,-0.26846567138496935,-0.01846620272606456
2508,10.90421750000678,-0.003893646567171884,-0.0005687623759770174,-0.004420898652878194,0.040209440653220775,0.10153780930144111,-0.05478591222055136,0.012748828744582703,0.058364955277443585,-0.11237717827200823,-0.09094029182146621,-0.26971805078244954,-0.016565745212517625
2509,10.912724699999671,-0.0034765796510038637,0.0006718713794492012,-0.004965145693369885,0.040264315453542705,0.10179044021963198,-0.05527744912956113,0.012351696145612384,0.05718274893259676,-0.11244545585309515,-0.09067576289697112,-0.27093485657164107,-0.014657875276305085
2510,10.917727600011858,-0.003338800174375169,0.0013595701175272428,-0.005276251562328045,0.04031745602420639,0.10203788946757585,-0.05576926607372413,0.011955750974507138,0.055995298775167054,-0.11250537490578555,-0.09039706979402502,-0.27211591679830466,-0.012742810638625458
2511,10.925970600001165,-0.0030819924090727054,0.002639877594448928,-0.0057644067788637995,0.040368867687275455,0.10228013446526454,-0.056261326436130195,0.011561055053729062,0.054802761551801346,-0.11255690445375756,-0.09010427831580536,-0.27326106702505043,-0.01082077058257004
2512,10.93209570000181,-0.002616477639637862,0.004019929633938251,-0.006227827250069665,0.040418556034752154,0.10251715332033756,-0.056753593467082315,0.011167669911061369,0.053605294712509834,-0.1126000144827186,-0.08979745751873296,-0.27437015036508294,-0.008891975923480464
2513,10.93672690000676,-0.002341895048174358,0.004723777238912967,-0.00636009426152372,0.04046652692726966,0.102748924831059,-0.057246030288318275,0.010775656765380014,0.05240305637752127,-0.1126346759470514,-0.08947667970381766,-0.27544301751381184,-0.0069566489790162415
2514,10.940586000011535,-0.002174381318996353,0.00542477115901293,-0.0065934308519763705,0.04051278649272136,0.10297542848914777,-0.05773859989725934,0.010385076512465043,0.05119620530400383,-0.11266086077632932,-0.0891420204070871,-0.2764795267783188,-0.005015013538937177
2515,10.9444882000098,-0.0022572719378477863,0.006116653139668661,-0.006816560225372912,0.04055734112482725,0.10319664448246074,-0.05823126517128532,0.009995989710855732,0.04998490085266132,-0.11267854188169955,-0.08879355838909771,-0.2774795441046711,-0.003067294834605568
2516,10.95246380000026,-0.0018834023618792644,0.007576647921196054,-0.007249517217646946,0.040600197481637804,0.10341255369752919,-0.05872398887203564,0.009608456567753566,0.04876930295421413,-0.11268769316213306,-0.08843137562352754,-0.2784429431030739,-0.0011137195082130673
2517,10.956807700000354,-0.0018834023618792644,0.007576647921196054,-0.007249517217646946,0.04064136248397555,0.10362313772194799,-0.05921673364973593,0.009222536924976989,0.0475495720757742,-0.11268828951053968,-0.08805555728485052,-0.27936960507085457,0.0008454844182628492
2518,10.96056760000647,-0.0016690540030365084,0.008236027758498413,-0.007506897514108361,0.040680843313814774,0.10382837884661728,-0.05970946204754955,0.008838290244972052,0.04632586918712384,-0.11268030681974693,-0.08766619173509246,-0.28025941901327545,0.002810087574367762
2519,10.964045000000624,-0.0016690540030365084,0.008236027758498413,-0.007506897514108361,0.040718647412599555,0.10402826006783591,-0.060202136505953574,0.008455775596882927,0.04509835572690787,-0.11266372198834113,-0.08726337050966938,-0.2811122816621666,0.0047798592727395246
2520,10.968865400005598,-0.001097216886269848,0.009502835813313673,-0.00788148510971069,0.040754782479500304,0.10422276508924645,-0.060694719367138446,0.00807505164268632,0.04386719356874858,-0.1126385129263692,-0.08684718830230859,-0.28192809749237396,0.0067545675409327564
2521,10.973067200000514,-0.00048696447356427405,0.010736477563374454,-0.008255337207921794,0.04078925646960916,0.10441187832363102,-0.061187172879431005,0.00769617662339383,0.042632544987293554,-0.11260465856090028,-0.08641774294905301,-0.2827067787360169,0.008733979153493538
2522,10.977450800011866,-0.0002761547464641721,0.011382074432594308,-0.008481289500681687,0.040822077592074756,0.10459558489455842,-0.06167945920174043,0.007319208345326305,0.04139457262420563,-0.11256213884144578,-0.08597513541135023,-0.2834482453945503,0.010717859664279234
2523,10.981402900011744,-2.9745782749246683e-05,0.011961898168828651,-0.008687523159185459,0.04085325430817645,0.10477387063788203,-0.062171540408026464,0.006944204166464254,0.040153439454104954,-0.11251093474523723,-0.08551946975822733,-0.28415242524862705,0.012705973439018331
2524,10.985658300007344,0.00033319654951296894,0.012512412379675281,-0.008840162912860574,0.04088279532933823,0.10494672210308892,-0.06266337849178956,0.006571220982878297,0.038909308750472583,-0.11245102828236063,-0.08505085314755348,-0.2848192538657575,0.014698083688105197
2525,10.991676200006625,0.0006434015267453759,0.01312167957782403,-0.009076505707710552,0.04091070961508261,0.10511412655449956,-0.0631549353705819,0.006200315215243671,0.0376623440515252,-0.11238240250074544,-0.08456939580639218,-0.28544867460576256,0.01669395249962451
2526,10.99506570000085,0.0006434015267453759,0.01312167957782403,-0.009076505707710552,0.04093700637092505,0.10527607197231827,-0.06364617289053918,0.005831542795442791,0.036412709126070635,-0.11230504149100685,-0.08407521101044517,-0.2860406386240195,0.018693340872600248
2527,10.998677000010504,0.000863799678006498,0.013755668847378225,-0.00942384141986513,0.04096169504620915,0.10543254705353472,-0.06413705283093275,0.005464959153259869,0.03516056793935378,-0.11221893039114092,-0.0835684150625909,-0.2865951048725024,0.020696008750464
2528,11.002242600006866,0.0014745186192973334,0.014938778044229429,-0.009860350487372008,0.040984785331882816,0.10558354121267653,-0.06462753690874098,0.0051006192031715514,0.033906084618902745,-0.11212405539107122,-0.08304912727052065,-0.28711204009861846,0.022701715054737382
2529,11.007474700003511,0.0014745186192973334,0.014938778044229429,-0.009860350487372008,0.04100628715821604,0.10572904458241296,-0.06511758678323959,0.00473857733123756,0.03264942342038495,-0.11202040373704626,-0.08251746992347543,-0.2875914188418442,0.024710217718923344
2530,11.011301900012768,0.0016963739375700057,0.015513499110832583,-0.010129651383990022,0.04102621069246065,0.10586904801401026,-0.06560716406061032,0.004378887382095268,0.03139074869348277,-0.11190796373588649,-0.08197356826808735,-0.28803322342816345,0.026721273722601042
2531,11.014953900012188,0.002228930383711847,0.016746986719306578,-0.01068721878527028,0.04104456633645267,0.10600354307763847,-0.06609623029856748,0.00402160264606212,0.030130224847798398,-0.11178672475908029,-0.08141755048332877,-0.2884374439623138,0.028734639125719125
2532,11.019235700005083,0.002670922427993541,0.01738955275365208,-0.010884717767909467,0.0410613647241577,0.10613252206252968,-0.06658474701100167,0.003666775846349828,0.028868016318797537,-0.11165667724672745,-0.08084954765457321,-0.28880407831784377,0.03075006910308203
2533,11.02318090001063,0.0029807546908246084,0.018022367853930812,-0.011155232999095575,0.041076616719160096,0.10625597797698778,-0.06707267567263975,0.0033144591263942636,0.027604287533801328,-0.11151781271132961,-0.08026969374677215,-0.2891331321249863,0.03276731797902405
2534,11.029136000011931,0.0034436903158937206,0.018645726585509254,-0.011365002913069163,0.041090333412096426,0.10637390454824967,-0.06755997772372044,0.002964704037304883,0.026339202878036313,-0.1113701237414272,-0.07967812557675245,-0.28942461875635406,0.03478613926226604
2535,11.033497700002044,0.0034436903158937206,0.018645726585509254,-0.011365002913069163,0.041102526118034,0.10648629622219821,-0.06804661457468508,0.002617561525437542,0.02507292666075198,-0.1112136040050816,-0.07907498278464015,-0.2896785593104636,0.03680628568094938
2536,11.037459600003784,0.0036371624579420356,0.019226950853460555,-0.011674700081143673,0.04111320637379497,0.10659314816292716,-0.06853254761088298,0.0022730819200945103,0.02380562308141543,-0.1110482482532024,-0.07846040780441611,-0.2898949825930963,0.03882750921784225
2537,11.041653500011307,0.004382818336875776,0.020495232287459374,-0.012167477161011858,0.04112238593522666,0.10669445625215856,-0.06901773819729075,0.0019313149213554708,0.02253745619599259,-0.11087405232271919,-0.0778345458336095,-0.2900739250965055,0.04084956114571274
2538,11.04568310000468,0.005118884918743261,0.021214426615600412,-0.012346599148320673,0.041130076774418864,0.10679021708851302,-0.0695021476832449,0.001592309588043279,0.021268589883325455,-0.11069101313959756,-0.07719754480213527,-0.29021543097647956,0.042872192062863426
2539,11.050148500013163,0.00515183730487395,0.021737677458813782,-0.012720291578123233,0.04113629107686878,0.1068804279866324,-0.06998573740718725,0.0012561143258282281,0.019999187811614826,-0.11049912872169866,-0.07654955534028186,-0.2903195520272709,0.044895151928822034
2540,11.054074600004242,0.005741258972535132,0.0225030355118608,-0.012889024001434464,0.04114104123859423,0.10696508697615636,-0.07046846870142215,0.0009227768754745435,0.01872941340501792,-0.11029839818148186,-0.07589073074585646,-0.29038634765440186,0.04691819010018293
2541,11.057361400002264,0.005741258972535132,0.0225030355118608,-0.012889024001434464,0.041144339863195954,0.10704419280055325,-0.0709503028968849,0.0005923443012327858,0.01745942981037011,-0.11008882172855042,-0.07522122695049473,-0.29041588484535946,0.0489410553665938
2542,11.060968300007517,0.005817700359695121,0.022952604088848777,-0.013312000359634786,0.04114619975886958,0.10711774491580602,-0.07143120132792027,0.00026486297938181836,0.016189399864040083,-0.10987040067203932,-0.07454120248514201,-0.2904082381381894,0.05096349598688203
2543,11.0648407000117,0.006530487468868062,0.02416073204458398,-0.013837923290745072,0.04114663393536793,0.10718574348895438,-0.07191112533707052,-5.96214130760473e-05,0.014919486058927595,-0.10964313742284486,-0.07385081844471346,-0.2903634895880032,0.05298525972531559
2544,11.069648100004995,0.006856000609605982,0.02486267876825953,-0.014190766744157144,0.04114565560091438,0.1072481893964943,-0.0723900362798725,-0.0003810639095631491,0.013649850511613014,-0.10940703549569529,-0.07315023845194132,-0.29028172873141284,0.05500609388799301
2545,11.073080600006506,0.007093222742076862,0.02544954215191418,-0.014602328389474055,0.04114327815906786,0.10730508422263592,-0.07286789552966326,-0.0006994202649142699,0.012380654929667759,-0.10916209951106186,-0.07243962862041788,-0.29016305254890684,0.05702574535935711
2546,11.077290900007938,0.007516178254820912,0.02611099690481639,-0.014873635535249662,0.04113951520553998,0.10735643025742048,-0.07334466448239371,-0.0010146469662006222,0.011112060579134688,-0.10890833519690989,-0.07171915751684266,-0.29000756542518275,0.05904396063882709
2547,11.081549900001846,0.007907506046317368,0.026770466732781592,-0.015198315898018573,0.0411343805249648,0.10740223049469735,-0.07382030456144952,-0.0013267012433865564,0.009844228252187393,-0.10864574939028963,-0.07098899612248291,-0.2898153791074516,0.06106048587754356
2548,11.085579800012056,0.008408423260658889,0.027432694503435398,-0.01543784344194236,0.041127888087622064,0.10744248862996182,-0.07429477722247853,-0.0016355410798155638,0.008577318234977292,-0.1083743500387666,-0.07024931779385668,-0.2895866126617315,0.06307506691522127
2549,11.090145599999232,0.008754365176582513,0.028140121870349845,-0.015742755737590555,0.041120052046114734,0.10747720905805468,-0.07476804395822434,-0.0019411252225221872,0.007311490275677417,-0.10809414620169093,-0.06950029822264744,-0.28932139242714877,0.06508744931710383
2550,11.093952100010938,0.00894056813960317,0.028921243173356634,-0.016155094006368047,0.041110886732001424,0.1075063968707243,-0.07524006630336522,-0.0022434131923664874,0.006046903552731649,-0.107805148051306,-0.06874211539485996,-0.28901985196826285,0.06709737841101497
2551,11.09751690000121,0.00894056813960317,0.028921243173356634,-0.016155094006368047,0.04110040665238453,0.10753005785405262,-0.07571080583935778,-0.0025423652939877642,0.004783716643318053,-0.10750736687369536,-0.06797494954922746,-0.2886821320254344,0.06910459932450087
2552,11.10194570000749,0.009248515460672154,0.029553217936510067,-0.01648200927766024,0.041088626486455,0.10754819848574557,-0.07618022419928476,-0.0028379426255742708,0.0035220874920349195,-0.10720081506956777,-0.067198983134881,-0.28830838046325225,0.07110885702205877
2553,11.106268300005468,0.010139366235756713,0.030900340375994345,-0.01710611821362696,0.041075561081994505,0.10756082593228901,-0.07664828307270587,-0.0031301070884456952,0.0022621733798180274,-0.10688550615488003,-0.06641440076829139,-0.28789875221703803,0.07310989634244627
2554,11.10980190000555,0.010139366235756713,0.030900340375994345,-0.01710611821362696,0.041061225451835805,0.10756794804597063,-0.07711494421051089,-0.003418821396445247,0.0010041308930975761,-0.1065614547612968,-0.06562138918949527,-0.2874534092374478,0.07510746203606636
2555,11.113204200009932,0.010139366235756713,0.030900340375994345,-0.01710611821362696,0.04104563477028209,0.10756957336176882,-0.07758016942977485,-0.003704049085138232,-0.0002518841067968723,-0.1062286766364876,-0.06482013721761602,-0.28697252043319094,0.07710129880242253
2556,11.1167967000074,0.010417529862556318,0.03155506344285123,-0.017583333177513726,0.04102880436948621,0.10756571109410971,-0.0780439206186148,-0.00398575452081405,-0.001505716513975204,-0.10588718864426054,-0.06401083570569092,-0.28645626161188753,0.07909115132763876
2557,11.120857200003227,0.011103068749721685,0.0329000141531045,-0.018210564618072855,0.041010749735790546,0.10755637113349317,-0.07850615974104751,-0.004263902909288612,-0.002757212008061171,-0.10553700876453306,-0.06319367749481633,-0.2859048154190867,0.08107676432203903
2558,11.125014600009308,0.011491710921359836,0.033517056213808835,-0.018582664351697087,0.04099148650602829,0.10754156404298926,-0.07896684884184745,-0.004538460304504217,-0.00400621708399437,-0.10517815609313931,-0.06236885736762301,-0.28531837127546955,0.08305788255778149
2559,11.129036500002258,0.011896635884710434,0.03405655843295091,-0.01897756775361516,0.04097103046378689,0.10752130105460575,-0.0794259500514045,-0.004809393616923997,-0.005252579081551845,-0.10481065084147405,-0.06153657200109409,-0.28469712531226027,0.08503425090654167
2560,11.133242000010796,0.012131553338936854,0.03472251656059163,-0.019448627250965366,0.040949397535634424,0.10749559406552767,-0.0798834255905812,-0.005076670621718092,-0.006496146214581495,-0.10443451433597248,-0.060697019918738424,-0.284041280304867,0.08700561437723942
2561,11.13769940000202,0.012201278453818073,0.03528261226790057,-0.020010005476356393,0.040926603787309834,0.10746445563423027,-0.0803392377755685,-0.00534025996673877,-0.0077367675999395905,-0.1040497690174257,-0.05985040144213218,-0.28335104560477764,0.08897171815380449
2562,11.141641599999277,0.012431335166319253,0.03589060950969465,-0.020422625763093533,0.04090266541987803,0.10742789897646748,-0.08079334902273956,-0.005600131180281739,-0.008974293286124797,-0.10365643844013166,-0.058996918641841915,-0.2826266370697342,0.0909323076329762
2563,11.146000799999456,0.01262269315415483,0.03646470842572524,-0.02114037141633942,0.04087759876585096,0.10738593796113734,-0.08124572185350067,-0.005856254678630987,-0.0102085742816012,-0.1032545472708812,-0.058136775287742595,-0.2818682769922146,0.09288712846213193
2564,11.150105700013228,0.01262269315415483,0.03646470842572524,-0.02114037141633942,0.040851420285275615,0.1073385871060255,-0.08169631889913845,-0.0061086017733845005,-0.011439462582802973,-0.10284412128777931,-0.05727017679874467,-0.28107619402624884,0.09483592657713938
2565,11.15353030001279,0.01262269315415483,0.03646470842572524,-0.02114037141633942,0.04082414656179024,0.1072858615734288,-0.08214510290566267,-0.0063571446785582915,-0.01266681120181344,-0.10242518737890119,-0.056397330191943866,-0.2802506231125958,0.09677844824022719
2566,11.157029400012108,0.013026049605190701,0.037059236212689334,-0.02169711086056772,0.04079579429864961,0.1072277771656607,-0.082592036738644,-0.0066018565174662276,-0.013890474193711406,-0.10199777354078271,-0.05551844403120754,-0.2793918054023099,0.09871444007786875
2567,11.16058750000957,0.013026049605190701,0.037059236212689334,-0.02169711086056772,0.040766380314720435,0.10716435032044042,-0.0830370833880461,-0.00684271132937324,-0.015110306683577731,-0.10156190887674561,-0.054633728375211695,-0.27849998817872335,0.10064364911867414
2568,11.164867600004072,0.014020780367619707,0.03881656197097691,-0.022985606354122366,0.04073592154044792,0.10709559810616706,-0.08348020597305146,-0.007079684075919548,-0.016326164893155224,-0.1011176235950577,-0.053743394724943445,-0.27757542477787306,0.10256582283128486
2569,11.169042300010917,0.0148032678229713,0.04002834584104694,-0.023957242021744936,0.04070443501379453,0.10702153821708048,-0.08392136774688005,-0.0073127506473135975,-0.017537906167155053,-0.10066494900692825,-0.05284765597068347,-0.27661837450739984,0.10448070916226679
2570,11.173264500001096,0.015138114921479137,0.04059036916600919,-0.024429843575174307,0.04067193787615219,0.1069421889683102,-0.0843605321016001,-0.00754188786829146,-0.018745388999202948,-0.10020391752433913,-0.051946726338483615,-0.2756291025639495,0.10638805657399616
2571,11.176645700004885,0.015138114921479137,0.04059036916600919,-0.024429843575174307,0.04063844736822887,0.10685756929081405,-0.08479766257292994,-0.007767073503840506,-0.019948473057418738,-0.09973456265771179,-0.0510408213361547,-0.27460787994910524,0.10828761408253362
2572,11.180115200011642,0.015138114921479137,0.04059036916600919,-0.024429843575174307,0.0406039808259107,0.10676769872620777,-0.08523272284503083,-0.007988286264685252,-0.021147019209622933,-0.09925691901341,-0.05013015769877983,-0.27355498338388073,0.11017913129548143
2573,11.18457870000566,0.015489894623734835,0.04125465515212984,-0.024825698401850872,0.04056855567610038,0.10667259742148721,-0.08566567675529013,-0.008205505812533351,-0.02234088954816417,-0.09877102229107822,-0.04921495333376855,-0.2724706952218049,0.11206235844981867
2574,11.189994600004866,0.016642274270484377,0.043148002905085636,-0.026150958345003247,0.04053218943253309,0.10657228612364429,-0.08609648829909362,-0.008418712765079814,-0.023529947414361395,-0.09827690928081598,-0.04829542726546766,-0.27135530336062963,0.11393704644970948
2575,11.19475510000484,0.01688238890208205,0.04379918471869172,-0.026581124030726957,0.04049489969157085,0.10646678617417835,-0.08652512163458641,-0.008627888700767566,-0.024714057422554867,-0.09777461786018823,-0.047371799579344204,-0.2702091011526936,0.11580294690427932
2576,11.1983506000106,0.017371758167565216,0.044454929355154556,-0.026828656886221967,0.04045670412797682,0.10635611950350442,-0.08695154108742165,-0.008833016163302539,-0.025893085483760174,-0.09726418699107141,-0.04644429136575677,-0.26903238731397355,0.11765981216535382
2577,11.201919200000702,0.017371758167565216,0.044454929355154556,-0.026828656886221967,0.0404176204906705,0.1062403086252599,-0.08737571115549644,-0.009034078665921487,-0.027066898828919567,-0.09674565671633505,-0.045513124663330844,-0.2678254658318567,0.11950739536515471
2578,11.206039100012276,0.01771629935990923,0.0451033613751791,-0.02712372364687444,0.04037766659846509,0.10611937663051119,-0.08779759651367441,-0.009231060695410843,-0.02823536603174508,-0.09621906815635971,-0.04457852240195498,-0.2665886458716656,0.12134545045394843
2579,11.210263400003896,0.018259413139753117,0.04629689981809466,-0.027857197786139168,0.040336860335788,0.10599334718186217,-0.08821716201849374,-0.009423947715874978,-0.02939835703114804,-0.09568446350539138,-0.043640708345414524,-0.26532224168196916,0.12317373223764183
2580,11.21454870000889,0.01856613897661491,0.04688504245157279,-0.028246034202648384,0.04029521964838565,0.10586224450746654,-0.08863437271286,-0.009612726172252334,-0.030555743153249836,-0.09514188602773298,-0.04269990703367972,-0.264026572498713,0.12499199641532009
2581,11.218906400012202,0.01881872009563282,0.0474518018599996,-0.028566098312368553,0.0402527625390136,0.1057260933949449,-0.08904919383072303,-0.009797383493577975,-0.031707397132968995,-0.09459138005377264,-0.041756343724865114,-0.26270196244820404,0.1267999996167216
2582,11.223131999999168,0.019198657015831497,0.04808352442293027,-0.028855821736814356,0.04020950706311311,0.10558491918520854,-0.08946159080173681,-0.009977908095991193,-0.03285319313517965,-0.09403299097584858,-0.04081024433687742,-0.26134874044898304,0.12859749943964513
2583,11.227453700004844,0.019515675517317522,0.04861189523948054,-0.02916835815075406,0.0401654713244757,0.10543874776619115,-0.08987152925590149,-0.01015428938548688,-0.03399300677543679,-0.09346676524395066,-0.039861835388769015,-0.2599672401126197,0.13038425448728472
2584,11.232095500003195,0.019515675517317522,0.04861189523948054,-0.02916835815075406,0.040120673470897,0.10528760556649079,-0.09027897502818703,-0.010326517760409428,-0.0351267151402637,-0.09289275036125906,-0.038911343941814426,-0.25855779964346737,0.13216002440548655
2585,11.237104500003625,0.019515675517317522,0.04861189523948054,-0.02916835815075406,0.0400751316898211,0.1051315195489239,-0.09068389416313746,-0.010494584613687963,-0.036254196806997034,-0.09231099487952016,-0.037958997540327166,-0.2571207617374118,0.1339245699199233
2586,11.24131730000954,0.019845285413410584,0.04914241544021704,-0.02941124586162947,0.04002886420397673,0.10497051720399313,-0.09108625291945488,-0.010658482334811776,-0.037375331863185486,-0.0917215483942603,-0.03700502415223493,-0.25565647347964765,0.1356776528731807
2587,11.244834700002684,0.020743614656238148,0.050773459095171246,-0.03021782132542428,0.03998188926700632,0.1048046265432712,-0.09148601777456258,-0.010818204311544906,-0.03849000192553793,-0.09112446153983779,-0.036049652109430695,-0.25416528624151935,0.1374190362617514
2588,11.248512800011667,0.02101166087795436,0.05127905243290066,-0.030472808652748824,0.03993422515908896,0.10463387609270239,-0.0918831554291465,-0.010973744931378938,-0.03959809015841704,-0.09051978598433273,-0.03509311004791773,-0.252647555576463,0.1391484842729311
2589,11.25218660000246,0.021351211741242587,0.05180968775057828,-0.030631288930887277,0.03988589018255832,0.10445829488582328,-0.09227763281167421,-0.01112509958272318,-0.04069948129187449,-0.08990757442427562,-0.03413562684776655,-0.2511036411150882,0.14086576232161221
2590,11.256563300004927,0.021589097408719303,0.052351215765271,-0.030802453360983806,0.03983690265751694,0.10427791245690446,-0.09266941708289042,-0.011272264655831364,-0.04179406163922389,-0.08928788057921526,-0.033177431572901935,-0.24953390645943452,0.14257063708696957
2591,11.260846100005438,0.021839935307375873,0.0528558701346037,-0.030991643422006984,0.03978728091744783,0.10409275883401438,-0.09305847564028841,-0.011415237543464149,-0.04288171911414802,-0.08866075918612694,-0.032218753410738314,-0.24793871907643905,0.1442628765490346
2592,11.264541800002917,0.021839935307375873,0.0528558701346037,-0.030991643422006984,0.03973704330482432,0.10390286453200825,-0.09344477612255657,-0.01155401664128676,-0.04396234324733726,-0.08802626599366091,-0.03125982161168183,-0.24631845019065046,0.14594225002515246
2593,11.268980799999554,0.02205739326623366,0.053324482030200696,-0.0311553935826999,0.03968620816671933,0.10370826054544369,-0.09382828641399968,-0.01168860134800127,-0.045035825202655824,-0.08738445775623221,-0.030300865428517586,-0.24467347467622644,0.14760852820631826
2594,11.273022200010018,0.02244891940843984,0.05431329452128741,-0.03155058832908995,0.03963479385041546,0.10350897834142535,-0.09420897464893407,-0.011818992065213092,-0.04610205779283299,-0.08673539222795247,-0.029342114055700544,-0.24300417094825028,0.1492614831933873
2595,11.277456100011475,0.022622067207247906,0.054797744459276584,-0.03175241739600324,0.03958281869901687,0.10330504985238062,-0.0945868092160561,-0.011945190197031292,-0.047160935494676454,-0.08607912815640414,-0.028383796568568598,-0.24131092085340444,0.15090088853315442
2596,11.281588400001056,0.02272492437164657,0.0552897573974945,-0.032007206906718794,0.03953030104706405,0.10309650746876814,-0.09496175876278332,-0.012067198149402466,-0.048212354463805084,-0.08541572527625767,-0.027426141862496513,-0.23959410956003818,0.1525265192542976
2597,11.285629300007711,0.02284052508934667,0.055754933558757575,-0.0322614829077956,0.03947725921615238,0.10288338403172163,-0.09533379219956757,-0.012185019329177997,-0.04925621254889863,-0.08474524430273217,-0.026469378592009384,-0.2378541254476667,0.15413815190318092
2598,11.290183800010707,0.02299583930336019,0.05624773234732038,-0.03256502390453348,0.03942371151055573,0.10266571282563122,-0.09570287870417865,-0.012298658142914589,-0.05029240930546209,-0.08406774692490038,-0.025513735109874317,-0.23609135999593892,0.15573556457951185
2599,11.294020200002706,0.023153168089346338,0.056783005988455135,-0.032903822506780665,0.03936967621285614,0.10244352757066377,-0.09606898772595755,-0.01240811999540803,-0.051320846009102486,-0.0833832957988383,-0.02455943940618901,-0.234306207673112,0.15731853697184883
2600,11.298654000012904,0.02323520393922248,0.05726466874640027,-0.033217509811750076,0.03931517157958089,0.10221686241522442,-0.09643208899003877,-0.012513411287960229,-0.052341425668315865,-0.08269195454062045,-0.023606719047486045,-0.23249906582407184,0.1588868503929547
2601,11.302443400010816,0.023265388098164176,0.0577147129801924,-0.033567399264703805,0.03926021583684777,0.10198575192836142,-0.09679215250154118,-0.012614539416379581,-0.05335405303678268,-0.08199378771916044,-0.02265580111587171,-0.23067033455793648,0.16044028781499056
2602,11.306853400004911,0.0233387929824115,0.05822674368314886,-0.03391416399865605,0.03920482717601967,0.10175023109211682,-0.09714914854972702,-0.012711512768714883,-0.054358634625169655,-0.08128886084889758,-0.021706912148218117,-0.22882041663527994,0.1619786339045452
2603,11.3110871000099,0.02341304869073837,0.05866651196408827,-0.03432181877560997,0.03914902374936974,0.10151033529382582,-0.09750304771212881,-0.012804340722723096,-0.055355078712436355,-0.08057724038232993,-0.020760278075427567,-0.2269497173550144,0.16350167505749377
2604,11.314739600013128,0.023433369714006565,0.059065528511110195,-0.0347165478977488,0.03909282366575867,0.10126610031836657,-0.09785382085864346,-0.01289303364307144,-0.05634329535664522,-0.07985899370239444,-0.01981612416178809,-0.22505864444096838,0.16500919943368209
2605,11.319078400003493,0.02348306591928499,0.059489382557129614,-0.03520051311883714,0.0390362449863251,0.1010175623403627,-0.09820143915559319,-0.012977602878274265,-0.05732319640527403,-0.07913418911469551,-0.01887467494443903,-0.2231476079281982,0.1665009969914309
2606,11.324324300003354,0.02349026453340878,0.05987498660415679,-0.03571932929262155,0.03897930572019037,0.10076475791634035,-0.09854587406975265,-0.013058060757365271,-0.05829469550502981,-0.07840289583958254,-0.01793615417296563,-0.22121702004907212,0.16797685952185548
2607,11.328310800003235,0.023510553128009176,0.06029837419924775,-0.03620765109293673,0.038922023820178696,0.10050772397684149,-0.09888709737234143,-0.013134420586305689,-0.05925770811116365,-0.0776651840040776,-0.01700078474914156,-0.21926729511916354,0.169436580682996
2608,11.332396100013284,0.02357353389331274,0.06068165316660837,-0.03667982213817713,0.03886441717855387,0.10024649781849611,-0.09922508114298086,-0.01320669664412909,-0.0602121514962856,-0.07692112463365419,-0.016068788666838224,-0.21729884942299085,0.17087995603375394
2609,11.335810300006417,0.02357353389331274,0.06068165316660837,-0.03667982213817713,0.03880650362277395,0.09998111709605553,-0.0995597977736144,-0.01327490417882365,-0.06115794475867945,-0.07617078964386811,-0.015140386952119646,-0.21531210109964077,0.1723067830676293
2610,11.34003630001098,0.023550232463174486,0.06102145357940009,-0.03719906619199048,0.03874830091126497,0.09971161981438946,-0.09989121997239075,-0.013339059402952685,-0.06209500883011707,-0.07541425183184114,-0.014215799603541695,-0.2133074700283118,0.1737168612462542
2611,11.34389519999968,0.02355078982102571,0.06177254329123116,-0.03827747288974846,0.03868982672921484,0.09943804432044862,-0.10021932076750945,-0.01339917948901443,-0.06302326648317234,-0.074651584867598,-0.01329524553267461,-0.21128537771381634,0.17510999203271838
2612,11.348053300011088,0.02357540131975883,0.06211566380656189,-0.038820879196371526,0.038631098684388236,0.09916042929519565,-0.10054407351102827,-0.013455282564542037,-0.06394264233803425,-0.07388286328525688,-0.012378942504867568,-0.20924624717207935,0.17648597892468185
2613,11.352440900009242,0.023575625338398278,0.06246960225903777,-0.039303116291477425,0.03857213430296379,0.09887881374550607,-0.10086545188263223,-0.013507387706944936,-0.06485306286881931,-0.07310816247407464,-0.011467107080274076,-0.2071905028156719,0.17784462748727045
2614,11.35777919999964,0.023575625338398278,0.06246960225903777,-0.039303116291477425,0.03851295102539448,0.09859323699604142,-0.10118342989336342,-0.013555514938092761,-0.06575445640938389,-0.0723275586693477,-0.010559954555156785,-0.20511857033941716,0.17918574538574888
2615,11.361444599999231,0.02359201534177608,0.0627961893482309,-0.03976714223620113,0.03845356620229234,0.09830373868109674,-0.10149798188931163,-0.013599685218643194,-0.06664675315863709,-0.0715411289431694,-0.009657698903490388,-0.2030308766061067,0.18050914241796562
2616,11.366273999999976,0.023568280987968534,0.06357018743026051,-0.0408383600728982,0.03839399709033837,0.09801035873642475,-0.10180908255526469,-0.01363992044211504,-0.06752988518535487,-0.07074895119504494,-0.008760552718881109,-0.20092784953236417,0.18181463054656516
2617,11.373070900008315,0.023507249767867472,0.06386366672059801,-0.0413232860923295,0.03833426084821917,0.09771313739103935,-0.1021167069183179,-0.013676243428708096,-0.06840378643249577,-0.06995110414236523,-0.007868727156821211,-0.19880991797469394,0.18310202393096303
2618,11.377307200003996,0.023419907322501,0.06448041565682261,-0.04223657133267842,0.03827437453259126,0.09741211515900108,-0.10242083035144203,-0.01370867791887136,-0.06926839272101949,-0.06914766731074047,-0.006982431877296891,-0.19667751161574945,0.18437113895907858
2619,11.381575500010513,0.023470845813681,0.06484927854576399,-0.042600962807864386,0.03821435509407414,0.09710733283118653,-0.1027214285770092,-0.0137372485666212,-0.07012364175320929,-0.06833872102419437,-0.0061018749877678165,-0.19453106085085872,0.18562179427882072
2620,11.38561500000651,0.023470845813681,0.06484927854576399,-0.042600962807864386,0.03815421937327325,0.09679883146704352,-0.1030184776702752,-0.013761980932611181,-0.07096947311549955,-0.06752434639521987,-0.005227262986536556,-0.19237099667484117,0.18685381082932173
2621,11.389885399999912,0.02348284279031838,0.06516717853722948,-0.04301961094254911,0.03809398409683401,0.0964866523863342,-0.10331195406281848,-0.01378290147695524,-0.07180582828080975,-0.06670462531469777,-0.004358800706525946,-0.19019775056915134,0.18806701187191432
2622,11.398474300003729,0.023339794861964008,0.06624422968621432,-0.04427723729080095,0.03803366587352812,0.09617083716086805,-0.10360183454593466,-0.013800037551806027,-0.07263265061038607,-0.06587964044167935,-0.0034966912594823225,-0.1880117543893852,0.18926122302084608
2623,11.40345030000026,0.02321290925494953,0.06661723995458352,-0.04477784243720258,0.03797328119037296,0.09585142760622671,-0.10388809627398601,-0.013813417393690384,-0.07344988535515197,-0.06504947519303395,-0.0026411359806224996,-0.1858134402531844,0.1904362722737268
2624,11.40729950000241,0.023166028219935467,0.0669532540588031,-0.045162594100545,0.03791284640878532,0.09552846577348315,-0.10417071676770576,-0.013823070115604002,-0.07425747965656983,-0.06421421373296286,-0.0017923343737422117,-0.18360324042857296,0.19159199004170469
2625,11.410670500001288,0.023166028219935467,0.0669532540588031,-0.045162594100545,0.03785237776077026,0.09520199394091734,-0.10444967391745655,-0.013829025698867367,-0.07505538254701502,-0.0633739409623811,-0.0009504840568036058,-0.18138158722276163,0.19272820917936645
2626,11.415136399999028,0.023233916834858245,0.06733032976630515,-0.04553255049872944,0.03779189134514615,0.0948720546057304,-0.10472494598644225,-0.013831314984745144,-0.07584354494966442,-0.06252874250816817,-0.00011578070801923388,-0.1791489128714545,0.19384476501435655
2627,11.419741100005922,0.023351767987489603,0.06805774940875375,-0.04633209344789266,0.03773140312380708,0.094538690475759,-0.1049965116138725,-0.0138299696658312,-0.07662191967790137,-0.061678704712289256,0.0007115819875501419,-0.1769056494286919,0.19494149537670996
2628,11.423869000005652,0.023351767987489603,0.06805774940875375,-0.04633209344789266,0.037670928918023636,0.09420194446119291,-0.10526434981807946,-0.013825022277201561,-0.07739046143423961,-0.0608239146207878,0.0015314123908667502,-0.1746522286572629,0.19601824062789364
2629,11.427406900009371,0.02320515831819817,0.06837514430879367,-0.04686722100798683,0.03761048440478303,0.0938618596662976,-0.10552843999958643,-0.013816506187337702,-0.07814912680876863,-0.05996445997265101,0.002343520961238997,-0.17238908191972152,0.19707484368955214
2630,11.431240600009914,0.02320515831819817,0.06837514430879367,-0.04686722100798683,0.037550085113169616,0.09351847938114417,-0.1057887619441276,-0.01380445558882257,-0.07889787427712357,-0.059100429188549006,0.0031477203080797767,-0.1701166400700399,0.19811115007195312
2631,11.43624500000442,0.02320515831819817,0.06837514430879367,-0.04686722100798683,0.03748974642078673,0.09317184707334855,-0.10604529582561854,-0.013788905488811936,-0.0796366641979825,-0.05823191135944882,0.003943825242083216,-0.1678353333459302,0.1991270079021273
2632,11.439904200000456,0.02339064487330283,0.06907654691695876,-0.04760198308393608,0.037429483550221,0.09282200637982241,-0.10629802220907608,-0.013769891699283682,-0.08036545881009403,-0.057358996235104646,0.004731652825803327,-0.16554559126186838,0.2001222679516979
2633,11.444364400013,0.023287734611745613,0.06992960041978225,-0.04913678683268813,0.0373693115655501,0.09246900109853831,-0.10654692205348731,-0.013747450827067752,-0.08108422222883806,-0.056481774212425666,0.005511022423618226,-0.1632478425028523,0.2010967836643942
2634,11.4486762000015,0.023291136324926687,0.07016560191226905,-0.04962323547670183,0.03730924536889497,0.09211287518031135,-0.10679197671462676,-0.013721620263659475,-0.08179292044232332,-0.05560033632372295,0.00628175575106376,-0.1609425148189253,0.20205041118324438
2635,11.45226660001208,0.023294875868721535,0.07041934424224941,-0.050157934081010706,0.037249299697017575,0.09175367272059892,-0.10703316794782108,-0.013692438174819127,-0.08249152130702517,-0.054714774224837094,0.007043676923520546,-0.1586300349204973,0.20298300937744204
2636,11.456555800003116,0.02321714450150574,0.07065753089348999,-0.05070915024769154,0.037189489117965116,0.09139143795132094,-0.10727047791066109,-0.013659943489960594,-0.08317999454296637,-0.053825180183148046,0.007796612504238656,-0.15631082837449511,0.20389443986888217
2637,11.460692400010885,0.023184222340624318,0.07091276157760593,-0.05126064021305588,0.03712982802776131,0.09102621523270246,-0.10750388916566085,-0.013624175891332127,-0.0838583117284447,-0.052931647065468386,0.00854039155168433,-0.15398531950137262,0.20478456705836182
2638,11.46508900000481,0.02309441000514715,0.07113398788754101,-0.051820344586823594,0.0370703306471458,0.09065804904514062,-0.10773338468286338,-0.013585175802992257,-0.0845264462943107,-0.05203426832582146,0.009274845666193396,-0.15165393127301047,0.20565325815144178
2639,11.46894850001263,0.02306854202201546,0.07137914310506246,-0.052368020919326914,0.03701101101836252,0.09028698398109768,-0.10795894784239188,-0.013542984379583914,-0.08518437351779998,-0.05113313799310622,0.009999809035916185,-0.14931708521153406,0.20650038318396438
2640,11.473036200011848,0.02303521755010295,0.07162536468343952,-0.052863466990998385,0.03695188300199812,0.08991306473702242,-0.10818056243694593,-0.01349764349490987,-0.08583207051592437,-0.05022835065865032,0.01071511848203905,-0.14697520128907815,0.20732581504722247
2641,11.477111800006242,0.02306075517906534,0.0718551669695947,-0.05337496621076063,0.036892960273871234,0.08953633610530153,-0.10839821267424196,-0.013449195730312662,-0.08646951623842704,-0.04932000146365324,0.011420613503267778,-0.14462869782852694,0.2081294295127759
2642,11.481187500001395,0.023046670890802094,0.07209553558779688,-0.05390988402965424,0.036834256321973485,0.08915684296624292,-0.10861188317939773,-0.013397684362862159,-0.0870966914603062,-0.048408186086520734,0.012116136319558449,-0.14227799140525718,0.20891110525691137
2643,11.48534890000883,0.023019315592539464,0.0723205028917716,-0.05444218414400575,0.03677578444346285,0.08877463028009279,-0.10882155899726052,-0.013343153353354132,-0.08771357877391207,-0.04749300073009232,0.01280153191508157,-0.13992349674991206,0.2096707238847405
2644,11.489415500007452,0.023047491709614103,0.07256981542406647,-0.05499398422236916,0.03671755774170997,0.08838974307908797,-0.10902722559467881,-0.01328564733412317,-0.08832016258062138,-0.046574542108763724,0.013476648080405457,-0.13756562665223326,0.21040816995393166
2645,11.49291150001227,0.023047491709614103,0.07256981542406647,-0.05499398422236916,0.03665958912339815,0.08800222645954567,-0.1092288688627171,-0.013225211596673433,-0.08891642908209432,-0.04565290743550578,0.0141413354538852,-0.13520479186597684,0.21112333099806949
2646,11.496581200000946,0.023047491709614103,0.07256981542406647,-0.05499398422236916,0.03660189129567795,0.0876121255739923,-0.10942647511881443,-0.013161892079130807,-0.08950236627111888,-0.04472819440878152,0.01479544756224369,-0.13284140101493844,0.21181609754963807
2647,11.50013190000027,0.023047491709614103,0.07256981542406647,-0.05499398422236916,0.036544476763377125,0.08721948562333322,-0.1096200311088862,-0.013095735353520002,-0.0900779639220473,-0.04380050119936334,0.015438840860331498,-0.13047586050011425,0.21248636316262298
2648,11.504394900010084,0.023147392369399205,0.0728262772635634,-0.05554879958714724,0.03648735782626678,0.08682435184906549,-0.10980952400936873,-0.013026788612870223,-0.09064321358082977,-0.04286992643705188,0.016071374770052566,-0.12810857440802156,0.213134024434727
2649,11.508406000008108,0.023446930970781436,0.0737189014738739,-0.05726828165781245,0.036430546576384504,0.08642676952553521,-0.10999494142920688,-0.012955099658153026,-0.09119810855465034,-0.04193656919729866,0.01669291171844306,-0.12573994442020425,0.2137589810291944
2650,11.51237170000968,0.023446930970781436,0.0737189014738739,-0.05726828165781245,0.03637405489541514,0.08602678395224118,-0.11017627141178368,-0.012880716885056064,-0.09174264390117012,-0.041000528987733924,0.01730331717489092,-0.1233703697239481,0.2143611356962396
2651,11.518357300010392,0.02382370465355082,0.07453575906713078,-0.05910544449977638,0.036317894452130246,0.08562444044618682,-0.11035350243679223,-0.012803689270596445,-0.09227681641738304,-0.040061905734601534,0.01790245968748402,-0.12100024692422956,0.21494039429407555
2652,11.521790700004203,0.02382370465355082,0.07453575906713078,-0.05910544449977638,0.03626207669988673,0.08521978433428208,-0.1105266234220496,-0.012724066359577636,-0.09280062462808958,-0.03912079976910256,0.018490210918475008,-0.11862996995692107,0.2154966658095377
2653,11.525287900003605,0.023950530418023617,0.0748504772605356,-0.059698428851065403,0.036206612874185286,0.0848128609457968,-0.11069562372525203,-0.012641898250893756,-0.09331406877399409,-0.03817731181364933,0.019066445678851282,-0.11625993000327495,0.21602986237829977
2654,11.529217800009064,0.024040923148973648,0.07509628628481053,-0.06034457304352375,0.036151513990289146,0.08440371560486716,-0.1108604931456713,-0.01255723558368531,-0.09381715079943147,-0.03723154296803179,0.019631041961998788,-0.11389051540570783,0.21653989930467687
2655,11.53362260000722,0.024126898345595407,0.0753144058315953,-0.06095164669846332,0.03609679084090376,0.08399239362305692,-0.11102122192579106,-0.012470129523350325,-0.09430987433972889,-0.03628359469549815,0.020183880976448552,-0.11152211158490696,0.21702669508101083
2656,11.537258800002746,0.02413785525165235,0.07555513347292023,-0.06159600255320134,0.03604245399391789,0.08357894029197538,-0.11117780075288258,-0.012380631747414939,-0.09479224470820845,-0.03533356880875153,0.020724847177695252,-0.1091551009582789,0.21749017140663324
2657,11.540717399999266,0.02413785525165235,0.07555513347292023,-0.06159600255320134,0.03598851379020646,0.0831634008759536,-0.11133022076051918,-0.012288794431267546,-0.09526426888283725,-0.03438156745586462,0.021253828299077446,-0.10678986285976055,0.21793025320640225
2658,11.543903800004044,0.02413785525165235,0.07555513347292023,-0.06159600255320134,0.035934980341495656,0.08274582060478095,-0.11147847353002922,-0.01219467023376058,-0.09572595549253064,-0.033427693106114244,0.021770715381709296,-0.10442677346101208,0.21834686864880773
2659,11.548840500006918,0.024205953020921017,0.07582980993903074,-0.062207943452506964,0.035881863528290675,0.08232624466650333,-0.11162255109188686,-0.012098312282684053,-0.09617731480311516,-0.03247204853573789,0.022275402803454036,-0.102066205694011,0.2187399491636413
2660,11.55226580001181,0.024205953020921017,0.07582980993903074,-0.062207943452506964,0.03582917299786698,0.08190471820028478,-0.11176244592703984,-0.011999774160115021,-0.09661835870295742,-0.03151473681361396,0.022767788306929715,-0.09970852917506552,0.2191094294592274
2661,11.55632940000214,0.02431636732642729,0.07638300857870287,-0.06400211687632329,0.03577691816232541,0.08148128628933389,-0.11189815096817377,-0.011899109887647225,-0.09704910068826546,-0.030555861286867592,0.023247773026538018,-0.09735411013026479,0.21945524753921078
2662,11.560662600008072,0.024293067095181163,0.07671487710537193,-0.06516451660543902,0.035725108196711625,0.08105599395389658,-0.11202965960091224,-0.011796373911505204,-0.09746955584806864,-0.02959552556640381,0.023715261514507202,-0.09500331132238318,0.21977734471889618
2663,11.567181100006565,0.024334844798998917,0.07687244882008147,-0.06570400160648877,0.03567375203720039,0.08062888614431636,-0.11215696566495201,-0.011691621087547231,-0.09787974084888214,-0.028633833512370258,0.024170161765940622,-0.09265649197925484,0.22007566564113556
2664,11.571413400000893,0.024362288124038373,0.07699992105838573,-0.06625648330266726,0.035622858379344965,0.08020000773416365,-0.11228006345513328,-0.01158490666616139,-0.09827967391906278,-0.027670889219551263,0.024612385242862658,-0.09031400772363432,0.22035015829176047
2665,11.57725180000125,0.02439641706348156,0.0772319982300301,-0.06732094725751897,0.035572435676392254,0.0797694035134351,-0.11239894772244495,-0.011476286277059189,-0.09866937483286312,-0.026706797002695324,0.025041846897254208,-0.08797621050455857,0.22060077401455466
2666,11.580714300012914,0.02439641706348156,0.0772319982300301,-0.06732094725751897,0.03552249213766414,0.07933711818182393,-0.11251361367496414,-0.011365815913971108,-0.09904886489419057,-0.025741661381778174,0.02545846519307014,-0.0856434485302249,0.2208274675257639
2667,11.584230799999204,0.02439641706348156,0.0772319982300301,-0.06732094725751897,0.03547303572700519,0.07890319634206233,-0.11262405697872944,-0.011253551919248546,-0.09941816692007797,-0.02477558706720355,0.025862162127231483,-0.08331606620239936,0.2210301969281387
2668,11.58872300000803,0.024463737349785093,0.07734014007948234,-0.06777560399907381,0.03542407416129718,0.07846768249333723,-0.1127302737585477,-0.011139550968376585,-0.09977730522387286,-0.023808678944943856,0.026252863249585444,-0.08099440405236902,0.2212089237245063
2669,11.592128400006914,0.024463737349785093,0.07734014007948234,-0.06777560399907381,0.03537561490904074,0.07803062102478028,-0.11283226059873395,-0.011023870054402132,-0.10012630559815244,-0.022841042061622664,0.02663049768182655,-0.07867879867845064,0.22136361283086653
2670,11.595719200005988,0.024631704454870246,0.07754916427234154,-0.06872869809917259,0.03532766518900477,0.07759205620903394,-0.11293001454378392,-0.010906566472281937,-0.10046519529737172,-0.021872781609541255,0.026994998135372785,-0.07636958268506745,0.22149423258900822
2671,11.599166500003776,0.024631704454870246,0.07754916427234154,-0.06872869809917259,0.03528023196894399,0.07715203219589462,-0.11302353309897815,-0.010787697803155102,-0.10079400302025156,-0.020904002911651422,0.027346300928190896,-0.0740670846234062,0.22160075477864263
2672,11.602581400002236,0.024964215920960812,0.07778872099375006,-0.06963278883232271,0.03523332196438504,0.07671059300603414,-0.11311281423091811,-0.010667321898544682,-0.10111275889191378,-0.01993481140647673,0.027684346000565428,-0.07177162893366525,0.2216831546290514
2673,11.60632630001055,0.025238919210921508,0.07798919236431288,-0.07061734108305802,0.03518694163748155,0.07626778252480067,-0.11319785636799383,-0.01054549686449297,-0.10142149444576973,-0.018965312632984413,0.02800907692980639,-0.06948353588890356,0.22174141083024335
2674,11.610639100006663,0.025466276039859015,0.07809739529271106,-0.0711101492251263,0.035141097195938345,0.07582364449610017,-0.11327865840078309,-0.010422281045635076,-0.10172024260516943,-0.01799561221540998,0.028320440943890808,-0.06720312154050034,0.22177550554361752
2675,11.614942900007009,0.02568786385188634,0.07818630137099239,-0.07167531473797616,0.035095794592005194,0.07537822251635919,-0.11335521968238126,-0.010297733009215432,-0.10200903766481877,-0.017025815848036682,0.028618388934033866,-0.06493069766523453,0.22178542441212742
2676,11.619004500011217,0.02595549039503773,0.07831531224382124,-0.07209705936506415,0.035051039521540435,0.07493156002857035,-0.11342754002866227,-0.010171911529051923,-0.10228791527197174,-0.016056029279931962,0.02890287546618546,-0.0626665717139929,0.2217711565699433
2677,11.622430900009933,0.02595549039503773,0.07831531224382124,-0.07209705936506415,0.03500683742314454,0.07448370031642149,-0.11349561971847087,-0.010044875569452235,-0.1025569124074045,-0.015086358299643094,0.029173858791448525,-0.06041104676211446,0.22173269465160778
2678,11.627051400006168,0.026175538968711987,0.0784415944632237,-0.07260449388346973,0.034963193477363826,0.07403468649850954,-0.1135594594937461,-0.009916684269087135,-0.10281606736617857,-0.014116908719854283,0.029431300855415714,-0.05816442146137816,0.22167003480068082
2679,11.631437100004405,0.02649425394682054,0.0786689295945039,-0.07377112890456082,0.034920112605964365,0.07358456152264051,-0.11361906055957635,-0.00978739692482537,-0.10306541973820012,-0.013147786362007427,0.029675167306421547,-0.05592698999363998,0.22158317667787022
2680,11.635432300012326,0.02649425394682054,0.0786689295945039,-0.07377112890456082,0.03487759947127603,0.07313336816021597,-0.11367442458418572,-0.009657072975534954,-0.10330501038858207,-0.012179097040888834,0.029905427502707384,-0.05369904202612511,0.22147212346864306
2681,11.63963770000555,0.0266363336838278,0.07879199962679709,-0.07436562963759788,0.03483565847560676,0.07268114900070632,-0.1137255536988516,-0.009525771985855521,-0.10353488143781645,-0.011210946549184234,0.030122054518496987,-0.05148086266838044,0.22133688189031486
2682,11.643779900012303,0.02704713168682372,0.07906986841037072,-0.07543616848788341,0.034794293760727193,0.07222794644621135,-0.11377245049775293,-0.00939355362994648,-0.10375507624176378,-0.010243440642004427,0.030325025148980753,-0.04927273243089189,0.22117746219861217
2683,11.64801270001044,0.02726069477867827,0.07926164004808116,-0.07597554529996878,0.03475350920742582,0.07177380270610907,-0.11381511803774942,-0.009260477675215777,-0.10396563937146683,-0.009276685021383907,0.03051431991420722,-0.04707492718537067,0.22099387819370528
2684,11.652314999999362,0.027323432003617656,0.07938270652146315,-0.07657650654034813,0.03471330843513509,0.07131875979179389,-0.11385355983809148,-0.00912660396603409,-0.10416661659279593,-0.008310785320754807,0.030689923061880585,-0.0448877181267115,0.22078614722570733
2685,11.656302900009903,0.02745346993166763,0.07945246726374772,-0.07714124383752982,0.03467369480162837,0.07086285951150453,-0.11388777988006132,-0.008991992407439229,-0.10435805484593312,-0.007345847089398506,0.030851822569063377,-0.04271137173662539,0.2205542901996365
2686,11.660526600011508,0.02755056348454369,0.07948460486840368,-0.0777285453045985,0.03463467140278788,0.07040614346524224,-0.11391778260654599,-0.008856702948835593,-0.10454000222470268,-0.0063819757768772065,0.03100001014278384,-0.04054614974894899,0.22029833157983775
2687,11.663944300002186,0.02755056348454369,0.07948460486840368,-0.0777285453045985,0.03459624107244389,0.06994865303977972,-0.11394357292154249,-0.0087207955676934,-0.10471250795575525,-0.005419276717447926,0.031134481219548052,-0.038392309116631926,0.22001829939386183
2688,11.667441500001589,0.02755056348454369,0.07948460486840368,-0.0777285453045985,0.034558406382285245,0.06949042940376145,-0.1139651561895956,-0.00858433025325245,-0.10487562237761262,-0.004457855114461263,0.03125523496375707,-0.03625010198040297,0.21971422523579875
2689,11.670877600001404,0.027635511312210558,0.07951112131558948,-0.07830524379165948,0.03452116964184089,0.06903151350289577,-0.11398253823516803,-0.008447366990235202,-0.1050293969195804,-0.0034978160247474076,0.03136227426502965,-0.03411977563911529,0.2193861442690638
2690,11.675061000001731,0.027820158603505993,0.07951502852022371,-0.07946202988349467,0.03448453289853238,0.0685719460552394,-0.11399572534194313,-0.008309965742573922,-0.1051738840805358,-0.0025392643429918383,0.03145560573443158,-0.032001572521770584,0.2190340952286322
2691,11.67873569999938,0.027820158603505993,0.07951502852022371,-0.07946202988349467,0.03444849793779714,0.06811176754657514,-0.11400472425206054,-0.008172186437156635,-0.1053091374075977,-0.0015823047861031336,0.03153523969961287,-0.02989573016122067,0.2186581204227198
2692,11.685433999999075,0.02805050094319198,0.07948676425002892,-0.08110179494945828,0.03441306628328249,0.06765101822588289,-0.11400954216528457,-0.008034088947596642,-0.10543521147468604,-0.0006270418775753613,0.03160119019885425,-0.027802481169545257,0.21825826573390736
2693,11.689732800005004,0.028177536632045475,0.0794620644766914,-0.08160000532733667,0.03437823919711022,0.067189738100905,-0.11401018673810545,-0.007895733078030358,-0.10555216186097728,0.00032642006815252476,0.031653474974025333,-0.02572205321510357,0.21783458061970506
2694,11.69392100001278,0.02825466045380158,0.07940044364613023,-0.08214276690964298,0.03434401768021166,0.0667279669338062,-0.11400666608277384,-0.0077571785469482514,-0.10566004512926323,0.0012779769613378157,0.031692115462456635,-0.023654669001257216,0.21738711811255373
2695,11.698014000008698,0.02844233422459034,0.07931746009343606,-0.08264888764226319,0.03431040247273299,0.06626574423692877,-0.11399898876626818,-0.007618484971063535,-0.10575891880422067,0.0022275249525732315,0.03171713678772825,-0.021600546246760947,0.21691593481926066
2696,11.70222280001326,0.02861392606075101,0.07920173013439835,-0.08319319164364863,0.03427739405451071,0.0658031092686434,-0.11398716380919509,-0.007479711849223383,-0.1058488413505992,0.0031749604484216697,0.03172856774937839,-0.01955989766781736,0.2164210909198683
2697,11.70663179999974,0.0288093069098537,0.07913283331039489,-0.08374277781055584,0.034244992645616985,0.06534010102929572,-0.1139712006846222,-0.007340918546367391,-0.10592987215133462,0.00412018012704402,0.031726440811535334,-0.017532930961791014,0.21590265016595292
2698,11.710195100007695,0.0288093069098537,0.07913283331039489,-0.08374277781055584,0.03421319820697479,0.06487675825724906,-0.11395110931684294,-0.007202164277538005,-0.10600207148559491,0.005063080953817548,0.03171079209047682,-0.015519848792576972,0.21536067987835075
2699,11.71504690000438,0.02904489822085824,0.07907710916620703,-0.08424082424026988,0.03418201044104253,0.06441311942502398,-0.11392690008007332,-0.0070635080919476,-0.10606550050676533,0.006003560196942334,0.03168166134112114,-0.013520848777618175,0.21479525094431098
