,time,x,y,z,vx,vy,vz,ax,ay,az,jx,jy,jz
0,7.096523000000161,-0.06684866715042503,-0.05806673550294921,-0.04827888791678236,0.02117999210093317,0.0021585214952887684,0.010760128580960086,0.04089507211000925,0.06988158999848897,-0.030240286076510633,0.04631083497144907,0.16521819096475973,-0.11576651777850998
1,7.100847299996531,-0.06674556228520641,-0.05805545635844363,-0.04822710613816791,0.02137868733803574,0.0024990628579761114,0.010612244366559168,0.041119007191456045,0.07068316474957159,-0.03080231173034659,0.04611662536603325,0.16563514227980244,-0.11621559600496398
2,7.111786800000118,-0.06664149204005634,-0.058042517756778315,-0.048176047510206516,0.021578465342926127,0.002843493038520397,0.01046163166057191,0.04134197592589701,0.07148671562384482,-0.03136650016759073,0.045911918842166576,0.16603375266772716,-0.11665920416898781
3,7.115503499997431,-0.06653645117991165,-0.058027900832008664,-0.048125725278826775,0.021779321310078963,0.003191821396659431,0.010308280047733164,0.04156392725146559,0.07229215320101244,-0.031932824708860184,0.04569663290102528,0.16641379476109858,-0.11709726979060349
4,7.119695099987439,-0.0664304344935931,-0.058011586673888414,-0.0480761527401099,0.021981250185583813,0.003544056856185832,0.010152179242898357,0.04178480970774029,0.07309938696102107,-0.032501258322249704,0.04547068585197973,0.1667750420007091,-0.11752971989411398
5,7.12390009999217,-0.06632343679501357,-0.05799355632999488,-0.048027343239655074,0.022184246665226198,0.0039002078996319095,0.009993319092761264,0.042004571441212626,0.07390832528805015,-0.033071773621188565,0.04523399716326781,0.1671172686431891,-0.11795648120651313
6,7.130397100001574,-0.06621545292439555,-0.057973790807879864,-0.04797931017193646,0.022388305192597276,0.004260282562965999,0.009831689577573207,0.042223160211049444,0.07471887547442799,-0.03364434286370252,0.0449864874317017,0.1674402497914795,-0.11837748025657037
7,7.134336199989775,-0.06610647774949761,-0.05795227107724627,-0.04793206697965194,0.0225934199572307,0.004624288430315293,0.009667280812867975,0.04244052339426733,0.0755309437249171,-0.034218937951230904,0.0447280785350621,0.16774376147874853,-0.11879264321465931
8,7.138062400001218,-0.06599650616684989,-0.05792897807215017,-0.047885627153063375,0.02279958489276245,0.004992232628703701,0.009500083051192482,0.0426566079929717,0.07634443516144346,-0.034795530426336416,0.04445869401314225,0.16802758085898248,-0.11920189575560143
9,7.142283900000621,-0.06588553310299845,-0.05790389269322838,-0.04784000422932859,0.02300679367513783,0.005364121822820513,0.009330086683853892,0.04287136064322383,0.07715925382922878,-0.03537409147019307,0.04417825909855812,0.16829148632137664,-0.11960516324159481
10,7.146571299992502,-0.06577355351575816,-0.05787699580995127,-0.047795211791824714,0.023215039720857235,0.0057399622098176836,0.009157282242674612,0.04308472762257854,0.07797530270262831,-0.03595459190206869,0.04388670062501803,0.1685352576428333,-0.12000237088225929
11,7.151587499989546,-0.06566056239547399,-0.05784826826290074,-0.04775126346946313,0.023424316185256207,0.0061197595141350685,0.008981660401744435,0.04329665485806224,0.07879248369274096,-0.03653700217836384,0.04358394702739497,0.16875867612511813,-0.12039344343741569
12,7.15523979999125,-0.06554655476629062,-0.05781769086607312,-0.04770817293599586,0.02363461596082849,0.006503518982371459,0.008803211979184848,0.043507087933711344,0.07961069765457618,-0.03712129238921399,0.04326992831135742,0.1689615245111185,-0.12077830511802462
13,7.1589532999933,-0.06543152568742996,-0.057785244409206946,-0.04766595390931339,0.023845931675579156,0.006891245378179266,0.008621927938934095,0.04371597209825602,0.08042984439385262,-0.037707432256568495,0.04294457615995606,0.1691435871220242,-0.12115687999002119
14,7.163377599994419,-0.0653154702544767,-0.05775090966013528,-0.0476246201507338,0.024058255691422115,0.007282942977201443,0.008437799392530112,0.04392325227369149,0.08124982267549438,-0.03829539113470624,0.042607824070833085,0.16930464993355213,-0.12152909198972038
15,7.167260599992005,-0.0651983836006714,-0.05771466736716255,-0.04758418546428327,0.024271580102616302,0.0076786155620485,0.008250817600890586,0.04412887306429146,0.08207053023116834,-0.03888513800846385,0.04225960763083059,0.169444500286236,-0.12189486453509225
16,7.170814199998858,-0.06508026089821115,-0.05767649826146555,-0.04754466369596797,0.024485896734250542,0.008078266417308475,0.008060973976113061,0.04433277876784056,0.08289186376497289,-0.039476641489984345,0.04189986479052088,0.1695629267024396,-0.1222541205178798
17,7.174381599994376,-0.06496109735955737,-0.057636383059518646,-0.04750606873303714,0.02470119714078858,0.008481898324579072,0.007868260083286506,0.044534913387308174,0.08371371895920199,-0.040069869816868976,0.04152853575718163,0.16965971893211126,-0.12260678243337941
18,7.182068999987678,-0.06484088823875057,-0.05759430246554293,-0.047468414503237404,0.024917472604667073,0.008889513557533488,0.007672667642309331,0.04473522064104374,0.08453599048047733,-0.04066479085018352,0.041145562583419185,0.1697346679679954,-0.12295277239572318
19,7.18654319999041,-0.06471962883273176,-0.0575502371739792,-0.04743171497405824,0.025134714134939423,0.009301113877011984,0.007474188529720274,0.04493364397046403,0.08535857198565976,-0.04126137207275822,0.04075088883160497,0.16978756617529342,-0.12329201238933078
20,7.1905323999963,-0.06459731448267028,-0.05750416787198473,-0.04739598415196854,0.025352912465948268,0.009716700526144989,0.007272814780532893,0.0451301265469966,0.08618135612923795,-0.041859580589630845,0.040344459619280626,0.1698182074898703,-0.1236244245206305
21,7.195840199987288,-0.06447394057529812,-0.057456075241953466,-0.04736123608164433,0.025572058056036594,0.010136274225516278,0.0070685385900621615,0.04532461128020708,0.08700423457116065,-0.04245938312878598,0.039926221695778634,0.16982638750216703,-0.12394993081222525
22,7.199408799991943,-0.06434950254425027,-0.057405939964059696,-0.04732748484518762,0.02579214108629899,0.010559835168361977,0.00686135231575179,0.04551704082548512,0.08782709798503845,-0.0430607460396034,0.03949612365572441,0.16981190337325094,-0.12426845287495605
23,7.202988899996853,-0.06422399587141109,-0.05735374271882478,-0.04729474456133638,0.026013151459367244,0.010987383015813219,0.006651248479015865,0.04570735759424069,0.08864983606516252,-0.04366363529041944,0.03905411653358013,0.16977455360621638,-0.12457991193080518
24,7.209254799992777,-0.06409741608826644,-0.05729946418970688,-0.04726302938466558,0.026235078798260404,0.011418916892163164,0.0064382197670898,0.045895503767351575,0.08947233753249116,-0.04426801646719728,0.03860015381882971,0.16971413828244858,-0.12488422877480741
25,7.215299599993159,-0.06396975877726122,-0.05724308506571359,-0.047232353504779244,0.026457912445300692,0.011854435380167675,0.006222259034884856,0.046081421305506846,0.09029449014395799,-0.044873854770719236,0.03813419109011756,0.16963045961810258,-0.12518132369108922
26,7.221616099996027,-0.06384101957316198,-0.05718458604403723,-0.04720273114549346,0.0266816414610638,0.012293936516402539,0.006003359306866309,0.04626505195910888,0.09111618070385123,-0.0454811150144434,0.03765618586285579,0.16952332222361818,-0.1254711168189271
27,7.22572579998814,-0.06371119416442463,-0.05712394783271239,-0.04717417656401029,0.026906254623390764,0.012737417786674412,0.005781513778928737,0.04644633727714002,0.09193729507563683,-0.04608976162524328,0.03716609722321836,0.16939253324082346,-0.12575352838913376
28,7.229641099998844,-0.06358027829456665,-0.05706115115329576,-0.047146704050082575,0.02713174042642418,0.013184876121492621,0.005556715820267018,0.046625218613517753,0.09275771819466633,-0.04669975864355523,0.03666388620914141,0.169237902297117,-0.12602847865534483
29,7.237370499991812,-0.06344826776354413,-0.05699617674356756,-0.04712032792516972,0.027358087079681664,0.013636307891603255,0.005328958975250192,0.04680163713965355,0.09357733407955597,-0.047311069723452184,0.0361495163746519,0.16905924133022582,-0.1262958877797334
30,7.241027199997916,-0.06331515842913295,-0.056929005360254574,-0.04709506254158437,0.027585282507213784,0.014091708903571237,0.005098236965291744,0.04697553385627678,0.09439602584319638,-0.04792365813168358,0.03562295348504259,0.16885636439750407,-0.1265556757185998
31,7.245993899996392,-0.06318094620831395,-0.05685961778177449,-0.047070922281630005,0.02781331434679209,0.014551074395421108,0.004864543690732768,0.04714684960303955,0.09521367570228363,-0.048537486746640386,0.03508416583702595,0.1686290874243127,-0.12680776227570906
32,7.249727599992184,-0.06304562707866206,-0.056787994811001115,-0.047047921556729426,0.028042169949160124,0.015014399032311465,0.004627873232722278,0.04731552507344321,0.09603016498589051,-0.04915251805791189,0.03453312462466836,0.16837722837184813,-0.12705206699564472
33,7.253312799992273,-0.06290919707973866,-0.056714117278050646,-0.04702607480654412,0.028271836377366105,0.015481676902258806,0.004388219855104674,0.047481500827989305,0.09684537414662399,-0.04976871416421725,0.033969803679968845,0.16810060747347755,-0.12728850898839142
34,7.257335799993598,-0.0627716523144872,-0.05663796604308834,-0.04700539649808441,0.02850230040614138,0.015952901511920085,0.004145578006320092,0.047644717306592116,0.09765918277148676,-0.05038603677126237,0.03339417964106763,0.16779904727281506,-0.12751700706651528
35,7.263062099998933,-0.06263298895063159,-0.056559521999155635,-0.04698590112481047,0.02873354852135339,0.01642806578242182,0.0038999423213126358,0.047805114843359704,0.09847146959340368,-0.051004447191000814,0.03280623218063311,0.16747237281432695,-0.1277374798824823
36,7.2674378999945475,-0.06249320322207709,-0.05647876607501724,-0.04696760320572394,0.028965566919527366,0.016907162045254352,0.003651307623437898,0.047962633681219634,0.0992821125039304,-0.05162390634082141,0.03220594399056591,0.16712041173490094,-0.1279498458295491
37,7.272024699996109,-0.062352291430313386,-0.05639567923802806,-0.04695051728445045,0.029198341507441033,0.017390182038224098,0.003399668926379059,0.04811721398655183,0.10009098856566721,-0.05224437474184872,0.03159330063751252,0.16674299428664913,-0.12815402313321342
38,7.276998000001186,-0.06221024994581936,-0.056310242497019505,-0.04693465792831271,0.029431857901788098,0.017877116901468114,0.003145021436070877,0.048268795862414116,0.10089797402518863,-0.05286581251901685,0.030968290669192804,0.16633995336750837,-0.12834993003422157
39,7.28197789999831,-0.062067075209469455,-0.05622243690520502,-0.046920039727394336,0.029666101428901123,0.018367957173531648,0.0028873605526150733,0.048417319364205444,0.10170294432575377,-0.05348817940114342,0.030330905904296386,0.1659111245745977,-0.1285374846284376
40,7.290554399995017,-0.061922763733941115,-0.05613224356310444,-0.04690667729359441,0.029901057124566807,0.018862692787505873,0.002626681872203606,0.048562724515700754,0.10250577412075305,-0.05411143471945159,0.02968114118096711,0.16545634640978021,-0.12871660465338056
41,7.294576699991012,-0.061777312105122946,-0.05603964362148692,-0.04689458525967269,0.03013670973390424,0.01936131306723575,0.0023629811890483773,0.04870495132227685,0.10330633728841057,-0.05473553740557539,0.02901899427283371,0.16497546031058727,-0.12888720750347457
42,7.299475199994049,-0.06163071698352335,-0.055944618284332025,-0.0468837782782854,0.030373043711308362,0.019863806723600233,0.0020962544973238367,0.048843939786133495,0.10410450694553049,-0.055360445990229545,0.028344466201552253,0.16446831036803225,-0.12904921023000307
43,7.303359500001534,-0.061482975105679204,-0.05584714881180875,-0.04687427102101168,0.030610043220475714,0.02037016185085335,0.0018264979931095794,0.04897962992254809,0.10490015545946484,-0.05598611860121439,0.027657561130152147,0.1639347432501438,-0.1292025292361627
44,7.307215299995732,-0.06133408328556427,-0.05574721652327206,-0.04686607817737053,0.030847692134505417,0.020880365923020387,0.0015537080763522824,0.049111961774063205,0.10569315446111888,-0.056612512959130515,0.02695828614960713,0.16337460841553453,-0.12934708004833487
45,7.311508699989645,-0.06118403841599689,-0.05564480280027679,-0.046859214453828235,0.031085974036062416,0.02139440579036499,0.0012778813528498318,0.04924087542467295,0.10648337485898854,-0.05723958637316712,0.02624665146174548,0.16278775807531087,-0.1294827773694195
46,7.3159740999981295,-0.06103283747004681,-0.05553988908960846,-0.0468536945727961,0.03132487221761593,0.02191226767592139,0.0009990146362540728,0.04936631101578308,0.10727068685179665,-0.05786729573733353,0.025522670386827796,0.16217404710940295,-0.12960953496447367
47,7.3260559999907855,-0.06088047750244054,-0.055432456906330786,-0.046849533271618435,0.03156436968175736,0.022433937172083963,0.0007171049500914562,0.04948820876047076,0.10805495994171957,-0.0584955975251393,0.024786358997682206,0.16153333324159497,-0.12972726537862433
48,7.333063799989759,-0.060726955650965156,-0.05532248783684952,-0.046846745301550766,0.031804449141576936,0.022959399237267617,0.00043214952981734174,0.0496065089558992,0.10883606294871957,-0.059124447783092116,0.02403773595190681,0.16086547716163324,-0.129835880066671
49,7.339371699999901,-0.06057226913786997,-0.05520996354199232,-0.046845345426727865,0.03204509302110192,0.023488638192636257,0.00014414582489965592,0.04972115199595134,0.10961386402495481,-0.059753802126633795,0.023276822422968562,0.1601703426167369,-0.12993528950745162
50,7.351323199996841,-0.060416415271266066,-0.05509486576010433,-0.04684534842312177,0.03228628345579569,0.02402163771890281,-0.0001469084990874235,0.049832078382976756,0.11038823066999849,-0.0603836157347465,0.022503641963472987,0.15944779654898897,-0.13002540289885994
51,7.355558999988716,-0.06025939144652319,-0.05497717631015905,-0.046846769077489546,0.03252800229310978,0.024558380853205174,-0.000441015558327538,0.04993922873910036,0.11115902974658028,-0.06101384334293327,0.021718220497587832,0.1586977090419232,-0.13010612814259975
52,7.359650499987765,-0.060101195147663884,-0.054856877094884134,-0.0468496221863106,0.03277023109309254,0.02509884998605879,-0.0007381772486004414,0.050042543817895864,0.11192612749528784,-0.061644439237676436,0.020920586320268306,0.15791995329716693,-0.13017737194330184
53,7.363299199991161,-0.05994182394875451,-0.05473395010390186,-0.04685392255471349,0.033012951129054315,0.025643026858375054,-0.0010383952430923673,0.05014196451568698,0.1126893895500819,-0.0622753572503787,0.020110770227303194,0.1571144058027965,-0.13023903982377627
54,7.367247199988924,-0.05978127551529293,-0.054608377416883826,-0.04685968499539202,0.03325614338828563,0.026190892558564254,-0.0013416709901756078,0.05023743188448114,0.11344868095462929,-0.06290655075196935,0.019288805919927113,0.15628094624951838,-0.1302910362241294
55,7.371759099987685,-0.05961954760559255,-0.05448014120671942,-0.04686692432751053,0.03349978857284768,0.02674242751971225,-0.0016480057111666108,0.05032888714719165,0.11420386617700572,-0.06353797264780586,0.01845473008040722,0.1554194574461369,-0.13033326447126303
56,7.383765299993684,-0.05945663807216237,-0.05434922374269795,-0.04687565537559828,0.03374386710043805,0.027297611516825897,-0.0019574003980561507,0.050416271711303924,0.11495480912520965,-0.06416957537198452,0.017608582044348776,0.15452982542668733,-0.13036562663402135
57,7.388220599998021,-0.059292544863082636,-0.05421560739370377,-0.04688589296843272,0.033988359105313636,0.027856423664160062,-0.002269855811212293,0.05049952718092205,0.11570137316290328,-0.06480131088083829,0.016750403655874373,0.15361193958798755,-0.13038802341641803
58,7.392885900000692,-0.05912726602337591,-0.054079274631424326,-0.046897651937911636,0.034233244439273086,0.028418842412615587,-0.0025853724770475536,0.05057859536903158,0.11644342112625938,-0.06543313064621277,0.01588023929030576,0.15266569285687914,-0.13040035421102963
59,7.397471799995401,-0.05896079969637324,-0.05394020803357051,-0.046910947117913805,0.03447850267269859,0.028984845547229576,-0.0029039506856567026,0.05065341830976591,0.11718081534132295,-0.06606498564948143,0.014998135877809435,0.1516909817133167,-0.13040251735062341
60,7.403106300000218,-0.05879314412507512,-0.05379839028710899,-0.04692579334314823,0.03472411309565718,0.029554410184741593,-0.0032255904884259273,0.050723938270898224,0.11791341764108183,-0.06669682637726006,0.014104142772835703,0.1506877063962305,-0.13039441048934683
61,7.407176799999434,-0.058624297653507,-0.053653804191506185,-0.04694220544799167,0.034970054719063545,0.03012751277124938,-0.003550291695629105,0.05079009776484262,0.11864108938482333,-0.06732860281911598,0.013198311571022303,0.14965577089572307,-0.13037593070188086
62,7.4113270999951055,-0.05845425872806895,-0.053506432661983294,-0.04696019826531454,0.03521630627588798,0.03070412907996263,-0.0038780538740147675,0.050851839559371725,0.1193636914751292,-0.0679602644642434,0.01228069611806036,0.14859508265614432,-0.13034697436144527
63,7.41569549999258,-0.05828302589887947,-0.05335625873278205,-0.046979786625295075,0.035462846222423065,0.03128423420902341,-0.004208876344370155,0.05090910668870376,0.1200810843743548,-0.06859176029799038,0.011351352615431125,0.1475055527435331,-0.13030743727701766
64,7.41930679998768,-0.058110597821112935,-0.05320326556044085,-0.04700098535422162,0.03570965273959901,0.031867802579419624,-0.004542758179074526,0.0509618424652448,0.1207931281232468,-0.06922303879986394,0.010410339955784179,0.14638709576149336,-0.1302572147924872
65,7.423889499987126,-0.05793697325633057,-0.05304743642708077,-0.04702380927328308,0.03595670373436416,0.032454807932985844,-0.004879698199643876,0.05100999049392589,0.12149968235660706,-0.06985404794101792,0.00945771973882265,0.1452396296382383,-0.13019620178663885
66,7.428073099988978,-0.057762151073804564,-0.05288875474370103,-0.047048273197347446,0.03620397684113928,0.03304522333046858,-0.005219694974259906,0.05105349468409926,0.12220060631984661,-0.0704847351822579,0.00849355593563073,0.14406307585506126,-0.1301242927493908
67,7.432335499994224,-0.05758613025183497,-0.052727204053483745,-0.04707439193372825,0.03645144942331334,0.03363902114968754,-0.005562746815295405,0.05109229926062254,0.12289575888686365,-0.07111504747226789,0.007517914888302758,0.14285735925548523,-0.1300413816140709
68,7.436534199994639,-0.05740890987905928,-0.052562768035107274,-0.04710218028093913,0.03669909857480519,0.03423617308377412,-0.005908851776826037,0.05112634877575135,0.12358499857474799,-0.07174493124398988,0.006530865142286705,0.14162240789326477,-0.1299473617574006
69,7.444971399992937,-0.05723048915575422,-0.052395430506067986,-0.047131653027436195,0.03694690112167461,0.03483665013947519,-0.0062580076521206365,0.05115558811859882,0.12426818356018611,-0.07237433241285036,0.005532477248960688,0.1403581534133604,-0.12984212641883772
70,7.449142899989965,-0.057050867395129705,-0.05222517542601005,-0.04716282495034825,0.03719483362377568,0.03544042263555056,-0.006610211971135807,0.051179962525115016,0.12494517169785753,-0.07300319637720361,0.004522823856140391,0.1390645310595501,-0.12972556879974562
71,7.453039499989245,-0.05687004402461462,-0.05205198690006276,-0.04719571081419488,0.037442872376464494,0.036047460201255016,-0.006965461998010516,0.051199417588423515,0.12561582053691359,-0.07363146801751924,0.0035019796851760024,0.1377414796667377,-0.12959758207862176
72,7.457805799989728,-0.0566880185871342,-0.05187584918218501,-0.04723032536959239,0.037690993412352713,0.036657731774895494,-0.007323754728552821,0.05121389926857889,0.1262799873392993,-0.07425909169697308,0.0024700215546722727,0.1363889419279246,-0.1294580597922844
73,7.465801300000749,-0.05650479074237885,-0.051696746678516606,-0.047266683351947544,0.03793917250310986,0.03727120560249067,-0.007685086887740188,0.05122335390313316,0.12693752909881928,-0.07488601126432867,0.0014270285324731995,0.13500686446284624,-0.12930689602655498
74,7.469819299993105,-0.05632036026806405,-0.051514663950735735,-0.04730479948013929,0.03818738516131924,0.0378878492365129,-0.008049454927234138,0.05122772821836611,0.12758830256012477,-0.07551217005637602,0.0003730818898544605,0.13359519810768056,-0.12914398545435724
75,7.473913900001207,-0.05613472706118116,-0.05132958571942247,-0.047344688455188404,0.03843560664238908,0.038507629534731795,-0.008416855022904205,0.051226969339407846,0.128232164240587,-0.0761375109011823,-0.000691734997637285,0.13215389792289317,-0.12896922354156246
76,7.482265899991034,-0.05594789113923885,-0.051141496867427444,-0.047386364958915204,0.03868381194650653,0.039130512659168136,-0.008787283072374086,0.05122102480050816,0.12886897044936027,-0.07676197612252537,-0.0017673365431158164,0.13068292289509062,-0.12878250664611876
77,7.486548799992306,-0.055759852641494946,-0.050950382443245484,-0.04742984365258544,0.03893197582064835,0.039756464075122185,-0.009160734692588553,0.05120984255619664,0.12949857730636605,-0.07738550754410517,-0.002853634910309597,0.12918223625814745,-0.1285837322163424
78,7.4909622999985,-0.055570611830178376,-0.050756227664393715,-0.04747513917554443,0.03918007276064303,0.04038544855031157,-0.00953720521740042,0.051193370991920784,0.13012084076446798,-0.07800804649589875,-0.003950539861493315,0.12765180548565336,-0.128372799149214
79,7.494622099999106,-0.055380169091701036,-0.050559017920793536,-0.047522266143839545,0.039428077013284574,0.04101743015411449,-0.009916689695199047,0.05117155893667971,0.13073561662838284,-0.07862953382184387,-0.0050579585435812915,0.12609160187803664,-0.12814960778272577
80,7.49871109999367,-0.055188524937859244,-0.05035873877815607,-0.047571239148831365,0.03967596257851707,0.04165237225689086,-0.010299182886571754,0.05114435567573519,0.13134276057285446,-0.07924990988611988,-0.006175795663394724,0.12450160089151863,-0.12791405991888027
81,7.503473299992038,-0.05499568000702445,-0.0501553759813707,-0.047622072755793526,0.03992370321167162,0.04229023752940163,-0.010684679261993197,0.05111171096154693,0.13194212816475245,-0.07986911458105414,-0.007303953343279141,0.12288178245818406,-0.12766605912098083
82,7.507338199997321,-0.054801635065323,-0.049948915457896176,-0.04767478150250147,0.040171272425756924,0.042930987942344075,-0.011073172999563405,0.05107357502788272,0.13253357488434786,-0.0804870873362839,-0.008442330846168073,0.1212321307414323,-0.12740551085082205
83,7.511356299990439,-0.05460639100780465,-0.04973934332115363,-0.04772937989781036,0.0404186434938329,0.043574584765977316,-0.011464657982785936,0.05102989860341809,0.13311695614504207,-0.08110376712799221,-0.009590824789119457,0.1195526343195686,-0.127132322598328
84,7.516185699991183,-0.05440994885959934,-0.049526645873921304,-0.047785882420222324,0.04066578945143309,0.04422098856984879,-0.011859127798395416,0.05098063292377713,0.13369212731642155,-0.08171909248932603,-0.01074932919710698,0.11784328657439291,-0.1268464038816637
85,7.522340700001223,-0.05421230977706223,-0.049310809611730254,-0.04784430351644329,0.04091268309905497,0.04487015922264316,-0.01225657573423666,0.05092572974461085,0.1342589437477525,-0.08233300151963328,-0.011917735555849079,0.1161040855310889,-0.12654766617087168
86,7.527991999988444,-0.05401347504890631,-0.049091821226260504,-0.047904657599929686,0.04115929700470906,0.0455220558921365,-0.01265699477718172,0.05086514135312606,0.13481726078948394,-0.08294543189414093,-0.013095932949465778,0.11433503385836151,-0.12623602304802437
87,7.532179699992412,-0.05381344609732277,-0.04886966760873721,-0.04796695904942511,0.04140560350652098,0.04617663704525358,-0.013060377611102791,0.05079882057982974,0.1353669338167438,-0.08355632087474398,-0.014283808174562967,0.11253613922658277,-0.12591139022252293
88,7.536303799992311,-0.0536122244790884,-0.04864433585332627,-0.04803122220748737,0.04165157471539438,0.04683386044824971,-0.013466716614893823,0.05072672080895236,0.13590781825431264,-0.08416560531983186,-0.015481245862218121,0.11070741443760891,-0.12557368550046236
89,7.540546799995354,-0.05340981188666012,-0.04841581326052869,-0.048097461379005974,0.041897182517714,0.047493683167010095,-0.013876003860538642,0.0506487959890101,0.1364397696013777,-0.08477322169478056,-0.016688128211689367,0.1088488775008145,-0.12522282879237487
90,7.54691959999036,-0.05320621014925621,-0.048184087340573334,-0.04816569082971044,0.042142398578110946,0.04815606156747153,-0.014288231111234237,0.05056500064580874,0.13696264345724352,-0.08537910608185402,-0.01790433470749681,0.1069605517094933,-0.12485874197597024
91,7.551852299991879,-0.05300142123392402,-0.04794914581680719,-0.04823592478466965,0.04238719434229176,0.04882095131617089,-0.014703389819554843,0.05047528989574757,0.13747629554682642,-0.0859831941893661,-0.019129742050998308,0.10504246577067243,-0.12448134898765661
92,7.55690679998952,-0.05279544724659381,-0.04771097662908278,-0.04830817742678231,0.04263154103993264,0.04948830738091394,-0.015121471125664008,0.050379619459486366,0.13798058174762304,-0.08658542136246894,-0.02036422419896366,0.10309465404851809,-0.12409057598260544
93,7.5618543999880785,-0.05258829043311841,-0.047469567937141986,-0.04838246289525901,0.04287540968764096,0.050158084031585136,-0.015542465855583219,0.050277945674875466,0.13847535811756356,-0.08718572259386602,-0.02160765253114952,0.1011171565115667,-0.12368635123551505
94,7.565795099988463,-0.052379953180298346,-0.04722490812399558,-0.0484587952840959,0.04311877109197476,0.05083023484108634,-0.015966364519507795,0.05017022550899883,0.13896048092146898,-0.08778403253363885,-0.022859895773680132,0.09911001884695532,-0.12326860503414343
95,7.569997999991756,-0.05217043801689224,-0.04697698579929797,-0.048537188640540414,0.043361595852520994,0.05150471268640304,-0.016393157310170735,0.05005641657184663,0.13943580666001124,-0.08838028549892835,-0.024120819785731492,0.09707329277260954,-0.12283726972493396
96,7.573752799988142,-0.051959747614612105,-0.04672578980271638,-0.04861765696354913,0.04360385436504752,0.0521814697498237,-0.016822834101252432,0.04993647713042549,0.13990119209919583,-0.08897441548420358,-0.025390287453126523,0.09500703599201317,-0.12239227979670261
97,7.5781477999989875,-0.05174788478910323,-0.046471309207293816,-0.04870021420223804,0.043845516824718066,0.05286045752029167,-0.017255384445844034,0.0498103661234622,0.14035649429888364,-0.0895663561717542,-0.026668158367665645,0.0929113122625636,-0.12193357171314612
98,7.582269899998209,-0.05153485250090828,-0.04621353332280511,-0.048784874254325525,0.04408655322938674,0.05354162679490097,-0.017690797574958835,0.049678043178621484,0.14080157064293597,-0.09015604094033604,-0.02795428875116703,0.09078619150234118,-0.12146108388222863
99,7.586444899992784,-0.051320653856415266,-0.04595245169910538,-0.048871650964568226,0.04432693338297983,0.05422492768054031,-0.01812906239607942,0.04953946862794584,0.14123627886877102,-0.09074340287536689,-0.029248531645872926,0.0886317499200006,-0.12097475690789354
100,7.593158999996376,-0.05110529210878889,-0.045688054129470204,-0.04896055812318993,0.04456662689893992,0.05491030959567527,-0.01857016749176786,0.049394603523228095,0.14166047709876767,-0.09132837478001139,-0.030550736845739775,0.08644807030426348,-0.12047453342979635
101,7.599210999993375,-0.05088877065888512,-0.04542033065392674,-0.04905160946430395,0.044805603203756705,0.05559772127229668,-0.01901410111832028,0.04924340965211713,0.14207402387262735,-0.09191088918382365,-0.031860751079900454,0.08423524202348302,-0.11996035798607818
102,7.605819599993993,-0.05067109305614832,-0.045149271562575054,-0.049144818664329,0.04504383154056715,0.056287110758016415,-0.019460851204460797,0.049085849551712545,0.14247677817877363,-0.09249087835250233,-0.0331784181954642,0.08199336112546211,-0.11943217726515067
103,7.609988799988059,-0.05045226299949095,-0.044874867398898934,-0.0492401993403989,0.045281280972818055,0.05697842541832003,-0.019910405350090636,0.04892188652289888,0.14286859948768138,-0.09306827429897328,-0.03450357912663263,0.07972253052816455,-0.11888994011312255
104,7.61499279999407,-0.0502322843381552,-0.04459710896306537,-0.049337765048766344,0.045517920388005124,0.05767161193898556,-0.020362750825089464,0.04875148464423962,0.14324934778512446,-0.09364300879321658,-0.035836071910066526,0.07742286004970846,-0.1183335973890778
105,7.619950899999822,-0.05001116107255643,-0.044315987315211934,-0.04943752928320098,0.04575371850147017,0.05836661632865835,-0.020817874568159728,0.048574608786162474,0.1436188836057956,-0.09421501337194664,-0.037175731441573205,0.07509446660646124,-0.11776310211744762
106,7.624610499988194,-0.049788897355108046,-0.04403149377872132,-0.04953950547338197,0.045988643860277664,0.05906338392159563,-0.021275763185721802,0.04839122462721126,0.14397706806847377,-0.09478421934991595,-0.038522389383891305,0.07273747435815978,-0.11717840960245275
107,7.629071199989994,-0.04956549749102735,-0.04374361994348212,-0.04964370698328539,0.046222664847169415,0.059761859380582184,-0.02173640295086787,0.04820129866912483,0.14432376291105029,-0.09535055783070415,-0.03987587417437814,0.07035201482303148,-0.11657947717655792
108,7.636548399997991,-0.04934096593912209,-0.0434523576691351,-0.04975014710956664,0.04645574968458725,0.060461986700014334,-0.02219977980236162,0.04800479825301443,0.1446588305268119,-0.0959139597155841,-0.04123601078908077,0.06793822717408343,-0.11596626407825758
109,7.641169999988051,-0.04911530731255735,-0.04315769908830409,-0.04985883907993813,0.046687866438784476,0.061163709209167194,-0.022665879343678055,0.047801691576728984,0.14498213400233811,-0.09647435571312667,-0.04260262089457674,0.06549625845256367,-0.11533873171907076
110,7.645126299990807,-0.048888526379602226,-0.042859636609810604,-0.04996979605154239,0.04691898302401682,0.06186696957564595,-0.023134686842096255,0.04759194770956098,0.1452935371558529,-0.09703167635065411,-0.04397552294757875,0.06302626380536658,-0.11469684372946179
111,7.649919599993154,-0.048660628064356115,-0.04255816292187131,-0.05008303110932101,0.047149067206796416,0.06257170980902474,-0.02360618722785018,0.047375536608646525,0.14559290457742258,-0.09758585198428991,-0.045354531813816164,0.06052840656033383,-0.11404056592806798
112,7.657358399999794,-0.04843161744745418,-0.04225327099527735,-0.050198557264379474,0.04737808661024168,0.0632778712646875,-0.024080365093318835,0.04715242913736454,0.1458801016680373,-0.09813681281011394,-0.0467394586380634,0.05800285810418499,-0.1133698666495831
113,7.661480299997493,-0.04820149976675148,-0.04194495408655458,-0.050316387452348246,0.04760600871850959,0.06398539464784554,-0.024557204692285155,0.046922597082996335,0.14615499467862605,-0.09868448887738969,-0.04813011086711956,0.05544979816616434,-0.11268471660776
114,7.669843600000604,-0.047970280417985456,-0.041633205741104004,-0.05043653453174046,0.04783280088131669,0.06469422001775653,-0.02503668993925437,0.04668601317490213,0.14641745075188672,-0.09922881009839189,-0.049526292226833836,0.05286941490768263,-0.11198508882647949
115,7.674034299998311,-0.04773796495541629,-0.0413180197963211,-0.05055901128230638,0.04805843031854751,0.0654042867921474,-0.025518804408808115,0.04644265110240326,0.14666733796216994,-0.09976970626096573,-0.05092780266121532,0.05026190472414461,-0.11127095905171333
116,7.677950599987525,-0.04750455909244471,-0.04099939038469337,-0.050683830403384825,0.048282864124948886,0.06611553375181979,-0.026003531335044506,0.04619248553354875,0.14690452535538864,-0.10030710704234667,-0.05233443809628573,0.047627472376398604,-0.11054230562188914
117,7.682268099990324,-0.04727006870220686,-0.0406773119368751,-0.050811004512252206,0.04850606927492023,0.06682789904545981,-0.02649085361106618,0.045935492135285985,0.1471288829901758,-0.10084094202046343,-0.05374599011962909,0.04496633101917161,-0.10979910938368628
118,7.686807999998564,-0.047034499818145684,-0.04035177918473824,-0.050940546142469005,0.04872801262740331,0.06754132019464226,-0.02698075378852989,0.045671647595332675,0.14734028197806948,-0.10137114068694177,-0.05516224581244016,0.04227870223271231,-0.10904135379925899
119,7.694902399991406,-0.0467978586345584,-0.04002278716439869,-0.05107246774222443,0.04894866093088447,0.06825573409902981,-0.027473214077260583,0.04540092964397509,0.14753859452497725,-0.1018976324594466,-0.05658298780309386,0.03956481622921796,-0.10826902490799593
120,7.698846200000844,-0.04656015150711943,-0.039690331219216814,-0.05120678167267916,0.049167980828495675,0.06897107704177907,-0.027968216344920582,0.04512331707542091,0.1477236939733617,-0.10242034669431516,-0.058007994275124,0.03682491197254098,-0.10748211141765562
121,7.703062699991278,-0.04632138495337844,-0.03935440700277129,-0.0513435002063068,0.049385938863223636,0.06968728469514858,-0.02846574211674609,0.04483878976952013,0.14789545484486485,-0.10293921269978228,-0.05943703897424617,0.03405923731740315,-0.10668060484952506
122,7.707199099997524,-0.04608156565323277,-0.039015010481805334,-0.05148263552523405,0.04960250148322135,0.07040429212631792,-0.028965772575344547,0.04454732871304987,0.14805375288384273,-0.10345415975002027,-0.060869891155227285,0.03126804896401339,-0.1058644995919548
123,7.711308199999621,-0.04584070044937401,-0.03867213793914413,-0.051624199719580224,0.04981763504722351,0.0711220338034176,-0.029468288560567175,0.044248916021950135,0.14819846509955004,-0.10396511709888298,-0.06230631533052037,0.028451612280454047,-0.1050337928925241
124,7.715854299996863,-0.04559879634770796,-0.03832578597658262,-0.05176820478579618,0.05003130583007349,0.07184044360175695,-0.029973270569439533,0.04394353496504453,0.14832946980795356,-0.10447201399386975,-0.06374607107904053,0.025610201442164363,-0.10418848501800433
125,7.725600599995232,-0.04535586051774762,-0.037975951517742586,-0.051914662625003154,0.05024348002836864,0.07255945481025924,-0.030480698756169388,0.043631169988129145,0.14844664667526844,-0.10497477969141963,-0.06518891322985054,0.02274409959155877,-0.10332857924694382
126,7.732007300000987,-0.04511190029297849,-0.03762263181089807,-0.05206358504133176,0.05045412376622074,0.07327900013811146,-0.03099055293222547,0.04331180673591322,0.14854987676131848,-0.1054733434708035,-0.06663459206010927,0.01985359883639436,-0.10245408176303733
127,7.738111099999514,-0.0448669231711957,-0.03726582443176803,-0.0522149837402616,0.050663203101113885,0.0739990117216196,-0.03150281256647998,0.04298543207418975,0.14863904256305654,-0.10596763464838493,-0.06808285302810979,0.016939000556545642,-0.10156500173866163
128,7.743293099993025,-0.04462093681481253,-0.036905527286275316,-0.052368870326961664,0.05087068402987977,0.07471942113128022,-0.03201745678542553,0.042652034114363205,0.14871402806089776,-0.10645758259232184,-0.06953343645312475,0.01400061578543879,-0.10066135131234182
129,7.748497199994745,-0.04437394905113967,-0.03654173861327081,-0.052525256304632,0.05107653249479331,0.0754401593790847,-0.03253446437346013,0.042311602238722684,0.1487747187659363,-0.10694311673660897,-0.07098607748451814,0.011038765292639002,-0.09974314570304893
130,7.757358799994108,-0.04412596787263467,-0.03617445698722161,-0.0526841530728469,0.05128071438979283,0.07616115692604841,-0.033053813773240216,0.04196412712526896,0.14882100176707885,-0.10742416659688721,-0.07244050611039064,0.008053779705773936,-0.09881040349183061
131,7.761283299987554,-0.04387700143712088,-0.03580368132086219,-0.052845571925899996,0.05148319556681624,0.0768823436899717,-0.033575483086118824,0.041609600772903835,0.14885276577944306,-0.10790066178721523,-0.07389644691293448,0.00504599970264851,-0.09786314679792958
132,7.765708699997049,-0.04362705806797554,-0.03542941086780739,-0.05300952405115168,0.051683941842265387,0.07760364905343804,-0.03409945007266116,0.041248016528628,0.14886990119335264,-0.10837253203758555,-0.07535361897622102,0.0020157759725217867,-0.0969014016519893
133,7.769710599997779,-0.04337614625428606,-0.03505164522512609,-0.05317602052737921,0.051882919003605754,0.0783250018720499,-0.03462569215325251,0.04087936911362399,0.1488723001223605,-0.10883970721431283,-0.07681173598676284,-0.0010365309604842244,-0.09592519822462488
134,7.773847999997088,-0.043124274650974154,-0.03467038433587436,-0.05334507232312999,0.05208009281608358,0.0790463304828922,-0.03515418640881139,0.04050365464947951,0.14885985645053268,-0.10930211733976487,-0.07827050599647917,-0.004110550782317138,-0.09493457070502954
135,7.777658899998642,-0.042871452078887026,-0.03428562849158712,-0.05351669029507862,0.0522754290295797,0.07976756271322641,-0.03568490958158868,0.040120870686567445,0.148832465880036,-0.10975969261157463,-0.07972963128489445,-0.007205903402870933,-0.09392955746818439
136,7.783356599989929,-0.04261768752485508,-0.03389737833472703,-0.05369088518638793,0.05246889338560167,0.08048862588941522,-0.036217838076066926,0.03973101623160457,0.14879002597828755,-0.11021236342399154,-0.08118880848962262,-0.010322198919485399,-0.09291020131115385
137,7.787101599999005,-0.04236299014171536,-0.03350563486108969,-0.05386766762507469,0.0526604516244047,0.08120944684607347,-0.036752947959966385,0.03933409177476708,0.14873243622589596,-0.11066006038938339,-0.08264772856011782,-0.013459037419535535,-0.09187654949150244
138,7.790840699992259,-0.04210736924830024,-0.03311039942216385,-0.05404704812238044,0.0528500694922465,0.08192995193545745,-0.03729021496535272,0.03893009931769749,0.148659598065724,-0.11110271435995997,-0.08410607675811539,-0.016616008787271326,-0.09082865367417355
139,7.794992199997068,-0.04185083432939058,-0.03271167372744558,-0.054229037071147936,0.05303771274877966,0.0826500670370913,-0.03782961448985356,0.038519042400615884,0.14857141495270182,-0.11154025644876013,-0.08556353282505932,-0.01979269259090776,-0.08976656982413592
140,7.7990598999895155,-0.04159339503563275,-0.032309459846705225,-0.05441364474420374,0.05322334717456921,0.08336971756763899,-0.038371121597969536,0.03810092612870433,0.14846779240398353,-0.11197261805033513,-0.08701977095107576,-0.022988658102158246,-0.08869035840468499
141,7.803667599990149,-0.04133506118341895,-0.031903760212205916,-0.05460088129274738,0.05340693857874069,0.0840888284910168,-0.03891471102249132,0.037675757199518795,0.14834863804857126,-0.11239973086365737,-0.08847445963894157,-0.0262034642798059,-0.08760008449271865
142,7.807349800001248,-0.04107584275473013,-0.03149457762087251,-0.05479075674474769,0.053588452806763345,0.08480732432874621,-0.03946035716603266,0.03724354393069179,0.148213861677631,-0.11282152691392082,-0.08992726173385916,-0.029436659584101816,-0.08649581755655616
143,7.814269999988028,-0.040815749896940846,-0.031081915236409772,-0.05498328100334682,0.05376785574836665,0.08552512917055395,-0.04000803410265866,0.03680429628705577,0.14806337529591518,-0.11323793857329667,-0.09137783450710005,-0.03268778179249796,-0.08537763162358895
144,7.81972109999333,-0.040554792922585514,-0.03066577659136861,-0.05517846384527233,0.05394511334558637,0.0862421666852232,-0.04055771557961996,0.036358025907535195,0.14789709317386418,-0.11364889858435845,-0.09282582970987133,-0.03595635783264512,-0.0842456056322085
145,7.823707999996259,-0.040292982309085276,-0.030246165589159085,-0.055376314919258034,0.054120191600941656,0.0869583601316986,-0.04110937501920802,0.035904746131747926,0.14771493190064736,-0.11405434008424807,-0.09427089359585077,-0.0392419035351721,-0.08309982347665583
146,7.830006399992271,-0.04003032869843498,-0.029823086506009035,-0.05557684374447407,0.05429305658573893,0.08767363237045138,-0.04166298552072352,0.03544447202667892,0.1475168104386603,-0.11445419662853559,-0.09571266692916265,-0.04254392344541458,-0.08194037401457144
147,7.833906200001365,-0.03976684289684962,-0.029396543992866956,-0.055780059708966816,0.05446367444850744,0.08838790587511254,-0.04221851986256281,0.03497722041320431,0.14730265017839028,-0.11484840221545843,-0.09715078507556262,-0.04586191088518022,-0.08076735119731629
148,7.83891139998741,-0.03950253587436954,-0.02896654307724788,-0.05598597206810916,0.0546320114235602,0.08910110274436969,-0.04277595050442123,0.03450300989188146,0.147072374992315,-0.11523689131104402,-0.0985848779873608,-0.04919534807156736,-0.07958085411475979
149,7.843101399994339,-0.03923741876442393,-0.02853308916502097,-0.056194589943061785,0.05479803383967946,0.08981314471412247,-0.04333524958962302,0.03402186086961916,0.14682591128861663,-0.11561959887378305,-0.1000145701043371,-0.052543705979085496,-0.07838098681299614
150,7.848854299998493,-0.03897150286335185,-0.028096188042137614,-0.05640592231924604,0.05496170812893609,0.09052395316989996,-0.04389638894756376,0.0335337955864279,0.14656318806641663,-0.11599646037798568,-0.10143948045984733,-0.055906444098933195,-0.07716785827918868
151,7.854056699987268,-0.03870479962988027,-0.027655845876298674,-0.05661997804482884,0.0551230008356343,0.09123344915955138,-0.04445934009626657,0.03303883814106176,0.1462841369718226,-0.1163674118383079,-0.10285922288770842,-0.05928301031781936,-0.0759415824484525
152,7.865185399990878,-0.0384373206845584,-0.0272120692185596,-0.05683676582922037,0.05528187862537952,0.09194155340620663,-0.04502407424506226,0.03253701451576387,0.14598869235433748,-0.11673238983317442,-0.1042734061972437,-0.06267284073130747,-0.07470227786152568
153,7.869857799989404,-0.038169077809147856,-0.026764865004872084,-0.05705629424158491,0.055438308294262884,0.09264818632151361,-0.04559056229737253,0.03202835260021199,0.14567679132471512,-0.11709133152598766,-0.10568163427945719,-0.06607535948630236,-0.07345006744324688
154,7.880524499996682,-0.03790008294596801,-0.026314240557560896,-0.05727857170936552,0.05559225677816118,0.09335326801915945,-0.04615877485359561,0.031512882215234995,0.14534837381289595,-0.11744417468640389,-0.10708350619163791,-0.06948997893473124,-0.07218507860171326
155,7.886404099990614,-0.037630348197196,-0.025860203586734506,-0.05750360651682285,0.05574369116215119,0.09405671832866926,-0.04672868221409568,0.03099063513593865,0.1450033826243733,-0.11779085771250312,-0.10847861625577997,-0.0729160999351487,-0.07090744328924789
156,7.890723499993328,-0.037359885824120864,-0.0254027621916282,-0.057731406803588764,0.05589257869003371,0.09475845680947356,-0.04730025438230332,0.030461645114468316,0.14464176349520622,-0.11813131965265612,-0.10986655399045547,-0.07635311199964682,-0.06961729783466304
157,7.895396699997946,-0.03708870824635127,-0.02494192486187837,-0.05796198056323524,0.056038886773968476,0.09545840276524022,-0.047873461067916866,0.029925947903794884,0.1442634651469622,-0.11846550022606876,-0.11124690398904823,-0.07980039332132802,-0.06831478287521402
158,7.899653299988131,-0.03681682804097625,-0.024477700478726765,-0.05819533564185897,0.05618258300422871,0.09615647525847426,-0.04844827169020193,0.029383581281657533,0.14386843934146376,-0.11879333984398963,-0.11261924585827761,-0.08325731092000933,-0.06700004342435459
159,7.903679800001555,-0.03654425794167842,-0.024010098316153278,-0.05843147973668225,0.05632363515906807,0.09685259312538033,-0.04902465538139828,0.0288345850749454,0.14345664093431912,-0.11911477963091098,-0.1139831541417966,-0.0867232207483359,-0.06567322884890128
160,7.908342599999742,-0.036271010837799086,-0.023539128041936166,-0.05867042039467062,0.05646201121471144,0.09754667499098131,-0.04960258099022482,0.028279001184380717,0.14302802792864053,-0.11942976144555506,-0.11533819836630015,-0.09019746764936873,-0.06433449303742882
161,7.912163199987845,-0.035997099773354656,-0.02306479971863835,-0.05891216501116767,0.056597679355461124,0.09823863928450129,-0.05018201708548982,0.02771687360845367,0.14258256152898593,-0.11973822790370693,-0.11668394305711426,-0.09367938546755289,-0.06298399443824995
162,7.915885499998694,-0.035722537946003816,-0.022587123804518543,-0.059156720828547726,0.05673060798391954,0.09892840425500694,-0.05076293195981719,0.027148248467954456,0.14212020619400195,-0.12004012239956882,-0.11801994776775245,-0.09716829722075178,-0.06162189576171863
163,7.922044699997059,-0.03544733870596485,-0.022106111154365976,-0.05940409493488673,0.056860765731333154,0.09961588798730067,-0.051345293633463636,0.02657317402962173,0.14164092968869837,-0.12033538912570808,-0.11934576721793959,-0.10066351522968325,-0.06024836401074162
164,7.925959399988642,-0.035171515554882606,-0.021621773020257515,-0.05965429426265189,0.056988121468044384,0.10030100841806854,-0.051929069858238246,0.025991700729337104,0.14114470313583682,-0.12062397309470721,-0.12066095139269452,-0.10416434133411032,-0.058863570442725575
165,7.929822799997055,-0.034895082144644506,-0.021134121052235902,-0.05990732558741062,0.05711264431406026,0.10098368335227137,-0.05251422812152945,0.025403881194813405,0.14063150106611022,-0.12090582015874303,-0.12196504573991111,-0.10767006707670436,-0.0574676901885438
166,7.93649049999658,-0.0346180522761451,-0.020643167298908024,-0.060163195526559146,0.05723430364972421,0.10166383047977903,-0.05310073565041434,0.02480977026687448,0.14010130146774966,-0.12118087702754424,-0.12325759151430661,-0.11117997385257031,-0.05606090206189216
167,7.941327499996987,-0.03434043989799868,-0.020148924207961962,-0.0604219105380713,0.05735306912649095,0.10234136739224223,-0.05368855941585965,0.024209425018810335,0.13955408583525486,-0.1214490912861231,-0.12453812618107658,-0.11469333314436926,-0.05464338825413399
168,7.94495150000148,-0.03406225910519939,-0.019651404626601757,-0.06068347691926783,0.057468910677785805,0.10301621160019898,-0.054277666137002925,0.023602904773745235,0.13898983921672256,-0.12171041140977584,-0.12580618364421067,-0.11820940681210323,-0.053215334067343946
169,7.949062299987418,-0.033783524137728595,-0.019150621801898686,-0.06094790080560667,0.057581798529947936,0.10368828055040513,-0.054868022285498856,0.022990271121780294,0.13840855025976873,-0.1219647867792273,-0.12706129436197772,-0.12172744720780376,-0.051776927998311684
170,7.954139099994791,-0.03350424937910899,-0.01864658938105808,-0.0612151881694944,0.057691703213255785,0.1043574916433858,-0.055459594089947196,0.022371587936242433,0.1378102112577455,-0.12221216769644538,-0.12830298563605572,-0.1252466972944824,-0.05032836165505517
171,7.96159949999128,-0.03322444935490509,-0.018139321411600514,-0.061485344819119395,0.057798595573027745,0.10502376225121376,-0.05605234754039237,0.021746921388025097,0.13719481819451076,-0.12245250539897673,-0.12953078241152094,-0.1287663912818572,-0.04886982923760001
172,7.971219200000632,-0.03294413873116976,-0.017628832341456346,-0.06175837639730689,0.05790244678078659,0.1056870097354948,-0.056646248392890314,0.021116339954084736,0.13656237078448435,-0.12268575207072947,-0.13074420867319306,-0.132285755669984,-0.04740152634121437
173,7.975818199993228,-0.03266333231283655,-0.01711513701897261,-0.062034288380396416,0.05800322834544249,0.10634715146553421,-0.05724126217411256,0.02047991441824991,0.1359128725073041,-0.1229118608447114,-0.13194278878700927,-0.13580401028811,-0.04592364856167908
174,7.982721199994557,-0.032382045042057814,-0.016598250692831506,-0.06231308607714145,0.05810091212446527,0.107004104836658,-0.05783735418593962,0.01983771786671887,0.13524633063781485,-0.12313078580029675,-0.13312604825486932,-0.13932036897916544,-0.04443639102181443
175,7.987031899989233,-0.03210029199648878,-0.01607818901187975,-0.06259477462763137,0.058195470335023786,0.10765778728867002,-0.058434489510038594,0.019189825681553682,0.1345627562740912,-0.12334248196137611,-0.13429351382945895,-0.14283403979367099,-0.042939948790579156
176,7.991670399991563,-0.03181808838751776,-0.015554968024868204,-0.06287935900223549,0.05828687556509516,0.10830811632444476,-0.059032633012438614,0.018536315535065066,0.13386216436554743,-0.12354690529768454,-0.13544471315522452,-0.1463442249096367,-0.04143451741772171
177,7.9954052999964915,-0.03153544955844253,-0.015028604180101044,-0.06316684400056931,0.05837510078454973,0.10895500952865682,-0.05963174934812132,0.017877267386785738,0.13314457374173652,-0.12374401272813265,-0.13657917421975063,-0.14985012043851956,-0.03992029312426963
178,7.999025899989647,-0.0312523909825931,-0.01449911432499389,-0.06345723425048308,0.058460119356230945,0.1095983845866528,-0.06023180296562859,0.017212763483171818,0.13241000714234047,-0.12393376212398073,-0.13769642512115932,-0.15335091636804676,-0.03839747306098924
179,8.00333849999879,-0.030968928261400783,-0.01396651570554009,-0.06375053420707269,0.058541905047037435,0.11023815930347147,-0.06083275811168378,0.016542888356830227,0.13165849124652337,-0.12411611231467444,-0.13879599438856424,-0.15684579696637677,-0.036866255682486235
180,8.01022089998878,-0.030685077122413522,-0.013430825965684531,-0.06404674815171299,0.05862043203899541,0.11087425162300003,-0.06143457883585599,0.01586772882311467,0.13089005669900516,-0.12429102309464429,-0.13987741175590615,-0.16033394165029358,-0.03532684032795768
181,8.01630319999822,-0.03040085341725766,-0.012892063146604286,-0.06434588019111391,0.05869567494030775,0.11150657964724699,-0.06203722899524722,0.015187373971853999,0.13010473813100124,-0.12445845522507851,-0.14094020942315655,-0.1638145261801331,-0.03377942639770702
182,8.019961699988926,-0.03011627311954623,-0.012350245685895656,-0.0646479342563992,0.058767608796346245,0.11213506165570133,-0.06264067225917379,0.014501915151726202,0.12930257417471647,-0.12461837043274232,-0.1419839233494403,-0.1672867237757937,-0.03222421297143771
183,8.024014099995838,-0.02983135232273416,-0.01180539241666721,-0.0649529141022079,0.05883620910054924,0.11275961612474589,-0.06324487211384207,0.013811445949455471,0.1284836074734699,-0.12477073140805182,-0.1430080939012611,-0.1707497055238677,-0.0306613987630987
184,8.029197999989265,-0.029546107237920984,-0.011257522566538704,-0.0652608233058184,0.058901451805212314,0.11338016174711459,-0.06384979186701124,0.013116062167904419,0.12764788469224336,-0.1249155018034557,-0.14401226578348827,-0.17420264009996028,-0.02909118251753151
185,8.033128399998532,-0.02926055419160147,-0.01070665575654556,-0.0655716652662951,0.05896331333217359,0.11399661745140803,-0.06445539465265333,0.012415861805939921,0.12679545653049706,-0.12505264623535287,-0.14499598760829246,-0.1776446934596894,-0.027513763771880848
186,8.036869799994747,-0.02897470962336477,-0.010152811999948662,-0.06588544320365763,0.05902177058340931,0.114608902421675,-0.06506164343563456,0.011710945040702667,0.12592637773571266,-0.1251821302898528,-0.1459588117240189,-0.18107502898262576,-0.02592934352739355
187,8.041935499990359,-0.0286885900835424,-0.009596011700949087,-0.06620216015807288,0.05907680095154733,0.11521693611705922,-0.06566850101643118,0.011001414209131349,0.125040707114814,-0.12530392053120348,-0.1469002945774626,-0.18449280811423746,-0.024338124340969266
188,8.046961699990788,-0.02840221223080547,-0.0090362756533075,-0.06652181898906989,0.059128382330283655,0.11582063829149154,-0.06627593003589254,0.010287373786721496,0.1241385075414892,-0.12541798450843883,-0.147819997144344,-0.18789719108495861,-0.022740309913147294
189,8.051089999993565,-0.028115592829711746,-0.008473625038868057,-0.06684442237477806,0.059176493124690074,0.11641992901340771,-0.0668838929800213,0.00956893036487804,0.12321984596064316,-0.12552429075981394,-0.14871748527281634,-0.19128733741944573,-0.02113610510333946
190,8.055044599997927,-0.027828748748202983,-0.007908081425986717,-0.06716997281118836,0.059221112261411225,0.11701472868548365,-0.0674923521847795,0.00884619262634532,0.12228479339078457,-0.12562280881960025,-0.14959233029659272,-0.19466240658177025,-0.01952571585342932
191,8.059621599997627,-0.02754169695505316,-0.007339666767863902,-0.06749847261143814,0.05926221919873416,0.11760495806437637,-0.06810126984093463,0.008119271316617986,0.121333424922226,-0.12571350922178026,-0.15044411007596217,-0.19802155921644024,-0.01790934839567228
192,8.064854899988859,-0.027254454517268253,-0.006768403400781499,-0.06782992390511927,0.05929979393650832,0.11819053828044183,-0.06871060799890147,0.007388279209282803,0.1203658197074445,-0.12579636349916673,-0.1512724104853138,-0.2013639589741971,-0.016287208702540874
193,8.069262699995306,-0.026967038597438323,-0.0061943140422444426,-0.06816432863760986,0.05933381702587926,0.1187713908573824,-0.06932032857357964,0.006653331063014361,0.11938206094158842,-0.12587134418176602,-0.15207682689149943,-0.20468877419061288,-0.014659502136334856
194,8.07383480000135,-0.026679466451042966,-0.005617421789027319,-0.06850168856942933,0.05936426957879189,0.11934743773177586,-0.06993039334917961,0.0059145435725904616,0.11838223583657115,-0.1259384247925017,-0.1528569646264983,-0.20799517835764464,-0.013026433145345072
195,8.079443199996604,-0.0263917554237113,-0.005037750115126696,-0.06884200527561683,0.059391133277249465,0.11991860127247178,-0.07054076398401878,0.005172035321307358,0.11736643559700823,-0.12599757984263354,-0.15361243824468904,-0.21128234924451056,-0.011388205628137194
196,8.084474699993734,-0.02610392294843771,-0.0044553228696197645,-0.06918528014513285,0.059414390382355735,0.12048480429988734,-0.07115140201530307,0.004425926739192724,0.11633475540283048,-0.1260487848310113,-0.15434287059229787,-0.21454946773837497,-0.009745023788141311
197,8.088663899994572,-0.02581598654275418,-0.0038701642744296753,-0.06953151438028396,0.05943402374316898,0.12104597010523523,-0.07176226886391583,0.00367634006443862,0.11528729439645566,-0.1260920162477753,-0.15504789256681725,-0.21779571729891084,-0.008097092866034505
198,8.09265449999657,-0.02552796380586026,-0.0032822989219978512,-0.06988070899617078,0.05945001680537039,0.12160202246969513,-0.07237332583923527,0.002923399303945871,0.11422415567068735,-0.12612725158070748,-0.15572714334628177,-0.22102028401888332,-0.006444619398942327
199,8.096567100001266,-0.025239872415711396,-0.002691751772863536,-0.07023286482015949,0.05946235361973578,0.12215288568352439,-0.07298453414398487,0.0021672301925351814,0.11314544625529946,-0.1261544693214439,-0.15638027047320577,-0.2242223569062515,-0.004787811113300053
200,8.10063459999219,-0.02495173012606677,-0.00209854815315091,-0.07058798249137672,0.059471018850408675,0.12269848456509945,-0.07359585487911106,0.0014079601526780945,0.11205127710220136,-0.12617364897078753,-0.1570069298237719,-0.22740112818357372,-0.0031268770311064166
201,8.10500269998738,-0.02466355476349749,-0.001502713751964115,-0.07094606246022839,0.0594759977829818,0.12323874447988276,-0.07420724904868514,0.0006457182540066955,0.11094176306912096,-0.12618477104595044,-0.1576067858022318,-0.23055579383344807,-0.0014620277304483148
202,8.109444599991548,-0.02437536422435611,-0.0009042746186905665,-0.07130710498794207,0.05947727633237778,0.12377359135930611,-0.07481867756485107,-0.00011936482883931475,0.10981702289948406,-0.12618781708839122,-0.15817951200811975,-0.2336855549524497,0.00020652518885252354
203,8.115139699992142,-0.02408717647170843,-0.0003032571602129837,-0.07167111014613377,0.059474841050522136,0.12430295171954259,-0.07543010125280337,-0.0008871568631687048,0.10867717919297683,-0.12618276966587888,-0.15872479253270114,-0.23678962004093057,0.0018785699289508434
204,8.120017699999153,-0.023799009532228677,0.00030031186196921095,-0.07203807781639857,0.059468679133768944,0.12482675268010457,-0.07604148085575496,-0.0016575241129551735,0.10752235836323534,-0.126169612372348,-0.1592423230489765,-0.23986720710027765,0.003553894707376074
205,8.124267199993483,-0.023510881493059344,0.0009064053347080897,-0.07240800768992549,0.059458778430043595,0.12534492198220568,-0.07665277703991359,-0.0024303313963563696,0.10635269058808405,-0.12614832982789456,-0.15973181058307034,-0.24291754409885338,0.005232287848346726
206,8.128196499994374,-0.023222810498637142,0.0015149957962637612,-0.07278089926713642,0.05944512744571105,0.1258573880068766,-0.07726395039944965,-0.0032054421382149436,0.10516830976271004,-0.12611890767774622,-0.16019297201621452,-0.24593986783484917,0.006913537507919268
207,8.132945399993332,-0.022934814747486293,0.002126055439448124,-0.07315675185734909,0.05942771535220983,0.1263640797928732,-0.07787496146146267,-0.003982718413060691,0.10396935346092125,-0.12608133259492166,-0.1606255325324237,-0.24893342252102527,0.008597430882031505
208,8.137214599992149,-0.022646912488980184,0.0027395561148549517,-0.07353556457846411,0.059406531992503536,0.12686492705441696,-0.07848577069097483,-0.004762020982568446,0.10275596290203567,-0.12603559228687547,-0.16102922497123168,-0.2518974590539507,0.01028375377840584
209,8.140925399988191,-0.022359122020072147,0.003355469334175562,-0.07391733635667637,0.059381567887351855,0.12735986019878218,-0.07909633849596191,-0.0055432093322877645,0.1015282829192212,-0.1259816755023061,-0.16140378971309008,-0.25483123495268234,0.011972290739363437
210,8.145826599997235,-0.02207146168199634,0.003973766273599337,-0.07430206592621083,0.05935281424140615,0.1278488103437296,-0.07970662523241277,-0.006326141707990247,0.10028646192697897,-0.12591957203661058,-0.16174897493805246,-0.2577340148215961,0.013662825148779674
211,8.149403899995377,-0.021783949856939447,0.004594417777298336,-0.07468975182908293,0.05932026294912821,0.12833170933477858,-0.08031659120941312,-0.0071106751549060605,0.09903065188499813,-0.12584927273765598,-0.1620645375490114,-0.26060507167742175,0.01535513950505925
212,8.15917429998808,-0.02149660496468422,0.005217394360995195,-0.07508039241488364,0.05928390660050564,0.12880848976229034,-0.08092619669426095,-0.007896665563018107,0.09776100825277921,-0.1257707695085888,-0.16235024458215727,-0.2634436892862049,0.01704901641360527
213,8.162968999997247,-0.021209445459225786,0.005842666215613291,-0.07547398584058947,0.05924373848653166,0.12927908497830043,-0.08153540191757754,-0.008683967719966917,0.096477689930842,-0.12568405530398866,-0.1626058742971302,-0.26624916438881685,0.018744239380064733
214,8.16724609999801,-0.020922489825362073,0.006470203211007757,-0.07587053007039704,0.05919975260440779,0.1297434291130323,-0.08214416707838561,-0.009472435366909188,0.09518085919378218,-0.12558912412499065,-0.16283121594419697,-0.2690208071431057,0.020440592733503803
215,8.170745099996566,-0.020635756575259713,0.007099974899775679,-0.0762700228755823,0.05915194366248237,0.13020145709108097,-0.08275245234917306,-0.010261921249166459,0.09387068162719431,-0.12548597101618345,-0.163026068514426,-0.2717579396112556,0.02213786124469576
216,8.174322699996992,-0.02034926424499661,0.007731950521143937,-0.07667246183438414,0.05910030708496243,0.13065310464731536,-0.08336021788094104,-0.011052277159971919,0.09254732607538714,-0.12537459206443066,-0.16319023957298714,-0.2744598938191712,0.02383582977589439
217,8.178186199991615,-0.020063031391082172,0.008366099004933512,-0.07707784433191259,0.05904483901642823,0.1310983083425553,-0.08396742380825631,-0.011843353979812912,0.0912109645971126,-0.12525498439916302,-0.16332354462577942,-0.2771260105955484,0.02553428334229265
218,8.182224999996834,-0.01977707658695614,0.009002388975599249,-0.07748616756008135,0.058985536326163886,0.13153700557904477,-0.0845740302543021,-0.012635001714039907,0.08986177242453129,-0.1251271461906041,-0.16342580698266315,-0.27975563905996637,0.027233007538664398
219,8.186842999988585,-0.019491418419466854,0.009640788756344108,-0.07789742851756493,0.058922396612307484,0.13196913461573137,-0.08517999733591329,-0.013427069530883615,0.08849992792390228,-0.12499107664592804,-0.16349685798607103,-0.2823481364479225,0.028931788920049658
220,8.190938399988227,-0.019206075485329845,0.010281266373306995,-0.07831162400978,0.05885541820581326,0.13239463458335857,-0.08578528516859006,-0.014219405801279368,0.08712561255624413,-0.12484677600379611,-0.16353653735045143,-0.28490286845367585,0.03063041533763191
221,8.19698249999783,-0.018921066387567728,0.010923789559823274,-0.07872875064889112,0.058784600174215794,0.13281344549936386,-0.08638985387148009,-0.0150118581401737,0.08573901083470227,-0.12469424552725956,-0.16354469360057663,-0.28741921032970985,0.0323286764425239
222,8.203980299993418,-0.01863640973193231,0.011568325760756967,-0.07914880485384035,0.058709942325191895,0.133225508282558,-0.08699366357232344,-0.01580427345059624,0.08434031027455546,-0.12453348749341421,-0.16352118490611342,-0.2898965487085297,0.03402636473705037
223,8.20819130000018,-0.018352124123309953,0.012214842136903518,-0.07957178285040087,0.058631445209897715,0.13363076476753863,-0.08759667441233451,-0.016596497973053903,0.08292970133292861,-0.12436450517611547,-0.16346588017236555,-0.29233428381724236,0.035723276886562565
224,8.21572589999414,-0.01806822816211136,0.012863305569461676,-0.07999768067125398,0.05854911012605197,0.1340291577187853,-0.08819884655097944,-0.017388377340172866,0.08150737733733829,-0.12418730282292055,-0.16337866010766855,-0.2947318318065321,0.03741921497022816
225,8.21985739999218,-0.017784740440647054,0.013513682664572847,-0.08042649415608898,0.05846293912074352,0.1344206308443806,-0.08880014017063455,-0.018179756636436596,0.08007353440283613,-0.12400188562568244,-0.16325941814234068,-0.29708862681806014,0.039113987898651253
226,8.224109399990994,-0.017501679539489945,0.014165939757925945,-0.08085821895172526,0.05837293499293569,0.13480512880930234,-0.08940051548107882,-0.018970480461733146,0.07862837134051971,-0.12380825968375431,-0.1631080606073457,-0.29940412193466726,0.040807412298771654
227,8.23414149999735,-0.017219064023826555,0.014820042919425555,-0.0812928505122558,0.05827910129565805,0.135182597248258,-0.08999993272379576,-0.01976039299282454,0.0771720895654678,-0.12360643196600815,-0.16292450580418547,-0.30167778853666094,0.0424993123919372
228,8.238519099992118,-0.016936912439798342,0.01547595795792116,-0.08173038409921089,0.05818144233791503,0.13555298277808475,-0.09059835217609784,-0.02054933803788065,0.07570489301148926,-0.12339641027522079,-0.16270868254545062,-0.3039091147569574,0.04418951913916525
229,8.243149299989454,-0.016655243310834424,0.016133650425995467,-0.08217081478174162,0.058079963186349205,0.13591623300975778,-0.09119573415508317,-0.02133715908380546,0.07422698805402914,-0.12317820321837555,-0.16246052880443468,-0.30609760387650503,0.04587786896051423
230,8.247416400001384,-0.01637407513397679,0.01679308562481001,-0.08261413743682199,0.05797466966669134,0.13627229656004317,-0.09179203902147216,-0.02212369933768471,0.07273858344046706,-0.12295182018345849,-0.16217999082921083,-0.3082427731760678,0.0475642027142253
231,8.252433299989207,-0.016093426376198965,0.01745422860900639,-0.08306034674946944,0.05786556836502199,0.13662112306283086,-0.0923872271833394,-0.022908801765526912,0.07123989022415038,-0.12271727131965292,-0.16186702289466,-0.3103441536628363,0.04924836514729354
232,8.257061199998134,-0.015813315470719003,0.01811704419166171,-0.08350943721298328,0.0577526666288461,0.1369626631801482,-0.0929812590997583,-0.023692309131307973,0.06973112169734194,-0.12247456751946001,-0.16152158710038853,-0.31240128959930885,0.05093020451376891
233,8.260428499997943,-0.015533760813307736,0.01878149694929655,-0.08396140312920047,0.05763597256797626,0.13729686861284304,-0.09357409528435973,-0.024474064033753882,0.06821249332981867,-0.12222372040259229,-0.16114365213966933,-0.31441373572981224,0.052609571522420864
234,8.264121299987892,-0.015254780758593203,0.019447551226933913,-0.08441623860876854,0.057515495055250825,0.13762369211100242,-0.09416569630882062,-0.02525390893345547,0.06668422272869642,-0.12196474230829209,-0.16073319126883506,-0.3163810530307331,0.05428631709555315
235,8.267823299989686,-0.014976393616361945,0.02011517114320818,-0.08487393757143517,0.05739124372715444,0.13794308748424627,-0.09475602280634812,-0.02603168616997304,0.0651465296182119,-0.1216976463009438,-0.1602901813433316,-0.3183028067143428,0.05596029082932566
236,8.271968000000925,-0.014698617647857421,0.0207843205955238,-0.08533449374635488,0.057263228984370404,0.13825500961195009,-0.0953450354752226,-0.026807237979609773,0.06359963581889194,-0.12142244617731295,-0.15981460392308833,-0.32017856817117046,0.05763134190833334
237,8.277985399996396,-0.014421471062075947,0.021454963265263312,-0.08579790067241296,0.05713146199222891,0.1385594144533369,-0.09593269508235197,-0.027580406523228202,0.06204376520851237,-0.12113915646329544,-0.15930644750040632,-0.32200791907083076,0.05929932085854504
238,8.2820764999924,-0.014144972012060768,0.02212706262304384,-0.08626415169856656,0.0569959546809899,0.1388562590573215,-0.09651896246678313,-0.028351033925613493,0.06047914366152728,-0.12084779240416944,-0.15876570922355723,-0.32379045459715394,0.060964080691249575
239,8.286459599999944,-0.013869138591195259,0.02280058193402051,-0.08673323998420274,0.05685671974590982,0.13914550157201552,-0.09710379854316187,-0.02911896231999285,0.058905998978677175,-0.12054836995025896,-0.1581923950246094,-0.3255257836763538,0.06262547731563889
240,8.291291000001365,-0.01359398882949635,0.023475484263235046,-0.08720515849951298,0.056713770647093056,0.13942710125388952,-0.0976871643051054,-0.029884033888637515,0.057324560824207046,-0.12024090574318741,-0.15758651844127547,-0.32721352656323727,0.06428336882209659
241,8.295144499992603,-0.013319540689909162,0.024151732481007982,-0.08767990002588395,0.05656712160916524,0.13970101847666955,-0.09826902082852904,-0.030646090895965025,0.05573506067886594,-0.11992541710848674,-0.15694809926327463,-0.32885331210821384,0.06593761462701123
242,8.299371299988707,-0.013045812064603604,0.02482928926837348,-0.08815745715630433,0.056416787620803856,0.13996721474004384,-0.09884932927494704,-0.03140497571602347,0.054137731803609736,-0.11960192205013835,-0.15627716274142836,-0.3304447766217782,0.06758807501540375
243,8.30409609999333,-0.012772820771273554,0.025508117122555907,-0.08863782229578744,0.05626278443414526,0.14022565267820766,-0.09942805089474645,-0.03216053085792931,0.05253280920360468,-0.11927043924761448,-0.15557373953091494,-0.33198756482944297,0.06923461112718972
244,8.311531899991678,-0.012500584549439203,0.026188178362487456,-0.08912098766180988,0.05610512856406874,0.14047629606822112,-0.10000514703045929,-0.032912598992801724,0.050920529582676184,-0.11893098805055226,-0.15483786622060852,-0.33348133232543203,0.07087708625243624
245,8.315541399992071,-0.012229121056753174,0.026869435134365724,-0.08960694528476587,0.05594383728734253,0.14071910983811262,-0.10058057911998473,-0.03366102298433011,0.04930113128353426,-0.11858358846324313,-0.15406958602119852,-0.33492574848507123,0.07251536746268107
246,8.322339499994996,-0.011958447865311143,0.02755184941724986,-0.09009568700843704,0.05577892864161165,0.14095406007465736,-0.10115430869971101,-0.03440564592237682,0.04767485421399912,-0.11822826112349821,-0.1532689493032492,-0.3363204990272429,0.07414932710584557
247,8.332307599994238,-0.011688582457967766,0.028235383028693516,-0.09058720449047708,0.055610421424218286,0.14118111403076591,-0.10172629740753276,-0.035146311158758846,0.04604193976239459,-0.11786502727265091,-0.1524360142123245,-0.337665287970364,0.07577884484939369
248,8.336599899994326,-0.011419542224658729,0.028919997630412603,-0.09108148920291079,0.05543833519084288,0.14140024013244284,-0.10229650698568228,-0.03588286234681157,0.04440263070481882,-0.1174939087146226,-0.1515708472926029,-0.3389598386420002,0.07740380850405185
249,8.341935799995554,-0.011151344458729848,0.029605654733985676,-0.09157853243264612,0.0552626902539411,0.1416114079852766,-0.10286489928335014,-0.036615143483213715,0.04275717111075379,-0.11711492777794277,-0.15067352327563097,-0.3402038923488689,0.07902411295626224
250,8.346404099997017,-0.010884006353274264,0.030292315706584576,-0.09207832528199862,0.05508350768097963,0.14181458838048347,-0.10343143625914841,-0.03734299894550399,0.0411058062632247,-0.11672810728516002,-0.14974412384224867,-0.34139720455296263,0.08063965833825457
251,8.350927499996033,-0.010617544997478637,0.030979941776733386,-0.0925808586692274,0.05490080929250956,0.14200975330062374,-0.10399607998343485,-0.03806627352190818,0.0394487826014656,-0.11633347053259553,-0.14878273640143136,-0.34253954142508947,0.08225034766420844
252,8.354793699996662,-0.010351977372979016,0.031668494040094475,-0.09308612332908203,0.054714617660113145,0.14219687592509003,-0.1045587926405799,-0.038784812437021865,0.03778634767447751,-0.11593104128266142,-0.14778945379525568,-0.3436306793752362,0.08385608558020961
253,8.362951199989766,-0.010087320350226926,0.03235793346528063,-0.09359410981336053,0.0545249561042283,0.14237593063537346,-0.10511953653121649,-0.03949846137877843,0.03611875008824519,-0.11552084375572802,-0.14676437491556896,-0.34467040752429245,0.08545677912647974
254,8.368371799995657,-0.009823590684866322,0.03304822089969214,-0.09410480849147804,0.05433184869183402,0.1425468930200404,-0.10567827407442813,-0.040207066530107756,0.0344462394353424,-0.11510290261505565,-0.14570760582879638,-0.34565853145167175,0.0870523387434401
255,8.37318859998777,-0.009560805014122108,0.03373931707537716,-0.09461820955104601,0.054135320233968096,0.14270973987931646,-0.10623496780985278,-0.040910474606804435,0.03276906620583152,-0.11467724294891245,-0.14461926088198246,-0.3465948757477227,0.08864267885188966
256,8.376996299994062,-0.009298979853201144,0.034431182614913194,-0.0951343029984613,0.053935396283045535,0.14286444922919986,-0.10678958039969763,-0.04160853289990481,0.03108748169213409,-0.11424389024988375,-0.14349946319643486,-0.3474792836992592,0.09022771780719896
257,8.383210499989218,-0.009038131591706751,0.035123778037307346,-0.09565307865950486,0.053732103129965625,0.1430110003051235,-0.10734207463064241,-0.04230108931833895,0.029401737902977832,-0.11380287039743385,-0.1423483443490471,-0.3483116152452093,0.09180737617562415
258,8.386897299991688,-0.008778276490067752,0.03581706376391329,-0.09617452617994925,0.053525467801017045,0.14314937356523444,-0.10789241341568524,-0.042987992428219504,0.027712087488078473,-0.11335420965391914,-0.14116604361375562,-0.3490917453555007,0.09338157476710923
259,8.392777999993996,-0.008519430675982972,0.036511000124363285,-0.09669863502617525,0.05331551805460416,0.143279550693326,-0.1084405597960073,-0.04366909148814281,0.026018783667796544,-0.11289793466621344,-0.1399527072916676,-0.34981956299987405,0.09495023396511257
260,8.396934899996268,-0.008261610140882003,0.03720554736251357,-0.09722539448579746,0.05310228237781006,0.1434015146014357,-0.10898647694283438,-0.044344236481986196,0.02432208016781216,-0.11243407246821564,-0.13870848829344634,-0.3504949698746339,0.09651327328371828
261,8.401242599997204,-0.008004830736403007,0.03790066564240156,-0.09775479366829892,0.05288578998280502,0.14351524943214417,-0.1095301281593259,-0.04501327815016213,0.02262223116112053,-0.11196265048676694,-0.1374335459687691,-0.35111787955381807,0.09807061101711612
262,8.405847999994876,-0.007749108170888288,0.03859631505421351,-0.09828682150567501,0.05266607080310665,0.14362074056061105,-0.11007147688249383,-0.04567606802076281,0.02091949121093253,-0.11148369654755527,-0.1361280463190573,-0.3516882179860236,0.09962216419392697
263,8.41014529998938,-0.007494458005898339,0.03929245562026142,-0.09882146675308667,0.05244315548968657,0.14371797459632069,-0.11061048668514882,-0.04633245844287584,0.019214115207855605,-0.11099723888147514,-0.13479216283020043,-0.35220592490656405,0.10116784885089417
264,8.415064499989967,-0.007240895652745139,0.039989047300967674,-0.0993587179895232,0.05221707540690767,0.143806939384509,-0.11114712127788084,-0.04698230262579853,0.0175063582991095,-0.11050330612787983,-0.13342607793717304,-0.35267095604644294,0.10270758134543685
265,8.419609599994146,-0.006988436369045574,0.04068605000085573,-0.09989856361847461,0.051987862628250794,0.14388762400722344,-0.11168134451103684,-0.04762545468654676,0.015796475804300603,-0.1100019273282216,-0.13202998423906023,-0.3530832854737341,0.10424128056683783
266,8.424796999999671,-0.006737095255296146,0.041383423574545004,-0.10044099186861365,0.05175554993179162,0.14396001878393358,-0.11221312037663968,-0.04826176970084379,0.014084723121947982,-0.10949313190787589,-0.13060408455890365,-0.35344290624320895,0.10576886953623175
267,8.430394199996954,-0.006486887251470222,0.042081127832747554,-0.1009859907944867,0.05152017079543318,0.14402411527168524,-0.1127424130101897,-0.04889110375120906,0.012371355638962364,-0.10897694965427646,-0.129148591430033,-0.35374982951765416,0.10729027488908287
268,8.436582999987877,-0.006237827133638947,0.0427791225482644,-0.10153354827721327,0.05128175939191676,0.14407990626483388,-0.11326918669237178,-0.04951331397296917,0.010656628645687258,-0.10845341070375471,-0.1276637270169292,-0.35400408359815927,0.10880542483202041
269,8.441213400001288,-0.005989929510616843,0.04347736746197963,-0.10208365202519348,0.05104035058360852,0.1441273857943754,-0.11379340585072935,-0.05012825860157981,0.008940797254775142,-0.10792254553947465,-0.12614972306859992,-0.3542057125486061,0.11031424679303951
270,8.44513319998805,-0.005743208820633238,0.04417582228885025,-0.10263628957482374,0.05079597991705183,0.14416654912689336,-0.11431503506135143,-0.0507357970181849,0.007224116329558292,-0.1073843850010435,-0.12460682009442782,-0.3543547733417975,0.11181666528789004
271,8.448680999994394,-0.005497679328030661,0.044874446723890085,-0.10319144829122055,0.05054868361731237,0.14419739276319568,-0.1148340390506398,-0.05133578978895188,0.005506840430581075,-0.10683896030312282,-0.12303526692431009,-0.35445133300381326,0.11331260120335794
272,8.45601889998943,-0.005253355119991069,0.04557320044814641,-0.10374911536895337,0.05029849858214929,0.14421991443674373,-0.11535038269717636,-0.0519280987063683,0.0037892237716440494,-0.10628630305198469,-0.1214353228596314,-0.3544954697719911,0.1148019731538634
273,8.460960799988243,-0.0050102501032907275,0.04627204313466863,-0.1043092778327865,0.050045462375960116,0.144234113111863,-0.11586403103365077,-0.0525125868494216,0.0020715201551145816,-0.10572644525097648,-0.11980726212416185,-0.3544872794212642,0.11628470036355547
274,8.469808099995134,-0.004768378001085119,0.04697093445446758,-0.10487192253843057,0.0497896132233687,0.14423998898154533,-0.11637494924878078,-0.05308911866802814,0.00035398286666410515,-0.10515941928914731,-0.11815137759956248,-0.354426881984769,0.11776070567076243
275,8.473919500000193,-0.004527752349725959,0.0476698340824629,-0.10543703617330312,0.04953099000235199,0.14423754346463957,-0.1168831026891296,-0.053657560079412775,-0.0013631354545488624,-0.10458525791759754,-0.11646798155991601,-0.3543144234373218,0.11922991615354352
276,8.478097100000014,-0.004288386495612707,0.048368701703415104,-0.10600460525729764,0.04926963223689396,0.14422677920239574,-0.1173884568607971,-0.05421777855965604,-0.0030795829374555797,-0.10400399423204323,-0.11475740394901462,-0.35415007201754184,0.1206922610699639
277,8.482239099990693,-0.0040502935920807785,0.049067497017839475,-0.10657461614356056,0.04900558008922521,0.14420770005447744,-0.11789097743106818,-0.05476964322337936,-0.004795108573252751,-0.10341566166912582,-0.11301999035869283,-0.3539340125925197,0.12214766983088898
278,8.486563699989347,-0.003813486596328257,0.04976617974789949,-0.10714705501927627,0.048738874351704736,0.14418031109459353,-0.11839063023006818,-0.055313024895700814,-0.006509462282368899,-0.10282029400862167,-0.11125610107419004,-0.35366644205426456,0.1235960704446352
279,8.490615899994737,-0.003577978266382774,0.050464709643278385,-0.10772190790646011,0.04846955643836219,0.1441446186058615,-0.11888738125243276,-0.055847796182669204,-0.008222394964028245,-0.10221792538482426,-0.10946611091203762,-0.35334756684739294,0.12503738789953922
280,8.495455399999628,-0.0033437811581101882,0.05116304648702764,-0.10829916066275963,0.04819766837609708,0.14410063007595883,-0.11938119665907351,-0.056373831541648815,-0.00993365853925858,-0.10160859030442783,-0.10765040905063089,-0.35297760222462843,0.12647154402727986
281,8.499898099995335,-0.0031109076222667494,0.05186115010139154,-0.10887879898226469,0.047923252795538995,0.14404835419206963,-0.11987204277902118,-0.05689100735011164,-0.011643005993240389,-0.10099232365923404,-0.10580939873881752,-0.3525567721599082,0.12789845802200436
282,8.504642299987609,-0.002879369801596348,0.05255898035360675,-0.1094608083963265,0.047646352921580114,0.14398780083562557,-0.12035988611131444,-0.057399201973198116,-0.013350191417472661,-0.10036916073900491,-0.10394349736992979,-0.352085309502662,0.12931804642437356
283,8.510337999992771,-0.002649179627974426,0.05325649716167586,-0.11004517427438613,0.04736701256358074,0.14391898107684392,-0.12084469332696762,-0.05789829583322678,-0.015054970053617094,-0.09973913724432412,-0.10205313742644975,-0.35156345700043085,0.13073022388350683
284,8.517457699999795,-0.002420348819600144,0.05395366050011401,-0.11063188182481257,0.04708527610522821,0.1438419071690436,-0.12132643127098416,-0.05838817148640951,-0.016757098345573825,-0.09910228929206613,-0.10013876846125844,-0.350991469567244,0.13213490514043505
285,8.521553499987931,-0.002192888878238564,0.05465043040566742,-0.11122091609575069,0.046801188493999,0.14375659254267856,-0.1218050669643773,-0.05886871371156094,-0.01845633400530786,-0.09845865340903635,-0.09820085945202112,-0.3503696170704009,0.13353200731525539
286,8.52849709999282,-0.001966811086514938,0.05534676698300216,-0.111812261975979,0.04651479523015798,0.1436630517990159,-0.12228056760612194,-0.05933980960962938,-0.02015243609193077,-0.0978082665152761,-0.09623990005972963,-0.3496981859462662,0.1349214510962906
287,8.53434610000113,-0.001742126505263497,0.05604263041036138,-0.11240590419577648,0.04622614235525597,0.14356130070340292,-0.1227529005750135,-0.05980134870460248,-0.021845165093185355,-0.09715116590617894,-0.09425639950049688,-0.3489774776509736,0.13630316048088903
288,8.538092899994808,-0.0015188459709332036,0.0567379809451889,-0.1130018273277983,0.04593527644015116,0.14345135617815563,-0.1232220334314465,-0.06025322303210497,-0.023534282989513513,-0.09648738923830742,-0.0922508833790679,-0.3482078042469145,0.13767706123499604
289,8.543227599991951,-0.0012969800930526245,0.057432778929717494,-0.11360001578795995,0.045642244572648115,0.14333323629520486,-0.123687933919136,-0.06069532720961875,-0.025219553292770765,-0.09581697452643738,-0.0902238913972357,-0.34738948526750035,0.13904307901859686
290,8.55049519999011,-0.0010765392517554707,0.058126984796521196,-0.11420045383632961,0.04534709434483867,0.14320696026860963,-0.1241505699668675,-0.06112755850287352,-0.026900741079911382,-0.09513996014754048,-0.08817597936057922,-0.3465228504191194,0.14040114080246452
291,8.561450299996068,-0.0008575335953681436,0.05882055907403106,-0.11480312557802926,0.045049873840097565,0.14307254844687683,-0.12460990969025697,-0.06154981691551357,-0.028577613057886836,-0.09445638482409913,-0.08610772485066986,-0.34560824726465683,0.14175117950465954
292,8.565002299990738,-0.0006399730380612993,0.05951346239201303,-0.11540801496414409,0.04475063161955444,0.1429300223048457,-0.12506592139333905,-0.0619620053104563,-0.03024993767178986,-0.09376628758315804,-0.08401973129766217,-0.3446460473532924,0.14309313675145013
293,8.569610899998224,-0.00042386725756848957,0.06020565548700505,-0.11601510579263899,0.044449416707913386,0.14277940443495946,-0.12551857356993032,-0.06236402953902538,-0.03191748522915512,-0.09306970771288377,-0.08191262656591247,-0.3436366458413029,0.14442696215808598
294,8.57501049998973,-0.00020922569297514578,0.06089709920771036,-0.11662438170928122,0.044146278578673544,0.14262071853794525,-0.1259678349047965,-0.06275579854860286,-0.03358002800442857,-0.09236668472858608,-0.07978705780210561,-0.34258045628203143,0.1457526102667042
295,8.578793799999403,3.942457419557489e-06,0.061587754520344276,-0.11723582620856814,0.04384126713890544,0.14245398941307344,-0.12641367427468636,-0.06313722446183691,-0.03523734031277913,-0.09165725835895147,-0.07764368649639117,-0.3414779052145881,0.14707003667176133
296,8.582469499990111,0.00021562823816618937,0.062277582513933095,-0.11784942263465994,0.043534432713704004,0.14227924294812216,-0.12685606074936567,-0.06350822263643274,-0.036889198562128564,-0.09094146854961188,-0.07548318529040296,-0.34032942843483943,0.1483791955178724
297,8.586550899999565,0.00042582293865253815,0.06296654440556364,-0.11846515418231743,0.04322582603038548,0.1420965061091325,-0.1272949635926856,-0.06386871171342774,-0.03853538129082635,-0.090219355473626,-0.07330623599586457,-0.33913546882870227,0.14968003812992162
298,8.593024499990861,0.0006345180950139544,0.06365460154558285,-0.11908300389784503,0.04291549820247263,0.14190580693000787,-0.1277303522637182,-0.0642186136577812,-0.040175669198682595,-0.08949095954832324,-0.07111352831593712,-0.33789647533563705,0.1509725119580734
299,8.597524500000873,0.0008417054919656313,0.06434171542274657,-0.11970295468003961,0.0426035007134983,0.14170717450196854,-0.12816219641798812,-0.06455785379425837,-0.04180984517459836,-0.08875632145600862,-0.06890575911329068,-0.33661290245447517,0.1522565600153364
300,8.601162599996314,0.0010473771645559925,0.06502784766931693,-0.12032498928114546,0.04228988540064286,0.14150063896288323,-0.12859046590880868,-0.06488636084092729,-0.04343769432280972,-0.08801548216625715,-0.06668363204287904,-0.33528521004392553,0.15353212036005248
301,8.604795399995055,0.0012515253998404074,0.06571296006610777,-0.12094909030781602,0.04197470443821319,0.14128623148646924,-0.12901513078872967,-0.06520406694148417,-0.04505900398858483,-0.08726848296163381,-0.06444785737341517,-0.3339138632005095,0.15479912592505826
302,8.609492099989438,0.0014541427384744782,0.06639701454747733,-0.12157524022208288,0.041658010320966866,0.14106398427137512,-0.12943616131112265,-0.06551090769702017,-0.04667356378328509,-0.08651536546164346,-0.06219915188873329,-0.33249933206940374,0.1560575050532357
303,8.613465699992958,0.0016552219762261545,0.06707997320626788,-0.1222034213423329,0.04133985584728327,0.1408339305301379,-0.12985352793186083,-0.06580682219739088,-0.04828116560822914,-0.08575617164326092,-0.059938238788341716,-0.331042091468204,0.15730718131574392
304,8.617870199988829,0.0018547561654059358,0.06776179829869143,-0.1228336158442935,0.041020294102183816,0.1405961044780345,-0.13026720131110336,-0.06609175305201943,-0.04988160367610803,-0.08499094386664242,-0.057665847649218165,-0.329542620972335,0.1585480727781558
305,8.621464500000002,0.00205273861621444,0.0684424522491613,-0.12346580576202702,0.04069937844020453,0.14035054132183142,-0.13067715231522434,-0.06636564642089574,-0.051474674535676876,-0.08421972490276729,-0.05538271466993011,-0.32800140584664117,0.15978009227503426
306,8.628442899993388,0.002249162898006628,0.06912189765506882,-0.12409997298893474,0.040377162468115874,0.14009727724839688,-0.13108335201886495,-0.06662845204774527,-0.053060177102197854,-0.08344255795648854,-0.05308958314146444,-0.32641893850719816,0.1610031483249622
307,8.632292399997823,0.002444022840471916,0.0698000972915045,-0.12473609927877113,0.04005370002747393,0.1398363494131555,-0.13148577170708592,-0.06688012329559104,-0.05463791269629787,-0.08265948668530733,-0.05078720357091519,-0.32479572001592544,0.16221714557417147
308,8.636263799999142,0.002637312534729308,0.07047701411592291,-0.12537416624666872,0.03972904517699557,0.1395677959283239,-0.13188438287760154,-0.06712061718112096,-0.05620768508889542,-0.0818705552181244,-0.048476332917389245,-0.3231322597915406,0.1634219844915266
309,8.640651999987313,0.0028290263343367077,0.07115261127274981,-0.126014155370174,0.03940325217477658,0.13929165585092998,-0.13227915724311384,-0.0673498944028452,-0.05776930053725722,-0.08107580817697038,-0.04615773310567991,-0.32142907367308454,0.1646175609077655
310,8.647374799998943,0.0030191588562137363,0.07182685209793091,-0.12665604799029487,0.03907637546039401,0.13900796917069905,-0.13267006673375722,-0.06756791936105996,-0.05932256781115921,-0.08027529070022232,-0.04383216960346711,-0.3196866827456858,0.16580376562240823
311,8.651690399987274,0.0032077049814776006,0.07249970012342165,-0.12729982531256032,0.03874846963693081,0.13871677679781969,-0.13305708349965759,-0.06777466017221688,-0.06086729821756397,-0.07946904846814333,-0.041500410620277116,-0.3179056134921799,0.16698048428168175
312,8.657336099990061,0.0033946598561917156,0.07317111908161737,-0.12794546840809262,0.038419589452938906,0.13841812055059072,-0.13344017991362447,-0.06797008868112411,-0.06240330562825102,-0.07865712772728213,-0.03916322668071621,-0.3160863988603531,0.16814759824510445
313,8.661439199990127,0.0035800188920267835,0.07384107290972342,-0.12859295821469308,0.03808978978434565,0.13811204314291925,-0.13381932857394666,-0.06815418047118005,-0.06393040651483664,-0.07783957530761483,-0.036821389977873285,-0.3142295792563027,0.16930498518249537
314,8.666476999991573,0.0037637777668340752,0.07450952575406411,-0.12924227553794135,0.037759125616317696,0.13779858817162832,-0.13419450230725039,-0.06832691487030844,-0.06544841998603053,-0.07701643864115905,-0.03447567327783636,-0.31233570188771914,0.17045251831114153
315,8.670205399990664,0.003945932425130758,0.07517644197432988,-0.12989340105230887,0.03742765202510992,0.1374778001035939,-0.13456567417147536,-0.06848827495057604,-0.06695716781629155,-0.07618776578650807,-0.03212684865280917,-0.3104053183370811,0.17159006557180734
316,8.673808099993039,0.004126479078497279,0.07584178614776159,-0.13054631530228705,0.03709542415993303,0.1371497242627748,-0.13493281745897073,-0.06863824752185071,-0.06845647445956687,-0.07535360545543006,-0.029775686546934355,-0.3084389821848142,0.17271748901959022
317,8.678052699993714,0.004305414205886976,0.07650552307327196,-0.13120099870353066,0.03676249722486392,0.1368144068172166,-0.13529590569972885,-0.06877682312236624,-0.06994616705491442,-0.07451400704330526,-0.027422955451995988,-0.30643724907136194,0.17383464515848587
318,8.686886899988167,0.004482734553848163,0.07716761777550399,-0.13185743154401738,0.03642892646080473,0.13647189476602703,-0.13565491266477622,-0.06890399600923773,-0.0714260754408435,-0.07366902065248301,-0.02506942202394688,-0.3044006795315402,0.174941387136474
319,8.69059610000113,0.004658437136658906,0.0778280355088261,-0.13251559398522406,0.03609476712748511,0.1361222359262409,-0.13600981236963358,-0.06901976415015564,-0.07289603218840421,-0.07281869710144702,-0.02271585119336404,-0.3023298419527447,0.17603756660809777
320,8.694823499987251,0.004832519236374699,0.0784867417612633,-0.13317546606331976,0.035760074485501774,0.13576547891947488,-0.1363605790777957,-0.0691241292149716,-0.07435587264419526,-0.07196308793012256,-0.020363005926498062,-0.30022531277504527,0.17712303419228012
321,8.69895489999908,0.005004978402789192,0.07914370225836305,-0.13383702769037578,0.03542490377840228,0.13540167315837562,-0.13670718730424286,-0.06921709656507687,-0.07580543496539245,-0.07110224540460516,-0.018011646698007103,-0.2980876750414875,0.17819763974393277
322,8.707347399991704,0.0051758124533082435,0.07979888296699503,-0.13450025865559273,0.035089310214827536,0.13503086883293508,-0.13704961181896652,-0.0692986752398785,-0.0772445601487079,-0.0702362225198358,-0.01566253088447312,-0.29591751824499163,0.17926123284221548
323,8.715470600000117,0.005345019472737598,0.0804522500990844,-0.13516513862654467,0.03475334895072665,0.13465311689665801,-0.1373878276505067,-0.06936887794030053,-0.07867309206393477,-0.06936507299959792,-0.013316412167312518,-0.293715439228031,0.18031366407531765
324,8.719762799999444,0.005512597812984584,0.08110377011527756,-0.1358316471504405,0.034417075071659274,0.13426846905255224,-0.13772181008947756,-0.06942772100947397,-0.0800908774916251,-0.06848885128674216,-0.010974039964349595,-0.2914820424137449,0.1813547862876821
325,8.724167799999123,0.005678546092674294,0.08175340972853962,-0.13649976365540226,0.03408054357519764,0.13387697773893098,-0.13805153469201017,-0.0694752244107295,-0.08149776615887419,-0.06760761253109691,-0.00863615888865803,-0.28921793817211894,0.1823844538168904
326,8.728256899994449,0.0058428631966807405,0.08240113590768257,-0.1371694674517599,0.03374380935344213,0.13347869611505636,-0.13837697728316087,-0.06951141170304317,-0.08289361076116546,-0.06672141258708815,-0.006303508256021081,-0.28692373957037054,0.1834025206056686
327,8.732406099996297,0.006005548275573599,0.08304691588082364,-0.13784073773336258,0.033406927175661266,0.13307367804673007,-0.1386981139603309,-0.06953631001425613,-0.08427826696666375,-0.06583030801994602,-0.003976821547609562,-0.2846000596476342,0.18440883843033004
328,8.736461899999995,0.006166600744981137,0.08369071713877381,-0.1385135535789066,0.03306995167106683,0.13266197809189523,-0.13901492109673508,-0.06954995001131324,-0.08565159341164992,-0.06493435612049239,-0.0016568257587330848,-0.2822475100696052,0.1854032561692777
329,8.741245799988974,0.006326020284870032,0.08433250743835667,-0.1391878939532803,0.03273293731174221,0.13224365148627132,-0.1393273753449646,-0.06955236586717169,-0.08701345169177659,-0.06403361491843618,0.00065575923098783,-0.27986670067072716,0.18638561977433288
330,8.745104000001447,0.006483806838742864,0.08497225480565772,-0.1398637377089265,0.03239593839573826,0.1318187541290408,-0.13963545364058452,-0.06954359522493618,-0.0883637063530662,-0.06312814319743872,0.0029602211770586653,-0.27745823932089553,0.1873557714461474
331,8.750889999995707,0.006639960612754121,0.08560992753920448,-0.1405410635872223,0.03205900903034917,0.13138734256857118,-0.13993913320584275,-0.06952367915973377,-0.0897022248818751,-0.062218000516399974,0.005255855834088225,-0.275022731509904,0.18831354996847274
332,8.755071199993836,0.006794482074745622,0.08624549421307746,-0.14121985021987746,0.03172220311557776,0.13094947398819903,-0.14023839155347365,-0.0694926621393219,-0.0910288776918645,-0.06130324722128461,0.007541967100089552,-0.27256078034774534,0.18925879186850036
333,8.758941899999627,0.006947371953202289,0.08687892367995255,-0.14190007613035105,0.03138557432779315,0.13050520619207825,-0.1405332064905216,-0.06945059198456478,-0.09234353811396752,-0.06038394445516361,0.009817866997043902,-0.27007298671918467,0.19019133101963967
334,8.763039299999946,0.0070986312361292,0.08751018507407476,-0.14258171973528685,0.03104917610357904,0.13005459759106125,-0.140823556122242,-0.06939751983022985,-0.09364608238485805,-0.05946015417388976,0.012082875599384682,-0.26755994876328976,0.1911109980019421
335,8.76663469999039,0.007248261169850841,0.08813924781416384,-0.14326475934596786,0.03071306162377125,0.12959770718865904,-0.1411094188560768,-0.06933350008615716,-0.09493638963187408,-0.05853193916233721,0.014336320947507707,-0.2650222616313703,0.19201761973649614
336,8.771484799988684,0.00739626325773347,0.08876608160625196,-0.14394917316979017,0.03037728379768235,0.1291345945670685,-0.14139077340571274,-0.06925859039889397,-0.09621434185914081,-0.057599363053619936,0.016577539115416352,-0.2624605178972051,0.19291101933026428
337,8.775979499987443,0.007542639258831495,0.08939065644645391,-0.14463493931175683,0.03004189524751098,0.12866531987326693,-0.1416675987952431,-0.06917285161220865,-0.09747982393646937,-0.05666249034683495,0.01880587466719904,-0.25987530886753607,0.19379101748173883
338,8.782479999994393,0.00768739118645875,0.09001294262367007,-0.1453220357759921,0.029706948292949106,0.12818994380514692,-0.14193987436339806,-0.06907634772430164,-0.09873272359817961,-0.055721386412658926,0.021020681237213037,-0.2572672266435525,0.19465743516456965
339,8.786541199995554,0.00783052130668571,0.09063291072222217,-0.14601044046727618,0.02937249493600602,0.1277085275976223,-0.14220757976776055,-0.06896914584269695,-0.09997293145197607,-0.054776117485085096,0.02322132173057257,-0.25463686511070444,0.19551009493687624
340,8.790744899990386,0.007972032136763698,0.09125053162442166,-0.14670013119260045,0.02903858684605272,0.12722113300867696,-0.14247069498891657,-0.06885131613951023,-0.1012003409873628,-0.05382675065433168,0.025407168042005216,-0.2519848189923393,0.1963488200593078
341,8.795126299999538,0.008111926443477168,0.0918657765130703,-0.14739108566274237,0.028705275345079388,0.12672782230538931,-0.14272920033460232,-0.0687229318090648,-0.10241484857534838,-0.05287335386712544,0.02757760054949977,-0.24931168211243152,0.19717343366985968
342,8.799087799998233,0.008250207241425053,0.09247861687389307,-0.14808328149386085,0.028372611393150515,0.12622865824998394,-0.14298307644385724,-0.06858406902806662,-0.10361635346002533,-0.05191599592760672,0.029732007760807398,-0.2466180459461873,0.19798375796134582
343,8.803037399993627,0.008386877791232086,0.09308902449790354,-0.14877669620911152,0.028040645574048315,0.12572370408593767,-0.14323230429117997,-0.06843480691664594,-0.1048047577442294,-0.05095474650558392,0.03186978624769823,-0.24390449890376747,0.19877961308429912
344,8.8077123999974,0.008521941597691032,0.09369697148370223,-0.14947130724028226,0.02770942808110537,0.12521302352417016,-0.14347686519076133,-0.06827522749916945,-0.10597996637417775,-0.0499896761480702,0.03399034062608139,-0.24117162592005983,0.199560816655762
345,8.811608999996679,0.008655402407836715,0.09430243023970812,-0.15016709192944955,0.027379008703227813,0.12469668072929889,-0.14371674080075209,-0.06810541566547454,-0.10714188712115286,-0.04902085629229816,0.036093083474901276,-0.23842000785691833,0.20032718336560873
346,8.81561679999868,0.0087872642089528,0.09490537348632376,-0.15086402753065534,0.027049436811103635,0.12417474030600724,-0.14395191312762207,-0.06792545913246738,-0.10829043056034791,-0.04804835928107157,0.038177435430247306,-0.23565022185428028,0.2010785255871592
347,8.819855499998084,0.008917531226512175,0.09550577425803475,-0.15156209121160563,0.02672076134359802,0.12364726728550443,-0.1441823645305767,-0.06773544840444523,-0.10942551005595333,-0.04707225836986272,0.040242825536429765,-0.23286284171439595,0.20181465395439704
348,8.824674099989352,0.009046207922051885,0.0961036059054436,-0.1522612600553902,0.026393030794346153,0.12311432711203818,-0.1444080777259849,-0.06753547673129233,-0.11054704174372562,-0.04609262773657054,0.042288691741551296,-0.23005843715229143,0.20253537647737385
349,8.828814099993906,0.009173298990983597,0.09669884209723853,-0.15296151106222403,0.02606629319855366,0.12257598562952354,-0.14462903579189018,-0.06732564006399974,-0.11165494450881032,-0.04510954249719028,0.04431448139858184,-0.22723757342987497,0.2032404983004503
350,8.834036599990213,0.00929880936034062,0.09729145682209772,-0.15366282115121074,0.025740596120020474,0.12203230906827048,-0.14484522217259035,-0.06710603700800546,-0.1127491399647651,-0.04412307871791446,0.04631965156105919,-0.22440081111211466,0.2039298221893655
351,8.838384499991662,0.009422744186462615,0.0978814243905295,-0.15436516716212847,0.025415986638393437,0.12148336403181598,-0.14505662068326594,-0.06687676877584874,-0.11382955242901986,-0.04313331342608254,0.04830366907449511,-0.22154870545729807,0.2046031484076953
352,8.843762799995602,0.009545108852619088,0.09846871943664905,-0.15506852585723813,0.025092511336648977,0.12092921748388943,-0.145263215514666,-0.06663793913962433,-0.11489610889599104,-0.042140324623479004,0.050266010747789566,-0.2186818062803442,0.2052602748415804
353,8.849964599998202,0.0096659089665728,0.09905331691989216,-0.15577287392311462,0.024770216288806473,0.12036993673550532,-0.14546499123786538,-0.06638965438197576,-0.11594873901121708,-0.04114419129607438,0.05220616405694616,-0.21580065846957822,0.20590099891934582
354,8.856781599999522,0.00978515035808419,0.09963519212666697,-0.1564781879725013,0.02444914704788583,0.1198055894321792,-0.14566193280904494,-0.06613202324173004,-0.11698737504948065,-0.04014499340872078,0.05412362849243638,-0.21290580302560388,0.2065251203855751
355,8.862859699991532,0.009902839076358085,0.10021432067194377,-0.15718444454618746,0.024129348634147698,0.11923624354123241,-0.14585402557419738,-0.06586515685183392,-0.11801195189901156,-0.03914281188801013,0.05601791685545617,-0.20999777774655093,0.20713244286016014
356,8.86729209999612,0.010018981387434164,0.10079067850078373,-0.15789162011490843,0.023810865523652476,0.11866196733916118,-0.14604125527374143,-0.06558916867242702,-0.11902240704624957,-0.03813772860186137,0.05788855564883615,-0.20707711693768752,0.2077227748121483
357,8.874034599997685,0.010133583771522797,0.10136424188980632,-0.15859969108126773,0.023493741637149106,0.11808282939908894,-0.14622360804702977,-0.06530417442498986,-0.12001868055723316,-0.03712982633294137,0.05973508448198148,-0.20414435055919078,0.20829592949708867
358,8.878506799999741,0.01024665292028783,0.10193498744859639,-0.15930863378168086,0.023178020329272242,0.11749889857831583,-0.1464010704367057,-0.0650102920311835,-0.12100071505410366,-0.03611918875885933,0.06155705500000277,-0.2012000030960959,0.20885172200237762
359,8.882033299989416,0.01035819573407774,0.102502892121051,-0.16001842448833975,0.022863744378023715,0.11691024400599868,-0.1465736293930191,-0.06470764155737513,-0.121968455685543,-0.035105900454220455,0.06335402965794444,-0.19824459250730858,0.20938996613447516
360,8.88610059999337,0.010468219319106487,0.10306793318666707,-0.16072903941119826,0.0225509559745073,0.116316935070987,-0.14674127227820302,-0.06439634516535633,-0.12292185009309298,-0.03409004690098547,0.06512558079602677,-0.19527862911150895,0.20991047341048127
361,8.890967999992426,0.010576730984585187,0.10363008826177035,-0.1614404546999791,0.022239696712887752,0.11571904140982937,-0.14690398687089007,-0.06407652706583022,-0.12386084837079664,-0.033071714500296674,0.06687129051607406,-0.19230261503786172,0.21041305290887857
362,8.894782499992289,0.010683738239805668,0.10418933530068682,-0.1621526464462022,0.021930007580576324,0.1151166328950005,-0.1470617613706035,-0.06374831347032724,-0.1247854030261945,-0.03205099058428389,0.06859075102443199,-0.18931704508165118,0.2108975125197231
363,8.89837899999111,0.010789248791177028,0.10474565259685759,-0.16286559068523498,0.02162192894865577,0.11450977962328562,-0.14721458440228813,-0.06341183254136913,-0.12569546894825764,-0.031027963415775208,0.07028356475018205,-0.18632240714525355,0.21136366040586993
364,8.903853899988462,0.0108932705392164,0.10529901878389773,-0.16357926339836476,0.021315500562548804,0.1138985519043183,-0.14736244502079854,-0.06306721434323921,-0.12659100337265733,-0.030002722185942653,0.07194934422333973,-0.18331918194803315,0.21181130473047025
365,8.9079911000008,0.010995811575495089,0.10584941283660013,-0.16429364051489254,0.021010761532920183,0.11328302024930138,-0.1475053327154072,-0.06271459079332667,-0.12747196584688675,-0.028975357016653637,0.07358771242147097,-0.18030784320989607,0.21224025350505454
366,8.91149429998768,0.011096880179541161,0.10639681407188495,-0.16500869791424896,0.020707750326816675,0.1126632553598828,-0.14764323741431548,-0.062354095609537835,-0.12833831819730937,-0.027945958959588808,0.07519830372672323,-0.1772888575304051,0.2126503151980802
367,8.915960499987705,0.011196484815699728,0.10694120214969573,-0.16572441142813196,0.020406504759078764,0.11203932811719583,-0.1477761494891532,-0.0619858642523662,-0.1291900244931093,-0.02691461999269626,0.07678076468644418,-0.17426268391426536,0.21304129885729042
368,8.919816800000262,0.011294634129952309,0.10748255707384265,-0.16644075684266624,0.020107061984042,0.11141130957108429,-0.14790405975945534,-0.0616100338649327,-0.13002705100874115,-0.025881433018123613,0.07833475427042057,-0.17122977366462805,0.2134130130126195
369,8.923931599987554,0.011391336946696688,0.10802085919279417,-0.1671577099005843,0.019809458487529758,0.11077927092950667,-0.1480269594971414,-0.06122674321256293,-0.13084936618684653,-0.024846491869303884,0.07985994393781803,-0.16819057033890825,0.21376526475967472
370,8.928050499991514,0.01148660226548869,0.10855608920041765,-0.16787524630342934,0.019513730079140132,0.11014328354812063,-0.1481448404310609,-0.06083613262217871,-0.13165694060027572,-0.023809891317769293,0.08135601786169722,-0.1651455097322389,0.21409786101082096
371,8.932564199989429,0.011580439257747285,0.10908822813667005,-0.1685933417137804,0.01921991188482603,0.10950341892005526,-0.14825769475153885,-0.06043834391969957,-0.13244974691484374,-0.022771727068113208,0.08282267365352572,-0.16209501992371506,0.21441060901565043
372,8.936513599997852,0.011672857263424461,0.10961725738823941,-0.16931197175749924,0.0189280383397887,0.10885974866585647,-0.14836551511487223,-0.060033520362413294,-0.13322775985180027,-0.02173209575976022,0.08425962348439794,-0.15903952087975973,0.21470331455898842
373,8.940663499990478,0.011763865787641464,0.11014315868913814,-0.170031112025999,0.01863814318171319,0.10821234452362292,-0.14846829464789268,-0.059621806565511935,-0.13399095614674203,-0.020691094979390732,0.0856665951271612,-0.15597942352402128,0.2149757818997142
374,8.944962199995643,0.011853474497293117,0.11066591412124892,-0.1707507380785354,0.018350259444373806,0.1075612783393496,-0.1485660269525835,-0.059203348424363415,-0.13473931450306928,-0.019648823263303902,0.08704333257604721,-0.15291512914242658,0.21522781499258087
375,8.949106399988523,0.01194169321762209,0.11118550611482436,-0.1714708254445202,0.018064419451622824,0.10690662205751478,-0.14865870611066512,-0.05877829303504285,-0.13547281554513274,-0.018605380098001906,0.08838959625274251,-0.14984702939839237,0.21545921709099292
376,8.95309099998849,0.012028531928764966,0.11170191744894174,-0.1721913496258566,0.017780654811766036,0.10624844771187765,-0.14874632668821774,-0.05834678861460718,-0.13619144177183753,-0.017560865926402255,0.08970516281756871,-0.14677550622687502,0.2156697913874687
377,8.957346499999403,0.012114000762272007,0.11221513125191347,-0.1729122860992977,0.017498996412324073,0.1055868274165149,-0.14882888374032713,-0.05790898442345629,-0.13689517750876334,-0.01651538214221551,0.09098982451760089,-0.14370093210760068,0.21585934262943876
378,8.961417699989397,0.012198109997602454,0.11272513100165495,-0.17363361031882693,0.017219474415160328,0.10492183335708231,-0.14890637281565267,-0.05746503069192484,-0.13758400886441616,-0.015469031080499325,0.0922433883154122,-0.14062367070643422,0.21602767699718065
379,8.965741299994988,0.012280870058597076,0.11323190052601036,-0.17435529771806058,0.016942118251953655,0.10425353778227531,-0.14897878996098163,-0.057015078551086514,-0.13825792368856377,-0.014421916013219079,0.09346567512099997,-0.13754407757701517,0.21617460216706558
380,8.969945099990582,0.0123622915099296,0.11373542400303778,-0.17507732371267257,0.01666695661999685,0.1035820129954943,-0.14904613172575426,-0.05655927996678904,-0.13891691153528687,-0.013374141139188998,0.09465651926762002,-0.13446250072408192,0.21629992758406266
381,8.97389409999596,0.012442385053538542,0.11423568596125422,-0.17579966370284075,0.016394017478308598,0.1029073313466633,-0.14910839516652052,-0.056097787675537976,-0.13956096362677362,-0.012325811576992023,0.09581576817999084,-0.13137928000881685,0.2164034644301133
382,8.978194600000279,0.012521161525040961,0.11473267127984141,-0.17652229307571488,0.01612332804405329,0.10222956522424614,-0.14916557785139659,-0.05563075512174707,-0.14019007281060802,-0.011277033355227416,0.09694328205812579,-0.12829474710422872,0.21648502663285643
383,8.984371799990186,0.012598631890129598,0.11522636518881349,-0.17724518720790605,0.015854914789261064,0.10154878704747898,-0.14921767786442705,-0.05515833639668595,-0.14080423352313218,-0.010227913395655333,0.09803893367884997,-0.12520922712660212,0.21654443232951018
384,8.991953599994304,0.012674807240954834,0.11571675326914754,-0.17796832146799701,0.015588803437839246,0.10086506925874156,-0.1492646938098781,-0.05468068617765395,-0.1414034417625446,-0.009178559489258355,0.09910260864729571,-0.12212304011297073,0.21658150572531643
385,8.996528999996372,0.012749698792492879,0.11620382145287733,-0.1786916712190732,0.015325018962881855,0.1001784843160504,-0.1493066248163678,-0.05419795966449061,-0.1419876950665802,-0.008129080261376369,0.10013420587003066,-0.11903650181572041,0.21659607819329726
386,9.00081249998766,0.012823317878901655,0.11668755602315109,-0.179415211821273,0.01506358558429631,0.09948910468564642,-0.14934347054082128,-0.05371031251416453,-0.142556992493309,-0.007079585137110654,0.10113363756629168,-0.11594992397701077,0.21658798821307623
387,9.005226799999946,0.012895675949865982,0.11716794361425344,-0.18013891863435724,0.014804526766746802,0.09879700283467413,-0.1493752311722658,-0.053217900777175,-0.14311133460147532,-0.006030184307051633,0.10210082870552284,-0.11286361432789006,0.21655708021082734
388,9.009496399987256,0.012966784566933532,0.11764497121159222,-0.1808627670202961,0.01454786521789732,0.09810225122395978,-0.14940190743545392,-0.052720880837591584,-0.143650723431288,-0.004980988703924702,0.10303571627177863,-0.10977787651350979,0.2165032029130385
389,9.013497599997208,0.01303665539984299,0.11811862615165043,-0.18158673234587377,0.01429362288693609,0.09740492230087679,-0.1494235005944321,-0.05221940935658416,-0.14417516248403495,-0.003932109984271212,0.10393824871288598,-0.10669300992378546,0.21642620901105727
390,9.01740109999082,0.013105300222845711,0.11858889612190394,-0.18231078998531,0.014041820963365828,0.09670508849232136,-0.1494400124559864,-0.05171364321780052,-0.14468465670123212,-0.002883660508345098,0.10480838575535385,-0.10360930984589467,0.21632595473519764
391,9.02159329999995,0.013172730911022152,0.11905576916070533,-0.18303491532289803,0.013792479876057515,0.09600282219778,-0.1494514453730163,-0.05120373947269012,-0.14517921244571605,-0.0018357533259210804,0.10564609859504229,-0.10052706787805607,0.21620229951632983
392,9.02636309999798,0.013238959436594365,0.1195192336571344,-0.18375908375565894,0.013545619292570501,0.0952981957824884,-0.14945780224784283,-0.050689855284033934,-0.14565883748480266,-0.000788502159470732,0.10645137043870835,-0.09744657238512747,0.21605510711637552
393,9.03197789999831,0.013303997865235834,0.11997927835081579,-0.1844832706960116,0.013301258118753516,0.09459128157066207,-0.14945908653541937,-0.05017214786602022,-0.14612354097579475,0.00025797862098464285,0.1072241970927695,-0.09436810889523148,0.215884247643101
394,9.036274199999752,0.013367858352380108,0.12043589233170382,-0.18520745157445806,0.013059414498645486,0.09388215183879575,-0.14945530224639605,-0.049650774422068826,-0.1465733334529845,0.0013035740342227623,0.10796458685853119,-0.09129196096943337,0.2156895998640108
395,9.040465300000506,0.013430553139529674,0.1208890650398352,-0.18593160184228336,0.01282010581467907,0.09317087880901997,-0.14944645394997838,-0.049125892085922294,-0.1470082268215888,0.002348168535390808,0.10867255944011334,-0.08821841134539068,0.21547105190917595
396,9.044773099987651,0.01349209455056656,0.1213387862650495,-0.1866556969742685,0.01258334868815235,0.0924575346424592,-0.1494325467765306,-0.04859765787005314,-0.14742823435583438,0.0033916460591650963,0.10934814473760764,-0.08514774173960757,0.21522850023620282
397,9.049048599990783,0.013552494988065787,0.12178504614667748,-0.1873797124714155,0.012349158979932332,0.09174219143260702,-0.149413586420016,-0.04806622861845017,-0.14783337069097702,0.004433890057291315,0.10999138261457206,-0.0820802327545021,0.21496185081806565
398,9.061383399995975,0.013611766929612778,0.1222278351731974,-0.188103623863684,0.012117551791384176,0.09102492119876156,-0.14938957914023668,-0.04753176095727887,-0.14822365182048608,0.005474783553255157,0.11060232394091085,-0.0790161654046502,0.21467102216189712
399,9.065515999987838,0.013669922924125822,0.12266714418185963,-0.1888274067127381,0.011888541465552835,0.09030579587942798,-0.14936053176474387,-0.04699441123756147,-0.148599095102854,0.006514209209076847,0.11118103229683664,-0.07595582197062474,0.21435594860441817
400,9.069893099993353,0.013726975588184935,0.12310296435827915,-0.1895510366147014,0.011662141588647755,0.08958488732568795,-0.14932645169043043,-0.04645433546932473,-0.14895971926705526,0.0075520494119168955,0.11172758529939378,-0.0728994859521641,0.21401658369573792
401,9.077822799998104,0.013782937602368709,0.12353528723599587,-0.19027448920291928,0.01143836499186267,0.08886226729454917,-0.14928734688460205,-0.04591168925142498,-0.14930554441890204,0.008588186373662125,0.11224207515364562,-0.06984744178000277,0.21365290050584296
402,9.082211799992365,0.013837821707600808,0.12396410469600261,-0.1909977401507244,0.011217223753540348,0.08813800744225328,-0.14924322588560449,-0.04536662770035448,-0.1496365920437106,0.009622502220501528,0.11272460870598473,-0.06679997362552195,0.21326489003865445
403,9.0864498999872,0.013891640701507795,0.12438940896624065,-0.19172076517420492,0.010998729201682308,0.08741217931759956,-0.14919409780302684,-0.044819305379549916,-0.14995288500112156,0.010654879077143346,0.11317530701118711,-0.06375736422578347,0.2128525591241347
404,9.090771999995924,0.013944407434789951,0.124811192621063,-0.19244354003497208,0.010782891916798616,0.08668485435530303,-0.14913997231751264,-0.04426987623239427,-0.15025444751638,0.0116851991359639,0.11359430431097314,-0.060719894382116814,0.21241592737319215
405,9.094736799990642,0.013996134807606718,0.12522944858066554,-0.19316604054292655,0.010569721735066857,0.08595610386940263,-0.14908085968029297,-0.0437184935214238,-0.15054130517029674,0.012713344711715471,0.11398174694740361,-0.05768784273061593,0.21195502418755963
406,9.09926849999465,0.014046835765978129,0.12564417011048645,-0.1938882425590215,0.010359227751771071,0.0852259990467166,-0.14901677071246747,-0.04316530977185993,-0.15081348488830432,0.013739198281698667,0.1143377926632836,-0.05466148549698918,0.21146988704942238
407,9.103660699998729,0.014096523298203576,0.12605535082057395,-0.194610121998022,0.010151418325007938,0.08449461094035678,-0.1489477168041481,-0.04261047671759581,-0.1510710149280426,0.014762642523895548,0.11466261017338986,-0.05164109620852746,0.21096056234749228
408,9.110952199989695,0.014145210431299161,0.1264629846649228,-0.1953316548312597,0.009946301079649137,0.08376201046330421,-0.1488737099133706,-0.04205414524888334,-0.15131392486562356,0.015783560365147255,0.1149563788802933,-0.04862694581573834,0.2104271073578099
409,9.117297599994345,0.014192910227454858,0.12686706594077987,-0.19605281708938174,0.009743882911554492,0.08302826838205658,-0.14879476256477145,-0.041496465361073584,-0.15154224558439558,0.016801835038482555,0.11521928863612153,-0.045619303590530694,0.2098695923797187
410,9.121541699991212,0.014239635780512691,0.127267589287919,-0.19677358486509272,0.009544169992031068,0.08229345531031272,-0.14871088784794373,-0.040937586104612525,-0.1517560092699123,0.017817350151994624,0.11545153939767043,-0.04261843746357837,0.20928810055320962
411,9.126145699992776,0.014285400212467112,0.12766454968788543,-0.1974939343158875,0.009347167772530895,0.08155764170266876,-0.14862209941544657,-0.04037765553712369,-0.15195524940196622,0.018829989744399526,0.11565334091945018,-0.0396246132310748,0.2086827245330491
412,9.130445999995572,0.0143302166699887,0.12805794246320956,-0.19821384166677392,0.009152880989574421,0.08082089784837986,-0.14852841148062268,-0.039816820676378505,-0.15214000074187042,0.019839638321682864,0.11582491281078262,-0.036638093546874834,0.20805356435429015
413,9.134082799995667,0.014374098320972252,0.12844776327659088,-0.19893328321298454,0.008961313669903985,0.08008329386517961,-0.14842983881525262,-0.03925522745182561,-0.15231029931472526,0.0208461808919735,0.11596648472453143,-0.033659136826438486,0.2074007271893228
414,9.138211899989985,0.014417058351110427,0.1288340081300519,-0.19965223532267656,0.008772469135876988,0.07934489969321362,-0.1483263967470344,-0.038693020655732276,-0.15246618238607856,0.021849502999835853,0.11607829634389477,-0.03068799761154429,0.20672432673726046
415,9.142441599993615,0.014459109960494093,0.12921667336406328,-0.20037067443961915,0.008586350011092841,0.07860578508908508,-0.14821810115690545,-0.038130343894841726,-0.15260768844772662,0.02284949075522632,0.11616059755580085,-0.027724927515617604,0.20602448358954248
416,9.149105499993311,0.014500266360240505,0.12959575565664,-0.2010885770858674,0.008402958226254613,0.07786601961992595,-0.14810496847624155,-0.0375673395398342,-0.15273485720353533,0.023846030871328527,0.1162136493066518,-0.024770175072269324,0.20530132846388516
417,9.153980099988985,0.014540540769150456,0.12997125202240906,-0.20180591986442248,0.008222295025285733,0.07712567265757993,-0.1479870156838122,-0.03700414866869151,-0.15284772955377335,0.024839010724849116,0.1162377248567294,-0.021823987046357195,0.2045550055880835
418,9.162010499989265,0.014579946410395728,0.13034315981164935,-0.20252267946187621,0.008044360971740484,0.07638481337282546,-0.14786426030239525,-0.036440911004001986,-0.15294634759363845,0.025828318426644493,0.11623311043963744,-0.018886609622865903,0.20378567431728425
419,9.16711260000011,0.014618496508238366,0.13071147670930328,-0.20323883265103831,0.007869155955528263,0.07564351072957301,-0.1477367203950478,-0.03587776484993454,-0.1530307546091118,0.026813842897689174,0.11620010482206682,-0.015958287614225828,0.2029935102635929
420,9.174996599991571,0.014656204284783295,0.13107620073396045,-0.2039543562935448,0.007696679199934842,0.07490183347912822,-0.14760441456098464,-0.03531484703380984,-0.15310099506780261,0.02779547395064926,0.11613901827636819,-0.013039264643998709,0.2021787052629729
421,9.178945099993143,0.014693082956765632,0.1314373302368137,-0.2046692273424454,0.007526929268912845,0.07415985015447792,-0.14746736193105872,-0.034752292853030886,-0.15315711461658246,0.02877310236553,0.11605017152056307,-0.010129783511745696,0.20134146533296576
422,9.18246189999627,0.01472914573237395,0.13179486390058737,-0.20538342284476804,0.007359904074617291,0.07341762906457618,-0.14732558216290645,-0.03419023602692624,-0.15319916007596582,0.029746619951458098,0.11593389460914393,-0.007230085614176802,0.20048200783832446
423,9.186971999995876,0.014764405808110625,0.132148800738438,-0.20609691994405935,0.0071956008851627494,0.0726752382886848,-0.1471790954358294,-0.033628808654429555,-0.15322717943213487,0.030715919594862178,0.11579052550527716,-0.0043404106707265345,0.1996005582561754
424,9.190721199993275,0.014798876365690262,0.13249914009282773,-0.20680969588289946,0.007034016332568993,0.0719327456707367,-0.14702792244547283,-0.03306814117975923,-0.15324122182866068,0.03168089528990714,0.1156204082146429,-0.0014609961745762833,0.19869734566142525
425,9.194683099995018,0.014832570568977044,0.13284588163437044,-0.2075217280053909,0.006875146420850746,0.07119021881375652,-0.14687208439841234,-0.03250836236818238,-0.15324133755320798,0.032641442142924935,0.11542389083743326,0.001407923065169293,0.19777259839659744
426,9.197973899994397,0.01486550156096156,0.13318902536065103,-0.20823299375962104,0.006718986534198203,0.07044772507435294,-0.1467116030067895,-0.031949599290572034,-0.15322757802481973,0.03359745636088646,0.11520132441307454,0.0042661148930422214,0.19682654157233243
427,9.201424899991252,0.01489768246077742,0.1335285715950181,-0.20894347070009892,0.006565531445216426,0.06970533155726251,-0.1465465004830103,-0.03139197731036662,-0.1531999957809169,0.03454883523161034,0.1149530635722272,0.007113349227186363,0.1958593981349234
428,9.215935100000934,0.014929126360757935,0.13386452098535054,-0.20965313649016637,0.006414775323232236,0.06896310510996786,-0.1463767995345724,-0.030835620061808806,-0.1531586444702038,0.03549547712258006,0.11467946928932428,0.00994939555881168,0.19487139761709202
429,9.219766700000037,0.014959846323533229,0.13419687450279794,-0.2103619689043847,0.0062667117427444964,0.06822111231731039,-0.14620252335877515,-0.030280649410230846,-0.15310357886390014,0.03643728154595414,0.11438091210385752,0.012774019261611293,0.1938627879104996
430,9.224194800000989,0.014989855379168807,0.13452563344049495,-0.2110699458308945,0.006121333692115862,0.06747941949599956,-0.14602369563691692,-0.029727185399076823,-0.15303485488441068,0.037374149271467476,0.11405777328325448,0.015586979884212043,0.1928338392645969
431,9.228973899997072,0.015019166522346904,0.1348507994122486,-0.2117770452737462,0.005978633582536456,0.06673809268894777,-0.14584034052791087,-0.029175346198918883,-0.1529525296331047,0.038305982430193355,0.11371044325030648,0.018388032858162144,0.19178483928200554
432,9.23479609999049,0.015047792709591909,0.1351723743511976,-0.21248324535519791,0.005838603257209697,0.0659971976595105,-0.1456524826614768,-0.028625248069718816,-0.15285666140243412,0.03923268457894635,0.1133393189010599,0.021176932455991188,0.19071608611663157
433,9.24222249999002,0.015075746856540732,0.135490360508444,-0.21318852431798005,0.005701234000681679,0.06525679988570364,-0.14546014713113284,-0.028077005335835906,-0.15274730967504702,0.04015416073812908,0.11294480163202984,0.023953433376718732,0.1896278845120593
434,9.245944399997825,0.015103041835258643,0.1358047604516564,-0.2138928605275253,0.005566516548269195,0.06451696455445233,-0.14526335948702054,-0.02753073036740625,-0.15262453512054114,0.041070317417744244,0.1125272963299977,0.026717290563646523,0.18852054320510284
435,9.249472399998922,0.015129690471600999,0.13611557706364574,-0.21459623247416357,0.005434441095569569,0.06377775655583971,-0.14506214572864448,-0.026986533565140206,-0.15248839959634317,0.041981062630079904,0.11208721076950146,0.02946825960089818,0.18739437413579565
436,9.253221899998607,0.01515570554262124,0.13642281354091298,-0.21529861877528178,0.005304997308035993,0.06303924047734723,-0.14485653229757436,-0.02644452334754047,-0.15233896614061937,0.042886305908065754,0.11162495519548803,0.03220609774950336,0.18624969378979409
437,9.257315599999856,0.015181099774025408,0.136726473392169,-0.215999998177448,0.005178174330611235,0.06230148059817211,-0.14464654607000682,-0.02590480613974393,-0.15217629896311452,0.043785958330967246,0.11114094192877595,0.03493056352128298,0.18508682350043565
438,9.261486199990031,0.015205885837673502,0.13702656043682718,-0.21670034955849912,0.005053960797411105,0.061564540883556416,-0.1444322143492185,-0.025367486364563107,-0.1520004634421919,0.04467993254566904,0.1106355849313028,0.03764141640389216,0.18390608978566814
439,9.266140299994731,0.015230076349127838,0.13732307880346833,-0.21739965192959193,0.004932344841444971,0.06082848497913325,-0.14421356485792156,-0.02483266643554106,-0.15181152611833673,0.04556814279563423,0.11010929954701922,0.040338417348803154,0.18270782480645542
440,9.270373599996674,0.015253683865248599,0.13761603292827856,-0.21809788443721667,0.004813314104366536,0.06009337620531872,-0.1439906257304362,-0.02430044675050377,-0.1516095546864673,0.046450504946630056,0.10956250248473462,0.043021328771663384,0.18149236401830723
441,9.273963599989656,0.01527672088183669,0.13790542755345983,-0.21879502636517226,0.004696855746256835,0.05935927755173267,-0.14376342550479682,-0.023770925684781275,-0.15139461798943493,0.047326936492928746,0.10899561179321883,0.04568991485670731,0.1802600441254481
442,9.27820209998754,0.01529919983132409,0.1381912677256137,-0.21949105713650335,0.004582956455440698,0.058626251671653654,-0.14353199311486442,-0.023244199585001336,-0.15116678600738506,0.04819735656320765,0.10840904664401538,0.04834394213694453,0.17901120381556573
443,9.282312499999534,0.015321133080511843,0.13847355879409817,-0.22018595631539914,0.004471602458329898,0.05789436087654275,-0.14329635788237566,-0.02272036276441528,-0.15092612984563483,0.04906168593387031,0.10780322683007867,0.05098317946327009,0.1777461836977465
444,9.286438899987845,0.015342532928355787,0.13875230640935846,-0.22087970360905335,0.004362779529284908,0.05716366713061599,-0.1430565495089261,-0.022199507501550222,-0.15067272172433352,0.049919847034345134,0.1071785721004742,0.05360739782107095,0.17646532563068162
