,time,x,y,z,vx,vy,vz,ax,ay,az,jx,jy,jz
0,6.9954279999947175,0.03570442126532407,-0.03166222855037142,-0.060612842550655785,0.004324194175355697,-0.018534098841384634,0.018907434722810087,-0.0025018585677343,0.02337540287829955,0.0007189410444546439,-0.01717801045394202,0.1996135798976021,-0.10295799903676073
1,6.999870200001169,0.03572511840879138,-0.03175079411641593,-0.06052221083145651,0.004312005407429564,-0.018419767527959926,0.018909698000067088,-0.0025830248779113367,0.024336280615288888,0.00022245005348045204,-0.01668524245067187,0.20133271451961166,-0.10421698282643349
2,7.004631599993445,0.035745756198962204,-0.031838800654637865,-0.060431573967225156,0.004299433269042788,-0.018300810974328903,0.01890956713159199,-0.002661803494576556,0.025305380605023884,-0.0002800841565979968,-0.016181682980440735,0.20304435994942144,-0.10547963061569862
3,7.00859159999527,0.03576633282576574,-0.03192622590178535,-0.06034094350253259,0.00428648932838743,-0.018177189857209747,0.018907013110107042,-0.0027381426778559786,0.026282666194872427,-0.0007886789038633305,-0.015667326631531392,0.20474820002464153,-0.10674583932245271
4,7.012668900002609,0.03578684653517194,-0.03201304740655079,-0.060250331121180695,0.004273185401708041,-0.018048865032627048,0.018902006846510524,-0.0028119906686198738,0.027268099215247383,-0.001303351005229098,-0.01514217091472842,0.20644391793653843,-0.10801550246173226
5,7.0164222000021255,0.03580729563038067,-0.03209924253044771,-0.06015974864658879,0.004259533553360295,-0.01791579754319309,0.018894519172317558,-0.0028832957031326143,0.02826163997658446,-0.0018241167580118373,-0.01460621640508186,0.20813119657727627,-0.1092885092867301
6,7.020532199996524,0.03582767847301093,-0.03218478844872254,-0.060069208042168185,0.004245546095796512,-0.01777794862539708,0.01888452084220016,-0.0029520060277769054,0.02926324726949715,-0.0023509919175049247,-0.014059466773395677,0.20980971891785505,-0.11056474445038986
7,7.023957400000654,0.0358479934842899,-0.032269662151301344,-0.05997872141168426,0.004231235589483141,-0.01763527971688496,0.018871982536643024,-0.0030180699140054893,0.030272878365377502,-0.002883991675306683,-0.013501928912304033,0.21147916766905964,-0.1118440884622138
8,7.028714300002321,0.03586823914624136,-0.03235384044377139,-0.05988830099960554,0.0042166148427429506,-0.017487752463742873,0.01885687486469133,-0.003081435674273942,0.03129048901330093,-0.003423130641273198,-0.012933613188281965,0.21313922476213074,-0.11312641840513336
9,7.033136300000479,0.035888414002873216,-0.032437299948397676,-0.05979795919143944,0.004201696911519788,-0.017335328727806628,0.01883916836677953,-0.0031420516794081546,0.03231603343564868,-0.003968422828718354,-0.012354533851362978,0.21478957138776497,-0.11441160856557923
10,7.038019300001906,0.035908516661363674,-0.03252001710517458,-0.05970770851405421,0.004186495099054282,-0.01717797059398715,0.01881883351762101,-0.0031998663784646893,0.0333494643253865,-0.004519881642406507,-0.011764709302884441,0.21642988816922631,-0.11569953043359438
11,7.041676499997266,0.035928545793245656,-0.03260196817291263,-0.059617561635987,0.004171022955458219,-0.017015640377606025,0.01879584072915199,-0.00325482831866487,0.03439073284334656,-0.005077519863753611,-0.011164161748869725,0.21805985499746686,-0.11699005185200549
12,7.045565099993837,0.0359485001355889,-0.03268312923036044,-0.05952753136773759,0.004155294277199159,-0.016848300631747005,0.018770160353563062,-0.003306886161932455,0.03543978861392558,-0.005641349630663833,-0.010552916569949434,0.21967915072364236,-0.11828303626806473
13,7.050592600004165,0.03596837849217943,-0.03276347617736195,-0.05943763066204738,0.004139323106516279,-0.016675914154632796,0.018741762686436358,-0.0033559886987877866,0.03649657971941919,-0.006211382415556907,-0.009931001840747977,0.22128745291479132,-0.11957834253666577
14,7.054572699998971,0.03598817973469605,-0.03284298473604912,-0.059347872614163036,0.004123123730771802,-0.01649844399703086,0.018710617969987717,-0.0034020848602782966,0.037561052693378026,-0.006787629003318382,-0.009298447975450283,0.2228844374838337,-0.12087582486514463
15,7.058049500003108,0.03600790280388359,-0.03292163045207013,-0.059258270462084414,0.004106710681752475,-0.0163158534696939,0.018676696396415237,-0.0034451237284750555,0.03863315251139523,-0.00737009946879783,-0.00865528748359724,0.22446977834270473,-0.1221753330022106
16,7.062509299998055,0.036027546710722745,-0.03299938869585338,-0.05916883758679612,0.004090098734920377,-0.016128106150853982,0.01863996811135713,-0.0034850545460623295,0.039712822581137466,-0.007958803156570193,-0.008001554710145756,0.22604314733956207,-0.1234767126317391
17,7.066803399997298,0.03604711053759609,-0.03307623466390756,-0.05907958751248227,0.004073302908622468,-0.015935165893758572,0.018600403217434294,-0.0035218267243423427,0.04080000473253054,-0.00855374866220889,-0.007337285764572889,0.2276042140618981,-0.12477980535744294
18,7.070696700000553,0.036066593439450366,-0.03315214338015788,-0.05899053390672408,0.004056338463264668,-0.015736996834258735,0.018557971777887674,-0.0035553898521452254,0.04189463920590299,-0.009154943811900225,-0.0066625184814303,0.22915264567877122,-0.1260844485765797
19,7.074861300003249,0.03608599464495458,-0.03322708969731889,-0.058901690580679796,0.004039220900435996,-0.015533563398458839,0.01851264382031625,-0.003585693703455651,0.042996664640659384,-0.009762395642505849,-0.005977292121100736,0.23068810703542264,-0.12739047562935105
20,7.0788335999968695,0.03610531345765387,-0.033301048298304034,-0.058813071489246416,0.004021965962009533,-0.015324830310413326,0.018464389340505538,-0.0036126882434542322,0.04410601806433087,-0.010376110382609315,-0.00528164747218265,0.23221026052730492,-0.12869771590174922
21,7.08338549999462,0.03612454925711904,-0.03337399369767223,-0.05872469073120292,0.004004589629208655,-0.015110762599881379,0.01841317830634724,-0.0036363236371256182,0.04522263488004091,-0.010996093433564426,-0.004575627079856297,0.2337187659424712,-0.13000599489619905
22,7.087589699993259,0.03614370150009141,-0.03344590024311179,-0.058636562549334456,0.003987108121625476,-0.014891325610143842,0.018358980661849433,-0.003656550257489011,0.04634644885404502,-0.011622349351218962,-0.003859275277447747,0.23521328058762014,-0.1313151342394492
23,7.091311099997256,0.03616276972162298,-0.03351674211696192,-0.058548701330537085,0.003969537896208182,-0.014666485005877338,0.01830176633123141,-0.003673318694508836,0.04747739210440471,-0.012254881827038681,-0.0031326383991548477,0.2366934594220738,-0.1326249513677631
24,7.095984300001874,0.03618175353621157,-0.03358649333777213,-0.058461121605902736,0.00395189564619406,-0.01443620678107976,0.018241505223114813,-0.0036865797653644504,0.04861539508981156,-0.012893693666813274,-0.002395764969024675,0.23815895509706553,-0.13393525918779534
25,7.099935299993376,0.03620065263893074,-0.0336551277618997,-0.05837383805078377,0.003934198299998382,-0.014200457267051514,0.018178167234822604,-0.003696284525172355,0.0497603865986378,-0.013538786768529529,-0.001648705960959334,0.23960941823937673,-0.13524586590336907
26,7.1040999999968335,0.0362194668065543,-0.033722619085145594,-0.058286865484836727,0.003916463020044654,-0.01395920314042598,0.0181117222567823,-0.003702384279748322,0.050912293740479314,-0.014190162099416771,-0.0008915148853467073,0.2410444977979176,-0.13655657509449842
27,7.108041600004071,0.036238195898674996,-0.03378894084442891,-0.05820021887204468,0.00389870720153116,-0.01371241143123182,0.018042140177044995,-0.0037048305971600485,0.05207104193852852,-0.014847819674577534,-0.00012424769448674298,0.24246384099647814,-0.13786718623709743
28,7.111993099999381,0.03625683985881721,-0.03385406641950009,-0.05811391332071765,0.003880948471150469,-0.013460049530996552,0.01796939088589343,-0.0037035753195827,0.05323655492066447,-0.01551175853901494,0.0006530371464179335,0.24386709346762717,-0.1391774951047414
29,7.118093600001885,0.03627539871554337,-0.03391796903469304,-0.058027964083470815,0.00386320468574233,-0.013202085200894272,0.01789344428053331,-0.0036985705755320807,0.0544087547131093,-0.01618197675011466,0.0014402786671863436,0.245253899583605,-0.14048729396567597
30,7.122549899999285,0.036293872583553724,-0.03398062176071644,-0.05794238655717993,0.0038454939308959113,-0.012938486579910032,0.0178142702698693,-0.003689768791644216,0.05558756163469025,-0.016858471361560812,0.0022374133611705515,0.24662390239329152,-0.1417963718898091
31,7.126436099992134,0.03631226166477937,-0.03404199751648414,-0.05785719628291376,0.0038278345194897798,-0.01266922219304257,0.017731838779350525,-0.0036771227052103703,0.056772894289891906,-0.017541238408760772,0.00304437527978201,0.24797674366146746,-0.14310451512710246
32,7.130820999998832,0.036330566249468024,-0.03410206907098509,-0.057772408945843054,0.003810244990173975,-0.01239426095953529,0.01764611975588628,-0.0036605853750505003,0.05796466956349455,-0.018230272896388327,0.0038610960718429605,0.24931206398712938,-0.14441150735966637
33,7.134973299995181,0.03634878671726249,-0.03416080904519266,-0.05768804037512584,0.0037927441058057576,-0.012113572201130386,0.01755708317281094,-0.0036401101936710503,0.0591628026147606,-0.018925568786225058,0.0046875046921252845,0.25062950281132035,-0.14571712963047603
34,7.1391043000039645,0.036366923538271465,-0.034218189914013666,-0.057604106543768845,0.003775350851815139,-0.011827125650355551,0.017464699034916237,-0.003615650900932354,0.060367206872148006,-0.019627118984020184,0.005523527354141323,0.2519286984171089,-0.14702116080048266
35,7.145595699999831,0.03638497727413229,-0.03427418400827713,-0.057520623568464505,0.0037580844345096133,-0.011534891458828783,0.017368937383542116,-0.003587161596658979,0.0615777940274965,-0.02033491533171381,0.006369087451323902,0.25320928764610173,-0.14832337836009968
36,7.15044399999897,0.03640294857906555,-0.03432876351676293,-0.0574376077094036,0.003740964279318803,-0.011236840205600817,0.01726976830168356,-0.003554596755062696,0.0627944740280235,-0.021048948602075693,0.00722410526556997,0.25447090578011994,-0.14962355860257753
37,7.154035600004136,0.036420838200920985,-0.034381900488270535,-0.05735507537006333,0.0037240100289609346,-0.010932942905536666,0.017167161919132857,-0.0035179112401467296,0.06401715506937605,-0.02176920849259045,0.008088498046032535,0.25571318673025645,-0.15092147672598247
38,7.160141100001056,0.036438646982214495,-0.03443356683372799,-0.057273043096970636,0.003707241541539817,-0.010623171017724654,0.017061088417645018,-0.003477060319373426,0.06524574358943908,-0.0224956836210739,0.00896218021391767,0.25693576298983195,-0.15221690691210674
39,7.16673169999558,0.03645637586115584,-0.034483734328341245,-0.05719152757944075,0.0036906788885802985,-0.010307496453917308,0.016951518036122076,-0.0034319996771053156,0.06648014426093635,-0.023228361520314718,0.00984506329946986,0.2581382655161261,-0.15350962224812412
40,7.17081579999649,0.036474025872666786,-0.034532374613784084,-0.05711054564929084,0.0036743423529964014,-0.009985891587011323,0.01683842107582988,-0.0033826854288768436,0.06772025998410501,-0.02396722863293975,0.010737055831687558,0.25932032385624193,-0.1547993948284566
41,7.177911099992343,0.03649159814938934,-0.03457945920042873,-0.05703011428052856,0.0036582524269899675,-0.009658329259558675,0.016721767905631596,-0.003329074135892618,0.06896599188050309,-0.024712270307032165,0.011638063330450817,0.2604815662024492,-0.15608599585739324
42,7.182316799997352,0.036509093922683755,-0.03462495946961735,-0.05695025058901548,0.0036424298098798134,-0.009324782792305947,0.016601528967246516,-0.003271122819374604,0.07021723928621454,-0.025463470791980483,0.012547988330146897,0.26162161925828176,-0.15736919569647467
43,7.187627599996631,0.036526514523615945,-0.034668846675974536,-0.05687097183210529,0.0036268954058628435,-0.008985225992770574,0.016477674780523352,-0.0032087889748339,0.07147389974437314,-0.02622081323455095,0.013466730348158516,0.26274010833288003,-0.15864876396666103
44,7.194106900002225,0.036543861383934034,-0.03471109194976102,-0.05679229540825662,0.003611670321706396,-0.008639633163851843,0.016350175948736688,-0.003142030586720001,0.07273586899927194,-0.02698427967571595,0.014394185735209144,0.263836657585374,-0.15992446985570105
45,7.202566499996465,0.036561136037033655,-0.03475166629926869,-0.05671423885662051,0.0035967758643689275,-0.0082879791124636,0.01621900316389068,-0.003070806144127166,0.0740030409912298,-0.027753851049672817,0.015330247265739887,0.26491089012724345,-0.16119608229143284
46,7.208991299994523,0.03657834011891168,-0.03479054061325705,-0.05663681985660239,0.003582233538541798,-0.007930239158194461,0.016084127212024922,-0.0029950746593703373,0.07527530785168206,-0.028529507182333526,0.01627480367313504,0.2659624281166945,-0.16246337022529078
47,7.2126156000013,0.03659547536910796,-0.03482768566343129,-0.056560056227398646,0.0035680650440918873,-0.007566389141987579,0.015945518978532608,-0.0029147956881468372,0.07655255989895178,-0.029311226793061196,0.01722773961821982,0.26699089279037735,-0.1637261031050107
48,7.216403900005389,0.03661254363163455,-0.03486307210696193,-0.05648396592750767,0.003554292273410107,-0.0071964054348413915,0.01580314945344976,-0.002829929348414269,0.07783468563364446,-0.03009898749769113,0.018188935980749246,0.2679959045106153,-0.16498405070123567
49,7.220615800004452,0.036629546855892,-0.03489667048904625,-0.0564085670542157,0.0035409373086730564,-0.006820264946533534,0.015656989736744436,-0.0027404363377579993,0.079121571734872,-0.03089276580860517,0.01915827012719191,0.26897708285978505,-0.1662369827294093
50,7.230827699997462,0.03664648709757237,-0.034928451245511645,-0.05633387784305717,0.0035280224190250477,-0.006437945134357787,0.015507011043605237,-0.00264627794970208,0.08041310305655217,-0.03169253713412821,0.020135616076162027,0.26993404646712726,-0.1674846687003388
51,7.234795700001996,0.0366633665195485,-0.03495838470546076,-0.056259916667249846,0.0035155700576834053,-0.00604942401188346,0.015353184709736303,-0.0025474160894908967,0.08170916262197236,-0.03249827577717002,0.02112084464812116,0.2708664128827403,-0.16872687784120977
52,7.239242399999057,0.036680187392749225,-0.0349864410939588,-0.056186702037104436,0.0035036028589692093,-0.005654680157744451,0.015195482196658838,-0.002443813288965049,0.08300963161888118,-0.033309954933864634,0.022113823709526616,0.27177379876656343,-0.16996337888281035
53,7.243457699994906,0.03669695209702026,-0.03501259053476295,-0.056114252599408894,0.0034921436352699925,-0.005253692724445685,0.015033875097019152,-0.002335432720002589,0.08431438939586378,-0.03412754669017249,0.023114418519468053,0.2726558198568815,-0.1711939398234481
54,7.247372300000279,0.036713663121970254,-0.03503680305309409,-0.05604258713678715,0.0034812153739416374,-0.004846441447186915,0.014868335139922752,-0.0022222382060720384,0.08562331345713149,-0.03495102201825671,0.02412249209990141,0.27351209059224046,-0.17241832788160366
55,7.251496600001701,0.036730323067801975,-0.0350590485784508,-0.055971724567032276,0.0034708412341603254,-0.004432906652719112,0.014698834196277129,-0.0021041942321245624,0.08693627945527294,-0.0357803507726314,0.025137905700371485,0.2743422240011711,-0.17363630941705357
56,7.255784900000435,0.03674693464612821,-0.03507929694746595,-0.05590168394241401,0.0034610445437296073,-0.00401306926823775,0.014525344284162767,-0.0019812659516921485,0.08825316118498648,-0.0366155016857818,0.02616051908161049,0.2751458319463294,-0.17484765001762076
57,7.260502100005397,0.03676350068077231,-0.03509751790680601,-0.055832484448960426,0.0034518487958643093,-0.0035869108302992786,0.014347837574217913,-0.0018534191940612027,0.08957383057817167,-0.03745644236514419,0.02719019017683493,0.2759225250300233,-0.17605211462521908
58,7.269190299994079,0.0367800241085533,-0.035113681116113064,-0.055764145405713846,0.0034432776459288376,-0.003154413493761463,0.014166286395038542,-0.00172062047461754,0.0908981576967561,-0.03830313928993428,0.02822677465849234,0.2766719121215738,-0.17724946779576523
59,7.27876169999945,0.036796507980055126,-0.03512775615098984,-0.055696686263960744,0.0034353549081219165,-0.002715560040768615,0.013980663238593526,-0.0015828370061731509,0.09222601072325612,-0.039155557810618635,0.029270125520747692,0.27739360019974013,-0.17843947424269432
60,7.283182099999976,0.03681295546037999,-0.03513971250602787,-0.055630126606435744,0.003428104552106315,-0.002270333889782421,0.013790940765629667,-0.0014400367133134832,0.09355725595209316,-0.04001366215095324,0.030320092457167585,0.27808719453390784,-0.17962189911272583
61,7.287030699997558,0.036829369829885314,-0.03514951959787905,-0.05556448614649972,0.003421550699556052,-0.0018187191046504128,0.013597091811067327,-0.001292188249689734,0.09489175778189134,-0.040877415410098414,0.03137652178985251,0.2787522989440392,-0.18079650797010316
62,7.291603899997426,0.03684575448490394,-0.03515714676837077,-0.055499784727292056,0.0034157176206203585,-0.001360700403710632,0.013399089389385182,-0.0011392610130454707,0.09622937870928568,-0.04174677956450626,0.03243925702871923,0.27938851618668203,-0.18196306656016686
63,7.295696999994107,0.03686211293844721,-0.03516256328766475,-0.05543604232085715,0.0034106297303268364,-0.0008962631689194554,0.013196906699997762,-0.0009812251571476357,0.09756997932491997,-0.042621715467769224,0.03350813926535562,0.2799954483487999,-0.18312134056527918
64,7.299788499993156,0.03687844882089072,-0.03516573835745963,-0.05537327902724511,0.0034063115849310515,-0.00042539345499462356,0.012990517132641662,-0.0008180516030376701,0.09891341831103027,-0.04350218285016783,0.03458300730694076,0.2805726972652865,-0.18427109577023523
65,7.306035500005237,0.036894765880642354,-0.03516664111423751,-0.05531151507358663,0.0034027878782118388,5.192200143376965e-05,0.012779894272757405,-0.0006497120496787598,0.10025955244144508,-0.04438814032010487,0.03566369776287101,0.28111986486556234,-0.1854120981015836
66,7.3102590999915265,0.03691106798479255,-0.035165240632554204,-0.05525077081314208,0.0034000834377188294,0.0005356957726802491,0.012565011906861915,-0.0004761789843765594,0.10160823658249127,-0.04527954536403006,0.0367500450763145,0.28163655333112514,-0.18654411328893766
67,7.314502699999139,0.036927359119746386,-0.03516150592837345,-0.0551910667243249,0.0033982232209678644,0.0010259397308616546,0.0123458440279311,-0.0002974256931239571,0.10295932369450457,-0.04617635434462755,0.037841881602965095,0.2821223654579006,-0.18766690673894934
68,7.31876409999677,0.036943643391837325,-0.03515540596244483,-0.055132423409699115,0.0033972323115893555,0.0015226650387685904,0.012122364840789697,-0.00011342627026686238,0.10431266483620903,-0.04707852249953252,0.03893903760312783,0.28257690517613177,-0.18878024324388673
69,7.323317999995197,0.03695992502792241,-0.03514690964372544,-0.055074861594951,0.003397135915431043,0.0020258821407651054,0.01189454876750616,7.584437107516009e-05,0.10566810917121111,-0.04798600393672508,0.04004134111574179,0.2829997779915347,-0.18988388633561565
70,7.328136099997209,0.036976208375958663,-0.03513598583284506,-0.055018402127834924,0.0033979593566064643,0.002535600753722393,0.01166237045282666,0.00027041048813548473,0.1070255039766081,-0.04889875162705414,0.041148617981977484,0.2833905913948984,-0.19097759817531063
71,7.332327199997962,0.03699249790556037,-0.03512260334561474,-0.054963065977092926,0.003399728073493479,0.0030518298580009926,0.011425804769641636,0.00047029549830599604,0.10838469465340861,-0.0498167173985741,0.0422606917270705,0.28374895527168603,-0.19206113977415956
72,7.33717759999854,0.03700879820853713,-0.03510673095657844,-0.05490887423134813,0.0034024676146850136,0.003574577688484381,0.011184826824474085,0.0006755219671309385,0.10974552473906748,-0.05073985193118435,0.04337738310348029,0.2840744822644187,-0.19313427096169056
73,7.341143300000112,0.037025113999412336,-0.03508833740260751,-0.05485584809797174,0.0034062036348724953,0.004103851725681332,0.0109394119629975,0.0008861115937332027,0.11110783592138009,-0.05166810475066236,0.04449850965758505,0.28436678789084563,-0.1941967506220957
74,7.345587799994973,0.03704145011592176,-0.03506739138653766,-0.05480400890192354,0.0034109618906568934,0.004639658686892701,0.01068953577558136,0.001102085194654507,0.11247146805214994,-0.052601424225568606,0.04562388552490337,0.28462549070145465,-0.19524833702531877
75,7.350031499998295,0.037057811519491876,-0.03504386158084813,-0.05475337808456572,0.0034167682362772444,0.005182004517444801,0.010435174102838733,0.0013234626873186767,0.11383625916259299,-0.053539757564453457,0.04675332156403793,0.2848502125472981,-0.19628878755107826
76,7.355760299993562,0.03707420329569748,-0.03501771663138266,-0.05470397720245024,0.0034236486192631725,0.0057308943820038516,0.01017630304119854,0.001550263075155811,0.11520204547957258,-0.05448305081011656,0.04788662552203671,0.2850405787139577,-0.19731785836590038
77,7.359954300001846,0.037090630654698364,-0.03498892516111193,-0.0546558279260792,0.0034316290760208145,0.006286332655964987,0.0099128989485082,0.0017825044326507163,0.1165686614422879,-0.05543124883371779,0.04902360195562469,0.2851962181499364,-0.1983353044233114
78,7.363790000003064,0.03710709893165462,-0.03495745577393711,-0.05460895203863849,0.0034407357273420146,0.006848322916926677,0.009644938449662332,0.0020202038897120006,0.11793593972069838,-0.05638429532903847,0.05016405212098055,0.2853167637266046,-0.19934087951099194
79,7.372351500001969,0.03712361358712025,-0.034923277058533965,-0.05456337143470426,0.0034509947738404117,0.007416867936256356,0.009372398442260415,0.0022633776156639035,0.11930371123470392,-0.05734213280704433,0.05130777365862614,0.2854018524745497,-0.20033433627443475
80,7.3765056999982335,0.037140180207414726,-0.0348863575922373,-0.05451910811892227,0.0034624324913071786,0.007991969670748701,0.009095256102287614,0.002512040800594738,0.12067180517483495,-0.058304702590373535,0.052454560128614006,0.28545112606408785,-0.20131542616174042
81,7.385257400004775,0.037156804504972094,-0.03484666594496504,-0.05447618420465994,0.0034750752259683163,0.008573629254389597,0.008813488889825277,0.0027662076348930237,0.12204004902603889,-0.059271944807370434,0.05360420078211897,0.2854642311360963,-0.2022838994551299
82,7.389307299992652,0.037173492318667054,-0.03480417068318158,-0.05443462191263095,0.003488949389644226,0.009161846990242436,0.008527074554788953,0.003025891288406401,0.12340826859154155,-0.06024379838687568,0.05475648044332323,0.2854408191287413,-0.20323950549164307
83,7.393776600001729,0.03719024961411766,-0.03475884037389968,-0.05439444356949229,0.00350408145480722,0.009756622342440813,0.00823599114268883,0.003291103888845514,0.12477628801497259,-0.06122020105437559,0.055911179485719956,0.2853805460647179,-0.2041819927339486
84,7.4000318000034895,0.037207082483964045,-0.03471064358872055,-0.05435567160641363,0.0035204979495340742,0.010357953928286923,0.00794021700040466,0.0035618565007157735,0.1261439298021874,-0.06220108932747105,0.057068074013299205,0.2852830724567664,-0.20511110869937924
85,7.403811600001063,0.03722399714812271,-0.03465954890791151,-0.05431832855761901,0.0035382254523615773,0.01096583951045344,0.007639730781989644,0.0038381591054580857,0.1275110148424868,-0.06318639851134662,0.05822693578183114,0.2851480631974724,-0.20602660007811865
86,7.408002800002578,0.037240999954015946,-0.03460552492452081,-0.054282437058900616,0.003557290587048713,0.011580275989285328,0.0073345114544887844,0.0041200205796260376,0.1288773624293827,-0.06417606269537236,0.059387531757675395,0.28497518724403204,-0.20692821293024027
87,7.414399300003424,0.03725809737677592,-0.03454854024852911,-0.054248019846104625,0.003577720017223015,0.01220125939520078,0.007024538303775339,0.004407448670797368,0.13024279027879576,-0.06517001475046176,0.06054962391297837,0.28476411717721917,-0.20781569320556761
88,7.4207230000029085,0.03727529601942276,-0.034488563511037115,-0.054215099753589076,0.003599540440911837,0.012828784881167472,0.006709790940394511,0.0047004499737879095,0.13160711454559337,-0.06616818633065695,0.06171296893425499,0.2845145290359265,-0.20868878767307328
89,7.424725899996702,0.037292602613016236,-0.03442556336848918,-0.0541836997126537,0.0036227785849606937,0.013462846715262029,0.006390249305384698,0.004999029903769523,0.13297014984020133,-0.06717050787939587,0.06287731752916777,0.28422610234077755,-0.20954724457478727
90,7.42921230000502,0.037310024016780324,-0.03435950850693231,-0.05415384274994198,0.0036474611993068382,0.014103438273305527,0.006065893676061111,0.0053031926658388155,0.134331709245368,-0.06817690863736584,0.064042414284706,0.28389852036204055,-0.2103908133816709
91,7.433013699992443,0.0373275672182,-0.03429036764631031,-0.05412555198581552,0.0036736150511058902,0.014750552031583661,0.005736704671761737,0.005612941226775576,0.1356916043353443,-0.06918731664643053,0.0652079983683075,0.28353147052130195,-0.2112192433125909
92,7.439220400003251,0.0373452393330895,-0.034218109544792596,-0.054098850632701055,0.003701266918734688,0.015404179559666099,0.0054026632595933115,0.005928277291332459,0.13704964519649832,-0.07020165874328645,0.06637380432344979,0.2831246449112993,-0.21203228127041726
93,7.44822779999231,0.03736304760563164,-0.034142703003137174,-0.054073761993409734,0.00373044358569063,0.016064311513324266,0.005063750760238095,0.006249201281619963,0.1384056404514784,-0.07121986054360524,0.06753956232956207,0.28267774120195494,-0.21282967026669652
94,7.453973800002132,0.037380999408387565,-0.03406411686908734,-0.05405030945942844,0.0037611718343969107,0.016730937627582328,0.004719948853851854,0.006575712315887633,0.13975939728851303,-0.07224184642058912,0.06870499830449865,0.28219046338084003,-0.21361114875993845
95,7.458208399999421,0.0373991022422767,-0.03398232004180129,-0.054028516509182556,0.0037934784398984582,0.01740404670991584,0.004371239586076205,0.0069078081888913545,0.14111072149267198,-0.07326753948277,0.06986983468436304,0.28166252181590423,-0.214376451175439
96,7.462182599992957,0.0374173637365261,-0.033897281476313976,-0.054008406706269656,0.0038273901634789716,0.018083626633602405,0.004017605374149415,0.007245485358149955,0.14245941747576754,-0.0742968615575479,0.07103379139236558,0.2810936327753648,-0.2151253089451374
97,7.4665921999985585,0.03743579164858915,-0.033808970188030495,-0.053990003697663685,0.0038629337462251136,0.018769664331206953,0.003659029013076549,0.00758873893359998,0.14380528830301337,-0.07532973317895822,0.07219658661085053,0.28048351782897923,-0.21585745130322093
98,7.470687499997439,0.03745439386403327,-0.03371735525725039,-0.05397333121188949,0.0039001359025443785,0.019462145788187946,0.003295493681857527,0.007937562671252953,0.1451481357171862,-0.07636607357883676,0.07335793745087772,0.27983190326458246,-0.2165726059871739
99,7.474657600003411,0.037473178396396474,-0.033622405833722314,-0.05395841305716732,0.003939023313668483,0.020161056036614285,0.002926982949741969,0.008291948969268772,0.14648776015969175,-0.0774058006813073,0.07451756017275842,0.27913851969492265,-0.2172704996395438
100,7.478846800004248,0.03749215338701277,-0.03352409114122857,-0.05394527311952739,0.0039796226211335954,0.020866379148973442,0.002553480782510093,0.008651888863727027,0.14782396079095744,-0.07844883109779795,0.07567517024903779,0.27840310208896973,-0.21795085790248292
101,7.483091300004162,0.037511327104806244,-0.03342238048219912,-0.05393393536089416,0.004021960420243187,0.021578098232083856,0.0021749715487753315,0.009017372025304149,0.14915653551179844,-0.07949508012243497,0.07683048239603919,0.2776253898031076,-0.21861340572492952
102,7.490083700002287,0.037530707946053794,-0.033317243242354515,-0.053924423817140486,0.004066063253516411,0.02229619542110788,0.001791440026309387,0.009388386755347108,0.1504852809841095,-0.08054446173000385,0.07798321021156893,0.27680512652637307,-0.21925786815035175
103,7.495291500003077,0.0375503044341164,-0.03320864889537725,-0.0539167625961113,0.004111957604113316,0.023020651873662524,0.0014028714083643915,0.009764919979077597,0.1518099926517059,-0.08159688857889434,0.07913306571008431,0.27594206039052827,-0.21988397109658245
104,7.499641599992174,0.03757012521913884,-0.033096567007611176,-0.05391097587561711,0.004159669889218079,0.023751447764032194,0.0010092513099697325,0.01014695723720985,0.15313046476207054,-0.0826522720165371,0.08027975918876465,0.2750359440725211,-0.2204914417890891
105,7.505822599996463,0.03759017907771753,-0.03298096724278833,-0.053907087901397345,0.004209226453383869,0.024488562277487896,0.0006105657742020953,0.010534482677870974,0.15444649038817712,-0.08371052208650209,0.0814229992826731,0.2740865348575359,-0.22108000871372493
106,7.511689099992509,0.037610474912536426,-0.03286181936678279,-0.05390512298505374,0.004260653561838625,0.02523197360470917,0.00020680127841424487,0.010927479048747553,0.1557578614508415,-0.0847715475334822,0.08256249305143369,0.273093594741402,-0.22164940104952513
107,7.516545099992072,0.03763102175197073,-0.032739093252391,-0.053905105501953966,0.004313977393754641,0.02598165893631756,-0.00020205525954270566,0.011325927689836866,0.15706436874152663,-0.0858352558049545,0.08369794620771102,0.2720568904226511,-0.22219934844027966
108,7.520831100002397,0.03765182874965825,-0.032612758884138,-0.0539070598891054,0.004369224035484855,0.026737594457517153,-0.0006160164751064373,0.011729808527783702,0.1583658019446178,-0.08690155305397414,0.08482906358184385,0.2709761933183324,-0.22272958111271157
109,7.524845599997207,0.03767290518403826,-0.03248278636310913,-0.05391101064299916,0.004426419473778146,0.027499755342841582,-0.00103509455080794,0.012139100073085557,0.15966194966037917,-0.08797034414196842,0.08595554950788926,0.26985127940632503,-0.2232398298449528
110,7.529549800005043,0.037694260457857856,-0.032349145911806654,-0.05391698231742451,0.004485589588988832,0.028268115751014625,-0.0014593012100854376,0.012553779418130077,0.16095259942571738,-0.08904153264122855,0.08707710796550876,0.26868192883172787,-0.22372982606105404
111,7.533533599998918,0.03771590409764568,-0.032211807879030684,-0.05392499952125358,0.004546760148273156,0.02904264881989625,-0.0018886477111127902,0.012973822235760374,0.16223753773336497,-0.0901150208386097,0.08819344283975672,0.2674679260643157,-0.2241993019570542
112,7.537334399996325,0.037737845753153074,-0.032070742744784254,-0.05393508691619662,0.0046099567987850296,0.029823326661527098,-0.002323144840648887,0.013399202779802806,0.16351655005415336,-0.09119070973923121,0.08930425814961775,0.26620906014239204,-0.22464799054823958
113,7.541396799992071,0.03776009519676261,-0.03192592112520179,-0.05394726921452775,0.004675205060877576,0.03061012035728805,-0.0027628029079015183,0.013829893885823053,0.16478942085853382,-0.0922684990706297,0.09040925809531374,0.26490512444502046,-0.22507562583454513
114,7.545520800005761,0.03778266232286402,-0.03177731377750054,-0.0539615711767814,0.0047425303213061275,0.03140299995315101,-0.003207631738416581,0.014265866972107383,0.1660559336366671,-0.09334828728804481,0.09150814725511536,0.2635559168175558,-0.22548194266664665
115,7.550034600004437,0.03780555714719761,-0.03162489160495458,-0.053978017609419504,0.004811957826439169,0.032201934455031035,-0.0036576406679926206,0.014707092042305366,0.1673158709211477,-0.09442997157728868,0.09260063082960526,0.26216123989445195,-0.22586667656478124
116,7.554302499993355,0.0378287898061651,-0.03146862566189083,-0.05399663336246956,0.0048835126754866705,0.033006891824254966,-0.004112838536597541,0.01515353768875265,0.16856901431018795,-0.09551344785829488,0.09368641474407016,0.26072090113147095,-0.22622956419141654
117,7.557976399999461,0.0378523705561081,-0.03130848715870645,-0.05401744332713352,0.004957219813742884,0.033817838973135804,-0.004573233682317169,0.01560517109609521,0.16981514449065108,-0.09659861079251893,0.09476520582971128,0.2592347128957042,-0.22657034350089794
118,7.563030599994818,0.03787630977255421,-0.031144447466907296,-0.05404047243336788,0.005033104025849417,0.03463474176066213,-0.005038833935342905,0.0160619580463492,0.1710540412620982,-0.09768535378792173,0.09583671195754494,0.2577024926270768,-0.22688875336918604
119,7.566642199992202,0.037900617949430906,-0.03097647812416668,-0.05406574564743491,0.005111189929086534,0.035457564988302985,-0.005509646611968057,0.016523862923808783,0.17228548356136952,-0.09877356900282074,0.09690064199894767,0.2561240630277687,-0.22718453382234172
120,7.570443299991894,0.03792530569824732,-0.030804550839403973,-0.05409328796942516,0.005191501966683273,0.036286272395932954,-0.005985678508612411,0.01699084871972777,0.17350924948844723,-0.09986314735306367,0.09795670581786033,0.2544992522627174,-0.2274574263437063
121,7.574915399993188,0.037950383747244,-0.030628637497882465,-0.054123124430751464,0.0052740644011536305,0.03712082665788495,-0.006466935895887332,0.017462877037152706,0.17472511633295865,-0.10095397851882432,0.09900461419199917,0.2528278941566834,-0.2277071737163801
122,7.578776599999401,0.03797586294051082,-0.030448710166325808,-0.05415528009161453,0.0053589013076530065,0.037961189379129345,-0.006953424512685478,0.01793990809484925,0.17593286060192817,-0.10204595095026622,0.10004407879708635,0.25110982845831853,-0.22793351992870872
123,7.5830289000005,0.03800175423707305,-0.030264741098052484,-0.05418978003844027,0.005446036567352025,0.03880732109159281,-0.007445149560300192,0.018421900731984093,0.17713225804881186,-0.10313895187343249,0.10107481226198058,0.2493449009303327,-0.2281362100954882
124,7.587032399998861,0.03802806870994573,-0.030076702738127556,-0.054226649381289065,0.005535493860837863,0.03965918125061575,-0.00794211569657168,0.01890881241257981,0.17832308370211367,-0.10423286729515416,0.10209652811355364,0.2475329634166183,-0.2283149906233461
125,7.591685299994424,0.03805481754515652,-0.02988456772853108,-0.05426591325123693,0.005627296661530772,0.040516728231545486,-0.00844432703005345,0.01940059922966838,0.1795051118950635,-0.10532758201052533,0.10310894066643563,0.2456738742050932,-0.22846960987246312
126,7.595905900001526,0.03808201204073695,-0.02968830891334252,-0.05430759679772889,0.005721468229125228,0.04137991932647816,-0.00895178711423015,0.01989721590868912,0.18067811629771163,-0.10642297961415485,0.10411176469999213,0.24376749829492556,-0.22859981879476546
127,7.599581499991473,0.03810966360568235,-0.02948789934394039,-0.054351725185904705,0.005818031603039021,0.042248710741159566,-0.009464498941791865,0.02039861580854571,0.18184186994916846,-0.1075189425137591,0.10510471525351976,0.24181370740839042,-0.22870537176082614
128,7.604070100001991,0.0381377837588804,-0.029283312284216385,-0.05439832359389735,0.005917009595864537,0.04312305759203615,-0.009982464938982251,0.020904750923040883,0.1829961452898125,-0.10861535194934038,0.10608750770505196,0.23981238010150963,-0.22878602747369742
129,7.610126800005673,0.0381663841280082,-0.02907452121580328,-0.054447417210104605,0.006018424786831607,0.044002913903464544,-0.010505686960056685,0.021415571882688854,0.18414071419459077,-0.10971208801553976,0.1070598578895325,0.23776340184248032,-0.22884154954404043
130,7.61674729999504,0.03819547644839817,-0.028861499843315815,-0.05449903123043435,0.006122299515276155,0.0448882326050818,-0.011034166281844669,0.021931027957282842,0.1852753480059786,-0.11080902968632862,0.10802148231933068,0.2356666652244973,-0.22887170700991918
131,7.621073300004355,0.03822507256187257,-0.028644222099603812,-0.054553190855524056,0.006228655874127664,0.045778965529330876,-0.01156790359844467,0.022451067059821365,0.18639981756932014,-0.11190605484234423,0.1089720984757176,0.2335220705921811,-0.22887627446294842
132,7.62497330000042,0.03825518441554688,-0.028422662151016766,-0.05460992128793525,0.00633751570341546,0.046675063409169645,-0.012106899016048568,0.022975635751869842,0.1875138932717931,-0.11300304029679058,0.10991142513972706,0.2313295264588521,-0.22885503207966412
133,7.633737900003325,0.03828582406060213,-0.028196794402678936,-0.05466924772932336,0.006448900583807574,0.04757647587596991,-0.012651152047884782,0.023504679250658533,0.18861734508174924,-0.11409986182307467,0.11083918255753719,0.22908894957722228,-0.2288077660233577
134,7.637468400003854,0.038317003651026346,-0.02796659350377407,-0.05473119537758372,0.00656283183018507,0.04848315145760349,-0.013200661609307636,0.02403814143602949,0.18970994258835683,-0.11519639418455936,0.11175509246414485,0.22680026497140135,-0.22873426872766273
135,7.641497899996466,0.03834873544232525,-0.027732034352838837,-0.05479578942397432,0.0066793304852474965,0.049395037576721305,-0.0137554260130257,0.024575964857761437,0.19079145504124786,-0.11629251116491805,0.11265887821731126,0.22446340587348107,-0.22863433886495704
136,7.64612119999947,0.03838103179020242,-0.027493092103064064,-0.054863055050216096,0.0067984173131574325,0.050312080549219484,-0.014315442964482132,0.025118090743800732,0.1918616513895527,-0.11738808559758468,0.11355026492351766,0.22207831370796088,-0.22850778105506864
137,7.652852500003064,0.03841390514920909,-0.027249742167602863,-0.054933017425571405,0.006920112793224842,0.05123422558289263,-0.014880709557365332,0.025664459008793654,0.19292030032139787,-0.11848298939331607,0.11442897962703626,0.219644938320411,-0.22835440610144375
138,7.658769200003007,0.03844736807136374,-0.02700196022488477,-0.05500570170390124,0.007044437113633408,0.05216141677627859,-0.015451222269253493,0.0262150082641298,0.1939671703051328,-0.11957709357190581,0.11529475154631949,0.21716323826826872,-0.22817403161342018
139,7.662289200001396,0.038481433204741754,-0.026749722223934957,-0.05508113302070198,0.007171410165221167,0.05309359711770689,-0.016026976957429266,0.026769675828740406,0.19500202963161517,-0.12067026829571173,0.11614731211329536,0.21463318088047842,-0.22796648217183668
140,7.666698200002429,0.03851611329203543,-0.026493004389697497,-0.05515933649012248,0.007301051535310354,0.05403070848454886,-0.01660796885484571,0.02732839773951843,0.19602464645600925,-0.12176238290295731,0.1169863950364091,0.21205474221408332,-0.22773158932102003
141,7.671720600003027,0.03855142116908444,-0.02623178322836175,-0.055240337201962156,0.00743338050158792,0.05497269164266676,-0.01719419256626017,0.02789110876272119,0.19703478883965528,-0.12285330594118235,0.11781173626132073,0.20942790710935716,-0.22746919104886218
142,7.675515399998403,0.03858736976337722,-0.025966035532690918,-0.055324160218651004,0.007568416026044691,0.055919486246065235,-0.01778564206452091,0.028457742404013688,0.1980322247923962,-0.1239429051955604,0.11862307380538153,0.20675266920526883,-0.22717913092838338
143,7.680880899992189,0.0386239720925233,-0.025695738387351768,-0.05541083057221209,0.007706176748952156,0.056871030836746224,-0.018382310686972422,0.029028230918284548,0.19901672231459536,-0.1250310477141204,0.11942014790731888,0.2040290307821912,-0.22686125784966926
144,7.687410999991698,0.03866124126269697,-0.02542086917424458,-0.055500373261207124,0.007846680982895718,0.05782726284476319,-0.018984191131983835,0.02960250532112421,0.19998804943795537,-0.12611759983349455,0.12020270112181414,0.20125700267167684,-0.2265154264531134
145,7.691974899993511,0.03869919046705242,-0.025141405577832353,-0.05559281324766565,0.00798994670686152,0.058788118588467275,-0.019591275455601055,0.030180495399547504,0.20094597426667093,-0.12720242720829292,0.12097047846121821,0.1984366043935071,-0.2261414976102242
146,7.695483499992406,0.0387378329841107,-0.02485732559046839,-0.05568817545399854,0.00813599156037248,0.05975353327495608,-0.020203555068356752,0.03076212972483032,0.20189026501956156,-0.12828539484146034,0.12172322780524251,0.1955678643098099,-0.22573933784837785
147,7.699946499997168,0.03877718217611869,-0.0245686075177212,-0.05578648475989661,0.008284832837698165,0.06072344100072369,-0.020821020732213504,0.031347335667159484,0.20282069007270162,-0.12936636710813681,0.12246069999546931,0.19265081971151696,-0.22530881805892616
148,7.703910399999586,0.038817251487380494,-0.02427522998369585,-0.05588776599921479,0.008436487482131265,0.06169777475251806,-0.021443662557602505,0.03193603940937542,0.20373701800238192,-0.13044520777363017,0.1231826488589407,0.18968551683052476,-0.2248498125991313
149,7.709735299999011,0.03885805444256159,-0.023977171936350662,-0.05599204395684239,0.008590972080329204,0.06267646640840292,-0.022071470000539,0.03252816596184814,0.20463901762785633,-0.13152178000866765,0.12388883145239171,0.18667201102454692,-0.22436219914268074
150,7.714085600004182,0.038899604644965974,-0.023674412652808372,-0.05609934336555957,0.008748302856733212,0.06365944673902495,-0.02270443185980719,0.03312363917856112,0.20552645805607533,-0.13259594640593567,0.12457900829067212,0.18361036709578205,-0.22384585871913174
151,7.718240100002731,0.038941915774786805,-0.02336693174466068,-0.05620968890288065,0.008908495668064119,0.06464664540910442,-0.023342536274234233,0.033722381774176954,0.20639910872748743,-0.13366756899570942,0.12525294392975514,0.18050065954001554,-0.2233006752644834
152,7.728684300003806,0.03898500158733079,-0.023054709163265127,-0.05632310518788447,0.009071565997905017,0.06563799097914148,-0.023985770720024953,0.03432431534570996,0.20725673946316056,-0.13473650925808445,0.12591040794336925,0.17734297318348,-0.22272653539305498
153,7.733343400002923,0.0390288759112169,-0.022737725205033282,-0.05643961677803209,0.009237528951404813,0.06663341090735853,-0.024634122008153098,0.034929360398953835,0.20809912051668847,-0.13580262813641952,0.12655117540349534,0.17413740393587415,-0.2221233285000822
154,7.738717700005509,0.039073552646549964,-0.022415960516709004,-0.05655924816597219,0.009406399250114217,0.06763283155190399,-0.025287576281824927,0.035537436374760305,0.20892602262853058,-0.13686578605055164,0.12717502676251144,0.17088405911777746,-0.2214909464383563
155,7.745898499997565,0.039119045763069904,-0.022089396100635504,-0.056682023776334446,0.009578191226941209,0.06863617817331565,-0.025946119013997133,0.036148461674337024,0.20973721708105694,-0.13792584290713916,0.12778174755356464,0.16758305755005215,-0.2208292834000646
156,7.749773100003949,0.039165369298276985,-0.021758013320009987,-0.05680796796251114,0.009752918821229535,0.0696433749372521,-0.026609735004939586,0.03676235368265399,0.21053247575374515,-0.13898265811174418,0.12837112787847046,0.1642345294123293,-0.220138236342641
157,7.753905199992005,0.03921253735553383,-0.021421793904124537,-0.05693710500342716,0.009930595573938543,0.07065434491748518,-0.02727840837986907,0.037379028788832445,0.2113115711768687,-0.14003609058325783,0.12894296195116647,0.16083861608217384,-0.21941770502767172
158,7.7600816000049235,0.0392605641021445,-0.02108071995359207,-0.05706945910029893,0.01011123462291713,0.07166901009914604,-0.027952122586650318,0.03799840240517481,0.21207427658515213,-0.1410859987663556,0.12949704775877688,0.15739547018221334,-0.21866759183183557
159,7.766369599994505,0.039309463767411186,-0.020734773945556107,-0.05720505437338238,0.010294848698265996,0.07268729138223197,-0.02863086039354914,0.03862038898430456,0.21282036597191123,-0.14213224064411037,0.13003318674648598,0.15390525566213645,-0.21788780188126916
160,7.770590899992385,0.03935925064066884,-0.0203839387388831,-0.05734391485871032,0.0104814501177759,0.07370910858537144,-0.02931460388705436,0.03924490203517537,0.21354961414349416,-0.14317467375173565,0.13055118358137435,0.15036814798821002,-0.2170782430275812
161,7.775309299991932,0.03940993906929815,-0.020028197579336125,-0.057486064504819565,0.010671050782443374,0.07473438044985278,-0.0300033344697627,0.03987185413794708,0.21426179677523835,-0.14421315518896877,0.13105084588442917,0.1467843343444736,-0.21623882591866286
162,7.779300700000022,0.039461543456717145,-0.019667534104728584,-0.057631527169468004,0.010863662172051577,0.07576302464392567,-0.03069703285831942,0.04050115695742594,0.21495669046784033,-0.1452475416344929,0.1315319840257906,0.14315401368391872,-0.21536946434551066
163,7.783055699997931,0.039514078260351845,-0.019301932350056658,-0.057780326616341984,0.011059295340814856,0.07679495776737014,-0.03139567908144145,0.041132721255977764,0.2156340728038032,-0.1462776893616449,0.13199441116424693,0.13947739677091872,-0.21447007517130576
164,7.787008400002378,0.03956755798958612,-0.018931376752609225,-0.05793248651175445,0.011257960913083377,0.07783009535633915,-0.03209925247800858,0.041766456907346775,0.2162937224042132,-0.1473034542521574,0.13243794325503175,0.13575470613413157,-0.21354057826047898
165,7.791443699999945,0.03962199720369112,-0.018555852157053878,-0.05808803042133401,0.011459669079120157,0.07886835188847192,-0.03280773169521837,0.04240227290964354,0.21693541898473576,-0.14832469181118677,0.13286239878186853,0.13198617596182458,-0.21258089662064747
166,7.795927099999972,0.039677410509734695,-0.018175343820497833,-0.05824698180670539,0.011664429590930201,0.07990964078827326,-0.03352109468682138,0.043040077396595156,0.2175589434113885,-0.14934125718241578,0.13326759879650324,0.12817205202953796,-0.2115909563783916
167,7.799841100000776,0.03973381256047084,-0.01778983741752238,-0.05840936402216161,0.011872251758145371,0.08095387443276146,-0.03423931871142083,0.04367977765091216,0.21816407775584404,-0.15035300516284933,0.1336533671550925,0.1243125916635359,-0.21057068670908133
168,7.806037500005914,0.03979121805220963,-0.01739931904518965,-0.0585752003113281,0.012083144443981666,0.08200096415737788,-0.034962380330849696,0.044321280117804736,0.21875060535085256,-0.1513597902172445,0.13401953039987496,0.12040806379426768,-0.20952001984472582
169,7.810108699995908,0.03984964172266795,-0.017003775228020417,-0.058744513803819336,0.012297116061253652,0.08305082026216608,-0.03569025540860868,0.044964490417215314,0.21931831084605702,-0.1523614664929814,0.1343659178222662,0.11645874897178284,-0.2084388911913163
170,7.814264799992088,0.03990909834880123,-0.01660319292294163,-0.05891732751188799,0.012514174568449004,0.08410335201821638,-0.036422919108385854,0.045609313357939614,0.21986698026356366,-0.15335788783561824,0.13469236184092293,0.11246493947672165,-0.20732723902255668
171,7.820754899992607,0.03996960274461649,-0.016197559524202435,-0.059093664327067356,0.012734327465878307,0.08515846767437778,-0.037160345892643755,0.04625565295348338,0.22039640105482103,-0.15434890780082614,0.13499869823027896,0.10842693963776648,-0.20618500384148025
172,7.827035900001647,0.040031169758967235,-0.015786862868257378,-0.05927354701680699,0.012957581791901592,0.08621607446424774,-0.03790250952125343,0.04690341243837415,0.22090636215923362,-0.15533437966382466,0.13528476642774906,0.10434506616254254,-0.20501212797835344
173,7.833002200000919,0.04009381427333029,-0.015371091238615414,-0.059456998221102,0.013183944119234507,0.08727607861344595,-0.03864938305017197,0.04755249428696287,0.22139665406421294,-0.15631415642746221,0.1355504097069122,0.10021964838891181,-0.2038085553626293
174,7.837731399995391,0.04015755119956527,-0.014950233370653376,-0.05964404044911604,0.013413420551355087,0.08833838534717979,-0.03940093883015404,0.04820280023139581,0.22186706886620003,-0.15728809082946546,0.13579547472853915,0.09605102843358657,-0.20257423134179214
175,7.84173169999849,0.04022239547765702,-0.01452427845639248,-0.05983469607579823,0.013646016718982197,0.08940289889810302,-0.04015714850549887,0.048854231276112284,0.22231740033214115,-0.15825603534878316,0.13601981115470743,0.09183956132306617,-0.20130910285459105
176,7.850447299992084,0.040288362073441296,-0.014093216149236443,-0.06002898733849414,0.013881737776621285,0.09046952251447057,-0.040917983012822616,0.0495066877121175,0.22274744396176546,-0.1592178422144962,0.13622327142032428,0.08758561526305932,-0.20001311912400177
177,7.85587279999163,0.04035546597631409,-0.013657036568669827,-0.06022693633355097,0.014120588399179639,0.09153815846859427,-0.041683412579890784,0.05016006912929009,0.2231569970516434,-0.1601733634188042,0.1364057103943401,0.08328957199686234,-0.1986862321299367
178,7.859741499996744,0.040423722196924874,-0.0132157303049151,-0.06042856501291731,0.014362572778630124,0.09260870806561163,-0.042453406724515044,0.05081427442740734,0.2235458587608998,-0.16112245073046694,0.13656698537978834,0.0789518269678678,-0.19732839689323387
179,7.864488099992741,0.04049314576485394,-0.012769288423546913,-0.06063389518073774,0.014607694620732128,0.0936810716525715,-0.04322793425351452,0.05146920182845312,0.22391383017683,-0.16206495571051327,0.1367069562870469,0.07457278928889906,-0.1959395719323582
180,7.868433700001333,0.0405637517262742,-0.012317702470062074,-0.06084294848994265,0.014855957141813276,0.09475514862783194,-0.044006963261763184,0.052124748889303976,0.22426071438031908,-0.1630007297300605,0.13682548578363452,0.07015288171970124,-0.19451971942032187
181,7.872615500004031,0.040635555141597716,-0.011860964474403737,-0.06105574643883373,0.01510736306561199,0.09583083745077288,-0.04479046113132198,0.05278081251547303,0.2245863165112422,-0.16392962398752753,0.13692243960121975,0.06569254076966222,-0.19306880513801014
182,7.878387499993551,0.04070857108310719,-0.011399066955438266,-0.06127231036766542,0.015361914620190955,0.09690803565182096,-0.045578394530651205,0.05343728897673905,0.22489044383486845,-0.16485148952600684,0.1369976870005699,0.061192217043636365,-0.19158679843536514
183,7.883075100005954,0.0407828146325729,-0.010932002925383329,-0.06149266145522289,0.015619613534929494,0.09798663984279878,-0.04637072941390916,0.05409407392534736,0.22517290581057633,-0.16576617725010553,0.13705110125988526,0.05665237557252388,-0.19007367196241848
184,7.887415999997756,0.040858300878855405,-0.010459765894185553,-0.061716820715396754,0.01588046103761151,0.09906654572760835,-0.047167431020326,0.0547510624163201,0.22543351416142654,-0.16667353794073897,0.1370825597849259,0.05207349588790905,-0.1885294016300291
185,7.891327299992554,0.040935044915494545,-0.009982349873846205,-0.06194480899375503,0.016144457851612556,0.10014764811324738,-0.047968463873644146,0.05540814892671279,0.22567208294359287,-0.16757342227159547,0.1370919439281707,0.04745607196464689,-0.186953967036365
186,7.896031600001152,0.04101306183828516,-0.009499749382693249,-0.062176646964112514,0.01641160419317237,0.1012298409211582,-0.04877379178165,0.056065227374191055,0.22588842861538466,-0.1684656808280182,0.137079138964894,0.042800612166649196,-0.18534735156054408
187,7.899887199993827,0.04109236674283996,-0.009011959449598228,-0.062412355125098254,0.016681899768760024,0.10231301719890576,-0.04958337783579536,0.05672219113605788,0.22608237010615806,-0.16935016412436749,0.13704403395928091,0.03810763928781715,-0.18370954195259578
188,7.903833899996243,0.04117297472214,-0.008518975618136386,-0.06265195379672128,0.01695534377252885,0.10339706913218712,-0.050397184410895565,0.057378933066546886,0.22625372888573078,-0.17022672261897215,0.1369865215675365,0.03337769077434918,-0.1820405280036402
189,7.912787199995364,0.04125490086407314,-0.008020793950688419,-0.06289546311693518,0.017231934883847368,0.1044818880571748,-0.051215173164894226,0.058035345513962194,0.22640232903542443,-0.1710952067283301,0.1369064981010095,0.028611319159231242,-0.18034030260054804
190,7.916333100001793,0.04133816024896083,-0.007517411032482274,-0.0631429030382016,0.017511671264918507,0.10556736447320741,-0.052037305038697496,0.058691320338576825,0.2265279973216443,-0.17195546684258356,0.1368038634002386,0.023809092459573144,-0.1786088620015647
191,7.920508399998653,0.041422767947073794,-0.007008823975573254,-0.06339429332405318,0.017794550558482114,0.10665338805583824,-0.052863540256087166,0.05934674892856514,0.22663056327073058,-0.17280735334236197,0.13667852044059609,0.018971594228879594,-0.17684620615964824
192,7.925023999996483,0.04150873901613677,-0.006495030422760726,-0.06364965354565628,0.018080569885586907,0.1077398476702434,-0.053693838323716374,0.06000152221412096,0.2267098592430392,-0.17365071661735662,0.13653037523026784,0.014099423227044173,-0.17505233931265823
193,7.929250300003332,0.041596088498822806,-0.005976028551439699,-0.06390900307837388,0.01836972584342831,0.10882663138498062,-0.054528158031200764,0.06065553068241203,0.22676572050462962,-0.1744854070888211,0.136359337038904,0.009193192916397766,-0.17322727083432687
194,7.93342620000476,0.04168483142023732,-0.005451817077385637,-0.0641723610983291,0.018662014503263765,0.10991362648608458,-0.055366457451329884,0.06130866439388999,0.22679798529651474,-0.1753112752363034,0.13616531860976916,0.004253531080980452,-0.1713710156758953
195,7.937922600001912,0.0417749827853924,-0.004922395258470923,-0.0644397465789702,0.018957431408406916,0.11100071949148946,-0.0562086939404146,0.06196081299927851,0.22680649490269905,-0.1761281716243799,0.1359482363727608,-0.0007189202887021882,-0.16948359423964726
196,7.945158200003789,0.041866557576671605,-0.004387762898311415,-0.0647111782876374,0.01925597157230577,0.11208779616577658,-0.057054824138754755,0.06261186575792527,0.2267910937183239,-0.17693594692817513,0.13570801086187817,-0.005723504975277908,-0.1675650323314124
197,7.949905400004354,0.041959570751285875,-0.0038479203498415376,-0.06498667478213235,0.019557629476712794,0.11317474153525016,-0.05790480397123124,0.06326171155879193,0.22675162931790108,-0.1777344519596404,0.13544456730583332,-0.01075955259779599,-0.1656153610824045
198,7.953855500003556,0.042054037238720796,-0.0033028685188163254,-0.06526625440729071,0.0198623990699643,0.11426143990333902,-0.05875858864802554,0.06391023894446773,0.22668795252285145,-0.17852353769232446,0.13515783602237305,-0.015826378763056627,-0.16363461672790366
199,7.958010200003628,0.04214997193817598,-0.002752608867238871,-0.0655499352915584,0.020170273765380733,0.11534777486631981,-0.05961613266544927,0.06455733613593947,0.22659991746828795,-0.17930305528553042,0.13484775238634247,-0.020923285188675162,-0.1616228410488464
200,7.962260000000242,0.042247389715997036,-0.002197143416711645,-0.06583773534357219,0.02048124643978349,0.11643362932935884,-0.060477389806895265,0.06520289105629891,0.22648738166937443,-0.18007285611331955,0.13451425654587112,-0.026049559753236626,-0.15958008193960097
201,7.966330199997174,0.0423463054031007,-0.0016364747517101682,-0.06612967224874508,0.020795309432122475,0.11751888552287149,-0.06134231314394517,0.0658467913527921,0.22635020608762793,-0.18083279179411096,0.13415729324975065,-0.031204476516691126,-0.1575063932175093
202,7.970593099991674,0.04244673379239366,-0.0010706060227775095,-0.06642576346585746,0.02111245454220429,0.11860342501919956,-0.06221085503760429,0.0664889244188721,0.22618825519708202,-0.18158271421785957,0.13377681165035468,-0.036387295755976254,-0.1554018347182912
203,7.974690799994278,0.04254868963618551,-0.0004995409496380887,-0.0667260262236544,0.021432673029531186,0.11968712874960494,-0.06308296713966965,0.06712917741435902,0.22600139705024755,-0.1823224755765704,0.13337276464143516,-0.041597263957474484,-0.1532664727373823
204,7.978847399994265,0.04265218764359642,7.671617577072609e-05,-0.06703047751744984,0.021755955612222492,0.12076987702157929,-0.06395860039425742,0.06776743728114487,0.22578950334434833,-0.18305192839570714,0.1329451084645528,-0.04683361370436381,-0.15110037985589028
205,7.983693799993489,0.04275724247795978,0.0006581604863507477,-0.06733913410573858,0.022082292466004128,0.1218515495364726,-0.06483770503947202,0.06840359075958088,0.22555244948836173,-0.18377092556303817,0.13249380277236542,-0.052095563466968704,-0.14890363470477674
206,7.987998600001447,0.042863868754220144,0.0012447865369803596,-0.06765201250681648,0.022411673223287125,0.12293202540744556,-0.06572023060921005,0.06903752440478897,0.22529011467126406,-0.18447932035778453,0.13201881015572542,-0.05738231739150121,-0.14667632188630456
207,7.991877899999963,0.042972081036327076,0.0018365883017387372,-0.06796912899540966,0.02274408697231349,0.12401118317775228,-0.06660612593510885,0.06966912459851583,0.22500238193109628,-0.18517696647871282,0.1315200958205677,-0.0626930652180481,-0.14441853170554203
208,7.996543799992651,0.0430818938346249,0.0024335591712184947,-0.06829049959931348,0.023079522256348368,0.12508890083935476,-0.06749533914861973,0.07029827756234708,0.2246891382239956,-0.1858637180707095,0.13099762819476474,-0.0680269823305574,-0.14213036029661516
209,8.000646100001177,0.04319332160323878,0.003035691949928346,-0.06861614009604156,0.02341796707295257,0.12616505585186732,-0.06838781768321121,0.07092486937537863,0.224350274492782,-0.18653942975408405,0.1304513793771142,-0.07338322992070508,-0.13981190998590098
210,8.00473869999405,0.04330637873745752,0.0036429788537873536,-0.06894606600948586,0.023759408873344136,0.1272395251618286,-0.06928350827672321,0.07154878599173485,0.22398568573441893,-0.18720395665462475,0.12988132511332873,-0.07876095525307816,-0.13746328958971485
211,8.010336799998186,0.04342107957111351,0.0042554115077123285,-0.06928029260658833,0.0241038345618388,0.1283121852222926,-0.07018235697385838,0.07216991325800978,0.2235952710660579,-0.1878571544357555,0.1292874451665692,-0.08415929185835762,-0.13508461499860722
212,8.01437530000112,0.04353743837396019,0.0048729809432998825,-0.06961883489402483,0.024451230495378732,0.12938291201273378,-0.07108430912884456,0.07278813693433721,0.22317893379064727,-0.1884988793341928,0.12866972378252375,-0.08957735950640533,-0.13267600942972882
213,8.018759200000204,0.043655469349047425,0.005495677596604636,-0.06996170761490231,0.02480158248317499,0.1304515810592671,-0.0719893094082679,0.07340334271629016,0.2227365814632348,-0.18912898819452154,0.12802814966509066,-0.09501426395665237,-0.1302376029518681
214,8.02257250000548,0.04377518663009559,0.006123491306015102,-0.07030892524546987,0.025154875786446186,0.13151806745518865,-0.07289730179406678,0.07401541625571786,0.2222681259589693,-0.1897473385002991,0.12736271637837035,-0.10046909660166652,-0.1277695317004118
215,8.028785100003006,0.04389660427886843,0.006756411310228794,-0.07066050199184469,0.025511095118260683,0.13258224588184755,-0.0738082295866631,0.07462424318649874,0.22177348354281987,-0.1903537884011058,0.12667342298514997,-0.10594093422913954,-0.12527193749875362
216,8.033274699992035,0.0440197362825456,0.0073944262463281904,-0.07101645178675306,0.025870224643522136,0.1336439906298549,-0.07472203540821544,0.07522970915149788,0.22125257493985914,-0.19094819674001973,0.12596027384936315,-0.1114288389651138,-0.12274496824988901
217,8.037168199996813,0.04414459655109545,0.008037524147959151,-0.07137678828628749,0.026232247979070086,0.13470317562062947,-0.07563866120601384,0.07583169982642642,0.22070532540552681,-0.191530423084421,0.12522327825045693,-0.11693185819059687,-0.12018877834839047
218,8.04141599999275,0.04427119891464846,0.008685692443613417,-0.07174152486668034,0.026597148193894235,0.13575967442828013,-0.07655804825602817,0.07643010094310233,0.2201316647967122,-0.19210032775741584,0.12446245013914684,-0.12244902429783334,-0.11760352874371327
219,8.045430500002112,0.04439955712087211,0.009338917955016797,-0.07211067462109488,0.026964907809458014,0.13681336030183297,-0.07748013716660415,0.07702479831096849,0.2195315276443541,-0.19265777186924773,0.12367780779851752,-0.12797935444201064,-0.11498938709558416
220,8.049587699992117,0.04452968483234744,0.009997186895624732,-0.0724842503564344,0.027335508800119125,0.1378641061878097,-0.07840486788231284,0.07761567783710473,0.21890485322690356,-0.19320261735021096,0.12286937348983702,-0.1335218504107708,-0.1123465277434894
221,8.054463799999212,0.04466159562394791,0.010660484869226921,-0.07286226459017012,0.027708932593644948,0.13891178475315893,-0.07933217968796215,0.07820262554435067,0.21825158564417457,-0.19373472698176936,0.12203717321594698,-0.13907549859582385,-0.10967513148740711
222,8.060621800002991,0.04479530298022093,0.011328796868662703,-0.07324472954718879,0.02808516007180681,0.13995626840854256,-0.08026201121274468,0.0787855275890497,0.21757167389107895,-0.19425396442736786,0.12118123699724587,-0.14463927006513935,-0.10697538564910056
223,8.066897400000016,0.044930820292772386,0.012002107274648907,-0.07363165715666038,0.02846417157106548,0.14099742933197382,-0.08119430043454455,0.07936427028181735,0.21686507193078502,-0.1947601942641389,0.12030159938351466,-0.1502121206453936,-0.10424748372598744
224,8.070889099995838,0.045068160857654777,0.012680399854721833,-0.07402305904892692,0.028845946883364535,0.142035139492805,-0.08212898468438919,0.07993874011019157,0.21613173876766215,-0.1952532820103959,0.11939829960347279,-0.1557929909606468,-0.10149162468253682
225,8.074806699994951,0.04520733787275934,0.013363657762295042,-0.07441894655241288,0.029230465257032975,0.14306927067606476,-0.08306600065101971,0.08050882376083486,0.21537163852006863,-0.195733094150547,0.11847138169128356,-0.16138080647281527,-0.09870801236685842
226,8.079108199992334,0.0453483644352128,0.014051863535834637,-0.07481933069055782,0.029617705397791412,0.14409969450714355,-0.08400528438558154,0.08107440814339718,0.21458474049290832,-0.19619949815699592,0.11752089487201775,-0.16697447747198624,-0.09589685489680301
227,8.083340400000452,0.04549125353877919,0.014744999098153688,-0.07522422217877177,0.030007645469883444,0.1451262824768265,-0.08494677130640473,0.08163538041641312,0.21377101925051134,-0.19665236250917092,0.11654689367216037,-0.1725728990006272,-0.09305836459666558
228,8.087292600001092,0.04563601807126743,0.015443045755827481,-0.07563363142141365,0.030400263097330092,0.1461489059666774,-0.08589039620387696,0.08219162801222415,0.2129304546899172,-0.19709155671481893,0.11554943803797128,-0.17817495086324794,-0.09019275826512214
229,8.09132619999582,0.045782670811945154,0.016145984198731273,-0.07604756850879338,0.03079553536530008,0.1471674362747742,-0.08683609324542807,0.08274303866401041,0.21206303211366292,-0.19751695133160277,0.11452859346102652,-0.18377949774418353,-0.08730025760035047
230,8.095705200001248,0.045931224428959444,0.016853794499702236,-0.07646604321419812,0.031193438821623398,0.14818174464179062,-0.08778379598061,0.08328950043191637,0.2111687423019371,-0.19792841799247066,0.11348443044306841,-0.18938538936225932,-0.08438109039763861
231,8.099793000001227,0.04608169147676516,0.01756645611432724,-0.07688906499094302,0.03159394947841202,0.1491917022774234,-0.08873343734632451,0.08383090172495267,0.2102475815838854,-0.1983258294387337,0.11241702422012238,-0.19499146069067513,-0.0814354915416267
232,8.104085200000554,0.04623408439356122,0.01828394788085812,-0.0773166429694476,0.031997042813783426,0.15019718038715743,-0.08968494967222031,0.08436713132447721,0.20929955190765676,-0.19870905955494697,0.11132645480946499,-0.20059653217507425,-0.07846370332163029
233,8.1127201999916,0.04638841549873543,0.01900624802025604,-0.07774878595433825,0.0324026937737064,0.1511980501993644,-0.09063826468625505,0.08489807840654716,0.20832466090961851,-0.19907798340500976,0.11021280641927292,-0.20619940985860846,-0.07546597525887327
234,8.116881299996749,0.04654469699031847,0.019733334136366517,-0.0781855024215779,0.032810876773938825,0.1521941829927315,-0.09159331352043852,0.08542363255974098,0.20732292198320376,-0.19943247726539048,0.10907616684981004,-0.21179888546589662,-0.07244256347505074
235,8.121354599992628,0.04670294094244731,0.020465183216226722,-0.0786268005156236,0.03322156570204433,0.15318545012402002,-0.09255002671671318,0.08594368380177017,0.2062943543473216,-0.19977241865517395,0.10791662724901009,-0.2173937364223487,-0.0693937304413477
236,8.12485619999643,0.04686315930283852,0.021201771630506603,-0.07907268804661252,0.0336347339194893,0.15417172305614987,-0.09350833423298535,0.08645812259495834,0.20523898311501926,-0.20009768636688038,0.10673428186856036,-0.22298272563791524,-0.06631974480459789
237,8.129550600002403,0.047025363890271774,0.021943075134085395,-0.0795231724875774,0.03405035426380793,0.1551528733866163,-0.09446816544930119,0.08696683986051477,0.20415683936396534,-0.20040816049484625,0.10552922801663381,-0.22856460117180874,-0.06322088104037707
238,8.1342222999956,0.04718956639208392,0.022689068866765152,-0.07997826097169172,0.034468399050836075,0.15612877287625007,-0.09542944917414993,0.08746972699356033,0.2030479602083259,-0.2007037224627178,0.10430156601825363,-0.23413809608388722,-0.06009741935983693
239,8.139570899991668,0.047355778361673935,0.023439727354122954,-0.08043796028954557,0.0348888400770203,0.15709929347832327,-0.09639211365090344,0.08796667587702112,0.20191238887067242,-0.20098425505093886,0.1030513988846155,-0.23970192848601923,-0.056949645346033965
240,8.145109299992328,0.04752401121601907,0.02419502450850344,-0.08090227688645257,0.03531164862178492,0.15806430736799876,-0.09735608656438295,0.08845757889348452,0.20075017475336537,-0.20124964242075816,0.10177883198220271,-0.2452548016786058,-0.05377784921344777
241,8.150390099996002,0.04769427623320252,0.024954933630153324,-0.08137121685978867,0.03573679544995476,0.1590236869721202,-0.0983212950475287,0.08894232893592097,0.19956137350915354,-0.20149977013461884,0.10048397268626323,-0.25079540421097335,-0.05058232532034511
242,8.154493499998352,0.04786658454995282,0.025719427408499498,-0.081844785956363,0.03616425081422492,0.15997730499933832,-0.09928766568816219,0.08942081941621821,0.19834604711197873,-0.2017345251754914,0.09916693023899324,-0.25632240970831127,-0.047363372216056486
243,8.15796519999276,0.048040947159195165,0.02648847792357233,-0.08232298956982154,0.036593984457665325,0.16092503447057974,-0.10025512453584111,0.08989294427454364,0.19710426392923397,-0.20195379596771632,0.09782781593069947,-0.2618344764877877,-0.044121293349252
244,8.162805999992997,0.048217374907614796,0.027262056647575847,-0.08280583273808362,0.037025965616280306,0.1618667487498658,-0.10122359710882138,0.09035859798961517,0.1958360987962482,-0.20215747240312654,0.09646674293426495,-0.26733024721750626,-0.0408563976350422
245,8.166351199994097,0.04839587849323289,0.028040134446606465,-0.08329332014081234,0.037460163021611564,0.16280232157549546,-0.10219300840116255,0.09081767558647674,0.19454163309181366,-0.20234544586732636,0.09508382589543038,-0.2728083491841416,-0.03756899873113053
246,8.170902600002591,0.04857646846299489,0.028822681582522085,-0.08378545609691924,0.037896544903372284,0.1637316270915881,-0.10316328288994168,0.09127007264284168,0.1932209548101051,-0.2025176092588751,0.09367918020078447,-0.27826739524528826,-0.034259413761518774
247,8.17488950000552,0.048759155210371635,0.0296096677149632,-0.08428224456210381,0.03833507899211092,0.1646545398799558,-0.10413434454254268,0.09171568528985109,0.19187415862707788,-0.2026738570033314,0.09225292079577051,-0.2837059848745379,-0.03092796251228833
248,8.179756600002293,0.04894394897297324,0.03040106190352751,-0.08478368912642806,0.03877573252185258,0.1655709349922828,-0.1051061168240048,0.09215441020708665,0.19050134596236906,-0.20281408506472764,0.09080516160144923,-0.28912270502987253,-0.027574967447470067
249,8.18415630000527,0.04913085983017552,0.03119683261009951,-0.08528979301192643,0.039218472232715,0.16648068798259097,-0.10607852270442193,0.09258614461773806,0.18910262503737113,-0.2029381909597664,0.08933601575936793,-0.2945161309117937,-0.02420075465490718
250,8.187914099995396,0.04931989770075897,0.03199694770133632,-0.08580055907025139,0.03966326437350358,0.16738367493997608,-0.10705148466642728,0.09301078628596318,0.18767811092986558,-0.20304607377836187,0.08784559619027456,-0.2998848265903844,-0.020805654398236107
251,8.191695999994408,0.04951107234056008,0.03280137445131107,-0.086315989780355,0.0401100747043021,0.16827977252159695,-0.10802492471278949,0.09342823351741132,0.18622792562608567,-0.20313763420312766,0.08633401584641061,-0.30522734559125686,-0.01739000043773857
252,8.195563600005698,0.049704393340135114,0.03361007954431499,-0.08683608724620735,0.040558868499072746,0.16916885798591078,-0.10899876437408414,0.09383838515900181,0.1847521980697331,-0.2032127745234079,0.08480138760956467,-0.3105422315507139,-0.013954129589808491
253,8.199760000003153,0.049899870122436345,0.034423029077819356,-0.08736085319455172,0.041009610548244695,0.1700508092261322,-0.1099729247164244,0.0942411405984701,0.1832510642077603,-0.20327139865054206,0.08324782454207387,-0.31582801898808416,-0.010498382263537897
254,8.20378399999754,0.05009751194050069,0.03524018856559834,-0.08789028897269704,0.041462265161309804,0.17092550480390745,-0.11094732634927885,0.09463639976655237,0.18172466703198364,-0.2033134121370397,0.08167344032871783,-0.32108323430305613,-0.007023103200275014
255,8.208728099998552,0.0502973278751508,0.03606152294101376,-0.08842439554634804,0.04191679616943213,0.1717928239831724,-0.11192188943338593,0.09502406314076771,0.1801731566153052,-0.20333872219893487,0.08007834956079027,-0.32630639670389683,-0.0035286420413244246
256,8.212640500001726,0.05049932683270872,0.03688699656046248,-0.08896317349747355,0.042373166928079874,0.17265264676417383,-0.11289653368878604,0.09540403175032576,0.17859669014442794,-0.20334723774040273,0.07846266798695856,-0.3314960189849023,-1.5353484705356093e-05
257,8.216712299996288,0.05070351754272219,0.037716573206987306,-0.0895066230222137,0.04283134031968196,0.17350485391764117,-0.11387117840297198,0.09577620718231365,0.17699543194862502,-0.20333886937761658,0.0768265130414631,-0.3366506080857934,0.0035164026983820315
258,8.221130999998422,0.050909908555703785,0.03855021609405193,-0.09005474392882629,0.04329127875631927,0.17434932701908354,-0.11484574243914976,0.09614049159166703,0.1753695535270925,-0.20331352946352252,0.07517000436461475,-0.3417686655888923,0.007066261348519953
259,8.227085499995155,0.05111850824088303,0.03938788786948062,-0.09060753563567318,0.0437529441824768,0.1751859484832236,-0.11582014424462653,0.09649678771234642,0.17371923357295266,-0.20327113211471623,0.07349326337683879,-0.3468486897854078,0.01063385157178019
260,8.234459999992396,0.05132932478397188,0.04022955061956325,-0.09116499716924716,0.04421629807784207,0.17601460159852483,-0.11679430185932897,0.09684499886322506,0.1720446579807994,-0.20321159323953727,0.07179641246760561,-0.351889179927369,0.014218796613628343
261,8.238855200004764,0.05154236618494371,0.04107516587332594,-0.09172712716223985,0.04468130146011367,0.17683517056169762,-0.11776813292446062,0.09718502895149037,0.1703460198299424,-0.20313483056615467,0.0700795747745518,-0.35688864025208417,0.017820713638110042
262,8.24268700000539,0.05175764025582569,0.0419246946069669,-0.09229392385165167,0.045147914887832305,0.1776475405120659,-0.11874155469128943,0.09751678247641438,0.168623519353374,-0.20304076367277785,0.06834287435678432,-0.3618455810951875,0.021439213286715622
263,8.246947399995406,0.05197515461850489,0.04277809724845648,-0.09286538507694395,0.04561609846322549,0.1784515975657759,-0.11971448403009471,0.09784016453441653,0.16687736391034366,-0.202929314019971,0.06658643679406845,-0.36675851803857135,0.025073899742125767
264,8.252522199996747,0.05219491670254798,0.04363533368230094,-0.09344150827823462,0.046085811835087115,0.17924722884989966,-0.1206868374392645,0.09815508082857796,0.16510776796349286,-0.20280040498025295,0.06481038969048251,-0.3716259728850784,0.028724371467306362
265,8.262690100003965,0.05241693374303491,0.04449636325446946,-0.09402229049453763,0.046557014201713334,0.18003432253642476,-0.12165853105452619,0.09846143767853227,0.1633149530420861,-0.20265396186332654,0.06301486267465395,-0.3764464780267135,0.032390221963041366
266,8.266650499994284,0.05264121277840674,0.04536114477748368,-0.094607728362047,0.04702966431387696,0.1808127678760054,-0.12262948065828574,0.09875914202998211,0.16149914767727203,-0.20248991193841678,0.06119998717110317,-0.38121858135078435,0.03607103910646722
267,8.271027900002082,0.052867760648327856,0.04622963653566826,-0.09519781811246586,0.04750372047785458,0.18158245523133132,-0.12359960168907251,0.09904810146239805,0.1596605873182842,-0.20230818446584103,0.05936589622701909,-0.3859408475281402,0.03976640305348526
268,8.27467909999541,0.0530965839915628,0.04710179629056031,-0.095792555571381,0.04797914055847475,0.1823432761100758,-0.12456880925118105,0.09932822419687463,0.15779951425535307,-0.2021087107394547,0.0575127248750268,-0.3906118550718366,0.04347588457042081
269,8.279129000002285,0.053327689243867715,0.047977581286475814,-0.09639193615668432,0.04845588198222041,0.18309512319752558,-0.1255370181245228,0.09959941910730674,0.15591617756410248,-0.20189142413421407,0.055640610550001406,-0.39523019250837954,0.047199044326775165
270,8.283436099998653,0.05356108263589692,0.0488569482562318,-0.09699595487704187,0.04893390174038421,0.1838378903889957,-0.1265041427747239,0.09986159573224121,0.15401083306516408,-0.2016562601554018,0.05374969349879811,-0.39979445612809017,0.05093543306527968
271,8.287156299993512,0.053796770191124596,0.049739853427023493,-0.09760460633041204,0.04941315639228456,0.18457147282207242,-0.1274700973634487,0.10011466428998089,0.1520837432901389,-0.2014031564845596,0.05184011718265981,-0.40430324964348835,0.05468459134984034
272,8.29135509999469,0.05403475772378218,0.05062625252645563,-0.09821788470261363,0.049893602068565725,0.18529576690870178,-0.12843479575893782,0.10035853569429376,0.15013517744448654,-0.20113205303112974,0.04991202833195078,-0.4087551851655107,0.05844604807296364
273,8.295915299997432,0.05427505083681171,0.05151610078872716,-0.09883578376594497,0.05037519447456447,0.18601067036707666,-0.12939815154682685,0.10059312157004163,0.14816541136412859,-0.20084289199269584,0.047965577118864386,-0.41314888403413325,0.062219319459768135
274,8.30041589999746,0.05451765491983546,0.05240935296096823,-0.09945829687785576,0.05085788889375996,0.18671608225330943,-0.13036007804126182,0.10081833427054486,0.14617472747037555,-0.2005356179161718,0.04600091734733112,-0.41748297739105145,0.06600390949220175
275,8.304703999994672,0.05476257514714239,0.053305963309728505,-0.10008541697967276,0.051341640191306874,0.18741190299288693,-0.13132048829630436,0.10103408689503152,0.14416341472104055,-0.20021017775397598,0.044018206445083675,-0.42175610690218124,0.0697993109680261
276,8.309140500001376,0.05500981647569163,0.054205885627615705,-0.10071713659538087,0.05182640281765258,0.18809803441187445,-0.13227929511758577,0.10124029330592602,0.1421317685584403,-0.19986652091506882,0.0420176054077912,-0.4259669253774625,0.07360500586204961
277,8.31415669999842,0.05525938364313358,0.05510907324008303,-0.10135344783046063,0.05231213081223596,0.18877437976787229,-0.1332364110742014,0.10143686814576278,0.14008009085456744,-0.19950459931766412,0.039999279012591066,-0.43011409813822055,0.0774204652149925
278,8.318524000002071,0.05551128116584893,0.056015479012364436,-0.1019943423707833,0.052798777807266724,0.18944084378069415,-0.13419174851086998,0.10162372685652175,0.13800868984598383,-0.1991243674413321,0.03796339640837476,-0.4341963053308392,0.08124514924311912
279,8.323085199997877,0.05576551333700589,0.056925055356556155,-0.10263981148156485,0.05328629703160961,0.19009733266269957,-0.13514521956032752,0.1018007857022006,0.1359178800568141,-0.1987257823786597,0.03591013158833719,-0.4382122450677552,0.08507850724581016
280,8.32899969999562,0.056022084224636504,0.057837754238842735,-0.10328984600637996,0.05377464131478003,0.19074375414873415,-0.13609673615598178,0.10196796179268003,0.13380798220352938,-0.19830880388823963,0.033839663721395644,-0.4421606382988688,0.08891997787288573
281,8.333202800000436,0.056280997669732186,0.05875352718686558,-0.10394443636623722,0.05426376309105709,0.19138001752554923,-0.13704621004481415,0.10212517310947301,0.1316793230712433,-0.1978733944437681,0.03175217742750997,-0.4460402334591347,0.09276898962628682
282,8.33715979999397,0.056542257284359417,0.05967232529723098,-0.10460357255871684,0.054753614403726045,0.19200603366055627,-0.13799355280050485,0.10227233853222935,0.12953223537394398,-0.19741951928222487,0.02964786287199379,-0.4498498076785686,0.09662496103739122
283,8.341572199991788,0.056805866449795996,0.06059409924315432,-0.10526724415717172,0.05524414690944537,0.19262171502990674,-0.13893867583679653,0.10240937786538888,0.12736705761919084,-0.19694714645127107,0.027526916025878347,-0.4535881659887623,0.10048730077514888
284,8.349593999999342,0.05707182831468857,0.061518799282237274,-0.10593544030999315,0.055735311882744755,0.1932269757459495,-0.13988149042107392,0.10253621186718198,0.12518413397595296,-0.19645624685639268,0.025389538910189354,-0.4572541418991944,0.1043554076282461
285,8.354102900004364,0.057340145793232024,0.0624463752643752,-0.10660814973994216,0.056227060220670165,0.1938217315840437,-0.14082190768817934,0.10265276227862438,0.12298381413378137,-0.19594679430846948,0.023235939484881393,-0.4608465987020696,0.10822867031965651
286,8.360079299993231,0.057610821563371516,0.0633767766397914,-0.10728536074354764,0.056719342447559766,0.19440590000866628,-0.1417598386544483,0.10275895185145298,0.1207664531581392,-0.19541876557269608,0.021066331689075634,-0.46436442866918,0.11210646706475867
287,8.364628199997242,0.05788385806502766,0.06430995246719474,-0.10796706119057216,0.05721210871995677,0.19497940019883805,-0.142695194231994,0.10285470437750639,0.1185324113572729,-0.1948721404203868,0.01888093545676608,-0.46780654999035665,0.11598816515992227
288,8.368447100001504,0.05815925749834567,0.0652458514220577,-0.1086532385235471,0.05770530883166704,0.19554215307295494,-0.14362788524323955,0.10293994471681132,0.11628205416689034,-0.1943069016818406,0.016679976692429935,-0.47117190440088613,0.11987312027483159
289,8.373050900001545,0.058437021821969,0.06618442180501198,-0.10934387975737775,0.058198892218941124,0.19609408131310868,-0.1445578224357092,0.10301459882672932,0.11401575203977575,-0.1937230353049296,0.014463687468573768,-0.4744594591961689,0.12376067569646974
290,8.378950099999201,0.058717152751338174,0.06712561155035968,-0.11003897147902023,0.0586928079658113,0.19663510938885986,-0.14548491649712217,0.10307859379193682,0.11173388031115523,-0.19312053041521132,0.012232305986535238,-0.477668214764769,0.1276501628325955
291,8.387197200005176,0.058999651757015596,0.06806936823469684,-0.11073849984723128,0.05918700480956099,0.19716516358026803,-0.1464090780707602,0.10313185785319613,0.10943681901609977,-0.1924993793696909,0.009986076631077794,-0.4807972148836792,0.1315409035275764
292,8.391345800002455,0.0592845200630368,0.06901563908564536,-0.11144245059239247,0.05968143114633758,0.19768417199991437,-0.1473302177710767,0.10317432043785886,0.10712495265620026,-0.1918595777947335,0.007725249860374655,-0.4838455547678695,0.1354322128360638
293,8.399786699999822,0.059571758645289054,0.06996437099068765,-0.11215080901640967,0.06017603503691428,0.1981920646136951,-0.14824824619942764,0.10320591218758227,0.10479866993980742,-0.19120112461323832,0.005450081623204674,-0.48681238308856495,0.13932339985845904
294,8.4037920999981,0.05986136822991787,0.0709155105060979,-0.11286355999268802,0.0606707642125686,0.19868877326035414,-0.14916307395994136,0.1032265649832459,0.10245836352935965,-0.19052402207454208,0.0031608330511730337,-0.4896968986313996,0.14321376770617708
295,8.40913040000305,0.060153349291761936,0.07186900386596393,-0.11358068796618352,0.06116556608108306,0.1991742316698544,-0.150074611675536,0.10323621196971759,0.10010442981365782,-0.18982827578192596,0.0008577702705288934,-0.49249834419990157,0.1471026136466319
296,8.414620499999728,0.06044770205281716,0.07282479699129456,-0.11430217695353158,0.061660387732861116,0.19964837548072742,-0.15098277000405302,0.1032347875789662,0.09773726871363443,-0.18911389472112938,-0.0014588357715847049,-0.4952160000634955,0.15098922869456477
297,8.418990000005579,0.06074442648073023,0.07378283549920785,-0.11502801054325323,0.06215517594714939,0.20011114225658277,-0.15188745965454797,0.10322222755316202,0.09535728351743598,-0.1883808912917744,-0.0037887090554460374,-0.49784918077180973,0.15487289806390128
298,8.42502529999183,0.061043522287322294,0.07474306471219666,-0.11575817189603986,0.06264987719837502,0.20056247150187684,-0.1527885914037252,0.10319846897020211,0.09296488071673016,-0.18762928133154802,-0.0061315678971267575,-0.500397237205577,0.15875290314164353
299,8.429113199992571,0.06134498892714328,0.07570542966746807,-0.11649264374511696,0.06314443766261263,0.201002304676853,-0.15368607611246052,0.10316345027248218,0.09056046982212825,-0.18685908412870478,-0.008487124555451009,-0.502859560278522,0.1626285228582399
300,8.433012499997858,0.06164882559605757,0.07666987512635216,-0.11723140839668723,0.06363880322419746,0.2014305852115411,-0.1545798247423557,0.10311711129618953,0.088144463164006,-0.18607032243311272,-0.010855084868855584,-0.505235582431281,0.1664990330538982
301,8.439700000002631,0.0619550312298617,0.07763634558377562,-0.11797444773045307,0.06413291948247313,0.2018472585187883,-0.1554697483723671,0.10305939330355599,0.08571727569360531,-0.18526302247483054,-0.013235147255395622,-0.5075247777286631,0.17036370563224734
302,8.446043799995095,0.06226360450293473,0.07860478527779545,-0.11872174320021901,0.06462673175871395,0.20225227200635176,-0.1563557582155381,0.10299023902173687,0.08327932478292276,-0.18443721398326648,-0.015627001878636415,-0.5097266635622898,0.1742218085579251
303,8.449894899997162,0.0625745438269223,0.07957513819918849,-0.11947327583457466,0.06512018510324538,0.20264557508801145,-0.1572377656358115,0.10290959268305966,0.08083103000948973,-0.1835929302057787,-0.01803033022048559,-0.5118408036885862,0.1780726056031565
304,8.4538254999934,0.06288784734945527,0.08054734810109165,-0.1202290262376583,0.0656132243027522,0.20302711919359964,-0.15811568216494024,0.10281740006799778,0.07837281292713874,-0.18273020792926337,-0.02044480445935577,-0.5138668089053537,0.18191535592580602
305,8.458323300001211,0.06320351295290379,0.0815213585086876,-0.12098897459000188,0.06610579388781085,0.20339685777791616,-0.15898941951950674,0.10271360855138022,0.07590509684429796,-0.1818490875027999,-0.022870087053787996,-0.5158043335111893,0.18574931335833983
306,8.462511799996719,0.06352153825316817,0.0824971127289304,-0.12175310064945782,0.0665978381406406,0.20375474632863277,-0.1598588896180507,0.10259816714935674,0.07342830662869754,-0.18094961286605513,-0.025305830387854843,-0.5176530703558376,0.1895737251791057
307,8.466472600004636,0.0638419205985073,0.08347455386030703,-0.1225213837522082,0.06708930110308614,0.20410074237333628,-0.16072400459836067,0.10247102656900663,0.07094286853311153,-0.18003183158370686,-0.027751676549451963,-0.5194127477816637,0.193387831734787
308,8.471164499991573,0.06416465706840595,0.08445362480263052,-0.12329380281385724,0.06758012658484422,0.20443480548576246,-0.1615846768349319,0.1023321392574292,0.06844921002938334,-0.1790957948774674,-0.030207257692307237,-0.5210831283677436,0.19719086678563008
309,8.47639349999372,0.06448974447248211,0.08543426826686121,-0.12407033633060792,0.06807025817191686,0.20475689729124813,-0.1624408189565649,0.10218145944788237,0.06594775964620672,-0.17814155765719772,-0.032672196494637804,-0.5226640080777897,0.20098205733418564
310,8.480628499994054,0.06481717934943533,0.08641642678495216,-0.12485096238052315,0.06855963923528031,0.2050669814714101,-0.16329234386412145,0.10201894320447642,0.06343894681131929,-0.17716917855457257,-0.035146106544858266,-0.5241552160366416,0.20476062315230636
311,8.485302600005525,0.06514695796603712,0.08740004271971527,-0.12563565862487255,0.06904821293976665,0.2053650237680844,-0.16413916474844595,0.10184454846461517,0.06092320169142606,-0.17617871995872894,-0.037628592954739026,-0.5255566168025513,0.20852577692068897
312,8.491607799995109,0.06547907631616444,0.08838505827470446,-0.12642440230956548,0.06953592225313958,0.20565099198647088,-0.1649811951084632,0.10165823507781205,0.058400955012610806,-0.17517024804859355,-0.04011925273802793,-0.5268681148882329,0.21227672520780574
313,8.495512800000142,0.06581353011987713,0.08937141550411187,-0.12721717026667123,0.07002270995534815,0.2059248559973508,-0.16581834876940957,0.10145996484450173,0.05587263785692078,-0.17414383281914717,-0.04261767492114241,-0.5280896586016892,0.21601266909998387
314,8.500122199999169,0.0661503148225401,0.09035905632267241,-0.1280139389160269,0.0705085186479746,0.20618658773828144,-0.16665053990118253,0.10124970155379516,0.05333868144595983,-0.1730995481077122,-0.04512344104713546,-0.5292212404754146,0.21973280368036777
315,8.504404199993587,0.06648942559399126,0.09134792251557132,-0.1288146842669334,0.07099329076384997,0.20643616121373937,-0.16747768303682387,0.10102741101746014,0.0507995169333588,-0.17203747162521169,-0.04763612545932287,-0.5302628932162516,0.2234363167542808
316,8.508440899997368,0.066830857327756,0.0923379557483501,-0.1296193819199406,0.07147696857682771,0.20667355249432554,-0.16829969309116888,0.1007930611049575,0.04825557522719338,-0.1709576849946756,-0.05015529501735634,-0.531214684473638,0.22712238851727928
317,8.512414199998602,0.06717460464030872,0.09332909757680652,-0.13042800706872207,0.07195949421173516,0.2068987397152063,-0.16911648537969864,0.10054662178014344,0.04570728683260611,-0.16986027378568183,-0.05268050911308174,-0.5320767140538292,0.2307901925793945
318,8.517264900001464,0.06752066187038272,0.09432128945688552,-0.13124053450204085,0.07244080965449892,0.2071117030738099,-0.16992797563751944,0.10028806513615363,0.04315508170092876,-0.16874532754304414,-0.05521131975027044,-0.5328491123728107,0.23443889634328394
319,8.520816000003833,0.06786902307832884,0.09531447275455718,-0.13205693860580628,0.07292085676243082,0.20731242482682113,-0.17073408003848994,0.10001736543134128,0.04059938908713474,-0.16761293981762818,-0.0577472712279409,-0.5335320395118006,0.23806766138240554
320,8.525963799998863,0.0682196820455239,0.09630858875567883,-0.13287719336522305,0.07339957727469774,0.20750088928651134,-0.17153471521449612,0.09973449912719695,0.0380406374080154,-0.1664632081914142,-0.060287900251347545,-0.5341256850616927,0.24167564419765014
321,8.529715900003794,0.0685726322738297,0.09730357867583779,-0.1337012723670328,0.07387691282297108,0.20767708281637362,-0.17232979827481865,0.09943944492322264,0.03547925410112367,-0.16529623430106005,-0.06283273643670396,-0.5346302673498206,0.24526199659488176
322,8.533254900001339,0.0689278669851036,0.09829938367017169,-0.13452914880184882,0.07435280494223091,0.20784099382610066,-0.17311924682563365,0.0991321837900133,0.032915665490362546,-0.1641121238593448,-0.06538130229441987,-0.53504603260419,0.2488258667874226
323,8.537879600000451,0.06928537912076106,0.09929594484316302,-0.1353607954665846,0.07482719508173252,0.20799261276593142,-0.17390297898958573,0.09881269900429167,0.030350296652940447,-0.1629109866681632,-0.06793311296239479,-0.5353732549377731,0.2523664000584424
324,8.542391599999974,0.0696451613413913,0.1002932032584053,-0.13619618476697617,0.07530002461614646,0.2081319321203536,-0.17468091342541325,0.09848097618454639,0.02778357128511027,-0.16169293663361972,-0.07048767647272731,-0.535612236350022,0.25588273939222167
325,8.547896200005198,0.07000720602642671,0.10129109994833722,-0.13703528872019874,0.07577123485686668,0.20825894640116335,-0.17545296934766605,0.09813700332351018,0.02521591156911018,-0.16045809177297174,-0.0730444940671918,-0.5357633070409934,0.25937402733024956
326,8.552339799993206,0.07037150527386685,0.10228957592394232,-0.13787807895757806,0.07624076706346193,0.20837365213989217,-0.17621906654639727,0.0977807708207738,0.022647738035891523,-0.15920657421193088,-0.07560305991423816,-0.5358268277899695,0.262839407547901
327,8.55799630000547,0.07073805090005765,0.10328857218441052,-0.13872452672739588,0.07670856245529653,0.20847604787955076,-0.17697912540685523,0.09741227151797704,0.020079469409258102,-0.15793851017649227,-0.07816286068294453,-0.5358031947936442,0.2662780272206594
328,8.562260799997603,0.07110683443952683,0.10428802972675863,-0.13957460289779003,0.0771745622233191,0.20856613416556186,-0.17773306692909693,0.09703150073550683,0.017511522422215174,-0.1566540299675532,-0.08072337533807196,-0.5356928441062133,0.26968903862709853
329,8.566799599997466,0.07147784714487607,0.10528788955540501,-0.14042827795974788,0.07763870754203514,0.20864391353574355,-0.1784808127474366,0.09663845630965276,0.014944311618545987,-0.1553532679373762,-0.08328407503043338,-0.5354962516091687,0.2730715982031621
330,8.570547199997236,0.07185107998673121,0.10628809269169401,-0.1412855220301929,0.07810093958165192,0.20870939050934006,-0.17922228514983357,0.09623313863035617,0.01237824916945032,-0.15403636247327332,-0.08584442287624927,-0.535213928397533,0.27642486553786205
331,8.57493550000072,0.07222652365375087,0.10728858018336553,-0.14214630485516394,0.0785611995204129,0.20876257157524739,-0.17995740709718444,0.09581555068048077,0.00981374471934863,-0.15270345598369653,-0.0884038740983416,-0.5348464158299153,0.2797480018591163
332,8.578915599995526,0.07260416855269486,0.10828929311396654,-0.14301059581308673,0.07901942855711915,0.20880346517956588,-0.1806861022425776,0.09538569807220822,0.0072512052499708185,-0.15135469489643677,-0.09096187654641992,-0.5343942821881742,0.2830401693076313
333,8.583089599997038,0.07298400480855281,0.10929017261220136,-0.14387836391813774,0.07947556792381255,0.2088320817125231,-0.18140829495056818,0.09494358908132129,0.004691034958180883,-0.14999022965167486,-0.09351787109094747,-0.5338581206316549,0.28630053276457806
334,8.587136699992698,0.07336602226473421,0.11029115986121782,-0.14474957782370046,0.07992955889862591,0.2088484334948552,-0.18212391031636585,0.09448923467982384,0.002133635139676389,-0.14861021468266047,-0.09607129252142935,-0.5332385505050522,0.28952826227915385
335,8.597421400001622,0.0737502104833202,0.11129219610782694,-0.14562420582591318,0.08038134281877889,0.20885253476361496,-0.18283287418492464,0.09402264856161298,-0.0004205959457240636,-0.14721480838549242,-0.09862157113684038,-0.5325362221871691,0.29272253618903094
336,8.602016699995147,0.07413655874537817,0.11229322267165309,-0.14650221586730824,0.08083086109367413,0.20884440165726173,-0.18353511316984109,0.09354384715985316,-0.0029712632368616245,-0.14580417306988494,-0.10116813397510362,-0.5317518223716016,0.2958825437958651
337,8.60841299999447,0.07452505605133912,0.11329418095421077,-0.14738357554054105,0.08127805521805981,0.2088240521999091,-0.184230554671972,0.09305284966086258,-0.005517975056570437,-0.14437847490330052,-0.10371040588445682,-0.5308860778178593,0.29900748653182746
338,8.61224069999298,0.07491569112143842,0.11429501244790372,-0.1482682520922077,0.08172286678525884,0.2087915062846383,-0.18491912689779713,0.09254967801121713,-0.008060343310416706,-0.14293788385053385,-0.10624781100392947,-0.5299397559309933,0.302096578810761
339,8.617482200002996,0.07530845239622,0.11529565874494171,-0.1491562124267501,0.08216523750039952,0.20874678565584062,-0.18560075887745778,0.09203435691744494,-0.010597983677588255,-0.14148257360968539,-0.10877977325250894,-0.5289136607754835,0.30514904705257007
340,8.621420099996612,0.0757033280371039,0.11629606154617049,-0.15004742311044644,0.08260510919364182,0.20868991389070105,-0.1862753804825057,0.09150691384844112,-0.01313051577142268,-0.14001272156109754,-0.11130571577670206,-0.5278086269805369,0.30816412668842175
341,8.62498300000152,0.0761003059270173,0.11729616266981101,-0.15094185037548652,0.0830424238334312,0.2086209163800018,-0.18694292244345218,0.09096737904045804,-0.015657563271873023,-0.13852850873203643,-0.11382506076174768,-0.5266255152824797,0.3111410601753964
342,8.629407999993418,0.0764993736710891,0.11829590406010532,-0.15183946012413044,0.0834771235397727,0.20853982030833618,-0.18760331636717845,0.09041578550132981,-0.018178754043305247,-0.13703011976465965,-0.11633722925915063,-0.5253652100159564,0.31407909677781076
343,8.633502099997713,0.07690051859740815,0.11929522779586621,-0.15274021793295073,0.08390915059752524,0.2084466546337829,-0.18825649475417766,0.08985216901711575,-0.020693720242914507,-0.13551774288279425,-0.11884164063439544,-0.5240286176194014,0.31697749240681145
344,8.638150600003428,0.07730372775784536,0.12029407609892821,-0.15364408905715646,0.08433844746973944,0.20834145006708063,-0.18890239101564682,0.08927656816161914,-0.023202098424196068,-0.13399156986144217,-0.12133771200014515,-0.5226166659110335,0.3198355098747263
345,8.642323299995041,0.07770898792893972,0.12129239134249761,-0.15455103843499912,0.08476495681104315,0.20822423905031048,-0.18954093949043646,0.08868902430846404,-0.025703529638421246,-0.13245179599112,-0.12382485793262434,-0.5211303035043927,0.32265241984045256
346,8.647666399992886,0.07811628561284874,0.1222901160593991,-0.15546103069225925,0.08518862148109503,0.2080950557350978,-0.19017207546180073,0.0880895816433328,-0.028197659532505658,-0.1308986200383019,-0.12630249105427127,-0.5195704999829271,0.3254275017213334
347,8.654005000003963,0.07852560703836343,0.12328719295021684,-0.15637403014681286,0.08560938455808739,0.2079539359603564,-0.1907957351739679,0.0874782871704576,-0.03068413845215875,-0.12933224420101816,-0.12877002340487353,-0.5179382479946856,0.32816004624667894
348,8.660551799999666,0.0789369381619882,0.12428356489132776,-0.15729000081327693,0.086027189352262,0.20780091722950175,-0.19141185584846473,0.08685519071171414,-0.0331626215598318,-0.12775287404481994,-0.13122686776438341,-0.5162345662295934,0.330849359396445
349,8.6669636000006,0.07935026466908539,0.1252791749428242,-0.1582089064077323,0.08644197941940425,0.2076360386870644,-0.19202037570007327,0.08622034490043277,-0.03563276896640765,-0.12616071842062168,-0.13367243834672096,-0.5144605012785523,0.33349476533199757
350,8.670785499998601,0.07976557197508449,0.12627396635632301,-0.15913071035252213,0.08685369857429961,0.20745934109464076,-0.19262123395236758,0.08557380517384135,-0.03809424586697004,-0.12455598937257152,-0.13610615094113307,-0.5126171270834126,0.336095607938658
351,8.67934950000199,0.08018284522675576,0.12726788258265767,-0.16005537578112375,0.0872622909041554,0.2072708668062052,-0.1932143708527873,0.08491562976552121,-0.0405467226672208,-0.12293890204110677,-0.13852742261286444,-0.5107055431869122,0.3386512515500249
352,8.685761700005969,0.08060206930354799,0.1282608672794507,-0.16098286554309157,0.08766770078198485,0.2070706597428489,-0.19379972768724527,0.08424587970071952,-0.042989875102473055,-0.12130967456388105,-0.1409356715775033,-0.5087268734876422,0.3411610810141221
353,8.692662500005099,0.0810232288189905,0.1292528643185637,-0.16191314220906902,0.08806987287998401,0.20685876536695127,-0.19437724679425117,0.08356461879000972,-0.0454233843521335,-0.1196685279781856,-0.14333031759424827,-0.5066822654701263,0.34362450099807207
354,8.696213499992155,0.08144630812215914,0.13024381779342206,-0.1628461680758668,0.08846875218285502,0.20663523065582134,-0.19494687157858384,0.08287191362083399,-0.04784693715131517,-0.11801568612854188,-0.14571078177773314,-0.5045728886740488,0.3460409352308731
355,8.700089199992362,0.08187129129920592,0.1312336720262124,-0.16378190517160587,0.0888642840011019,0.20640010407479936,-0.19550854652452918,0.08216783355296757,-0.050260225890645674,-0.11635137557638163,-0.14807648626608091,-0.5023999302997765,0.34840982486691524
356,8.704347899998538,0.08229816217495256,0.13222237157494943,-0.16472031526092268,0.0892564139843104,0.20615343554994137,-0.1960622172086865,0.08145245071324328,-0.052662948685754475,-0.11467582552332677,-0.1504268544261374,-0.5001645899950259,0.35073062495565105
357,8.708418499998515,0.08272690431454738,0.1332098612404115,-0.16566135985023484,0.0896450881343932,0.20589527644045466,-0.1966078303124711,0.08072583998904843,-0.055054809427106055,-0.11298926775471127,-0.15276131132723642,-0.4978680770482459,0.35300280119609523
358,8.71295739999914,0.08315750102518579,0.13419608607294334,-0.1666050001930662,0.09003025281880742,0.2056256795109047,-0.19714533363437917,0.07998807901850785,-0.05743551782258291,-0.11129193659397248,-0.1550792847633268,-0.4955116083425532,0.3552258284891223
359,8.716805599993677,0.08358993535789395,0.13518099137912498,-0.1675511972954302,0.09041185478370567,0.20534469890324242,-0.1976746761020532,0.07923924817418267,-0.05980478942770513,-0.10958406886005065,-0.15738020675052092,-0.49309640655824893,0.3573991909679786
360,8.721474899997702,0.08402419010937529,0.1361645227283065,-0.16849991192127045,0.09078984116699738,0.2050523901087213,-0.19819580778413848,0.0784794305388978,-0.06216234567098271,-0.10786590382148778,-0.15966351511902654,-0.4906237000148476,0.3595223832254848
361,8.72561969999515,0.08446024782391932,0.13714662595900778,-0.16945110459795784,0.0911641595112681,0.2047488099396818,-0.1987086799019085,0.07770871187418052,-0.06450791388262078,-0.10613768314206319,-0.16192865472541945,-0.48809472194888953,0.3615949117970915
362,8.729291099996772,0.08489809079537211,0.13812724718518263,-0.17040473562184258,0.09153475777653824,0.20443401650119325,-0.19921324484060032,0.07692718058446701,-0.06684122731294906,-0.10439965082067575,-0.16417507794105515,-0.4855107085258584,0.36361629629507064
363,8.73305199999595,0.08533770106916734,0.13910633280234677,-0.17136076506385986,0.0919015843528393,0.20410806916266147,-0.1997094561604637,0.07613492768085905,-0.06916202514206929,-0.10265205312610708,-0.1664022451243054,-0.48287289840101405,0.36558607082541317
364,8.737099599995418,0.0857790604444173,0.14008382949356984,-0.17231915277518792,0.09226458807262514,0.20377102852937837,-0.2001972686074711,0.07533204674080372,-0.0714700524940748,-0.1008951385233214,-0.16860962602388382,-0.4801825325626248,0.36750378531139755
365,8.741910199998529,0.08622215047606299,0.1410596842353306,-0.17327985839295632,0.09262371822296175,0.20342295641399316,-0.2006766381236603,0.07451863385839774,-0.07376506044519522,-0.09912915759554099,-0.17079670103912878,-0.47744085410815007,0.36936900795194977
366,8.749270700005582,0.08666695247708193,0.14203384430323546,-0.17424284134600315,0.09297892455746215,0.20306391580798389,-0.2011475218570974,0.07369478759198614,-0.07604680603587048,-0.09735436294698015,-0.1729629624632263,-0.47464911023171646,0.3711813305778423
367,8.754516799992416,0.08711344752075269,0.1430062572776002,-0.17520806086067886,0.09333015730797374,0.2026939708530129,-0.20160987817128706,0.07286060890254902,-0.07831505229794751,-0.09557100907357609,-0.1751079159489002,-0.47180855376786984,0.3729403724961419
368,8.758508600003552,0.08756161644297468,0.14397687104889392,-0.1761754759666936,0.09367736719592265,0.20231318681213772,-0.20206366665389644,0.0720162010872501,-0.08056956828155266,-0.09377935222886996,-0.1772310796273345,-0.4689204428128116,0.3746457796070343
369,8.762396799997077,0.08801143984464149,0.14494563382304487,-0.17714504550300475,0.0940205054433641,0.20192163004090885,-0.2025088481248796,0.07116166972626953,-0.08281012907865759,-0.09197965030320389,-0.1793319815080049,-0.4659860387722747,0.37629722185212094
370,8.766994499994325,0.08846289809406661,0.14591249412660723,-0.17811672812374207,0.09435952378381704,0.20151936795835473,-0.20294538464404346,0.07029712264127765,-0.08503651583123857,-0.09017216271406264,-0.18141015703557026,-0.46300660276716027,0.3778943892452258
371,8.770688599994173,0.08891597132946058,0.1468774008117888,-0.1790904823041678,0.09469437447291647,0.20110646901800144,-0.2033732395181211,0.06942266986568746,-0.08724851572038678,-0.08835715032331941,-0.18346514727971375,-0.45998339380736025,0.3794369884354091
372,8.774864499995601,0.08937063946145885,0.14784030306134005,-0.18006626634666964,0.0950250102989629,0.20068300267896194,-0.2037923773075444,0.06853842362048063,-0.08944592195696185,-0.08653487536052445,-0.1854964985879321,-0.4569176688557997,0.38092474321439895
373,8.778751499994542,0.08982688217570005,0.14880115039330466,-0.1810440383867857,0.09535138459334297,0.20024903937704538,-0.2042027638327819,0.06764449828778829,-0.09162853377131609,-0.08470560133528665,-0.1875037626318987,-0.4538106817232414,0.3823573947032569
374,8.783054200001061,0.09028467893545378,0.14975989266563158,-0.18202375639925833,0.09567345124082562,0.1998046504959449,-0.20460436618027164,0.06674101038627263,-0.09379615639335359,-0.08286959295877276,-0.1894864965829639,-0.45066368206156293,0.38373470024960565
375,8.787155500001973,0.09074400898429753,0.1507164800806494,-0.18300537820411583,0.09599116468974671,0.19934990833853802,-0.20499715270800647,0.06582807854302533,-0.09594860103260397,-0.08102711606666015,-0.191444263457229,-0.44747791508074297,0.38505643311471355
376,8.791822200000752,0.09120485134884213,0.15167086318940326,-0.1839888614727799,0.09630447996203587,0.19888488609826552,-0.2053810930507283,0.06490582346564128,-0.09808568485556857,-0.07917843754363567,-0.19337663173618747,-0.44425462031831775,0.3863223820917025
377,8.795587999993586,0.09166718484150475,0.15262299289585493,-0.18497416373419714,0.09661335266313335,0.19840965783064896,-0.20575615812478967,0.06397436791775354,-0.10020723095399814,-0.07732382525000826,-0.1952831754793817,-0.44099503082023456,0.38753235141462994
378,8.799567099995329,0.09213098806332946,0.15357282046094667,-0.18596124238099307,0.0969177389917824,0.1979242984249736,-0.2061223201326445,0.06303383669002716,-0.10231306831438672,-0.07546354794707938,-0.19716347531692718,-0.43770037292186526,0.38868615978076776
379,8.8053413000016,0.0925962394068541,0.15452029750652976,-0.18695005467564668,0.09721759574966801,0.1974288835760985,-0.2064795525669943,0.06208435656617975,-0.1044030317841501,-0.073597875233128,-0.19901711966057808,-0.4343718654285475,0.38978363959245993
380,8.810766599999624,0.09306291705902317,0.15546537601915827,-0.18794055775668422,0.09751288035088361,0.19692348975646348,-0.20682783021466516,0.061126056282366024,-0.10647696203326436,-0.07172707747604863,-0.20084370691032336,-0.43101072011820135,0.3908246403935153
381,8.817544699995779,0.09353099900414552,0.15640800835374918,-0.18893270864489092,0.09780355083118047,0.19640819418826702,-0.20716712916010838,0.06015906647204596,-0.10853470552526243,-0.06985142571639505,-0.20264284888971845,-0.42761814278127475,0.3918090344776108
382,8.820969099993818,0.09400046302689588,0.15734814723710944,-0.1899264642495383,0.09808956585690587,0.19588307481575132,-0.20749742678834793,0.059183519592438144,-0.11057611448884154,-0.06797119154625605,-0.20441417475195678,-0.4241953328135759,0.39273672189804093
383,8.82838510000147,0.09447128671535823,0.15828574577133042,-0.19092178137462415,0.0983708847335475,0.19534821027765226,-0.20781870178731998,0.05819954983194432,-0.1126010468849567,-0.06608664696427569,-0.2061573347459421,-0.4207434828677176,0.39360763531949555
384,8.83300369999779,0.09494344746410924,0.1592207574370509,-0.1919186167251223,0.09864746741378422,0.19480367987979996,-0.20813093414943068,0.057207293000501126,-0.11460936637508687,-0.06419806420801981,-0.20787200158621771,-0.4172637776228818,0.39442174121628226
385,8.839108899992425,0.0954169224773388,0.1601531360965889,-0.19291692691323756,0.09891927450497934,0.19424956356787296,-0.20843410517228864,0.056206886423872476,-0.11660094227653536,-0.062305715597510136,-0.20955786868886492,-0.41375739063658046,0.3951790362166535
386,8.84322819999943,0.0958916887720053,0.16108283599694337,-0.19391666846466238,0.09918626727621806,0.1936859419004272,-0.20872819745876287,0.05519846885091199,-0.11857564950051701,-0.060409873402634144,-0.21121464766677991,-0.41022548179175555,0.39587954240869044
387,8.847591600002488,0.09636772318102364,0.16200981177266754,-0.19491779782483246,0.09944840766491182,0.19311289602224377,-0.20901319491644427,0.05418218037186569,-0.1205333684829864,-0.058510809731676945,-0.21284206568223174,-0.40666919562586246,0.3965233032756656
388,8.851805900005274,0.09684500235648381,0.16293401844861521,-0.19592027136517826,0.09970565828305254,0.19253050763802093,-0.20928908275663502,0.05315816235101283,-0.12247398510670764,-0.05660879643769486,-0.21443986347827101,-0.4030896596300366,0.3971103813944423
389,8.856399900003453,0.09732350277289883,0.1638554114425618,-0.19692404538937083,0.09995798242317128,0.1919388589864689,-0.20955584749291256,0.05212655736383956,-0.12439739061577836,-0.054704105029110474,-0.2160077943224725,-0.3994879833357045,0.39764085818386946
390,8.860160800002632,0.09780320073048046,0.1647739465677023,-0.19792907613955965,0.10020534406399019,0.19133803281482128,-0.20981347693926194,0.051087509139805004,-0.12630348152894372,-0.052797006578498076,-0.21754562293633356,-0.39586525802915956,0.3981148340319422
391,8.864262400005828,0.09828407235844133,0.1656895800350281,-0.19893531980260049,0.1004477078758326,0.1907281123537608,-0.21006196020776544,0.05004116250977775,-0.12819215955138438,-0.05088777163195977,-0.21905312513250944,-0.3922225560293466,0.398532426846887
392,8.868459000004805,0.09876609361832252,0.16660226845558446,-0.1999427325162711,0.10068503922577104,0.19010918129277635,-0.21030128770586615,0.0489876633522794,-0.1300633314811073,-0.04897667013180022,-0.22053008693193366,-0.38856092993125935,0.3988937705106769
393,8.872439300001133,0.09924924030734501,0.16751196884261116,-0.2009512703754729,0.10091730418252204,0.189481323755986,-0.2105314511333164,0.04792715854938435,-0.1319169091134809,-0.0470639713407274,-0.2219763026278502,-0.38488141276027005,0.39919901557374277
394,8.876531599991722,0.09973348806178421,0.16841863861356826,-0.20196088943841736,0.10114446952117138,0.18884462427840928,-0.21075244347871472,0.04685979595152154,-0.13375280914910526,-0.04514994375786781,-0.22339157396499904,-0.3811850181334245,0.3994483286877293
395,8.88059109999449,0.1002188123603667,0.1693222355920492,-0.20297154573279455,0.10136650272773151,0.1881991677826733,-0.21096425901564916,0.04578572434124257,-0.13557095309989353,-0.04323485504840481,-0.22477570941440028,-0.3774727395034248,0.399641890367927
396,8.885237499998766,0.10070518852768841,0.17022271800958333,-0.2039831952619225,0.10158337200351948,0.18754503955618523,-0.2111668932985598,0.0447050934049754,-0.1373712671896949,-0.041318971981043257,-0.2261285229622996,-0.3737455494306941,0.39977989524730023
397,8.889603799994802,0.10119259173765338,0.17112004450733015,-0.20499579401087603,0.10179504626944355,0.18688232522879125,-0.2113603431582826,0.04361805370840163,-0.13915368225339791,-0.03940256035521267,-0.2274498350540664,-0.370004400025875,0.39986255402740445
398,8.895586300001014,0.10168099701693302,0.1720141741376677,-0.20600929795259357,0.10200149517014515,0.18621111075091612,-0.21154460669721398,0.042524756659161986,-0.1409181336417954,-0.03748588491983035,-0.22873947445328682,-0.36625022339201635,0.39989009558939026
399,8.900043699992239,0.10217037924844455,0.17290506636567726,-0.2070236630539595,0.10220268907792791,0.18553148237213402,-0.2117196832840761,0.0414253544644123,-0.1426645611249265,-0.035569209280268466,-0.22999727904536343,-0.3624839303321308,0.3998627690452082
400,8.903845199994976,0.10266071317484793,0.17379268107052628,-0.20803884528186078,0.10239859909649283,0.18484352662023482,-0.21188557354818954,0.040320000085825695,-0.14439290878455224,-0.03365279579745429,-0.23122309637304453,-0.3587064098142678,0.399780842916341
401,8.90824390000489,0.10315197340206013,0.17467697854675243,-0.2090548006092145,0.10258919706443592,0.18414733028082558,-0.21204227937327133,0.03920884719201499,-0.14610312491236976,-0.03173690550270995,-0.23241678311765646,-0.3549185304179987,0.3996446014769192
402,8.912209699992673,0.10364413440278557,0.175557919505451,-0.21007148502096493,0.10277445555852725,0.18344298037737258,-0.21218980389089134,0.038092050118507775,-0.14779516191635386,-0.029821798031907626,-0.23357820331748078,-0.35112114021120155,0.3994543416057924
403,8.91642189999402,0.10413717052006181,0.1764354650753676,-0.2110888545200484,0.10295434789682499,0.18273056415170058,-0.21232815147363904,0.03696976383724746,-0.14946897621779018,-0.027907731570485362,-0.2347072273749276,-0.34731506586837846,0.3992103712741814
404,8.920850299997255,0.10463105597081988,0.17730957680389864,-0.21210686513332494,0.10312884814166205,0.1820101690450219,-0.2124573277280529,0.03584214392608563,-0.15112452814916483,-0.02599496280209965,-0.23580373279806033,-0.3435011137392931,0.3989130084725023
405,8.924745299998904,0.10512576484945857,0.17818021665800224,-0.2131254729174752,0.10329793110246768,0.18128188267941456,-0.21257733948729488,0.03470934653117482,-0.1527617818614416,-0.024083746863928744,-0.23686760544532798,-0.33968007063822875,0.39856258035889774
406,8.929567700004554,0.10562127113143178,0.17904734702502106,-0.2141446339648619,0.10346157233839362,0.18054579283974015,-0.2126881948036514,0.03357152832452884,-0.1543807052295174,-0.022174337303487397,-0.2378987398560084,-0.3358527035289458,0.39815942389202486
407,8.933144700000412,0.10611754867684807,0.1799109307134199,-0.2151643044093551,0.10361974816072884,0.1798019874560283,-0.2127899029407938,0.032428846463247916,-0.15598126975647952,-0.020266986027864285,-0.23889703917091998,-0.3320197596823551,0.39770388601983575
408,8.937584600003902,0.10661457123408108,0.1807709309534397,-0.21618444043211918,0.10377243563513487,0.17905055458631233,-0.2128824743657928,0.0312814585478391,-0.15756345048057244,-0.018361943258727084,-0.23986241581021125,-0.328181966895493,0.39719632295224827
409,8.942950099997688,0.10711231244339052,0.1816273113976706,-0.2172049982673616,0.10391961258366096,0.17829158239990556,-0.21296592074094753,0.030129522574944088,-0.1591272258815542,-0.016459457488532083,-0.2407947917101712,-0.32434003305296016,0.39663710095190324
410,8.947932800001581,0.10761074584055196,0.1824800361215456,-0.21822593420804168,0.10406125758652626,0.1775251591611346,-0.21304025491538023,0.02897319689338956,-0.16067257778345928,-0.014559775427949055,-0.24169409835403477,-0.32049464574724446,0.39602659819145203
411,8.952423199996701,0.10810984486049482,0.18332906962375764,-0.21924720461153874,0.10419734998371372,0.17675137321354775,-0.21310549091636138,0.02781264015661972,-0.16219949125731525,-0.012663141944266884,-0.24256027866294605,-0.3166464721201501,0.39536520739948666
412,8.958092400003807,0.10860958284094753,0.18417437682660204,-0.2202687659052777,0.10432786987629622,0.17597031296458096,-0.2131616439403139,0.026648011260619817,-0.16370795452238562,-0.010769799983454524,-0.24339328899702292,-0.31279615804695976,0.39465334011819303
413,8.962958999996772,0.10910993302608817,0.18501592307624645,-0.2212905745923109,0.10445279812743546,0.1751820668707128,-0.2132087303433911,0.025479469277166468,-0.1651979588410659,-0.008879990467752712,-0.2441930997219932,-0.3089443268723699,0.39389143054327247
414,8.966676199997892,0.10961086857019918,0.185853674142931,-0.2223125872568536,0.10457211636306823,0.174386723423138,-0.2132467676314993,0.024307173386319398,-0.16666949840800901,-0.006993952180925394,-0.24495969502026627,-0.30509157852913255,0.3930799358392781
415,8.97067359999346,0.11011236254132468,0.18668759622110095,-0.22333476056976995,0.10468580697225811,0.17358437113398523,-0.21327577444977575,0.023131282811482832,-0.1681225702365728,-0.00511192166282862,-0.24569307085845926,-0.30123848881644577,0.3922193343155547
416,8.975116899993736,0.11061438792492849,0.18751765592947472,-0.22435705129400765,0.10479385310725928,0.1727750985230792,-0.2132957705716005,0.021951956771380548,-0.16955717404102794,-0.0032341331121474325,-0.246393232388133,-0.297385608860814,0.391310124636084
417,8.98305199999595,0.11111691762755202,0.18834382031104965,-0.22537941628997876,0.10489623868340783,0.17195899410528764,-0.21330677688714217,0.02076935444003385,-0.17097331211783728,-0.0013608182885391953,-0.24706019380428235,-0.2935334651157382,0.390352827173862
418,8.987301000001025,0.11161992448047131,0.18916605683304868,-0.22640181252088437,0.10499294837880196,0.1711361463784213,-0.21330881539143154,0.01958363490009313,-0.1723709892278609,0.0005077935976126008,-0.24769397889672226,-0.2896825588594148,0.3893479866586426
419,8.99189399999159,0.11212338124335186,0.1899843333868102,-0.22742419705798114,0.1050839676337459,0.17030664381171026,-0.21330190917185057,0.018394957097530255,-0.1737502124728202,0.0023714760084363046,-0.24829462045037567,-0.2858333658488972,0.3882961710738626
420,8.996433499996783,0.11262726060790029,0.1907986182876242,-0.22844652708578608,0.10516928264999575,0.1694705748348881,-0.21328608239502475,0.017203479800718964,-0.17511099117418782,0.004230005178244209,-0.2488621586392892,-0.28198633761072306,0.38719796623701375
421,9.000838299994939,0.11313153520151198,0.19160888027451753,-0.2294687599072174,0.10524888038981121,0.1686280278278291,-0.2132613602933565,0.016009361570522247,-0.17645333676202382,0.0060831601848179056,-0.24939663841166188,-0.27814190345620204,0.38605397145228315
422,9.005754500001785,0.11363617759091361,0.19241508850999067,-0.23049085294867022,0.10532274857491465,0.1677790911106982,-0.2132277691512342,0.014812760744439893,-0.17777726267318403,0.007930723007406546,-0.2498981083225854,-0.27430047127063345,0.38486479613729296
423,9.010303100003512,0.11414116028580086,0.19321721257970859,-0.2315127637650252,0.10539087568539086,0.16692385293456383,-0.21318533629100975,0.013613835417885219,-0.17908278424772164,0.009772478565676089,-0.2503666209134151,-0.27046242741908627,0.3836310574613965
424,9.014611399994465,0.11464645574247037,0.19401522249214753,-0.2325344500445898,0.10545325095846668,0.16606240147254098,-0.2131340900588341,0.012412743424695975,-0.18036991862619253,0.011608214755068232,-0.2508022323968864,-0.26662813869943547,0.3823533808818111
425,9.019236499996625,0.11515203636744574,0.19480908867820096,-0.23355586961397126,0.10550986438722389,0.16519482481138853,-0.21307405981029587,0.011209642321429548,-0.18163868466477856,0.013437722490889044,-0.2512050030183621,-0.26279795439021786,0.3810324019045516
426,9.02479830000084,0.11565787452109719,0.19559878199074582,-0.23457698044288006,0.10556070671922829,0.16432121094346588,-0.21300527589583432,0.010004689364410945,-0.18288910285222368,0.015260795760548222,-0.25157499885240786,-0.25897220650377034,0.3796687685778272
427,9.028978500005906,0.11616394252125437,0.19638427370417133,-0.23559774064886305,0.10560576945502263,0.1634416477591266,-0.21292776964587712,0.008798041476806002,-0.18412119522738385,0.01707723169154945,-0.2519122932995851,-0.2551512114544377,0.37826314435967445
428,9.033152399992105,0.1166702126468116,0.1971655355138724,-0.23661810850196457,0.10564504484644,0.16255622303946532,-0.21284157335560164,0.007589855211321096,-0.1853349853121546,0.01888683063121883,-0.2522169665347623,-0.25133527198138067,0.37681620871208277
429,9.03934190000291,0.11717665714132453,0.1979425395357088,-0.23763804242931344,0.10567852589473917,0.16166502444935446,-0.21274672026930838,0.006380286722564851,-0.18653049804745295,0.020689396220390524,-0.25248910374285977,-0.24752467759108668,0.37532865571701657
430,9.043355000001611,0.11768324821659745,0.19871525830543196,-0.23865750101963423,0.10570620634865312,0.16076813953080477,-0.21264324456447595,0.00516949174666001,-0.18770775973038697,0.022484735459868357,-0.25272879489835476,-0.2437197053744094,0.3738011931337278
431,9.049943499994695,0.1181899580562613,0.19948366477808038,-0.23967644302768146,0.1057280807023289,0.15986565569660424,-0.21253118133549737,0.00395762557571882,-0.18886679795806985,0.024272658775074858,-0.25293613571008455,-0.23992062111114743,0.372234543246297
432,9.05424139999377,0.1186967588193412,0.20024773232734544,-0.24069482737859496,0.10574414419313148,0.1589576602242174,-0.21241056657711532,0.002744843028398006,-0.19000764157537783,0.02605298009063739,-0.25311122836216726,-0.2361276798681115,0.370629445856316
433,9.0586301000003,0.11920362264381341,0.20100743474490845,-0.24171261317217527,0.10575439279930134,0.15804424024992492,-0.21228143716744352,0.0015312984172716774,-0.1911303206244975,0.027825516923725084,-0.2532541815771296,-0.23234112587164188,0.3689866583493374
434,9.06230289999803,0.11971052165015043,0.20176274623975018,-0.24272975968707625,0.10575882323744554,0.15712548276320656,-0.21214383085050717,0.00031714551878116284,-0.19223486629146164,0.02959009045927196,-0.25336510965388764,-0.22856119219469115,0.36730695080896314
435,9.066705299992464,0.12021742794485386,0.2025136414374341,-0.24374622638491308,0.10575743295990732,0.15620147460139336,-0.21199778621854326,-0.0008974624501701578,-0.19332131085269683,0.03134652559647745,-0.25344413172863806,-0.22478810059947518,0.365591102612778
436,9.070656800002324,0.12072431362397434,0.20326009537936465,-0.24476197291428528,0.10575022015203275,0.15527230244456286,-0.2118433426940953,-0.002112372855181914,-0.19438968762005102,0.033094650991398106,-0.25349137156946644,-0.2210220606847764,0.36383990070131883
437,9.074796400003834,0.12123115077661818,0.2040020835220215,-0.24577695911471298,0.1057371837293202,0.15433805281071833,-0.2116805405119053,-0.003327433665793023,-0.19544003087916714,0.03483429908685443,-0.25350695697693504,-0.21726326881458147,0.36205413730909913
438,9.078905300004408,0.12173791148843997,0.20473958173617168,-0.24679114502048638,0.10571832333448149,0.15339881205127476,-0.21150942070072182,-0.00454249347270078,-0.1964723758242406,0.03656530613327218,-0.2534910199903809,-0.2135119075843823,0.3602346097426008
439,9.08324089999951,0.12224456784512105,0.20547256630606053,-0.24780449086442768,0.1056936393344263,0.15245466634686344,-0.21133002506499218,-0.005757401511174713,-0.1974867584912768,0.03828751221646099,-0.25344369773787573,-0.20976814600994884,0.3583821210746825
440,9.0873644999956,0.12275109193583322,0.2062010139285836,-0.248816957081565,0.10566313281709891,0.1515057017034578,-0.21114239616640423,-0.006972007686423397,-0.1984832156946583,0.04000076128511232,-0.25336513221452356,-0.20603213980852425,0.3564974791375596
441,9.091299799998524,0.12325745585668686,0.20692490171244046,-0.2498285043127174,0.10562680558821941,0.15055200394878607,-0.21094657730531494,-0.008186162594883065,-0.19946178496309777,0.04170490116892476,-0.2532554705050693,-0.20230403073945838,0.3545814947866307
442,9.095842900002026,0.12376363171416342,0.20764420717727228,-0.25083909340799065,0.10558466016791636,0.14959365872907096,-0.2107426125021184,-0.009399717551718357,-0.20042250446988452,0.04339978358945897,-0.2531148658075354,-0.1985839465105871,0.3526349807363931
443,9.100596499993117,0.12426959162853127,0.20835890825278433,-0.25184868543018385,0.1055366997872044,0.1486307515061111,-0.21053054647857042,-0.010612524621923518,-0.20136541296794006,0.045085264167104115,-0.25294347758922936,-0.19487200127902218,0.35065875086815335
444,9.104661699995631,0.12477530773724439,0.20906898327785553,-0.2528572416581061,0.10548292838431876,0.1476633675546433,-0.21031042463908972,-0.01182443664931864,-0.20229054972486504,0.04676120242529645,-0.25274147122579715,-0.19116829584202621,0.34865361969237996
445,9.108454000001077,0.12528075219832313,0.20977441099963579,-0.25386472358980366,0.10542335060091493,0.14669159196004647,-0.21008229305204207,-0.01303530728419082,-0.20319795445982472,0.0484274617923319,-0.2525090180951603,-0.18747291810974012,0.34662040112179104
446,9.112572300000464,0.12578589719371644,0.21047517057263343,-0.2548710929456976,0.10535797177813817,0.14571550961630905,-0.20984619843102412,-0.014244991013190884,-0.20408766728312738,0.05008390959382344,-0.2522462951055682,-0.18378594238086357,0.34455990632772754
447,9.116451199995936,0.12629071493264493,0.21117124155779313,-0.2558763116716313,0.10528679795253662,0.1447352052243121,-0.20960218811621983,-0.015453343182450454,-0.20495972862616646,0.051730417033964825,-0.25195348302512677,-0.1801074292484089,0.3424729417856073
