,time,x,y,z,vx,vy,vz,ax,ay,az,jx,jy,jz
0,11.899359600036403,-0.026800160996615665,-0.009217042389082124,0.01584526919731032,0.002610893074448236,-0.009139745205746787,0.007020942431988174,0.02176100668892254,0.004552200150463654,-0.007246765114814321,0.05058877888913787,0.08509739016811695,-0.05238637355037205
1,11.903101100004278,-0.026787777941818216,-0.00925951701616884,0.01587785664563169,0.002712686617616533,-0.009117644425486656,0.006986658894561931,0.02199732495030312,0.0049498628799704925,-0.007492140683417411,0.0509963113490822,0.08584204309068758,-0.05309388964524141
2,11.907434900058432,-0.026774918721148715,-0.009301884512275864,0.01591028192943531,0.0028155840742583906,-0.009093685406015985,0.006951226056443796,0.02223554102344987,0.0053509833509517235,-0.007740817977144052,0.051404544450543994,0.08658368234141406,-0.05380562930641493
3,11.911309399991296,-0.02676157817796004,-0.009344136194269893,0.01594253966570865,0.002919594281784441,-0.009067852092348498,0.006914628510200664,0.022475658003169276,0.005755547232306463,-0.007992816473906783,0.05181340664940946,0.08732217500061977,-0.05452151802722813
4,11.915805299999192,-0.026747751114454328,-0.009386263304474769,0.015974624399543214,0.003024726091228796,-0.00904012849761476,0.00687685075858193,0.022717678648574675,0.006163539575258799,-0.008248155303904181,0.05222282519588564,0.08805738853625045,-0.055241480861857414
5,11.92059740005061,-0.026733432291623213,-0.00942825701099509,0.01600653060372041,0.0031309883656763767,-0.009010498705930856,0.006837877216142869,0.02296160537751624,0.006574944815461589,-0.008506853247657825,0.05263272617321719,0.08878919086618048,-0.05596544258024278
6,11.92415279999841,-0.026718616429195454,-0.009470108408053133,0.016038252678304995,0.003238389978660038,-0.00897894687525777,0.0067976922108750944,0.02320744026129211,0.006989746775079369,-0.008768928735330434,0.053043034532221825,0.08951745043788857,-0.05669332787907909
7,11.92875289998483,-0.026703298205592085,-0.009511808516339081,0.016069784950246146,0.003346939812538685,-0.008945457240250681,0.006756279985836279,0.023455185019399714,0.0074079286656335555,-0.009034399846726167,0.05345367388883927,0.09024203632328043,-0.05742506144653751
8,11.93220789998304,-0.026687472257889137,-0.009553348283374457,0.016101121672986055,0.0034566467568455566,-0.00891001411509186,0.006713624700780618,0.023704841012363056,0.007829473090967702,-0.009303284311211007,0.05386456632174771,0.09096281817988189,-0.058160567987977495
9,11.93645350006409,-0.026671133181788157,-0.009594718583888709,0.016132257026076166,0.003567519706599598,-0.008872601896312381,0.0066697104337892854,0.0239564092346008,0.008254362049731595,-0.009575599507952316,0.054275632406872665,0.09167966621848415,-0.05889977227761674
10,11.94056440005079,-0.02665427553159464,-0.0096359102202089,0.016163185114800954,0.0036795675605873807,-0.008833205065601901,0.006624521182898669,0.024209890307574658,0.008682576938045443,-0.009851362466320028,0.05468679111397217,0.09239245117956334,-0.05964259914571883
11,11.94571110000834,-0.026636893820204545,-0.009676913922662447,0.016193899969809303,0.003792799219610717,-0.008791808192605576,0.006578040867727095,0.024465284471695197,0.009114098551764543,-0.010130589866006977,0.055097959634424744,0.09310104428800221,-0.06038897339665273
12,11.949267099960707,-0.02661898251909902,-0.009717720349992829,0.016224395546753433,0.003907223584693263,-0.008748395937712773,0.006530253331101943,0.02472259157786773,0.009548907088722152,-0.01041329803666761,0.05550905338126186,0.09380531727030131,-0.061138819697001724
13,11.95271149999462,-0.026600536058347612,-0.009758320089788275,0.01625466572593541,0.0040228495552494655,-0.008702953054833113,0.006481142340689732,0.02498181107939843,0.009986982151154301,-0.010699502956997143,0.05591998601065515,0.09450514229439498,-0.06189206234740478
14,11.95750360004604,-0.02658154882662004,-0.009798703658923312,0.016284704311961242,0.004139686027215848,-0.00865546439416262,0.006430691590631802,0.025242942023740157,0.01042830274738264,-0.010989220252247196,0.056330669426220545,0.09520039189636645,-0.06264862506281017
15,11.96134170005098,-0.026562015171206776,-0.009838861504013186,0.016314505033402614,0.00425774189114315,-0.008605914904944105,0.006378884703197521,0.025505983044438636,0.01087284729355732,-0.01128246519126015,0.05674101380919209,0.09589093899763708,-0.06340843089936031
16,11.965150500065649,-0.026541929398048583,-0.009878784001881098,0.016344061542466364,0.004377026030252674,-0.008554289638217093,0.006325705230447561,0.025770932353159064,0.011320593615499783,-0.011579252683304423,0.05715092768729548,0.09657665687052748,-0.06417140203052016
17,11.969479499966836,-0.02652128577177518,-0.00991846146003821,0.016373367414671696,0.004497547318454224,-0.008500573749561065,0.006271136655916556,0.02603778773227315,0.011771518950125183,-0.011879597273025644,0.05756031805099936,0.09725741914488964,-0.06493745946706837
18,11.973848600056954,-0.026500078515753225,-0.009957884117176418,0.016402416148535316,0.004619314618333477,-0.008444752501832149,0.006215162396323356,0.026306546527967496,0.012225599947346892,-0.012183513134676372,0.0579690903708165,0.09793309990695447,-0.06570652299260786
19,11.978130100062115,-0.026478301812143702,-0.009997042143673814,0.016431201165264555,0.0047423367791057935,-0.008386811267888632,0.006157765803307376,0.026577205642991614,0.012682812672418721,-0.012491014066467179,0.05837714862733379,0.09860357376175916,-0.06647851109896417
20,11.98203569999896,-0.02645594980196895,-0.010035925642112819,0.016459715808458664,0.004866622634536104,-0.008326735533305868,0.006098930165191423,0.02684976153004575,0.013143132608420332,-0.012802113484195231,0.05878439537150722,0.09926871589577475,-0.06725334080956456
21,11.98633870005142,-0.026433016585189404,-0.010074524647810919,0.016487953343818345,0.004992181000831197,-0.008264510899078654,0.006038638708777327,0.027124210185089967,0.013606534659182221,-0.013116824413951868,0.05919073169465846,0.09992840217785766,-0.0680309275762023
22,11.990435300045649,-0.026409496220790238,-0.010112829129363936,0.016515906958863746,0.0051190206744973375,-0.008200123084308921,0.005976874601176624,0.027400547140452768,0.014072993152710515,-0.013435159484790552,0.05959605732305666,0.1005825092476404,-0.06881118517562848
23,11.9943105999846,-0.026385382726878043,-0.010150828989201775,0.016543569762661033,0.005247150430168434,-0.008133557928876245,0.005913620951674422,0.027678767459020297,0.014542481844934455,-0.013757130920472198,0.06000027069113672,0.10123091457591579,-0.06959402549849292
24,11.998891800059935,-0.02636067008078767,-0.010188514064156544,0.01657093478555773,0.005376579018409585,-0.008064801396090662,0.005848860813636888,0.027958865728026274,0.01501497392369308,-0.014082750530169167,0.06040326883396074,0.10187349653337426,-0.07037935838588393
25,12.002966000000017,-0.026335352219199363,-0.010225874126042988,0.016597994978927035,0.005507315163487459,-0.007993839575326088,0.005782577186461617,0.02824083605224052,0.01549044201312233,-0.014412029698689557,0.06080494730098321,0.10251013443579976,-0.07116709150005802
26,12.006939599988982,-0.026309423038266333,-0.010262898882251115,0.016624743214921314,0.00563936756111046,-0.007920658684632306,0.005714753017576088,0.028524672046956454,0.015968858178062293,-0.014744979375978297,0.061205200108691904,0.10314070857008567,-0.07195713010906206
27,12.01301210001111,-0.026282876393752926,-0.010299577976350933,0.016651172286235014,0.005772744876133852,-0.007845245073327376,0.005645371204485726,0.028810366830738933,0.016450193928686394,-0.01508161006533729,0.06160391971055301,0.10376510028027142,-0.07274937680265726
28,12.017790899961255,-0.026255706101183558,-0.010335900988709198,0.016677274905877205,0.00590745574023244,-0.007767585224566547,0.005574414596881973,0.02909791301813208,0.016934420225709228,-0.015421931810283104,0.06200099688499129,0.10438319204917072,-0.07354373135448493
29,12.0219563000137,-0.026227905936002528,-0.010371857437118057,0.01670304370695412,0.0060435087495378445,-0.007687665757886207,0.005501865998812644,0.02938730271136474,0.01742150748577533,-0.015765954181484534,0.0623963207095264,0.10499486756968604,-0.0743400906144415
30,12.025698099983856,-0.026199469633744945,-0.01040743677743547,0.016728471242461893,0.006180912462233995,-0.0076054734317226496,0.005427708170911543,0.029678527492817647,0.017911425587330602,-0.01611368626261881,0.06278977857806183,0.10560001184379447,-0.07513834816411058
31,12.029560300055891,-0.026170390890218914,-0.010442628404237285,0.016753549985089832,0.00631967539612431,-0.007520995145901391,0.005351923832700434,0.029971578416889768,0.01840414387693218,-0.016465136634102862,0.06318125584346532,0.10619851129219715,-0.07593839405847173
32,12.03659290005453,-0.026140663361699103,-0.010477421651480832,0.016778272327034594,0.006459806026151506,-0.0074342179440972204,0.0052744956649700475,0.030266445999139566,0.018899631176140175,-0.01682031335654606,0.06357063550322033,0.10679025389011135,-0.07674011473985273
33,12.040521800052376,-0.026110280665132005,-0.010511805793179884,0.01680263057982561,0.0066013127818637315,-0.007345129016259387,0.005195406312236017,0.030563120205226252,0.019397855789091114,-0.01717922395368078,0.06395779809606034,0.10737512927056499,-0.07754339283970245
34,12.044886499992572,-0.026079236378353084,-0.010545770044090816,0.016826616974162104,0.006744204044831476,-0.007253715701001178,0.005114638385278727,0.030861590439089214,0.019898785510350875,-0.017541875393970594,0.0643426215986517,0.1079530287975639,-0.07834810711838605
35,12.052625500014983,-0.026047524040316076,-0.010579303560409807,0.016850223659762163,0.006888488146003707,-0.007159965487952032,0.005032174463770392,0.031161845530927865,0.020402387633168966,-0.017908274072980606,0.06472498152901181,0.10852384559630213,-0.07915413254702623
36,12.056692700018177,-0.026015137151334734,-0.010612395440480885,0.016873442705224194,0.007034173363012927,-0.007063866020070309,0.004947997098978951,0.031463873726343405,0.020908628957612575,-0.018278425795747198,0.06510475117027999,0.10908747445623611,-0.07996134023421839
37,12.06149940006435,-0.025982069173337206,-0.010645034725514646,0.01689626609790116,0.007181267917430275,-0.006965405095919714,0.0048620888165592,0.03176766267640092,0.021417475797918924,-0.018652335758466438,0.0654818018333961,0.10964381161360452,-0.08076959750790846
38,12.066852799966,-0.025948313530133323,-0.010677210400317485,0.016918685743788006,0.007329779971978106,-0.006864570671913651,0.004774432119427081,0.03207319942921545,0.021928893988605612,-0.019030008531625713,0.06585600299077118,0.11019275440916242,-0.08157876808337157
39,12.076136199990287,-0.025913863607694917,-0.010708911394031202,0.016940693467422642,0.007479717627706802,-0.006761350864534788,0.004685009490707783,0.032380470421257905,0.022442848888638095,-0.019411448043255227,0.06622722218997595,0.11073420092001272,-0.08238871199419372
40,12.08075760002248,-0.025878712754449376,-0.010740126580882877,0.016962281011800803,0.007631088921126447,-0.006655733952540633,0.004593803396765873,0.03268946146813799,0.02295930538411412,-0.0197966575614174,0.066595324933157,0.11126804973346013,-0.08319928558371809
41,12.084312399965713,-0.025842854281586652,-0.010770844780945012,0.016983440038305223,0.007783901821297872,-0.006547708379158118,0.004500796290316344,0.033000157754788075,0.023478227890326848,-0.020185639677378773,0.06696017453512791,0.11179419973610007,-0.08401034167301012
42,12.088091499987058,-0.025806281463379887,-0.010801054760905818,0.01700416212664945,0.00793816422687299,-0.00643726275426998,0.004405970613611336,0.0333125438249256,0.02399958035248672,-0.020578396289662362,0.06732163217059355,0.11231254985762201,-0.0848217298148616
43,12.09198180004023,-0.025768987537519963,-0.010830745234849705,0.017024438774836677,0.008093883963087783,-0.006324385856602622,0.004309308801699574,0.033626603571676385,0.024523326245400594,-0.020974928589583143,0.06767955708082458,0.1128229989846117,-0.0856332966727901
44,12.09655430004932,-0.025730965705464105,-0.01085990486504793,0.017044261399133873,0.008251068778715386,-0.006209066635915485,0.004210793285747695,0.033942320228960196,0.025049428573391506,-0.0213752370488271,0.0680338067029231,0.1133254459929165,-0.08644488628790332
45,12.101217900053598,-0.025692209132798786,-0.01088852226275945,0.01706362133406153,0.008409726342978914,-0.006091294215189656,0.004110406496415259,0.03425967636331691,0.025577849870278994,-0.021779321407469947,0.068384236686978,0.11381978978421757,-0.08725634014786612
46,12.10632510005962,-0.025652710949617057,-0.010916585989041954,0.0170825098323992,0.008569864242428487,-0.0059710578928174165,0.004008130867287568,0.034578653865451704,0.026108552199639163,-0.02218718066219794,0.06873070080134167,0.11430592946038885,-0.08806749729458602
47,12.110869299969636,-0.02561246425091051,-0.010944084555573072,0.017100918065207183,0.008731489977775382,-0.0058483471447884385,0.0039039488383602857,0.034899233941179816,0.026641497156407463,-0.022598813055328633,0.06907305091114707,0.11478376457978343,-0.08887819441022055
48,12.115723000024444,-0.025571462096976066,-0.010971006425481754,0.01711883712186449,0.008894610960684796,-0.0057231516268644155,0.0037978428595744186,0.03522139710277182,0.027176645869523577,-0.02301421606383202,0.06941113726682938,0.11525319528204771,-0.08968826595935825
49,12.11944969999604,-0.02552969751383779,-0.010997340014189727,0.017136258010123414,0.009059234510529465,-0.005595461176740645,0.0036897953944031022,0.03554512316258314,0.027713959004695622,-0.02343338638967432,0.06974480892596485,0.11571412226875757,-0.09049754456795113
50,12.125957599957474,-0.02548716349368388,-0.011023073690262973,0.017153171656180893,0.009225367851123148,-0.005465265816194941,0.0035797889234764294,0.03587039122832467,0.02825339676686485,-0.023856319952365188,0.07007391382655637,0.1161664467022562,-0.09130586130316443
51,12.132043299963698,-0.025443852995318875,-0.011048195776273188,0.017169568904766792,0.009393018107430233,-0.00533255575322628,0.0034678059482375913,0.03619717969737424,0.02879491890202851,-0.02428301188190557,0.07039829877860254,0.11661007005701024,-0.09211304566908325
52,12.137394199962728,-0.025399758944631277,-0.011072694549669164,0.01718544051924929,0.009562192302246295,-0.005197321384186752,0.0033538289946333263,0.036525466251968744,0.02933848469832138,-0.02471345651129497,0.070717809627373,0.11704489397332925,-0.0929189255679614
53,12.140990399988368,-0.02535487423507663,-0.01109655824365808,0.017200777181757505,0.00973289735286296,-0.005059553295910143,0.003237840616839783,0.03685522785503496,0.029884052986477453,-0.02514764736911872,0.07103229135267668,0.11747082011306004,-0.09372332741648945
54,12.145130699966105,-0.025309191728176184,-0.011119775048096693,0.017215569493321554,0.009905140067709668,-0.004919242267839589,0.003119823401021946,0.037186440746305394,0.03043158213956865,-0.025585577173137142,0.07134158816366966,0.11788774992696766,-0.09452607635680148
55,12.149836500058882,-0.025262704254031224,-0.011142333110392436,0.01722980797403016,0.010078927142982391,-0.004776379274158589,0.0029997599691191546,0.037519080439031294,0.03098103007130194,-0.026027237824836295,0.07164554352012681,0.11829558435561696,-0.09532699640712607
56,12.157757499953732,-0.0252154046118531,-0.011164220536414424,0.017243483063205924,0.010254265159254814,-0.004630955485934507,0.0028776329826552347,0.037853121716296456,0.03153235423297467,-0.026472620404418987,0.07194400022303554,0.1186942236829613,-0.09612591060394
57,12.161081099999135,-0.0251672855705091,-0.011185425391414506,0.01725658511959841,0.010431160578072753,-0.004482962273277916,0.002753425146570627,0.03818853862857321,0.0320855116104093,-0.026921715166678302,0.0722368005308594,0.11908356751898125,-0.09692264117422762
58,12.165198700036854,-0.02511833986908416,-0.011205935700958366,0.017269104421595058,0.010609619738542585,-0.0043323912075146215,0.002627119213070918,0.03852530449111811,0.03264045872074715,-0.027374511537591528,0.07252378614661145,0.11946351477824065,-0.09771700964735114
59,12.169428099994548,-0.025068560217458482,-0.011225739451866782,0.017281031167450084,0.010789648853901443,-0.004179234063374841,0.002498697985490661,0.038863391881407625,0.033197151609183614,-0.027830998111234666,0.07280479844163744,0.11983396373809443,-0.09850883694555045
60,12.173590600024909,-0.02501793929690117,-0.011244824593167101,0.017292355475531353,0.01097125400808178,-0.00402348282119561,0.0023681443221706205,0.039202772638616205,0.03375554584630358,-0.02829116264721849,0.0730796788261323,0.12019481213972143,-0.09929794355617298
61,12.178075800067743,-0.024966469760679805,-0.011263179037054987,0.017303067384585348,0.011154441152276703,-0.003865129669134751,0.0022354411403454496,0.03954341786449971,0.03431559652575672,-0.02875499206920569,0.07334826901174349,0.12054595730016168,-0.10008414972539942
62,12.18266319995746,-0.024914144234686044,-0.011280790659866506,0.01731315685402023,0.011339216101512764,-0.003704167005394916,0.002100571420034733,0.03988529792531708,0.03487725826263547,-0.02922247246414961,0.0736104110199877,0.12088729621572725,-0.10086727558317327
63,12.188084700028412,-0.02486095531807709,-0.01129764730306056,0.017322613764207004,0.011525584531233176,-0.0035405874404526474,0.0019635182079377495,0.040228382452792075,0.035440485192112604,-0.0296935890819739,0.07386594703614296,0.1212187256006426,-0.10164714125082533
64,12.193066000007091,-0.024806895583933078,-0.01131373677421172,0.017331427916798828,0.011713551973879546,-0.003374383799295097,0.0018242646213274944,0.04057264034467538,0.03600523096817876,-0.030168326335812706,0.07411471944358497,0.1215401419882676,-0.10242356689703279
65,12.198575700051151,-0.024751957579930362,-0.011329046848013474,0.017339589035068412,0.011903123815480325,-0.0032055491236608375,0.0016827938519432075,0.04091803976602586,0.03657144876322191,-0.03064666780221106,0.07435657075909731,0.12185144186245982,-0.10319637270771292
66,12.20276430004742,-0.02469613382903064,-0.011343565267291906,0.017347086764263546,0.012094305292244471,-0.0030340766742804905,0.001539089169882531,0.04126454814917069,0.03713909126798726,-0.031128596221084916,0.07459134342197016,0.12215252169631724,-0.10396537885156158
67,12.206944799982011,-0.02463941683018594,-0.011357279744029796,0.017353910671980718,0.012287101487149517,-0.002859959933117915,0.0013931339274944094,0.041612132193024134,0.03770811069151725,-0.031614093495600855,0.07481887982413532,0.12244327793493995,-0.10473040543267093
68,12.211161199957132,-0.024581799059059495,-0.011370177960401157,0.017360050248556864,0.012481517326528897,-0.002683192605611392,0.001244911563272366,0.04196075786332809,0.038278458760951,-0.03210314069169523,0.07503902251254721,0.12272360691577353,-0.10549127234845286
69,12.215260899974965,-0.024523272968762475,-0.011382247569816187,0.017365494907479222,0.012677557576662259,-0.0025037686229166783,0.0010944056057518787,0.042310390393854064,0.038850086720723105,-0.03259571803663181,0.07525161430544265,0.12299340471577352,-0.10624779920782322
70,12.219853300019167,-0.024463830990606606,-0.011393476197976678,0.01737023398581334,0.01287522684037397,-0.0023216821441556486,0.0009415996774170767,0.042660994287725545,0.03942294533094094,-0.0330918049177596,0.0754564983784128,0.1232525670178724,-0.1069998054173091
71,12.22351429995615,-0.024403465534872548,-0.011403851443941893,0.01737425674464928,0.013074529553635736,-0.002136927558674448,0.0007864774986096756,0.04301253331942092,0.039996984865340854,-0.03359137988187173,0.07565351847118962,0.12350098905718054,-0.10774711021119535
72,12.227747000055388,-0.02434216899159412,-0.011413360881204987,0.017377552369566014,0.013275469982183744,-0.0019494994883111517,0.0006290228914416401,0.043364970538020034,0.040572155109164856,-0.034094420634243824,0.07584251896942854,0.12373856553918726,-0.10848953261277915
73,12.23198829998728,-0.024279933731358165,-0.011421992058779985,0.017380109971114024,0.01347805221815149,-0.0017593927896736757,0.0004692197837130668,0.04371826826996812,0.04114840535635567,-0.03460090403763232,0.07602334495197058,0.12396519056437691,-0.10922689141713608
74,12.23620809998829,-0.024216752106120103,-0.011429732502299401,0.017381918585316153,0.013682280176712648,-0.0015666025564335375,0.0003070522128341683,0.04407238812276216,0.04172568440673197,-0.03511080611115249,0.07619584245791537,0.12418075764116454,-0.10995900525140972
75,12.240393299958669,-0.02415261645003504,-0.011436569715122562,0.017382967174186713,0.013888157592748189,-0.0013711241216300533,0.00014250432975359577,0.044427290990199965,0.04230394056330374,-0.035624102029837776,0.07635985862870522,0.12438515962345578,-0.11068569275135716
76,12.249054200015962,-0.024087519080304324,-0.011442491179454662,0.01738324462626888,0.014095688017538101,-0.001172953059989077,-2.4439597115475728e-05,0.0447829370573887,0.04288312162886656,-0.03614076612516059,0.07651524175985759,0.12457828868049547,-0.11140677265176903
77,12.25302920001559,-0.02402145229803745,-0.011447484357476665,0.017382739757190336,0.014304874815475118,-0.0009720851902588915,-0.0001937951779718716,0.045139285806475346,0.04346317490303637,-0.036660771885433055,0.07666184148162633,0.12476003640021872,-0.11212206384245405
78,12.258260900038294,-0.023954408389129198,-0.0114515366924861,0.017381441310237177,0.014515721160809753,-0.0007685165775565379,-0.0003655778977040609,0.045496296023336304,0.04404404717980543,-0.037184091956848755,0.07679950884527253,0.12493029387107159,-0.11283138549311172
79,12.261922599980608,-0.023886379625151805,-0.01145463561004879,0.017379337956946052,0.014728230034426281,-0.0005622435357264501,-0.0005398031119763747,0.04585392580411065,0.04462568474533852,-0.03771069814504544,0.07692809632316751,0.12508895179395785,-0.11353455705763567
80,12.267138800001703,-0.023817358264262123,-0.0114567685191616,0.017376418297714486,0.014942404220648568,-0.0003532626297072916,-0.0007164860433211905,0.04621213256189069,0.04520803337657053,-0.03824056141618682,0.07704745785156208,0.12523590065663698,-0.11423139818799556
81,12.271464599994944,-0.023747336552123514,-0.011457922813426188,0.017372670862429388,0.015158246304078308,-0.00014157067790363846,-0.0008956417772352171,0.0465708730336532,0.04579103834062552,-0.03877365189772392,0.0771574488394209,0.12537103086074664,-0.11492172872993597
82,12.275949000031687,-0.02367630672284242,-0.01145808587223382,0.017368084111113697,0.015375758666465348,7.283524544177704e-05,-0.0010772852582787635,0.04693010328703217,0.046374644394596265,-0.03930993887943686,0.07725792612964028,0.12549423269596502,-0.1156053687746336
83,12.279534799978135,-0.02360426099991938,-0.0114572450619612,0.017362646434591185,0.015594943483608951,0.0002899578078743323,-0.001261431286181718,0.04728977872688919,0.04695879578472289,-0.03984939081467688,0.07734874796011992,0.12560539625605008,-0.11628213867593182
84,12.286044999957085,-0.023531191597214438,-0.011455387737177369,0.01735634615516934,0.01581580272228926,0.0005097994163476279,-0.0014480945119543743,0.047649854101723954,0.04754343624539116,-0.0403919753215685,0.07742977387362705,0.12570441136348556,-0.11695185907188087
85,12.290468199993484,-0.023457090719926722,-0.011452501241861684,0.017349171527340362,0.016038338137228207,0.0007323622148404324,-0.0016372894340045971,0.04801028350940587,0.048128508997609905,-0.04093765918445198,0.07750086455409762,0.1257911674424458,-0.11761435086319391
86,12.29502499999944,-0.02338195056558812,-0.01144857291063289,0.01734111073850017,0.016262551268074316,0.0009576480819626272,-0.0018290303942620708,0.04837102040206135,0.04871395674682722,-0.04148640835488502,0.07756188174015131,0.12586555348004802,-0.11826943514003467
87,12.299761899979783,-0.023305763325070915,-0.011443590069989374,0.017332151909685466,0.01648844343640909,0.0011856586285518313,-0.0020233315743047858,0.04873201759100063,0.04929972168104733,-0.04203818795240394,0.07761268835038258,0.12592745808878694,-0.11891693319926766
88,12.305161099997347,-0.023228521183609324,-0.011437540039560606,0.01732228309632879,0.01671601574277766,0.0014163951952618225,-0.0022202069914903705,0.04909322725277093,0.049885745469227756,-0.04259296226568589,0.07765314873739507,0.1259767695280699,-0.1195566666176429
89,12.309304299997166,-0.023150216321834765,-0.011430410133369833,0.017311492289031574,0.01694526906375149,0.001649858850144248,-0.002419670495093392,0.04945460093644714,0.050471969259596586,-0.043150694753991074,0.07768312889856274,0.12601337568052906,-0.12018845722595536
90,12.313913300051354,-0.023070840916824722,-0.011422187661108016,0.01729976741435515,0.017176204049026873,0.001886050386221387,-0.0026217357624501096,0.049816089571646155,0.051058333677829214,-0.04371134804808448,0.07770249648917046,0.12603716409507332,-0.12081212707032325
91,12.319219100056216,-0.022990387143165016,-0.011412859929419117,0.01728709633562968,0.017408821118562224,0.0021249703190508945,-0.0028264162951043502,0.050177643475939844,0.0516447788257662,-0.044274883951317776,0.07771112074464404,0.12604802204287444,-0.12142749849396092
92,12.324051800067537,-0.022908847174025304,-0.011402414243196697,0.017273466853781005,0.017643120459745535,0.002366618884286635,-0.0030337254149623307,0.050539212362145716,0.05223124428011101,-0.04484126344131198,0.0777088725237803,0.1260458365496772,-0.12203439406829532
93,12.32775739999488,-0.02282621318224771,-0.011390837906891894,0.017258866708175384,0.017879102024599518,0.002610996035231307,-0.0032436762604541912,0.05090074534614217,0.05281766909144849,-0.045410446670398376,0.0776956243262218,0.12603049450559412,-0.1226326364638093
94,12.332497900002636,-0.02274247734144834,-0.0113781182258328,0.017243283577482053,0.018116765527021787,0.002858101440388144,-0.0034562817826929194,0.05126219095432173,0.05340399178396432,-0.04598239296609933,0.07767125021015145,0.12600188271673668,-0.12322204850168773
95,12.33606120001059,-0.02265763182713157,-0.01136424250755522,0.01722670508055369,0.018356110440059352,0.0031079344810109287,-0.0036715547416403586,0.05162349713064047,0.05399015035494391,-0.0465570608320498,0.0776356257408052,0.12595988790740828,-0.12380245307199986
96,12.34056459995918,-0.022571668817816942,-0.011349198063144845,0.017209118777324672,0.018597135993214397,0.0033604942486510298,-0.0038895077022747062,0.051984611243592105,0.05457608227451222,-0.04713440794771682,0.07758862800790713,0.12590439673735312,-0.12437367303898848
97,12.349128699977882,-0.02248458049617853,-0.011332972208590837,0.01719051216972719,0.01883984116978367,0.0036157795427049968,-0.0041101530307539125,0.05234548009341967,0.055161724485293245,-0.04771439116843968,0.07753013565979999,0.12583529571345453,-0.1249355312755271
98,12.35290299996268,-0.022396359050196567,-0.011315552266150825,0.017170872702625205,0.019084224704231368,0.003873788867958427,-0.004333502890583553,0.052706049919407215,0.0557470134013281,-0.04829696652547007,0.07746002898559097,0.12575247108203652,-0.12548785052957034
99,12.35716799995862,-0.022306996674321275,-0.011296925565727341,0.017150187764766234,0.01933028507959638,0.004134520432123493,-0.004559569238780598,0.053066266407855854,0.05633188490673235,-0.048882089224769526,0.07737818997517412,0.12565580880524155,-0.12603045340269062
100,12.361149100004695,-0.02221648557064862,-0.011277079446255731,0.017128444689750996,0.019578020524939392,0.004397972143370317,-0.0047883638220301,0.053426074699934004,0.05691627435439431,-0.04946971364684986,0.07728450228043866,0.12554519459767421,-0.1265631625481907
101,12.365527200046929,-0.022124817950107886,-0.011256001257103566,0.017105630757020953,0.01982742901282317,0.004664141607852385,-0.005019898172847474,0.05378541939929244,0.05750011656497333,-0.050059793347414096,0.07717885120690142,0.12542051398225204,-0.12708580071832715
102,12.369310799986124,-0.022031986033660887,-0.011233678359481573,0.01708173319286368,0.020078508256830534,0.004933026127228597,-0.005254183605741151,0.0541442445798367,0.05808334582611782,-0.05065228105763632,0.07706112369627481,0.12528165232903185,-0.12759819079022314
103,12.373658300028184,-0.02193798205351263,-0.011210098127866112,0.017056739171436113,0.020331255709116966,0.005204622696181408,-0.005491231213377462,0.05450249379317992,0.05866589589182481,-0.05124712868504376,0.07693120825349974,0.12512849490694813,-0.12810015590373422
104,12.377789600053802,-0.021842798254333304,-0.011185247951433193,0.017030635815805592,0.020585668557997927,0.005478927999932922,-0.005731051862751497,0.05486011007573624,0.05924769998213942,-0.051844287315079486,0.07678899483459607,0.1249609269332148,-0.128591519534577
105,12.382057699956931,-0.021746426894491397,-0.011159115235504072,0.01700341019900875,0.020841743725567477,0.005755938411760228,-0.005973656191366537,0.0552170359551301,0.059828690782974106,-0.052443707212664996,0.07663437475614787,0.1247788335819542,-0.12907210544695005
106,12.3864722000435,-0.021648860247297834,-0.011131687403002388,0.016975049345128116,0.02109947786534523,0.006035649990509816,-0.006219054603419447,0.05557321345644735,0.06040880044588845,-0.05304533782332203,0.07646724066958067,0.12458210004671257,-0.129541737667682
107,12.394977299962193,-0.021550090602261,-0.011102951895922884,0.016945540230386483,0.021358867359953147,0.006318058478110869,-0.006467257265990548,0.055928584108405184,0.06098796058849011,-0.05364912777449459,0.07628748656997483,0.12437061165023305,-0.13000024050352063
108,12.398619099985808,-0.02145011026635249,-0.01107289617681169,0.016914869784258973,0.021619908318819894,0.006603159297093402,-0.006718274105241313,0.0562830889496853,0.06156610229523608,-0.05425502487683166,0.07609500777438742,0.1241442538917649,-0.13044743848515564
109,12.403607600019312,-0.0213489115652835,-0.011041507730258134,0.01688302489060279,0.021882596575916572,0.006890947548109013,-0.006972114802616175,0.05663666853490206,0.062143156118273875,-0.054862976124988326,0.0758897009817972,0.12390291255473954,-0.130883156332699
110,12.410921200062148,-0.021246486844791638,-0.011008774064398093,0.01684999238880462,0.022146927687516617,0.00718141800745685,-0.007228788791047677,0.0569892629414935,0.06271905207924472,-0.055472927698587256,0.07567146459220994,0.12364647389198193,-0.1313072190074355
111,12.41539850004483,-0.021142828471938165,-0.01097468271242883,0.01681575907494571,0.02241289692999564,0.007474565124621144,-0.007488305251167227,0.05734081177865883,0.0632937196718482,-0.056084824963501416,0.07544019883150872,0.12337482478929002,-0.13171945174190317
112,12.41966010001488,-0.02103792883641528,-0.01093922123413526,0.016780311702984507,0.022680499297674506,0.007770383019821034,-0.007750673107522186,0.0576912541954112,0.06386708786516761,-0.05669861247309544,0.0751958056865844,0.12308785291399882,-0.13211968004848834
113,12.423636900028214,-0.02093178035186343,-0.01090237721742758,0.01674363698595695,0.022949729500694096,0.008068865481579047,-0.00801590102479817,0.05804052888891159,0.06443908510761699,-0.05731423396958832,0.07493818899593312,0.12278544671283505,-0.13250772981858439
114,12.428734799963422,-0.020824375457198372,-0.010864138279890167,0.016705721597194276,0.023220581962935936,0.008370005964307654,-0.008283997404048818,0.05838857411336461,0.06500963933024656,-0.05793163238621747,0.07466725444528352,0.12246749537740265,-0.13288342741291784
115,12.432726399973037,-0.020715706617947822,-0.010824492070341663,0.016666552171558366,0.02349305081997975,0.008673797585908503,-0.00855497037893824,0.05873532768831168,0.06557867795036856,-0.058550749849441946,0.07438290955045175,0.12213388895410347,-0.13324659963569058
116,12.437189899967052,-0.02060576632759754,-0.010783426270406212,0.01662611530669453,0.02376712991710124,0.008980233125392716,-0.008828827811991279,0.059080727007367315,0.06614612787588553,-0.05917152768086588,0.07408506364876742,0.1217845183828836,-0.13359707381217473
117,12.44130209996365,-0.020494547108946604,-0.010740928596095692,0.016584397564301755,0.024042812807310947,0.009289305020520399,-0.009105577290853853,0.05942470904643251,0.0667119155092767,-0.05979390640016373,0.07377362793332792,0.1214192754712235,-0.13393467787477334
118,12.445070800022222,-0.020382041515471735,-0.010696986799402916,0.016541385471420273,0.02432009274942846,0.009601005365458035,-0.009385226124570448,0.059767210372749756,0.06727596675168424,-0.06041782572780456,0.07344851559957223,0.12103805290724734,-0.13425924035008918
119,12.44972160004545,-0.0202682421327005,-0.010651588669905659,0.01649706552173645,0.024598962706205513,0.009915325908456011,-0.009667781339869803,0.06010816715448037,0.06783820700702163,-0.06104322458785695,0.0731096418494844,0.12064074425540393,-0.1345705904666256
120,12.453329400043003,-0.0201531415795931,-0.010604722036381473,0.01645142417690493,0.024879415342489344,0.010232258049544248,-0.009953249677468504,0.06044751516979859,0.06839856118601974,-0.06167004111171545,0.07275692395198297,0.12022724399075231,-0.13486855824091584
121,12.457396100042388,-0.02003673250993266,-0.01055637476843316,0.016404447867887906,0.025161443023430406,0.010551792838247375,-0.01024163758839135,0.06078518981703087,0.06895695371065422,-0.06229821264170696,0.07239028141937702,0.11979744761326189,-0.13515297447747524
122,12.46135790005792,-0.019919007613723706,-0.01050653477812484,0.016356122996311506,0.025445037812740056,0.010873920971321555,-0.010532951230308495,0.061121126125391924,0.06951330851925515,-0.06292767573481672,0.07200963611935772,0.11935125178544988,-0.1354236707773588
123,12.465972600039096,-0.019799959618598654,-0.010455190021628492,0.016306435935839154,0.02573019147099819,0.011198632790517207,-0.010827196463890496,0.06145525876616614,0.07006754907221524,-0.06355836616637436,0.071614912352655,0.11888855444657265,-0.13568047960718296
124,12.470172300003467,-0.019679581291232037,-0.010402328500880836,0.01625537303356187,0.026016895454014977,0.011525918280368952,-0.011124378849179752,0.06178752206416627,0.07061959835816202,-0.06419021893442213,0.07120603693870006,0.11840925489026449,-0.13592323444553503
125,12.47390230000019,-0.019557865438762246,-0.010347938265250435,0.01620292061140539,0.0263051409112451,0.011855767066015762,-0.01142450364198619,0.06211785000971189,0.07116937890038849,-0.0648231682647633,0.07078293923758454,0.1179132538352459,-0.13615176975696072
126,12.47877469996456,-0.01943480491022051,-0.010292007413214873,0.01614906496755402,0.026594918684260976,0.01218816841105075,-0.011727575790305696,0.062446176270292496,0.07171681276368329,-0.06545714761508838,0.07034555105112995,0.11740045349014994,-0.13636592091890518
127,12.48320929997135,-0.019310392597966842,-0.010234524094047853,0.01609379237789107,0.026886219305275516,0.012523111215404876,-0.012033599930754188,0.06277243420162536,0.07226182156136456,-0.06609208967934369,0.06989380658799062,0.11687075753642481,-0.13656552435522976
128,12.486931600025857,-0.019184621439132764,-0.010175476509516073,0.01603708909745589,0.027179032995718232,0.012860584013262184,-0.012342580385026693,0.06309655685899386,0.07280432646195101,-0.06672792639309996,0.06942764232168744,0.11632407113660524,-0.13675041758349665
129,12.491282599978147,-0.019057484417070506,-0.010114852915585726,0.015978941361917263,0.027473349664863523,0.01320057497100559,-0.012654521156381389,0.06341847700698439,0.07334424819627278,-0.06736458893836092,0.06894699663781052,0.11576030099908795,-0.13692043912025206
130,12.498508800053967,-0.018928974562808495,-0.010052641624138485,0.015919335389063146,0.02776915890849737,0.013543071885198281,-0.012969425926143417,0.06373812712754173,0.07388150706474522,-0.06800200774805051,0.06845180959689114,0.11517935530500434,-0.13707542844218892
131,12.503245200030506,-0.01879908495651296,-0.009988831004696792,0.015858257380306606,0.028066450007620584,0.013888062180597195,-0.01328729805023068,0.06405543942749947,0.07441602294379931,-0.0686401125104601,0.06794202277941486,0.11458114364139275,-0.13721522599068825
132,12.507111500017343,-0.018667808728955484,-0.009923409486158323,0.015795693522207888,0.02836521192718558,0.014235532908194251,-0.013608140555699042,0.06437034584519317,0.07494771529253359,-0.06927883217377794,0.06741757921714532,0.11396557705067092,-0.13733967313935744
133,12.511809300049208,-0.01853513906298637,-0.009856365558539509,0.01573162998801249,0.02866543331486115,0.014585470743291728,-0.013931956137310268,0.06468277805735172,0.0754765031596049,-0.06991809495023432,0.0668784236124242,0.11333256801123294,-0.137448612148701
134,12.515426500001922,-0.01840106919501368,-0.009787687774727907,0.015666052939205182,0.028967102499833378,0.01493786198360762,-0.014258747154115799,0.06499266748775115,0.07600230518969979,-0.07055782832020928,0.0663245026139547,0.11268203044417842,-0.13754188621590768
135,12.51963260001503,-0.018265592416487772,-0.00971736475224335,0.015598948527079855,0.029270207491650924,0.015292692547411222,-0.014588515626062915,0.06529994531667224,0.07652503963048789,-0.07119795903684094,0.06575576504074723,0.11201387974093455,-0.13761933945967697
136,12.525131699978374,-0.01812870207539107,-0.009645385175007673,0.015530302894325124,0.02957473597911395,0.015649947971693202,-0.01492126323062139,0.06560454249163823,0.07704462433935032,-0.07183841312999208,0.06517216213166933,0.11132803269671027,-0.1376808168189105
137,12.53237310005352,-0.017990391577732932,-0.009571737795122883,0.015460102176625579,0.029880675329219335,0.01600961341036379,-0.01525699129942657,0.06590638973919449,0.07756097678971384,-0.07247911590991578,0.06457364757568955,0.11062440750203703,-0.13772616398387094
138,12.536010700045152,-0.01785065438904927,-0.009496411434657655,0.01538833250427861,0.030188012586159187,0.016371673632481785,-0.015595700814940128,0.06620541757592771,0.07807401407770057,-0.07311999197058139,0.06396017741291472,0.10990292378534211,-0.13775522735761908
139,12.5403194000246,-0.017709484035906702,-0.009419394987441985,0.015314980003826738,0.030496734470368617,0.016736113020514632,-0.0159373924071241,0.06650155631932468,0.07858365292885824,-0.07376096519298134,0.06333171008182834,0.10916350263704945,-0.13776785415046067
140,12.544630000018516,-0.017566874107411045,-0.00934067742086987,0.015240030799705389,0.030806827377625287,0.01710291556863005,-0.01628206635013241,0.06679473609923105,0.07908980970503425,-0.07440195874933594,0.06268820649265794,0.10840606663981311,-0.13776389257596727
141,12.5487293000333,-0.017422818256719853,-0.009260247777709863,0.015163471015906007,0.03111827737820381,0.017472064881020072,-0.016629722559024028,0.0670848868693928,0.0795924004113872,-0.07504289510822428,0.06202962996273978,0.1076305399004733,-0.13774319200410928
142,12.552980900043622,-0.017277310202558765,-0.009178095177923343,0.015085286777654416,0.03143107021608269,0.017843544170257925,-0.016980360586502243,0.06737193841831358,0.08009134070355828,-0.07568369604021388,0.061355946082614334,0.10683684807370837,-0.13770560310283655
143,12.556949999998324,-0.017130343730741435,-0.009094208820490366,0.015005464213104279,0.03174519130819977,0.018217336255688797,-0.017333979619680202,0.06765582037955015,0.08058654589490298,-0.07632428262430911,0.06066712262198664,0.1060249184312815,-0.13765097804291954
144,12.561130800051616,-0.0169819126956928,-0.009008577985242907,0.014923989455045547,0.032060625743754956,0.018593423561854006,-0.017690578476880197,0.0679364622416946,0.08107793096430678,-0.07696457525548694,0.05996312950363744,0.10519467998032445,-0.1375791706165668
145,12.566235200036315,-0.016832011021975502,-0.008921192034705368,0.01484084864262771,0.03237735828355855,0.018971788116954498,-0.018050155604469317,0.06821379335842712,0.08156541056451751,-0.07760449365224907,0.059243938824462224,0.10434606349113551,-0.1374900363101961
146,12.56969230005052,-0.01668063270581922,-0.00883204041594213,0.014756027923097692,0.03269537335942753,0.019352411551352554,-0.01841270907372901,0.06848774295869395,0.08204889903021972,-0.07824395686483489,0.05850952482622055,0.10347900152748013,-0.1373834324747288
147,12.574035000056028,-0.016527771816652707,-0.008741112662411996,0.014669513453552224,0.03301465507362859,0.01973527509611042,-0.01877823657776716,0.06875824015648795,0.08252831038664904,-0.0788828832843582,0.057759863877503696,0.10259342857792722,-0.13725921837091318
148,12.577669200021774,-0.01637342249863831,-0.008648398395829334,0.014581291402704479,0.033335187198365444,0.020120359581572163,-0.01914673542847268,0.06902521396085877,0.0830035583588886,-0.07952119065144199,0.056994934654846084,0.1016892811463721,-0.13711725514759923
149,12.582003799965603,-0.01621757897220877,-0.008553887328031732,0.014491347952664782,0.03365695317531497,0.020507645435988826,-0.01951820255350792,0.06928859328737871,0.08347455638132577,-0.08015879606515292,0.05621471840597514,0.10076649777972262,-0.1369574059365049
150,12.586819499963894,-0.01606023553560607,-0.008457569262853924,0.01439966930073523,0.03397993611522123,0.02089711268418827,-0.019892634493346398,0.06954830697060252,0.0839412176072062,-0.08079561599251793,0.05541919911232806,0.0998250191240262,-0.13677953584580727
151,12.592112499987708,-0.015901386566421996,-0.008359434098007823,0.01430624166121797,0.03430411879754759,0.021288740946289228,-0.020270027398353787,0.06980428377704546,0.08440345491861283,-0.08143156627739917,0.054608363627769066,0.09886478802380691,-0.13658351189342088
152,12.596506400033832,-0.015741026523140234,-0.008259471826968418,0.014211051267236976,0.03462948367019147,0.02168250943646401,-0.020650377025908204,0.07005645241893398,0.08486118093694431,-0.08206656214938966,0.05378220175808349,0.09788574958621599,-0.13636920299851027
153,12.600652600056492,-0.015579149946679593,-0.008157672540865314,0.014114084372573128,0.03495601284926439,0.02207839696175006,-0.02103367873756398,0.07030474156792343,0.08531430803349091,-0.08270051823260927,0.052940706255929386,0.09688785126934471,-0.13613647997259518
154,12.60515249997843,-0.015415751461938125,-0.008054026430379693,0.014015327253512379,0.035283688118934425,0.022476381920911084,-0.0214199274962538,0.07054907986880181,0.08576274834073476,-0.0833333485545176,0.052083872815313466,0.09587104299993228,-0.1358852156099379
155,12.609543600003237,-0.015250825779337835,-0.007948523787646447,0.013914766210706869,0.03561249093133375,0.022876442303353735,-0.021809117863534486,0.07078939595315606,0.08620641376402102,-0.08396496655555107,0.05121169997670135,0.09483527720651648,-0.135615284774017
156,12.61555510002654,-0.015084367696369652,-0.007841155008161226,0.013812387571048723,0.03594240240652823,0.02327855568809736,-0.022201243996878804,0.0710256184521928,0.08664521599316663,-0.08459528509874044,0.05032418896522707,0.09378050886979493,-0.13532656443611107
157,12.619395500048997,-0.014916372099138426,-0.007731910592692151,0.01370817768955636,0.036273403332544314,0.023682699242798713,-0.022596299647010737,0.07125767600889918,0.08707906651460008,-0.08522421647970692,0.049421343535543706,0.09270669563589921,-0.13501893377210947
158,12.623589799972253,-0.014746833963907644,-0.00762078114919594,0.013602122951273093,0.03660547416545175,0.024088849722834652,-0.02299427815529032,0.07148549728941987,0.08750787662402422,-0.08585167243718057,0.048503169875258836,0.09161379792746166,-0.13469227421863766
159,12.627686999971049,-0.01457574835864366,-0.007507757394738159,0.013494209773177768,0.03693859502949635,0.02449698347044469,-0.02339517245114678,0.07170901099431938,0.08793155743958954,-0.08647756416351865,0.04756967671937789,0.09050177903597126,-0.13434646953100085
160,12.632167499978095,-0.014403110444559178,-0.007392830157417322,0.013384424606107254,0.037272745717287524,0.02490707641393627,-0.02379897504956125,0.07192814587102393,0.08835001991541636,-0.0871018023157632,0.04662087553027916,0.08937060515059918,-0.1339814058758291
161,12.636491399956869,-0.014228915477655733,-0.00727599037829254,0.013272753936690501,0.03760790569004681,0.02531910406695315,-0.024205678048602814,0.07214283072675853,0.08876317485503635,-0.08772429702702148,0.04565678055638067,0.08822024535853587,-0.13359697188063324
162,12.64044400001876,-0.014053158810264864,-0.007157229113314431,0.013159184289293961,0.037944054077915776,0.025733041527805745,-0.024615273127017098,0.07235299444153476,0.08917093292491786,-0.08834495791798469,0.04467740889072344,0.08705067166018982,-0.13319305863613148
163,12.644583699991928,-0.013875835892587726,-0.007036537535258997,0.013043702227978087,0.03828116968032542,0.026148863478865376,-0.02502775154186951,0.07255856598163293,0.08957320466804887,-0.08896369410833006,0.04368278059469726,0.08586185892896323,-0.13276955970246102
164,12.64889009995386,-0.013696942274232831,-0.0069139069356641695,0.012926294358464676,0.038619230966429524,0.026566544186021005,-0.025443104126239933,0.07275947441374124,0.089969900517088,-0.08958041422829738,0.042672918810713764,0.08465378484580686,-0.13232637118005788
165,12.652768000029027,-0.013516473605751625,-0.006789328726768747,0.012806947330114829,0.03895821607560562,0.026986057498195853,-0.025861321286973687,0.07295564891948635,0.09036093080733851,-0.09019502643075059,0.04164784982062566,0.08342642991205343,-0.13186339171446515
166,12.657188200042585,-0.013334425640171567,-0.006662794443453433,0.012685647837917216,0.039298102818023574,0.027407376846924868,-0.026282393002488462,0.07314701881011611,0.09074620579001869,-0.0908074384027991,0.04060760317010423,0.08217977749573273,-0.13138052241860473
167,12.662851899978705,-0.013150794234526414,-0.00653429574518371,0.012562382624486446,0.039638868675283136,0.02783047524599482,-0.026706308820633403,0.07333351354218758,0.09112563564566685,-0.09141755737713614,0.03955221188597073,0.08091381385012156,-0.13087766690482125
168,12.667091600014828,-0.01296557535138337,-0.006403824417954222,0.012437138482071251,0.03998049080112854,0.028255325291146507,-0.027133057856601566,0.07351506273427202,0.09149913049758436,-0.09202529014395816,0.03848171254766827,0.079628528119757,-0.13035473146592205
169,12.671929400064982,-0.012778765060366721,-0.006271372376234422,0.012309902254572284,0.0403229460222415,0.028681899159839954,-0.027562628790899914,0.07369159618330802,0.09186660042529654,-0.09263054306398785,0.037396145211942164,0.07832391231258769,-0.1298116252218286
170,12.68058399995789,-0.012590359539677604,-0.006136931664915141,0.012180660839569193,0.04066621083910796,0.02911016861108186,-0.027995009867382948,0.07386304388060558,0.09222795547773657,-0.09323322208175822,0.036295553349691416,0.07699996122267805,-0.1292482601256926
171,12.686882899957707,-0.012400355077609575,-0.006000494461255837,0.01204940119035671,0.04101026142696002,0.02954010498531348,-0.028430188891346322,0.07402933602761162,0.09258310568598715,-0.09383323273869243,0.03517998368320735,0.0756566723074862,-0.1286645511297521
172,12.69270710006822,-0.012208748074059618,-0.005862053076832211,0.011916110317989476,0.041355073636789405,0.029971679204356647,-0.028868153227682183,0.0741904030503996,0.09293196107532244,-0.09443048018793129,0.034049485948970934,0.07429404553475782,-0.12806041656221778
173,12.698413099977188,-0.01201553504203428,-0.005721599959483955,0.011780775293335283,0.04170062299642419,0.03040486177141369,-0.029308889799110758,0.07434617561322772,0.09327443167652498,-0.09502486921092011,0.03290411279627998,0.07291208328006918,-0.12743577841992254
174,12.702724699978717,-0.011820712609150656,-0.005579127695262373,0.011643383249136363,0.04204688471166845,0.030839622771118784,-0.029752385084490043,0.07449658463208524,0.09361042753697431,-0.09561630423495933,0.03174391991482567,0.07151079040172167,-0.12679056270433775
175,12.70840440003667,-0.011624277519131927,-0.005434629010377649,0.011503921382078357,0.04239383366750505,0.03127593186964103,-0.0301986251172107,0.07464156128943784,0.09393985873266078,-0.09620468935291812,0.030568966399871444,0.07009017453984474,-0.12612469969280196
176,12.715561200049706,-0.01142622663329715,-0.005288096773145506,0.011362376954866535,0.042741444429372465,0.031713758314847615,-0.030647595483689186,0.07478103705117206,0.09426263538205737,-0.09678992834330889,0.029379315204960108,0.06865024648935683,-0.1254381239858383
177,12.721120900008827,-0.011226556932044912,-0.0051395239959329585,0.011218737298308796,0.04308969124452528,0.03215307093653596,-0.031099281321949453,0.07491494368555315,0.09457866766160404,-0.09737192469044118,0.02817503346309073,0.06719102046334192,-0.12473077464923925
178,12.72533679998014,-0.011025265516330462,-0.0049889038371028135,0.011072989813405074,0.043438548043487415,0.03259383814674096,-0.03155366732030361,0.07504321328315817,0.09488786582203032,-0.09795058160581825,0.026956192666544563,0.06571251424782008,-0.12400259528530429
179,12.729580900049768,-0.010822349609135844,-0.004836229602956561,0.010925121973442626,0.043787988441598084,0.03303602794011905,-0.03201073771613273,0.07516577827750721,0.09519014020527986,-0.09852580204895395,0.025722868854815128,0.06421474937581069,-0.12325353404983146
180,12.73640269995667,-0.010617806556932643,-0.0046814947496753,0.010775121326096778,0.04413798574065701,0.03347960789441289,-0.0324704762947612,0.07528257146674518,0.09548540126245268,-0.09909748874892736,0.02447514276317756,0.06269775131306116,-0.1224835439148063
181,12.741436899988912,-0.010411633831136805,-0.004524692885258308,0.010622975495536684,0.04448851293067216,0.03392454517100243,-0.03293286638843813,0.07539352603565551,0.09577355957245805,-0.09966554422764405,0.023213099895771236,0.06116154956204614,-0.12169258287319219
182,12.74694109999109,-0.010203829029555125,-0.00436581777145884,0.010468672184535557,0.04483954269170976,0.034370806515543126,-0.03339789087542813,0.07549857557802203,0.09605452586092442,-0.10022987082329639,0.02193683057977451,0.05960617773441778,-0.12088061401185189
183,12.750680900062434,-0.00999438987782285,-0.004204863325716754,0.010312199176584883,0.045191047395850156,0.034818358258692984,-0.03386553217921104,0.07559765411914678,0.09632821101952646,-0.1007903707143033,0.02064643002695142,0.05803167363363915,-0.12004760567086376
184,12.757070100051353,-0.009783314230831966,-0.0040418236230875485,0.010153544338012103,0.04554299910924735,0.035267166316930644,-0.03433577226779546,0.07569069613878453,0.096594526125664,-0.10134694594425311,0.019341998457140318,0.05643807932051597,-0.11919353166117241
185,12.761407700018026,-0.009570600074149638,-0.0038766928981673774,0.009992695620101213,0.04589536959429824,0.03571719619346549,-0.034808592653150575,0.07577763659480975,0.09685338246239875,-0.10189949844786858,0.01802364120178918,0.054825441163535514,-0.11831837144529293
186,12.765136300004087,-0.009356245525426311,-0.0037094655470136144,0.00982964106121573,0.046248130311922445,0.0361684129792413,-0.03528397439076133,0.07585841094711457,0.09710469153860173,-0.10244793007763123,0.01669146877824623,0.053193809835260425,-0.11742211016969355
187,12.769226900069045,-0.009140248835792937,-0.0035401361290605298,0.009664368788923438,0.046601252423953875,0.03662078135403381,-0.035761898079307956,0.07593295518196697,0.09734836510885643,-0.10299214263004772,0.015345596961803055,0.051543240237872524,-0.11650473857872291
188,12.774390500038862,-0.008922608391246818,-0.0033686993690296434,0.00949686702212233,0.04695470679564722,0.03707426558763954,-0.0362423438604656,0.07600120583657916,0.09758431519291337,-0.10353203787147326,0.013986146833129775,0.0498737914267346,-0.11556625290683037
189,12.77816069999244,-0.008703322714025515,-0.003195150158834338,0.009327124073167221,0.04730846399829816,0.03752882954115446,-0.036725291418824114,0.07606310002390719,0.09781245409488201,-0.10406751756337507,0.012613244874210216,0.04818552657143377,-0.11460665474505215
190,12.78219389996957,-0.008482390463968306,-0.003019483559478314,0.009155128349996437,0.0476624943119806,0.03798443666834135,-0.03721071998192279,0.07611857545811201,0.09803269442232279,-0.10459848348691336,0.01122702300871684,0.046478512972051064,-0.11362595094405013
191,12.786073100054637,-0.008259810439864622,-0.0028416948029474785,0.0089808683582581,0.048016767728403804,0.03844105001708611,-0.037698608320398876,0.07616757047973478,0.09824494910559045,-0.1051248374673026,0.009827618517475756,0.044752822122077256,-0.11262415354351243
192,12.79032350005582,-0.008035581580788922,-0.0026617792940948504,0.008804332703435443,0.0483712539538839,0.038898632230945154,-0.038188934748248984,0.0762100240803713,0.0984491314175115,-0.10564648139773553,0.008415173982769232,0.043008529749430535,-0.11160127973087765
193,12.794562499970198,-0.0078097029674214806,-0.002479732612518049,0.00862551009297066,0.04872592241243061,0.03935714555078481,-0.03868167712320025,0.07624587592732902,0.09864515499310926,-0.10616331726336031,0.006989837281924229,0.04124571585837354,-0.1105573518778038
194,12.79868460004218,-0.007582173823354535,-0.002295550514428944,0.008444389338386761,0.0490807422489482,0.03981655181651226,-0.03917681284719485,0.0762750663882419,0.09883293384967132,-0.10667524716554398,0.005551761574013658,0.03946446484684105,-0.1094923975666048
195,12.80310749995988,-0.007352993516383287,-0.0021092289345150377,0.00826095935740692,0.04943568233255126,0.040276812468901656,-0.039674318866986906,0.07629753655560359,0.09901238240756637,-0.10718217334609552,0.004101105283099122,0.037664865667262605,-0.1084064495947454
196,12.806771000032311,-0.0071221615597812015,-0.0019207639877921235,0.008075209176070774,0.04979071125999393,0.040737888551518796,-0.040174171674852446,0.07631322827122634,0.09918341551180819,-0.10768399821157114,0.0026380321274069875,0.03584701201304742,-0.10729954597548558
197,12.811383599997498,-0.006889677613559093,-0.0017301519714477572,0.007887127930847164,0.05014579735921329,0.04119974071274788,-0.040676347309412476,0.07632208415104577,0.09934594845460774,-0.10818062435750339,0.0011627111765455788,0.034011002543044656,-0.10617172995533719
198,12.816008200054055,-0.006655541485707453,-0.0015373893666750555,0.007696704870742776,0.05050090869298939,0.04166232920792604,-0.04118082135656836,0.0763240476101121,0.09949989699902582,-0.10867195459286887,-0.00032468314544791,0.03215694110104326,-0.1050230500561436
199,12.819789099972695,-0.006419753133421481,-0.0013424728404963064,0.007503929359406177,0.0508560130627212,0.042125613901590205,-0.041687568950552596,0.07631906288742334,0.09964517740356765,-0.10915789196470886,-0.001823971052578876,0.03028493691146478,-0.10385356005449095
200,12.82602899998892,-0.006182312664308275,-0.0011453992475758594,0.007308790877226679,0.051211078012317716,0.042589554269840464,-0.04219656477509331,0.07630707507098652,0.09978170644765652,-0.1096383397824055,-0.003334967321244526,0.028395104763193665,-0.10266331894363162
201,12.829798700055107,-0.005943220337575653,-0.0009461656320217439,0.007111279023427539,0.0515660708322071,0.04305410940282399,-0.042707783064690905,0.07628803012335489,0.09990940145793896,-0.1101132016419481,-0.004857481216186339,0.026487565184679887,-0.10145239088725244
202,12.834379900014028,-0.005702476565202039,-0.000744769229175446,0.006911383518152943,0.05192095856346544,0.04351923800734318,-0.043221197606008364,0.07626187490737815,0.10002818033538777,-0.11058238144977907,-0.0063913164251015436,0.02456244461382625,-0.10022084510207108
203,12.838166899979116,-0.005460081913086866,-0.0005412074673892577,0.0067090942045482695,0.05227570800206548,0.04398489840959178,-0.04373678173936981,0.07622855721234809,0.10013796158318802,-0.11104578344596781,-0.007936270969844233,0.02261987555986837,-0.0989687557629522
204,12.842019099975005,-0.005216037102180922,-0.00033547796979059314,0.006504401050833128,0.05263028570324868,0.04445104855802249,-0.04425450836036642,0.07618802578057515,0.10023866433534645,-0.11150331222717373,-0.009492137169968329,0.020659996731911656,-0.09769620192934919
205,12.846724100061692,-0.004970343009596076,-0.00012757855603265356,0.0062972941523666785,0.05298465798602127,0.044917646026349324,-0.04477434992156869,0.0761402303338733,0.1003302083857735,-0.11195487276913561,-0.011058701688089718,0.018682953115706603,-0.09640326743991644
206,12.851390499970876,-0.004723000669693784,8.24927559691932e-05,0.0060877637337047414,0.05333879093777272,0.045384648016685854,-0.045296278434341586,0.07608512159971446,0.10041251421760714,-0.11240037044865399,-0.012635745609690543,0.016688896031340248,-0.09509004080016147
207,12.856804199982436,-0.004474011275151836,0.0002947377483159511,0.005875800150648222,0.05369265041901518,0.04585201136282039,-0.045820265470761394,0.07602265133697082,0.10048550303283174,-0.1128397110650351,-0.014223044540654664,0.014677983206566351,-0.09375661501976702
208,12.86109550006222,-0.0042233761780087675,0.0005091580014190921,0.005661393892282382,0.05404620206824151,0.046319692533629865,-0.04634628216563041,0.07595277236116167,0.10054909678228427,-0.11327280086055948,-0.015820368675145306,0.012650378829294885,-0.09240308742891143
209,12.866623100009749,-0.003971096890685395,0.0007257548923108617,0.005444535583006524,0.05439941130689964,0.046787647636634226,-0.046874299218584214,0.07587543856956402,0.10060321819576158,-0.11369954654021674,-0.017427482827974194,0.010606253506720469,-0.09102955963203997
210,12.871430900064295,-0.0037171750869829396,0.0009445295929714502,0.005225215984553646,0.05475224334448424,0.04725583242169047,-0.04740428689629005,0.07579060496615835,0.10064779081164626,-0.11411985529174401,-0.019044146476511124,0.008545784129655063,-0.08963613761708386
211,12.875457499991173,-0.0034616126030571886,0.0011654830686736717,0.005003425997999675,0.05510466318374322,0.04772420228482272,-0.04793621503474055,0.07569822768634914,0.10068273900575156,-0.11453363480637697,-0.02067011377511913,0.006469153713845504,-0.08822293185434989
212,12.87966029997915,-0.0032044114383681667,0.0013886160763457755,0.004779156665761777,0.05545663562599945,0.04819271227218466,-0.048470053041645166,0.07559826402177636,0.10070798801947059,-0.11494079329980854,-0.022305133606677546,0.0043765512710487705,-0.08679005727729042
213,12.883830999955537,-0.002945573756604778,0.0016139291629529964,0.004552399173585334,0.055808125276588114,0.048661317084151556,-0.04900576989891897,0.07549067244455657,0.10072346398742162,-0.11534123953276096,-0.023948949807595554,0.0022681717066092466,-0.08533763307358494
214,12.894113200018182,-0.0026851018865838823,0.001841422663898444,0.004323144852519101,0.056159096550404,0.04912997107953993,-0.04954333416526552,0.07537541263000054,0.10072909396464419,-0.11573488283000041,-0.025601301540946135,0.000144215723768127,-0.08386578224302636
215,12.898996700067071,-0.002422998323123318,0.0020710967014439174,0.004091385180878142,0.056509513677550256,0.04959862827995266,-0.050082713978842536,0.0752524454773823,0.10072480595335398,-0.11612163309679517,-0.027261923627669608,-0.0019951102437981397,-0.08237463115043037
216,12.903060300042853,-0.002159265727888415,0.0023029511831512274,0.0038571117861941877,0.05685934070907895,0.050067242374247596,-0.05062387705999797,0.07512173312957479,0.10071052892951118,-0.11650140083376986,-0.028930546558820918,-0.004149594021166761,-0.08086430938596684
217,12.907550400006585,-0.0018939069302115993,0.002536985800344593,0.0036203164471531107,0.05720854152282252,0.050535766723129906,-0.051166790714073894,0.07498323899370495,0.10068619286967595,-0.116874097152064,-0.030606896163975376,-0.006319017611309884,-0.07933494992518889
218,12.911187099991366,-0.001626924927884644,0.0027732000265946956,0.0033809910955191888,0.057557079829326556,0.05100415436387059,-0.0517114218342836,0.07483692776387493,0.1006517287783292,-0.11723963378967533,-0.03229069324996914,-0.008503157090756917,-0.07778668939115978
219,12.9157273999881,-0.0013583228879230675,0.003011593116224984,0.003139127818045811,0.05790491917789266,0.05147235801515302,-0.0522577369046676,0.07468276544517885,0.10060706871569895,-0.11759792312905758,-0.033981653422434956,-0.010701782503972763,-0.07621966828773019
220,12.920636199996808,-0.001088104147302153,0.003252164102840826,0.0028947188583722345,0.058252022962734705,0.05194033008205043,-0.05280570200313444,0.07452071937808462,0.10055214582606396,-0.11794887821563445,-0.03567948703314711,-0.012914657759579418,-0.07463403114731414
221,12.92465209995862,-0.0008162722136640625,0.0034949117978821296,0.002647756618905994,0.058598354429248614,0.0524080226611358,-0.05335528280458902,0.07435075826294064,0.10048689436654575,-0.11829241277677247,-0.037383899161113635,-0.015141540488436737,-0.07302992665365728
222,12.928654300048947,-0.0005428307659955136,0.0037398347892000456,0.002398233662690549,0.05894387668039662,0.052875387545727265,-0.05390644458414993,0.07417285218453366,0.10041124973673282,-0.11862844124143743,-0.039094589618750585,-0.017382181882086078,-0.07140750780635367
223,12.93241849995684,-0.0002677836552754859,0.003986931439658397,0.002146142715257756,0.05928855268320557,0.053342376231273685,-0.05445915222046067,0.07398697263653795,0.10032514850897604,-0.11895687876069805,-0.04081125298376505,-0.019636326551223302,-0.06976693208449752
224,12.936195599962955,8.865094907569973e-06,0.004236199885760497,0.0018914766664647024,0.0596323452753787,0.05380893992088193,-0.05501337019909781,0.07379309254577646,0.10022852845932981,-0.11927764122890527,-0.04253357864123917,-0.021903712368476397,-0.06810836161006657
225,12.940429899957962,0.0002871112877695502,0.004487638036302008,0.0016342285723144655,0.0599752171720197,0.054275029530990386,-0.05556906261607925,0.07359118629627846,0.10012132859931036,-0.11959064530571624,-0.04426125081343561,-0.024184070322396854,-0.06643196332006725
226,12.94467999995686,0.000566950552776059,0.004741243571050557,0.0013743916567603022,0.06031713097246834,0.054740595697191745,-0.056126193181477366,0.07338122975326335,0.10000348920819567,-0.11989580843887544,-0.04599394855522492,-0.026477124395001595,-0.06473790909515074
227,12.9488154000137,0.0008483783451198323,0.0049970139394527775,0.001111959313492785,0.0606580491672477,0.05520558878020707,-0.05668472522313921,0.07316320028724076,0.09987495186592324,-0.12019304888743551,-0.047731345725567184,-0.02878259140511285,-0.06302637581562515
228,12.952719400054775,0.0011313899452307465,0.0052549463593695115,0.0008469251077093752,0.06099793414512409,0.055669958872014744,-0.05724462169051573,0.0729370767982598,0.09973565948684773,-0.12048228574505958,-0.04947311096627016,-0.03110018083606376,-0.061297545340150965
229,12.95731990004424,0.0014159804583189354,0.005515037815839886,0.0005792827778659268,0.0613367482002799,0.0561336558021386,-0.057805845158598865,0.07270283974020683,0.09958555635424204,-0.12076343896304381,-0.05121890771753103,-0.0334295946989051,-0.0595516044558779
230,12.962107700062916,0.001702144813951544,0.005777285059875024,0.0003090262374096242,0.06167445353959961,0.05659662914409796,-0.05836835783196494,0.07246047114491007,0.09942458815532781,-0.1210364293731558,-0.052968394297925644,-0.03577052744016272,-0.05778874485962657
231,12.965809699962849,0.001989877765663645,0.006041684607282147,3.614957649286054e-05,0.06201101229006697,0.057058828222021706,-0.05893212154892427,0.07220995464569303,0.09925270201663484,-0.12130117871048196,-0.05472122403317521,-0.03812266588358092,-0.05600916315123683
232,12.970821100054309,0.0022791738906038244,0.006308232737519825,-0.00023935293633243695,0.06234638650627014,0.05752020211742735,-0.05949709778577721,0.07195127550028094,0.09906984653957371,-0.12155760963620404,-0.056477045424919436,-0.04048568921089089,-0.054213060754143845
233,12.977509599993937,0.0025700275892149354,0.006576925492585163,-0.000517486852440533,0.06268053817801206,0.057980699676166154,-0.06006324766117567,0.07168442061278368,0.09887597183597412,-0.12180564575970748,-0.05823550235563364,-0.0428592689641314,-0.05240064372633832
234,12.981831899960524,0.002862433084950501,0.006847758675933678,-0.0007982575414781435,0.06301342923802013,0.058440269515532835,-0.06063053194058486,0.07140937855469542,0.09867102956363594,-0.1220452116595988,-0.05999623420577893,-0.04524306901383885,-0.050572122600658
235,12.987914100056514,0.0031563844240272074,0.00712072785143264,-0.0010816701897316794,0.06334502156975197,0.05889886003154153,-0.06119891104084043,0.07112613958578745,0.09845497296216356,-0.12227623290432789,-0.06175887579298031,-0.04763674556609863,-0.048727712451942
236,12.992465100018308,0.003451875475213943,0.007395828342348659,-0.0013677297985159114,0.06367527701529956,0.05935641940636896,-0.06176834503480209,0.07083469567567371,0.0982277568884513,-0.12249863607383024,-0.0635230572262627,-0.050039947287393846,-0.04686763319304794
237,12.996396800037472,0.003748899929657841,0.007673055230370282,-0.0016564411825845172,0.06400415738339561,0.05981289561596057,-0.06233879365611211,0.07053504052606009,0.09798933785135601,-0.12271234878290377,-0.06528840378728397,-0.05245231543619222,-0.04499210990919037
238,13.000335999997333,0.0040474513007478195,0.007952403354666357,-0.001947808968563025,0.0643316244575248,0.06026823643779635,-0.06291021630406653,0.07022716959341506,0.09773967404595804,-0.12291729970596219,-0.06705453585877215,-0.05487348391688222,-0.043101373086253295
239,13.003822900005616,0.004347522924016102,0.008233867310980898,-0.0022418375934046887,0.06465764000414106,0.06072238945881577,-0.06348257204860393,0.06991108011188488,0.09747872538773196,-0.12311341860253627,-0.06882106886057902,-0.057303079298761425,-0.041195658715039815
240,13.007610499975272,0.00464910795707822,0.008517441450765188,-0.0025385313028698534,0.06498216578099206,0.061175302083501575,-0.06405581963541396,0.0695867711165593,0.09720645354663081,-0.12330063634299737,-0.07058761315383297,-0.05974072078269802,-0.03927520831612169
241,13.012796099996194,0.004952199379611998,0.008803119880347866,-0.002837894150029367,0.06530516354555298,0.06162692154212188,-0.0646299174911655,0.06925424346727863,0.09692282198156706,-0.12347888493428986,-0.07235377392266268,-0.062186020108977745,-0.037340268946328414
242,13.017034700023942,0.005256789993376033,0.009090896460143728,-0.0031399299937925947,0.06562659506357252,0.06207719489913483,-0.06520482372885462,0.06891349987300004,0.09662779597535437,-0.12364809754571505,-0.07411915109293142,-0.06463858151723473,-0.035391093170855176
243,13.021408900036477,0.0055628724222682,0.00938076480390202,-0.0034446424974605948,0.06594642211773345,0.06252606906175583,-0.06578049615327265,0.06856454491636083,0.09632134266956141,-0.12380820853440411,-0.07588333931076384,-0.06709800172248928,-0.03342793895853149
244,13.025944099994376,0.005870439112424726,0.009672718277994957,-0.0037520351273050154,0.06626460651642714,0.0629734907886865,-0.06635689226659117,0.06820738507824453,0.09600343109967659,-0.12395915347012737,-0.07764592795985517,-0.06956386981192882,-0.03145106955824605
245,13.0294648000272,0.006179482332360338,0.009966750000747246,-0.00406211115117324,0.06658111010264271,0.06341940669900918,-0.06693396927406096,0.06784202876218313,0.09567403223092233,-0.12410086915961742,-0.07940650123311457,-0.07203576712695224,-0.029460753385471338
246,13.033346300013363,0.0064899941731500575,0.010262852841807368,-0.0043748736371203144,0.06689589476296864,0.06386376328124913,-0.06751168408982335,0.06746848631825651,0.09533311899451745,-0.12423329367032246,-0.08116463827242487,-0.0745132671673198,-0.027457263917769308
247,13.037957199965604,0.006801966548653112,0.010561019421561424,-0.004690325452068168,0.06720892243670433,0.0643065069026064,-0.06808999334283013,0.06708677006619414,0.09498066632438333,-0.12435636635375702,-0.08291991338644518,-0.07699593546422234,-0.025440879624906345
248,13.042745399987323,0.007115391195779509,0.01086124211059033,-0.005008469260492628,0.06752015512507663,0.0647475838183597,-0.06866885338287221,0.06669689431724782,0.09461665119458741,-0.12447002786860506,-0.0846718962794976,-0.07948332945382623,-0.02341188392927175
249,13.047061700024642,0.007430259674799717,0.011163513029171162,-0.005329307523138738,0.06782955490055496,0.0651869401814466,-0.06924822028671457,0.06629887539516355,0.09424105265722607,-0.12457422020370235,-0.0864201523520705,-0.08197499839335744,-0.021370565120931138
250,13.05134690005798,0.007746563369697913,0.011467824046823498,-0.0056528424957648605,0.06813708391626302,0.06562452205221996,-0.06982804986433869,0.06589273165525798,0.09385385188064897,-0.1246688867003491,-0.08816424331322065,-0.08447048323962612,-0.019317216100222856
251,13.056671499973165,0.008064293488569244,0.011774166781901551,-0.005979076227916082,0.06844270441547137,0.0660602754083838,-0.07040829766528517,0.06547848349969172,0.09345503218847231,-0.12475397207289719,-0.08990372806225355,-0.08696931654885902,-0.017252133960887518
252,13.061069600051267,0.00838344106406141,0.01208253260123297,-0.006308010561727335,0.06874637874115126,0.06649414615511275,-0.07098891898508773,0.06505615338834152,0.09304457909873526,-0.12482942242718366,-0.09163816352309667,-0.08947102235600113,-0.015175619485209955
253,13.066626999992875,0.008703996953860822,0.012392912619805128,-0.006639647130756676,0.06904806934556842,0.06692608013535233,-0.07156986887178736,0.06462576584630948,0.09262248036403631,-0.12489518527642007,-0.09336710502623263,-0.09197511591747923,-0.01308797672489971
254,13.07002680003643,0.009025951841223455,0.012705297700499779,-0.00697398735884902,0.06934773879990676,0.06735602314031179,-0.07215110213251415,0.06418734747124132,0.0921887260130834,-0.12495120955572607,-0.0950901063806678,-0.09448110356808502,-0.010989512766927818
255,13.078183899982832,0.00934929623555056,0.013019678453876981,-0.007311032459030665,0.06964534980393021,0.06778392092015113,-0.07273257334013669,0.06374092694016582,0.09174330839216199,-0.12499744563583973,-0.09680672037975514,-0.09698848277642211,-0.008880537383014258
256,13.08212789997924,0.009674020473009429,0.013336045238009197,-0.007650783432434904,0.06994086519567011,0.06820971919485974,-0.07331423683997151,0.06328653501210632,0.09128622220616926,-0.1250338453343895,-0.0985164999346467,-0.09949674226190852,-0.006761362324579065
257,13.091529599973,0.010000114717199242,0.01365438815836645,-0.007993241067258978,0.07023424796111136,0.06863336366532526,-0.07389604675653734,0.06282420452437308,0.09081746455899342,-0.1250603619230439,-0.10021899947364493,-0.10200536213389362,-0.004632300342670601
258,13.09853129996918,0.010327568959861966,0.01397469706775342,-0.008338405937752539,0.07052546124384525,0.06905480002458797,-0.07447795700033105,0.062353970382153394,0.09033703499325337,-0.12507695012966366,-0.10191377607726587,-0.1045138139596208,-0.0024936643431644418
259,13.10311200004071,0.01065637302163803,0.014296961566299327,-0.008686278403237659,0.0708144683546588,0.06947397396927947,-0.075059921274602,0.06187586954424195,0.08984493553004563,-0.12508356613759028,-0.10360038981929767,-0.10702156079242213,-0.00034576722648513005
260,13.10786830005236,0.010986516552866447,0.014621171001501464,-0.009036858607160327,0.07110123278105478,0.0698908312112469,-0.07564189308212131,0.06138994100945726,0.08934117070842167,-0.12508016758630672,-0.10527840328581899,-0.10952805726757314,0.0018110775203461064
261,13.112129700020889,0.01131798903442908,0.01494731446832325,-0.009390146476173448,0.07138571819671466,0.07030531748935892,-0.07622382573196239,0.06089622580684769,0.08882574762424282,-0.12506671357623517,-0.10694738064160648,-0.11203274970678848,0.003976554862698106
262,13.115951200015845,0.01165077977863882,0.015275380809347618,-0.009746141719251434,0.0716678884709275,0.07071737858149157,-0.07680567234631484,0.06039476699079523,0.08829867596868526,-0.1250431646783402,-0.1086068868411049,-0.11453507608536363,0.00615034738475286
263,13.119445199961774,0.011984877930171589,0.015605358614986603,-0.01010484382683661,0.07194770767800733,0.07112696031669252,-0.07738738586735433,0.05988560963856366,0.08775996806740075,-0.1250094829466832,-0.11025648757201086,-0.1170344658975486,0.008332134971843815
264,13.123764700023456,0.012320272467042148,0.01593723622374792,-0.01046625207001773,0.07222514010669921,0.07153400858753128,-0.07796891906417334,0.05936880084592725,0.08720963892027422,-0.12496563193098147,-0.11189574979187282,-0.1195303402297871,0.010521594859976002
265,13.12870500003919,0.012656952201623628,0.01627100172255947,-0.010830365499740875,0.07250015026955596,0.07193846936263347,-0.0785502245397679,0.05884438971972577,0.08664770623990313,-0.12491157668870177,-0.11352424255894554,-0.1220221120974636,0.012718401752992655
266,13.132360800052991,0.012994905781710591,0.016606642947152563,-0.011197182946052984,0.07277270291227494,0.07234028869938906,-0.07913125473808086,0.058312427365761844,0.08607419048822147,-0.12484728379652926,-0.11514153839051339,-0.12450918684476892,0.01492222819408356
267,13.140331799979322,0.01333412169162544,0.016944147482504664,-0.011566703017378291,0.07304276302296216,0.07273941275682745,-0.07971196195109534,0.05777296686871639,0.08548911491125824,-0.12477272135900405,-0.11674721497204854,-0.1269909625819402,0.017132745321963284
268,13.144493300002068,0.013674588253367686,0.017283502663342432,-0.01193892409982786,0.07331029584128214,0.07313578780864914,-0.08029229832595841,0.05722606326414183,0.08489250557169288,-0.12468785901295361,-0.11834085650142724,-0.12946683060886496,0.01934962364418248
269,13.148772199987434,0.014016293627805501,0.01762469557470573,-0.012313844356542312,0.07357526686746144,0.07352936025640373,-0.08087221587211574,0.05667177350586918,0.08428439137967195,-0.12459266792893353,-0.11992205402983556,-0.13193617566333646,0.021572533297098143
270,13.153000400052406,0.014359225815908766,0.01796771305257328,-0.012691461727067753,0.07383764187113524,0.07392007664280839,-0.08145166646844869,0.056110156434829105,0.08366480412305449,-0.12448712081324083,-0.1214904048238742,-0.13439837617044703,0.023801143654010745
271,13.157191999955105,0.01470337266002294,0.01831254168455061,-0.013071773926764906,0.07409738690006072,0.07430788366520726,-0.08203060187042771,0.05554127275239477,0.08303377849590805,-0.12437119191300108,-0.12304551150008282,-0.136852804651763,0.02603512283647585
272,13.16102180001326,0.015048721845183192,0.018659167810620953,-0.01345477844625161,0.0743544682887156,0.07469272818915508,-0.08260897371729678,0.05496518499725634,0.08239135212494655,-0.12424485702272911,-0.12458698146798933,-0.13929882801413834,0.02827413758609376
273,13.165446300059555,0.01539526090046828,0.0190075775239596,-0.0138404725508788,0.0746088526667963,0.07507455726212266,-0.08318673353928782,0.05438195752394648,0.0817375655953388,-0.12410809349060915,-0.12611442678986995,-0.14173580786786266,0.03051785333406645
274,13.16978520003613,0.015742977200393762,0.019357756671812314,-0.014228853280240143,0.07486050696761672,0.0754533181273206,-0.0837638327648636,0.053791656481019766,0.08107246247418595,-0.12396088022440829,-0.12762746431810323,-0.1441631010135688,0.03276593430457332
275,13.173687000060454,0.016091857966344027,0.019709690856438332,-0.014619917447715415,0.07510939843640328,0.07582895823762326,-0.08434022272798716,0.05319434978830009,0.08039608933179918,-0.12380319769679471,-0.1291257158418208,-0.1465800598030062,0.03501804364395246
276,13.178561300039291,0.01644189026804269,0.020063365436118342,-0.015013661640047771,0.07535549463848204,0.07620142526959045,-0.08491585467541422,0.052590107113695446,0.07970849576182004,-0.12363502795004902,-0.13060880820807308,-0.14898603257114593,0.03727384352375868
277,13.182051799958572,0.016793061025060813,0.020418765526227955,-0.015410082216954994,0.07559876346735797,0.07657066713757864,-0.08549067977400644,0.05197899984931786,0.07900973439847735,-0.12345635460042356,-0.13207637350149862,-0.15138036429923196,0.0395329952162503
278,13.186441299971191,0.017145357008362477,0.020775876000377,-0.01580917531077481,0.07583917315267984,0.07693663200792325,-0.08606464911806437,0.051361101086626296,0.0782998609305376,-0.1232671628421513,-0.13352804906243548,-0.15376239725010168,0.0417951591984046
279,13.19053929997608,0.01749876484188712,0.021134681491614953,-0.01621093682614437,0.07607669226808822,0.07729926831317963,-0.08663771373667804,0.050736485592378054,0.07757893411265006,-0.12306743945083724,-0.13496347737728856,-0.1561314714565431,0.044059995232218846
280,13.195004599983804,0.017853271004168128,0.02149516639370276,-0.016615362439713968,0.07631128973895658,0.07765852476641094,-0.08720982460109147,0.05010522978479186,0.07684701577475288,-0.12285717278672008,-0.13638230613799776,-0.1584869250702132,0.04632716238778952
281,13.199223199975677,0.018208861829987218,0.02185731486245122,-0.01702244759989505,0.0765429348500175,0.07801435037551667,-0.0877809326320836,0.04946741170894585,0.07610417083017139,-0.12263635279784886,-0.13778418822937333,-0.1608280946874664,0.0485963190966817
282,13.204086899990216,0.01856552351206399,0.022221110817126126,-0.017432187526642613,0.07677159725287477,0.07836669445759586,-0.08835098870736234,0.04882311101305856,0.07535046728199235,-0.12240497102284806,-0.13916878171659422,-0.16315431590183122,0.05086712332262026
283,13.208064100006595,0.0189232421027802,0.022586537941920306,-0.01784457721127202,0.076997246973409,0.07871550665333493,-0.08891994366897127,0.04817240892400321,0.07458597622602124,-0.12216302059250586,-0.1405357504824561,-0.16546492427237466,0.05313923324698504
284,13.215787500026636,0.019282003515938246,0.022953579687492655,-0.01825961141631032,0.07721985441906179,0.07906073694139844,-0.08948774833069845,0.04751538821765893,0.07381077184814565,-0.12191049622616054,-0.1418847657167983,-0.16775925661951618,0.055412308640424866
285,13.220690399990415,0.019641793528553202,0.02332221927257408,-0.018677284675382003,0.07743939038596545,0.07940233565279234,-0.09005435348544948,0.04685213318056556,0.07302493141523465,-0.12164739422052552,-0.14321550781975478,-0.17003665234360626,0.057686012360467075
286,13.227671300061049,0.020002597782677652,0.023692439685640183,-0.01909759129312892,0.07765582606587043,0.07974025348517011,-0.09061970991255235,0.04618272956256457,0.0722285352602325,-0.12137371243214007,-0.14452766784485302,-0.1722964543666858,0.05996001147166362
287,13.231862399959937,0.020364401787258197,0.024064223686650333,-0.01952052534516403,0.07786913305283427,0.08007444151705727,-0.09118376838496718,0.04550726452502546,0.07142166676429465,-0.12108945025577111,-0.1458209478000178,-0.17453800918042092,0.062233977430868
288,13.236310499953106,0.020727190920022516,0.02443755380885271,-0.019946080678058396,0.07807928334966731,0.08040485122199127,-0.09174647967639012,0.04482582659068577,0.07060441234143541,-0.1207946086051399,-0.14709505973881257,-0.1767606659594534,0.06450758506261123
289,13.241018300061114,0.021090950429395863,0.024812412360654956,-0.02037425090936103,0.07828624937415486,0.08073143448260318,-0.0923077945682837,0.04413850560033371,0.06977686142891451,-0.12048918990085816,-0.1483497241035292,-0.17896377529508786,0.0667805111199921
290,13.246255600010045,0.021455665436446024,0.025188781427560245,-0.02080502942765133,0.07849000396509986,0.08105414360466812,-0.0928676638568685,0.04344539267806616,0.06893910648366808,-0.12017319806454614,-0.14958466826381545,-0.18114668812338183,0.06905243325989645
291,13.2506502000615,0.02182132093685604,0.02556664287416868,-0.02123840939262396,0.07869052038822176,0.08137293133115368,-0.09342603836009879,0.04274658020156977,0.06809124298266965,-0.11984663851630459,-0.15079962594529417,-0.18330875534512583,0.07132302959214692
292,13.254787900019435,0.022187901802924053,0.025945978346244094,-0.02167438373520621,0.0788877723419226,0.0816877508562738,-0.09398286892463063,0.04204216177269581,0.06723336942289734,-0.11950951817302803,-0.1519943373549006,-0.1854493279689797,0.0735919785581679
293,13.258721300051548,0.022555392785589694,0.026326769272846218,-0.022112945157707717,0.07908173396291211,0.08199855583953686,-0.09453810643278186,0.04133223218657498,0.06636558732036292,-0.11916184544700589,-0.15316854942914732,-0.18756775720217897,0.0758589589349988
294,13.263034100062214,0.022923778516486266,0.0267089968685282,-0.02255408613400258,0.07927237983168643,0.08230530041979044,-0.09509170180948714,0.040616887399882076,0.06548800120923493,-0.11880363024419838,-0.15432201621364816,-0.18966339472140112,0.0781236500029413
295,13.267839699983597,0.023293043510018104,0.027092642135599462,-0.022997798909743815,0.07945968497785785,0.08260793922926135,-0.09564360602924192,0.03989622449641922,0.06460071863834727,-0.11843488396127759,-0.15545449980200587,-0.19173559358520878,0.08038573205057249
296,13.271524999989197,0.023663172165462366,0.027477685866453876,-0.02344407550261007,0.07964362488531328,0.0829064274075679,-0.09619377012302995,0.03917034164664395,0.06370385016183182,-0.11805561947920415,-0.1565657722094125,-0.19378370993871502,0.08264488771785239
297,13.28312499995809,0.02403414876909439,0.027864108645962997,-0.023892907702584548,0.0798241754971674,0.0832007206156727,-0.09674214518520745,0.03843933805581809,0.06279750931976465,-0.11766585114777033,-0.15765561830822103,-0.1958071057672471,0.08490080427248535
298,13.287639199988917,0.024405957496335576,0.028251890853934078,-0.024344287072265786,0.08000131322043866,0.08349077504971486,-0.09728868238028685,0.037703313896219545,0.061881812603175025,-0.1172655947579945,-0.15872383856238,-0.1978051517200507,0.08715317583003235
299,13.291605500038711,0.024778582413922248,0.02864101266763202,-0.024798204947209697,0.08017501493037162,0.08377654745463722,-0.09783333294956402,0.03696237022984653,0.060956879408416334,-0.11685486750600557,-0.15977024955392954,-0.19977722818926,0.0894017041227466
300,13.298338899970986,0.02515200748209376,0.029031454064364182,-0.025254652436302018,0.08034525797439367,0.08405799513759395,-0.09837604821756597,0.0362166089357302,0.06002283199213498,-0.11643368795828318,-0.16079468222544294,-0.20172272504543776,0.09164609756068358
301,13.30292200006079,0.02552621655679819,0.029423194824127103,-0.025713620422160348,0.08051202017576105,0.0843350759811587,-0.09891677959835465,0.03546613264899339,0.05907979542810215,-0.11600207602427876,-0.1617969796746556,-0.20364104118496432,0.09388606976152114
302,13.30702409998048,0.025901193391914344,0.02981621453231421,-0.02617509956156526,0.08067527983694846,0.0846077484563306,-0.09945547860171984,0.03471104470868485,0.058127897566394415,-0.11556005293533614,-0.16277699520954472,-0.20553158363298646,0.09612133792040703
303,13.31154719996266,0.026276921641489016,0.030210492582483567,-0.02663908028591996,0.08083501574280966,0.0848759716353625,-0.09999209683928682,0.03395144911493598,0.05716726899857279,-0.11510764123248164,-0.16373459001362106,-0.2073937663609146,0.09835162100174495
304,13.31588470004499,0.026653384861988403,0.030606008179184952,-0.027105552801738236,0.08099120716356842,0.08513970520444294,-0.10052658603059567,0.03318745049852013,0.0561980430278668,-0.1146448647621706,-0.16466963102214038,-0.20922700952320625,0.10057663840124421
305,13.319502500002272,0.027030566514563172,0.031002740340845616,-0.027574507091160685,0.08114383385769587,0.08539890947624708,-0.10105889800916931,0.03241915409777178,0.05522035564145553,-0.11417174867652741,-0.1655819898263117,-0.21103073919514936,0.10279610907481804
306,13.324247800046578,0.027408449967326675,0.031400667902714154,-0.028045932912499124,0.08129287607468667,0.08565354540236056,-0.10158898472859508,0.03164666573834248,0.05423434548309167,-0.11368831943719789,-0.166471542146958,-0.21280438739898883,0.10500975113053006
307,13.32908229995519,0.027787018497645838,0.03179976951986186,-0.028519819800809414,0.08143831455774798,0.08590357458557576,-0.10211679826862861,0.030870091815017736,0.0532401538251394,-0.11319460481938638,-0.16733816754522352,-0.2145473925551025,0.10721728162200705
308,13.332897700020112,0.028166255294444397,0.03220002367024103,-0.028996157068492664,0.08158013054640643,0.08614895929205554,-0.10264229084131295,0.030089539274164894,0.0522379245370002,-0.11269063391763051,-0.16818174955656043,-0.21625920036526608,0.10941841629263403
309,13.337457500048911,0.02854614346051805,0.0326014086577995,-0.029474933805925,0.08171830577903377,0.08638966246333558,-0.10316541479713619,0.029305115594303273,0.05122780404893169,-0.11217643715221855,-0.16900217659531558,-0.21793926519549497,0.11161286992607879
310,13.34444929996971,0.028926666014861192,0.03300390261565063,-0.029956138882116057,0.08185282249527304,0.0866256477281515,-0.1036861226312103,0.02851692876013461,0.050209941307605685,-0.11165204627170246,-0.16979934351820036,-0.21958705232308273,0.11380035713435306
311,13.348555400036275,0.029307805895004643,0.0334074835092979,-0.030439760945396258,0.08198366343832254,0.08685687941402764,-0.10420436698945217,0.027725087228564677,0.0491844877190178,-0.11111749435198218,-0.17057315295745007,-0.2212020398608491,0.11598059292903597
312,13.352841799962334,0.029689545959363635,0.033812129139912724,-0.030925788424132815,0.08211081185704588,0.08708332255857297,-0.10472010067475386,0.02692969989032834,0.04815159708613984,-0.11057281579350325,-0.17132351566268408,-0.2227837190127769,0.1181532928948405
313,13.357311800005846,0.030071868989595178,0.03421781714766418,-0.03141420952747442,0.08223425150789883,0.08730494292048968,-0.10523327665313763,0.02613087603283007,0.047111425549450615,-0.11001804631872604,-0.17205035027283977,-0.2243315935558479,0.12031817299120198
314,13.36555500002578,0.030454757692963977,0.03462452501509923,-0.03190501224612452,0.08235396665669353,0.0875217069903157,-0.1057438480599026,0.025328725303891204,0.04606413152941,-0.1094532229711696,-0.17275358359841309,-0.22584517992610637,0.12247494943960496
315,13.369449499994516,0.03083819470471621,0.035032230070572434,-0.03239818435314322,0.08246994208018811,0.08773358200089802,-0.10625176820577088,0.02452335767196415,0.04500987566618893,-0.10887838411392939,-0.17343315119571973,-0.22732400766806884,0.12462333908675766
316,13.374063999974169,0.031222162590460234,0.03544090949172363,-0.03289371340477774,0.08258216306748062,0.0879405359375744,-0.10675699058302049,0.02371488338453599,0.04394882075796154,-0.10829356942534167,-0.17408899742715908,-0.22876761924415864,0.126763059593244
317,13.379847700009122,0.03160664384855335,0.03585054030900235,-0.03339158674132136,0.08269061542121156,0.08814253754807243,-0.10725946887159107,0.0229034129277819,0.04288113170240845,-0.10769881989574577,-0.1747210751462738,-0.23017556923333776,0.12889382904485072
318,13.38666750001721,0.03199162091249368,0.03626109940923768,-0.03389179148800074,0.08279528545858245,0.08833955635214694,-0.10775915694518673,0.02208905698789938,0.041806975442465845,-0.10709417782676522,-0.17532934569390515,-0.23154742402995124,0.13101536590673257
319,13.39028569997754,0.03237707615331643,0.03667256353925232,-0.034394314555891634,0.08289616001219849,0.08853156265097427,-0.10825600887737505,0.02127192641079743,0.04072652091063109,-0.10647968682849648,-0.1759137791608818,-0.23288276226684942,0.1331273892218329
320,13.394535599974915,0.032762991881993574,0.03708490930951983,-0.03489914264286294,0.08299322643071207,0.08871852753627137,-0.10874997894766375,0.020452132160986396,0.039639938970774544,-0.10585539181694374,-0.1764743537844283,-0.23418117432350954,0.13522961811868134
321,13.398705600062383,0.03314935035183614,0.0374981131978636,-0.03540626223454898,0.08308647257928288,0.08890042289914865,-0.10924102164757588,0.019629785286883736,0.038547402367022233,-0.1052213390157877,-0.17701105437283407,-0.235442260379027,0.1373217706143086
322,13.403525999980047,0.033536133760898174,0.037912151553196445,-0.03591565960535009,0.08317588683989857,0.08907722143875342,-0.10972909168674287,0.018804996894362727,0.03744908568368512,-0.1045775759649596,-0.17752387077275414,-0.2366656284328991,0.1394035621430896
323,13.407568500027992,0.03392332425438198,0.038327000599300005,-0.036427320819461595,0.08326145811158875,0.08924889667074987,-0.11021414399905957,0.017977878126320426,0.03634516531255889,-0.1039241515360995,-0.17801279684377969,-0.23785089315056826,0.14147470455648423
324,13.411202399991453,0.034310903927044105,0.038742636438643265,-0.036941231731931645,0.08334317581055548,0.08941542293565818,-0.11069613374892112,0.017148540145768255,0.03523581942359575,-0.10326111595043798,-0.17847782995085004,-0.23899767525967114,0.14353490579543254
325,13.415193299995735,0.034698854825601776,0.03915903505623953,-0.03745737798974825,0.08342102987022995,0.08957677540706169,-0.11117501633754436,0.016317094120123218,0.0341212279378223,-0.10258852079730285,-0.17891897082577415,-0.24010560122340482,0.1455838697887345
326,13.419345100061037,0.035087158951139424,0.039576172323541325,-0.03797574503295594,0.08349501074125683,0.08973293009969391,-0.11165074740937693,0.015483651205587059,0.033001572501050756,-0.1019064190529465,-0.1793362236539423,-0.24117430317224572,0.14762129633959092
327,13.423720099963248,0.035475798261514965,0.03999402400237263,-0.03849631809580244,0.08356510939140553,0.08988386387740109,-0.1121232828585939,0.014648322530630602,0.03187703645743214,-0.10121486510010838,-0.17972959612593192,-0.24220341893728742,0.14964688114290048
328,13.428422500030138,0.03586475467376551,0.04041256574889787,-0.03901908220791576,0.0836313173054009,0.0900295544609832,-0.11259257883568886,0.013811219179892711,0.030747804822857328,-0.10051391474668132,-0.18009909930816648,-0.2431925921714113,0.15166031609635205
329,13.431962099974044,0.03625401006651205,0.0408317731176271,-0.039544022195512216,0.08369362648468466,0.09016998043590888,-0.11305859175414427,0.012972452178868176,0.029614064257382725,-0.09980362524237929,-0.1804447477980616,-0.24414147258231947,0.15366128970416484
330,13.436423999955878,0.03664354628236297,0.04125162156545678,-0.040071122682635615,0.08375202944710362,0.09030512125989991,-0.11352127829717766,0.012132132476362998,0.028476003036462853,-0.09908405529364679,-0.1807665599131479,-0.2450497163619098,0.15564948751654753
331,13.440444400068372,0.03703334513031584,0.04167208645574558,-0.04060036809242801,0.08380651922650788,0.09043495727037848,-0.11398059542455065,0.011290370927422438,0.02733381101938058,-0.0983552650762373,-0.18106455749361342,-0.24591698673778103,0.15762459268120393
332,13.445703999954276,0.03742338838815713,0.042093143062424405,-0.04113174264843225,0.0838570893722801,0.09055946969175784,-0.11443650037943227,0.010447278277623701,0.026187679615347813,-0.09761731624499081,-0.18133876612540434,-0.24674295434458304,0.1595862865456477
333,13.45018040004652,0.0378136578048597,0.04251476657414006,-0.041665230375926635,0.08390373394878765,0.09067864064257414,-0.11488895069529896,0.009602965143927965,0.02503780174848021,-0.09687027194080752,-0.18158921558049818,-0.24752729781767357,0.16153424920901494
334,13.454081100062467,0.03820413510297738,0.04293693209843164,-0.04220081510329164,0.08394644753473365,0.0907924531424512,-0.11533790420286273,0.00875754199487621,0.023884371818373742,-0.09611419679529062,-0.18181593963515216,-0.24826970458422837,0.16346815998670278
335,13.45770510006696,0.03859480198103638,0.043359614665939,-0.04273848046340904,0.08398522522242481,0.09090089111886548,-0.11578331903701439,0.007911119133132496,0.022727585657717906,-0.09534915693339643,-0.18201897593206834,-0.24896987130415488,0.1653876978318958
336,13.461501099984162,0.038985640115923155,0.043782789234642114,-0.04327820989509327,0.08402006261696009,0.09100393941371643,-0.11622515364377638,0.007063806676962379,0.021567640488769472,-0.09457521997415475,-0.18219836630847414,-0.24962750470479808,0.16729254198241789
337,13.46549309999682,0.03937663116526818,0.04420643069413063,-0.0438199866445552,0.08405095583532614,0.09110158378968641,-0.11666336678725268,0.006215714539723314,0.020404734873198535,-0.09379245502729983,-0.1823541574928321,-0.25024232338898816,0.1691823730627848
338,13.474661899963394,0.03976775676982543,0.04463051386990248,-0.04436379376689821,0.08407790150539515,0.09119381093634439,-0.11709791755655034,0.0053669524048599974,0.01923906865173789,-0.09300093268373588,-0.182486402259613,-0.2508140601618972,0.17105687473726444
339,13.478776499978268,0.04015899855584682,0.04505501352769019,-0.044909614127646366,0.08410089676478762,0.09128060847594428,-0.1175287653726406,0.0045176296946493,0.018070842872377067,-0.09220072499678589,-0.1825951602816313,-0.2513424642588434,0.17291573506194746
340,13.483083800063469,0.04055033813745112,0.045479904377813435,-0.04545743040430431,0.08411993925957931,0.09136196496886043,-0.11795586999510597,0.0036678555372644003,0.01690025970928138,-0.09139190546007567,-0.1826804979744194,-0.2518273018897412,0.17475864604623825
341,13.48677640000824,0.04094175711898636,0.04590516107955597,-0.04600722508794825,0.08413502714285759,0.0914378699186315,-0.11837919152879557,0.002817738736967852,0.015727522385919717,-0.09057454899286317,-0.18274248740251958,-0.2522683543970739,0.17658530203376424
342,13.490866899956018,0.041333237097385275,0.046330758245565096,-0.046558980484847766,0.08414615907315104,0.09150831377668063,-0.11879869043043566,0.001967387751352967,0.014552835111124146,-0.08974873193298863,-0.18278120473941337,-0.25266541617762556,0.1783953982115177
343,13.495642299996687,0.04172475966451316,0.04675667044627249,-0.047112678718118306,0.08415333421277398,0.09157328794676438,-0.1192143275152194,0.0011169106758676546,0.01337640302155654,-0.08891453203607666,-0.18279672922445916,-0.2530182936682678,0.1801886294563637
344,13.499637800035998,0.04211630640950786,0.047182872214335106,-0.04766830172940433,0.08415655222611207,0.09163278478915746,-0.11962606396340998,0.000266415230761775,0.012198432127205717,-0.08807202847921998,-0.18278914274842464,-0.2533268051646886,0.18196468957741832
345,13.503723500063645,0.042507858921111676,0.04760933804909494,-0.04822583128059325,0.08415581327784541,0.09168679762459453,-0.12003386132696461,-0.0005839912505322868,0.011019129255540834,-0.08722130186723139,-0.1827585295109817,-0.253590781182651,0.18372327082545256
346,13.507643799996004,0.04289939878999485,0.04803604242105658,-0.048785248955560176,0.084151118031126,0.0917353207379353,-0.12043768153619584,-0.0014342018312651676,0.009838701993646925,-0.08636243424089259,-0.18270497581315176,-0.2538100643211192,0.18546406341016075
347,13.51250459998846,0.0432909076110705,0.04846295977638112,-0.049346536161943885,0.08414246764570903,0.09177834938156787,-0.12083748690647234,-0.002284109981058599,0.00865735863365194,-0.08549550908769814,-0.18262857007397423,-0.25398450934720285,0.1871867551206165
348,13.51728050003294,0.0436823669858007,0.04889006454139535,-0.04990967413295391,0.08412986377604019,0.09181587977856596,-0.12123324014498013,-0.003133609585926059,0.007475308114071852,-0.08462061135363604,-0.182529403373995,-0.25411398455768336,0.18889103170496582
349,13.524155499995686,0.04407375852449361,0.04931733112711505,-0.0504746439292094,0.08411330856929373,0.09184790912554652,-0.12162490435753306,-0.003982594963018151,0.006292759952568331,-0.0837378274503985,-0.1824075707982005,-0.2541983735705543,0.1905765778355984
350,13.52868780004792,0.04446506384859135,0.049744733933780774,-0.05104142644060961,0.08409280466332258,0.09187443559520124,-0.12201244305540111,-0.0048309608831396175,0.005109924170623088,-0.08284724525818138,-0.18226317265890649,-0.25423757671026775,0.19224307779704236
351,13.53278260002844,0.04485626459294801,0.050172247355404716,-0.05161000238823628,0.08406835518448683,0.09189545833845318,-0.12239582016214687,-0.005678602596874025,0.003927011213405462,-0.08194895412649392,-0.18209631447892957,-0.2542315107588287,0.1938902153218445
352,13.536365400068462,0.045247342408097316,0.050599845784326546,-0.052180352326287746,0.08403996374536075,0.0919109774862427,-0.12277500002046142,-0.006525415856944183,0.0027442318767628934,-0.08104304487848532,-0.18190710612178115,-0.25418010695830323,0.19551767255887967
353,13.540475900052115,0.04563827896250934,0.05102750361577688,-0.052752456644044945,0.08400763444235329,0.09192099415100469,-0.12314994739904109,-0.007371296936243056,0.001561797245675712,-0.08012960982135467,-0.1816956609382096,-0.25408330901268517,0.19712512929748058
354,13.544702099985445,0.046029055944835987,0.051455195252446906,-0.053326295567869504,0.08397137185324724,0.09192551042788176,-0.12352062749952017,-0.008216142642252523,0.00037991863984077095,-0.07920874275789719,-0.1814620950348708,-0.25394107220815343,0.1987122628460965
355,13.548819400020877,0.04641965506614482,0.0518828951090631,-0.05390184916323424,0.08393118103468554,0.09192452939569518,-0.12388700596345512,-0.009059850328269076,-0.0008011924396875195,-0.07828053899804326,-0.1812065271802481,-0.25375336318115554,0.20027874809288268
356,13.553112499997953,0.04681005806214117,0.05231057761696589,-0.05447909733678626,0.08388706751960606,0.09191805511766152,-0.12424904887936465,-0.009902317906947141,-0.0019813243627555153,-0.07734509536984088,-0.18092907924235938,-0.2535201596791192,0.2018242579805948
357,13.55709440005012,0.04720024669537806,0.05273821722869109,-0.055058019838442974,0.08383903731460184,0.0919060926418773,-0.12460672278981615,-0.010743443865597753,-0.003160265421242661,-0.0764025102265757,-0.18062987641346057,-0.2532414506098163,0.20334846438424095
358,13.561334699974395,0.04759020275745378,0.05316578842255302,-0.05563859626352111,0.08378709689721349,0.09188864800155985,-0.12495999469853199,-0.011583127281822807,-0.00433780388177916,-0.07545288344958663,-0.18030904733153405,-0.25291723612791117,0.20485103876420174
359,13.567726699984632,0.047979908071196606,0.05359326570722818,-0.05622080605489888,0.083731253213144,0.09186572821504141,-0.12530883207750215,-0.012421267839944215,-0.00551372803768365,-0.07449631644930846,-0.17996672425049953,-0.252547528014809,0.20633165290012276
360,13.572644000058062,0.04836934449283645,0.05402062362633836,-0.056804628505211174,0.08367151367339823,0.09183734128552667,-0.12565320287410028,-0.013257765848222013,-0.006687826265215465,-0.07353291216125842,-0.17960304353241346,-0.2521323513224241,0.20778998077701943
361,13.577714500017464,0.048758493914162974,0.054447836763032026,-0.05739004275907792,0.0836078861513375,0.09180349620056345,-0.12599307551815891,-0.01409252225986357,-0.007859887090808013,-0.07256277502952801,-0.17921814650942283,-0.25167174685469873,0.20922570133172322
362,13.582798499963246,0.049147338264669826,0.0548748797445625,-0.05797702781536515,0.08354037897962363,0.09176420293117463,-0.12632841892893193,-0.014925438698262398,-0.00902969927041224,-0.07158601097721326,-0.1788121801447336,-0.2511657733888373,0.21063850067315792
363,13.587041500024498,0.049535859513684326,0.0553017272468613,-0.05856556252947813,0.08346900094703859,0.09171947243059045,-0.12665920252189464,-0.015756417484157858,-0.010197051877399181,-0.0706027273692462,-0.17838529681848464,-0.2506145082683199,0.21202807285998945
364,13.590708500007167,0.04992403967248208,0.055728353999104474,-0.05915562561568569,0.08339376129517587,0.09166931663256257,-0.12698539621536037,-0.016585361658881463,-0.01136173438742158,-0.06961303297558886,-0.1779376531231315,-0.2500180460014677,0.2133941193076072
365,13.595016499981284,0.050311860796385915,0.056154734788270294,-0.059747195649474956,0.08331466971504382,0.09161374844930668,-0.12730697043693806,-0.017412175000307308,-0.01252353675327571,-0.06861703793958308,-0.17746940855272544,-0.24937649641749388,0.2147363476554727
366,13.59877709997818,0.05069930498684887,0.05658084446368645,-0.060340251069935735,0.0832317363436086,0.09155278176911992,-0.12762389612985434,-0.01823676203390177,-0.013682249472604553,-0.06761485375168401,-0.17698072468519765,-0.24868998383852806,0.21605447091638857
367,13.6030705999583,0.051086354393520945,0.05700665794156552,-0.06093477018217409,0.08314497176029466,0.0914864314536935,-0.12793614475916668,-0.019059028041064865,-0.0148376636550551,-0.06660659322572618,-0.17647176478712326,-0.24795864714180352,0.21734820741014374
368,13.607700600055978,0.051472991216299564,0.05743215020952722,-0.06153073115975455,0.08305438698345008,0.09141471333510526,-0.12824368831786465,-0.019878879066502177,-0.01598957109056018,-0.06559237047327456,-0.17594269387238307,-0.2471826398361076,0.21861728095070976
369,13.611721300054342,0.051859197707363414,0.05785729633110586,-0.06212811204717044,0.0829599934667785,0.09133764421249684,-0.1285464993328444,-0.020696221927112075,-0.017137764317207156,-0.06457230087814864,-0.1753936788670852,-0.24636213013069963,0.21986142062987427
370,13.616156400064938,0.05224495617318969,0.058282071450241654,-0.06272689076234171,0.08286180309572172,0.09125524184843471,-0.12884455087077284,-0.021510964220892284,-0.01828203669016107,-0.06354650107278685,-0.17482488840344967,-0.24549730110792464,0.22108036069895887
371,13.61979909997899,0.05263024897655429,0.05870645079575435,-0.0633270450991398,0.08275982818380875,0.09116752496494608,-0.1291378165438422,-0.022323014333909142,-0.019422182451139535,-0.06251508891387132,-0.174236492714353,-0.24458835049065725,0.2222738406717169
372,13.623923000064678,0.05301505853851511,0.05913040968579765,-0.06392855272993905,0.08265408146897359,0.09107451323923334,-0.1294262705154074,-0.02313228144822288,-0.020557996795171892,-0.061478183457734766,-0.17362866347080755,-0.2436354902114861,0.22344160534772883
373,13.629084900021551,0.05339936734037794,0.059553923532292934,-0.064531391208194,0.08254457610983049,0.09097622729908877,-0.12970988750551168,-0.023938675547344582,-0.021689275936065254,-0.06043590493576755,-0.17300157321443238,-0.2426389462747167,0.2245834050573013
374,13.632607899955474,0.05378315792564508,0.05997696784534103,-0.0651355379710422,0.08243132568194098,0.09087268871799989,-0.12998864279629527,-0.024742107418880454,-0.022815817171879547,-0.05938837472754576,-0.17235539514108564,-0.2415989587222348,0.22569899622819983
375,13.63812160002999,0.05416641290194657,0.06039951823761041,-0.0657409703419319,0.08231434417406454,0.09076392000995481,-0.1302625122372709,-0.025542488657975423,-0.02393741895007592,-0.058335715330964634,-0.17169030314397535,-0.24051578213339836,0.2267881427271354
376,13.64435630000662,0.05454911494295387,0.060821550428700584,-0.0663476655332739,0.08219364598439355,0.0906499446239414,-0.13053147225045447,-0.026339731670358565,-0.0250538809376434,-0.057278050322883745,-0.17100647230489976,-0.23938968707134917,0.22785061824880856
377,13.649534499971196,0.05493124679027605,0.06124304024947913,-0.06695560064911699,0.08206924591677564,0.09053078693810009,-0.13079549983527453,-0.02713374968035783,-0.026165004099705635,-0.056215504307029755,-0.17030408015143558,-0.23822096154647357,0.22888620840619828
378,13.653089000028558,0.055312791255338334,0.06166396364639069,-0.0675647526878455,0.08194115917687406,0.09040647225349156,-0.131054572573218,-0.027924456745643943,-0.02727059078326543,-0.055148202855190884,-0.1695833076301209,-0.23700991075964328,0.2298947108001212
379,13.65728719998151,0.05569373122124256,0.06208429668573599,-0.06817509854489794,0.08180940136825282,0.09027702678747035,-0.13130866863219257,-0.028711767774300845,-0.028370444793422274,-0.0540762724544724,-0.1688443392617578,-0.235756854835462,0.2308759329007346
380,13.661348800058477,0.056074049644609304,0.06250401555791918,-0.06878661501550518,0.08167398848837824,0.09014247766674321,-0.13155776677068154,-0.02949559854101474,-0.02946437145602415,-0.052999840468204266,-0.16808736264985524,-0.23446212664430618,0.23182969004988002
381,13.665755599969998,0.056453729557401106,0.06292309658166224,-0.06939927879744773,0.08153493692455345,0.0900028529201598,-0.13180184634174247,-0.03027586569957047,-0.030552177673618543,-0.051919035101785374,-0.1673125680158333,-0.23312607063232807,0.2327558047033114
382,13.669546099961735,0.05683275406872678,0.06334151620818529,-0.07001306649383113,0.0813922634498036,0.0898581814712504,-0.13204088729684427,-0.031052486794715492,-0.03163367197721713,-0.050833985370642445,-0.16652014803602577,-0.23174904219029333,0.23365410623933106
383,13.673710400005804,0.057211106366626366,0.0637592510253515,-0.07062795461587894,0.08124598521870004,0.08970849313053485,-0.13227487018956757,-0.03182538027313953,-0.03270866457637365,-0.04974482106785496,-0.1657102973243187,-0.23033140748241254,0.23452443137517406
384,13.678331200033426,0.057588769719836556,0.06417627776177585,-0.07124391958574255,0.0810961197631433,0.08955381858759437,-0.13250377617914066,-0.03259446549052438,-0.03377696740935582,-0.048651672728239496,-0.16488321166539405,-0.2288735431628158,0.2353666249398542
385,13.682149000000209,0.05796572747953642,0.06459257329089631,-0.07186093773932711,0.08094268498812172,0.0893941894029136,-0.1327275870338056,-0.03335966271538866,-0.03483839419058493,-0.04755467158878312,-0.1640390874300574,-0.22737583622040503,0.2361805401668216
386,13.686497000046074,0.05834196308107336,0.0650081146350066,-0.07247898532913262,0.08078569916745863,0.08922963799951096,-0.132946285133986,-0.034120893130697105,-0.03589276045936408,-0.04645394955000446,-0.16317812132504853,-0.22583868421926875,0.23696603835257857
387,13.69086710002739,0.058717460045669266,0.06542287896924955,-0.07309803852710933,0.08062518093955597,0.08906019765432727,-0.13315985347529352,-0.034878078835377226,-0.036939883629554866,-0.045349639139563774,-0.1623005104010524,-0.22426249507445836,0.23772298904292186
388,13.694537800038232,0.059092201982106865,0.06583684362556974,-0.07371807342752687,0.08046114930312741,0.08888590248939385,-0.13336827567135717,-0.03563114284600315,-0.037979583036219185,-0.04424187347189099,-0.16140645203635656,-0.22264768700181842,0.23845127058395876
389,13.69909730006475,0.05946617258839616,0.06624998609662465,-0.07433906604985592,0.08029362361292629,0.08870678746278716,-0.13357153595645407,-0.036380009098160214,-0.03901167998482908,-0.04313078620666842,-0.1604961440918319,-0.22099468930910215,0.23915077067537474
390,13.705559100024402,0.05983935565342105,0.06666228403965312,-0.07496099234166183,0.08012262357546604,0.08852288835933898,-0.13376961918795233,-0.03712460244957094,-0.040035997805270056,-0.0420165115033105,-0.15956978551292061,-0.21930394358488264,0.23982138791996147
391,13.71179009997286,0.06021173505856592,0.06707371528030005,-0.07558382818150904,0.07994816924471901,0.0883342417810885,-0.13396251084851835,-0.037864848687061296,-0.041052361912114095,-0.0408991839650277,-0.15862757718229528,-0.2175759055759972,0.2404630344405648
392,13.715406500035895,0.06058329477932224,0.06748425781639608,-0.07620754938187521,0.07977028101777209,0.08814088513743162,-0.13415019704803915,-0.03860067453762086,-0.04206059987609308,-0.039778938568954925,-0.15766972225755455,-0.21581104692619768,0.24107563832714635
393,13.720131800044328,0.06095401888687477,0.06789388982169056,-0.07683213169207358,0.07958897963042261,0.08794285663490808,-0.13433266452517956,-0.03933200767851146,-0.04306054150055041,-0.03865591058744482,-0.1566964255665105,-0.2140098552984407,0.24165914367140248
394,13.726212200010195,0.061323891549667116,0.0683025896495362,-0.07745755080118152,0.07940428615273991,0.08774019526663927,-0.13450990064857204,-0.04005877674270032,-0.04405201889405238,-0.037530235517874,-0.15570789242709157,-0.21217283321995722,0.24221350870406147
395,13.729927200009117,0.061692897034946674,0.06871033583652379,-0.07808378234097402,0.07921622198461067,0.08753294080143965,-0.1346818934177208,-0.04078091131798759,-0.045034866536092864,-0.036402049021269395,-0.15470432758969624,-0.21030049723776384,0.24273870474733542
396,13.7363509000279,0.06206101971028874,0.06911710710606551,-0.07871080188886062,0.07902480885130862,0.08732113377264326,-0.1348486314636205,-0.041498341942597786,-0.04600892134184648,-0.035271486861862114,-0.153685935244409,-0.2083933787461592,0.24323471673100244
397,13.741240400006063,0.06242824404510019,0.06952288237192569,-0.07933858497082466,0.07883006879908086,0.08710481546661254,-0.13501010404909786,-0.042211000104374466,-0.04697402273557337,-0.03413868484091152,-0.15265291982284288,-0.20645202520961592,0.2437015444999154
398,13.744705499964766,0.06279455461210255,0.06992764074169716,-0.07996710706436343,0.07863202419072507,0.08688402791088179,-0.13516630106881464,-0.04291881824383306,-0.04793001272675168,-0.03300377872409243,-0.15160548632494322,-0.20447699964573465,0.24413920236684433
399,13.748954799957572,0.06315993608879453,0.07033136152022171,-0.08059634360142737,0.07843069770114745,0.08665881386195756,-0.13531721304893352,-0.04362172975639653,-0.04887673597867111,-0.031866904179480036,-0.15054383969039503,-0.2024688782998302,0.2445477167013148
400,13.75349220004864,0.06352437325889372,0.07073402421295291,-0.08122626997135718,0.07822611231291912,0.08642921679282385,-0.13546283114654403,-0.044319668989598944,-0.04981403986292678,-0.030728196727373654,-0.14946818402353163,-0.2004282479758943,0.24492712365724534
401,13.757104099960998,0.06388785101375781,0.07113560852926032,-0.08185686152381766,0.07801829131186006,0.0861952808802354,-0.13560314714886154,-0.04501257123810875,-0.0507417745031767,-0.029587791699426592,-0.14837872236847843,-0.19835570462426383,0.24527746722402013
402,13.76155070005916,0.06425035435378519,0.07153609438567404,-0.08248809357172734,0.0778072582826418,0.08595705099181569,-0.13573815347227286,-0.04570037273883999,-0.05165979281649347,-0.028445824206605158,-0.1472756568059555,-0.19625185278931478,0.24559879878092597
403,13.766058700042777,0.06461186838979523,0.07193546190906888,-0.08311994139418348,0.07759303710441694,0.0857145726729655,-0.13586784316123707,-0.04638301066687633,-0.05256795055198242,-0.02730242910246464,-0.1461591891414907,-0.19411730519660006,0.24589117809630048
404,13.770936500048265,0.06497237834438822,0.0723336914397871,-0.08375238023938143,0.07737565194645968,0.08546789213360154,-0.13599220988698943,-0.04706042313698629,-0.053466106328291525,-0.026157740941810958,-0.1450295224796317,-0.19195268380440264,0.24615467516747488
405,13.782158500049263,0.06533186955328511,0.07273076353469915,-0.0843853853275276,0.07715512726378125,0.0852170562347159,-0.13611124794605753,-0.04773254921419574,-0.05435412168201449,-0.025011893926855485,-0.1438868639040439,-0.18975862278290676,0.24638937487352178
406,13.786399199976586,0.06569032746664663,0.07312665897020137,-0.085018931853745,0.07693148779267213,0.08496211247466437,-0.13622495225846415,-0.048399328940242174,-0.05523186113292271,-0.02386502182258164,-0.14273142732028646,-0.18753577085627962,0.24659538152382435
407,13.790781900053844,0.06604773765037152,0.07352135874514915,-0.08565299499096948,0.07670475854607123,0.08470310897511887,-0.13633331836545587,-0.04906070337059998,-0.05609919225416199,-0.022717257860574047,-0.14156343397012944,-0.18528479068224638,0.2467728182871832
408,13.794667200068943,0.0664040857873726,0.07391484408372385,-0.08628754989283419,0.07647496480876362,0.08444009446670253,-0.13643634242681105,-0.04971661460572057,-0.056955985731711324,-0.021568734659697452,-0.14038311077897087,-0.18300635566713475,0.24692182310996114
409,13.800606100005098,0.06675935767883032,0.07430709643823237,-0.08692257169654066,0.07624213213245902,0.08417311827438886,-0.13653402121783031,-0.05036700581267993,-0.057802115404942754,-0.020419584167908632,-0.13919068863481984,-0.1807011462965689,0.24704254472142034
410,13.80495699995663,0.067113539245423,0.07469809749183817,-0.08755803552571535,0.07600628633078808,0.08390223030275942,-0.1366263521261031,-0.05101182124040424,-0.05863745829193624,-0.019269937620106713,-0.13798640128416792,-0.1783698480329908,0.24713514020461438
411,13.80920929997228,0.06746661652853383,0.07508782916122363,-0.08819391649325063,0.0757674534742392,0.08362748102116743,-0.13671333314810594,-0.05165100623104318,-0.05946189461047543,-0.01811992550254859,-0.1367704849026157,-0.1760131510760549,0.24719977439343602
412,13.814024399966002,0.06781857569143403,0.07547627359918306,-0.08883018970412962,0.07552565988504896,0.08334892144880005,-0.1367949628856378,-0.05228450723120014,-0.0602753078011329,-0.016969677516309876,-0.1355431786624027,-0.173631750895859,0.24723662054256343
413,13.81944009999279,0.06816940302044222,0.07586341319714604,-0.08946683025823406,0.07528093213203445,0.08306660313962717,-0.13687124054207847,-0.05291227180858656,-0.06107758455322782,-0.015819322535466283,-0.13430472523165926,-0.1712263492660694,0.2472458621911225
414,13.824179399991408,0.06851908492605958,0.07624923058763039,-0.0901038132531343,0.07503329702532874,0.0827805781672222,-0.13694216591843472,-0.05353424866789777,-0.061868614837524684,-0.0146689885532127,-0.13305537055210967,-0.16879765540154446,0.24722769524624547
415,13.82801830000244,0.06886760794408023,0.07663370864662422,-0.0907411137868604,0.07478278161106547,0.08249089910940655,-0.13700773940909727,-0.05415038766539881,-0.06264829194277684,-0.013518802620656514,-0.13179536369963157,-0.16634638576856647,0.24718232741057516
416,13.832645699963903,0.06921495873667684,0.07701683049589607,-0.09137870696065262,0.0745294131659786,0.08219761903273032,-0.1370679619973175,-0.05476063982350275,-0.06341651250665942,-0.012368890798263895,-0.1305249558514509,-0.16387326251705014,0.24710997570603366
417,13.837001699954271,0.06956112409346084,0.0773985795052325,-0.09201656788169044,0.07427321919195132,0.08190079147682905,-0.1371228352505125,-0.055364957335746,-0.06417317653772413,-0.011219378117695121,-0.12924439880553493,-0.16137901206852687,0.24701086457906554
418,13.840520599973388,0.0699060909325173,0.07777893929460271,-0.09265467166579935,0.07401422741056954,0.08160047043870006,-0.13717236131538674,-0.055963293567589154,-0.064918187433193,-0.01007038855088209,-0.1279539445829517,-0.15886436473709378,0.24688522426231968
419,13.847384599968793,0.07024984630141444,0.07815789373624978,-0.0932929934401345,0.07375246575766334,0.08129671035689359,-0.13721654291294935,-0.05655560305769214,-0.06565145199738599,-0.008922044987108621,-0.1266538455663473,-0.15633005498762115,0.2467332909147279
420,13.8531397000188,0.0705923773781877,0.07853542695670818,-0.0939315083458411,0.07348796237784856,0.08098956609561773,-0.1372553833334225,-0.05714184152000367,-0.06637288046191746,-0.0077744692007845045,-0.12534435506907812,-0.1537768221771784,0.24655530828931485
421,13.857856199960224,0.07093367147229848,0.07891152333874715,-0.09457019154069068,0.07322074561904886,0.0806790929287416,-0.1372888864309588,-0.0577219658503323,-0.0670823865110229,-0.006627781813006387,-0.12402572762738866,-0.15120541136360646,0.24635152847558606
422,13.861365900025705,0.07127371602556726,0.07928616752323933,-0.09520901820169239,0.07295084402697612,0.08036534652366459,-0.13731705661819202,-0.05829593413115466,-0.0677798873092794,-0.0054821022524236965,-0.12269821831139487,-0.14861657299588282,0.2461222117120066
423,13.865657499991356,0.07161249861308092,0.07965934441095401,-0.09584796352767849,0.07267828633960777,0.0800483829250616,-0.13733989886059036,-0.05886370563177504,-0.0684653035240512,-0.004337548718544467,-0.1213620818979122,-0.14601106141554981,0.24586762474608076
424,13.869688999955542,0.07195000694407451,0.08003103916427454,-0.09648700274186314,0.07240310148166573,0.07972825853854344,-0.13735741867066567,-0.059425240805436576,-0.06913855933926544,-0.0031942381578611606,-0.12001757178588426,-0.14338963351314643,0.24558803851102298
425,13.873860000050628,0.07228622886278721,0.08040123720883952,-0.09712611109437401,0.0721253185591206,0.0794050301142739,-0.13736962210210457,-0.059980501279388594,-0.06979958246535552,-0.0020522862487756927,-0.11866493918763686,-0.14075304807444827,0.24528372690222772
426,13.878097899956629,0.07262115234929292,0.08076992423510776,-0.09776526386475642,0.07184496685376303,0.07907875473053755,-0.1373765157438374,-0.0605294498444722,-0.07044830414695345,-0.0009118073891105264,-0.11730443336881069,-0.1381020648837333,0.24495496651954937
427,13.882191500044428,0.07295476552030572,0.08113708619984661,-0.09840443636444982,0.07156207581780478,0.07874948977728528,-0.1373781067140532,-0.061072050447420256,-0.07108465916448882,0.00022708531656814385,-0.11593630213030481,-0.13543744429361856,0.24460203661665542
428,13.88905550003983,0.07328705662996023,0.08150270932754373,-0.09904360393923617,0.07127667506852182,0.07841729293968726,-0.13737440265415057,-0.0616082681849276,-0.07170858583787837,0.0013642800689680186,-0.11456079239552149,-0.13275994827579995,0.24422521961422344
429,13.894299900042824,0.0736180140705672,0.08186678011174243,-0.09968274197166017,0.07098879438291053,0.07808222218164405,-0.13736541172264088,-0.06213806930141549,-0.07232002603790237,0.0024996663915229445,-0.11317815070865304,-0.13007034121377248,0.2438248031697166
430,13.899397499975748,0.07394762637334419,0.0822292853163,-0.10032182588342095,0.07069846369235155,0.07774433572923378,-0.1373511425889368,-0.06266142118773849,-0.07291892519727071,0.0036331351616703546,-0.11178862383714998,-0.12736938995396263,0.24340108174550246
431,13.902971100062132,0.07427588220912147,0.08259021197656898,-0.1009608311377344,0.07040571307727811,0.07740369205412027,-0.13733160442696435,-0.06317829238455507,-0.07350523232247502,0.004764578642895286,-0.11039245934198469,-0.12465786396006784,0.24295435627804748
432,13.907552300021052,0.07460277038902308,0.08294954740050114,-0.10159973324166546,0.07011057276180845,0.07706034985688989,-0.13730680690865332,-0.06368865258634095,-0.07407890000629097,0.0058938905129295865,-0.10898990548981158,-0.12193653460832982,0.24248493395738085
433,13.91613949998282,0.0749282798651228,0.08330727916967373,-0.10223850774842995,0.0698130731083768,0.07671436805034339,-0.13727676019728693,-0.0641924726439423,-0.0746398844330727,0.007020965893743784,-0.10758121147623262,-0.11920617441181158,0.24199312851847218
434,13.919994199997744,0.07525239973107524,0.0836633951402379,-0.10287713025966488,0.0695132446123421,0.07636580574278344,-0.13724147494071312,-0.06468972457066667,-0.07518814538403683,0.008145701382457642,-0.10616662782455794,-0.11646755724430441,0.24147926048196183
435,13.925474700052291,0.07557511922272168,0.08401788344378948,-0.10351557642766714,0.06921111789656224,0.07601472222125735,-0.1372009622644066,-0.06518038154854672,-0.07572364624464037,0.009267995083572084,-0.1047464064191406,-0.11372145801272307,0.24094365698395157
436,13.93028770003002,0.07589642771867064,0.08437073248816147,-0.10415382195759926,0.06890672370594454,0.07566117693477593,-0.13715523376438019,-0.06566441793474134,-0.0762463540068163,0.010387746638295912,-0.10332080052044715,-0.11096865186470915,0.24038665192826378
437,13.940479199984113,0.07621631474085297,0.08472193095813867,-0.10479184260966212,0.0686000929019604,0.07530522947753539,-0.13710430149997405,-0.06614180926793968,-0.07675623926897805,0.011504857258194542,-0.10189006490561213,-0.10820991420723469,0.23980858784722003
438,13.944813600042837,0.07653476995505144,0.08507146781609404,-0.10542961420123367,0.06829125645713616,0.07494693957213616,-0.13704817798645386,-0.0666125322760701,-0.07725327623842813,0.01261922977183176,-0.10045445610933655,-0.10544602123949981,0.23920981786787984
439,13.94926869997289,0.07685178317140458,0.08541933230254715,-0.10606711260897268,0.06798024544949609,0.07458636705278242,-0.136986876187366,-0.06707656488494583,-0.07773744273632141,0.013730768676714845,-0.09901423199162165,-0.1026777495903981,0.2385907049690121
440,13.952959400019608,0.07716734434488448,0.08576551393664429,-0.10670431377088636,0.06766709105697276,0.0742235718484547,-0.1369204095066524,-0.06753388622195161,-0.07820872019670023,0.014839380179022236,-0.09756965077420694,-0.0999058747526461,0.23795161815600077
441,13.95818670000881,0.07748144357574868,0.08611000251656023,-0.10734119368836076,0.06735182455181571,0.07385861396611837,-0.1368487917806361,-0.06798447661572311,-0.07866709365688689,0.01594497220995513,-0.09612096999013912,-0.09713116980780102,0.23729292910599328
