,time,x,y,z,vx,vy,vz,ax,ay,az,jx,jy,jz
0,8.998934399991413,-0.017684710237210466,-0.04475461727805245,-0.01294369841197394,0.0027927664000331797,0.003917844019461219,0.0009544911454673872,0.03787552859916995,0.02861993099588344,-0.021013175267654487,0.09984764005619311,0.07465101806341687,-0.06227192725992224
1,9.002976899995701,-0.01767310629722349,-0.04473853909983334,-0.012940010185702398,0.0029467552385716487,0.004034196282865281,0.0008690025901980985,0.03827982450844076,0.028922125678155986,-0.021265795160446476,0.1000933014834455,0.07479413320886909,-0.0626602108214136
2,9.006463199999416,-0.017660876305213274,-0.04472198791046516,-0.012936669749270957,0.0031023810983482197,0.004151771821677173,0.0007824892400882429,0.038685102774080805,0.02922488055577739,-0.02151998329300348,0.10033340590342879,0.07492799008953734,-0.06304745111789128
3,9.009888499989756,-0.017648013632872023,-0.04470495875832059,-0.01293368125987487,0.003259647906667405,0.004270572825672443,0.000694944761548994,0.03909134069480313,0.02952815789864877,-0.02177573526095801,0.10056784012260464,0.07505244569724959,-0.06343355535793553
4,9.014262899989262,-0.01763451163619517,-0.04468744668322517,-0.012931048900287045,0.0034185594981024593,0.004390601330876545,0.0006063628395629988,0.03949851511020292,0.029831919397536866,-0.0220330462800312,0.10079649018686357,0.0751673568008384,-0.06381842869449715
5,9.017900799997731,-0.017620363655860147,-0.0446694467170838,-0.012928776878779828,0.0035791196126320167,0.004511859217212465,0.000516737179237613,0.03990660239731013,0.030136126163861136,-0.022291911178714104,0.10101924130929103,0.07527258048384679,-0.06420197457899307
6,9.0219342999917,-0.017605563017612708,-0.04465095388451683,-0.012926869429040448,0.003741331893762136,0.00463434820616722,0.00042606150738365835,0.04031557846730096,0.0304407387324521,-0.02255232439182405,0.10123597800794513,0.07536797407901441,-0.064584094905553
7,9.02615719998721,-0.01759010303266089,-0.04463196320350544,-0.012925330810080031,0.0039051998866363384,0.0047580698584617975,0.0003343295741207749,0.04072541876316485,0.030745717060808544,-0.022814279954352652,0.10144658425012772,0.07545339503710874,-0.06496469021100196
8,9.030231899989303,-0.01757397699807664,-0.04461246968604657,-0.01292416530613606,0.004070727036138784,0.004883025571711642,0.0002415351545059376,0.04113609825758288,0.031051020530794952,-0.02307777149663965,0.1016509433867513,0.07552870125478163,-0.0653436599404274
9,9.03451800000039,-0.0175571781972051,-0.04459246833881721,-0.012923377226568217,0.004237916684987151,0.005009216578110325,0.00014767205017784292,0.041547591450063884,0.031356607950550466,-0.02334279224036888,0.10184893819829698,0.07559375087782964,-0.06572090252913693
10,9.038547499993,-0.017539699900081657,-0.04457195416384807,-0.01292297090574754,0.004406772071812644,0.005136643942105475,5.273409101781103e-05,0.04195987236519457,0.031662437554595066,-0.02360933499440501,0.10204045115048606,0.07564840228811659,-0.0660963154682292
11,9.04277829999046,-0.017521535363856776,-0.04455092215920669,-0.012922950702938836,0.004577296329238725,0.005265308558083303,-4.328486317215437e-05,0.04237291455184357,0.031968467005632745,-0.023877392151319857,0.10222536439426981,0.07569251435270283,-0.06646979544229513
12,9.04704109999875,-0.017502677833228574,-0.04452936731968981,-0.012923321002176266,0.004749492481954681,0.0053952111480591175,-0.00014039092098036785,0.04278669108141146,0.032274653396672695,-0.024146955684342882,0.10240355968071933,0.0757259466337061,-0.06684123837203053
13,9.051015399993048,-0.017483120540883235,-0.04450728463752516,-0.012924086212132091,0.004923363444780201,0.005526352259379005,-0.00023859015768273756,0.04320117454634644,0.032580953254529886,-0.024418017144232158,0.1025749185707059,0.07574855951943775,-0.06721053950276093
14,9.054431399999883,-0.017462856707943248,-0.04448466910308244,-0.01292525076597849,0.005098912020726942,0.005658732262438662,-0.00033788861352845894,0.043616337060090285,0.0328873225430069,-0.024690567656940873,0.10273932269716039,0.07576021401457267,-0.06757759359459478
15,9.05793189999531,-0.01744187954442349,-0.044461515705593556,-0.01292681912124244,0.005276140899062659,0.005792351348410807,-0.000438292292018416,0.0440321502577152,0.033193716664697365,-0.0249645979220263,0.10289665389636009,0.07576077177946454,-0.0679422951060204
16,9.061274199993932,-0.017420182249695125,-0.04443781943388196,-0.012928795759653609,0.005455052653377933,0.005927209526978603,-0.0005398071581780067,0.0444485852969317,0.03350009046448578,-0.025240098211801267,0.10304679418161328,0.07575009557600185,-0.06830453833815522
17,9.064608599990606,-0.01739775801295733,-0.044413575277101235,-0.012931185186985264,0.005635649739658449,0.006063306624091375,-0.000642439136828681,0.04486561285851258,0.03380639823495712,-0.025517058370909833,0.103189625421958,0.07572804920215324,-0.0686642174314652
18,9.068144599994412,-0.017374600013716775,-0.044388778225482595,-0.012933991932888184,0.005817934494355149,0.006200642279741782,-0.000746194110857334,0.04528320314470205,0.03411259371936724,-0.025795467815452236,0.10332502906022396,0.07569449738699532,-0.06902122608710728
19,9.072188099991765,-0.017350701422274965,-0.044363423271091426,-0.012937220550717577,0.00600190913244365,0.006339215945745567,-0.000851077919480767,0.04570132587735936,0.034418630116203476,-0.02607531553030673,0.10345288613270681,0.07564930614470518,-0.06937545714071212
20,9.076332499986163,-0.017326055400223417,-0.04433750540859277,-0.012940875617352948,0.006187575745479378,0.006479026883555614,-0.0009570963564934189,0.04611995029652704,0.03472446008501817,-0.0263565900648072,0.10357307738722175,0.0755923426172783,-0.06972680237878061
21,9.080404099993755,-0.017300655100946725,-0.044311019636025524,-0.012944961733010844,0.0063749362996454026,0.006620074162088876,-0.0010642551684968665,0.04653904515952937,0.03503003574971716,-0.02663927952857998,0.10368548351910598,0.07552347490404256,-0.07007515272557995
22,9.08454179999535,-0.017274493670133534,-0.04428396095558551,-0.012949483521050409,0.006563992633800286,0.006762356655567035,-0.0011725600531138837,0.046958578741449465,0.035335308703014386,-0.02692337158873312,0.10378998521055621,0.07544257202236351,-0.07042039849556597
23,9.097084599998198,-0.01724756424629539,-0.04425632437441714,-0.012954445627771675,0.006754746457529774,0.0069058730413794605,-0.0012820166571952082,0.047378518834545906,0.03564023000940255,-0.027208853467734846,0.10388646264546084,0.07534950376328589,-0.07076242939011758
24,9.10166699999536,-0.017219859961293476,-0.044228104905413776,-0.012959852722206617,0.006947199349189925,0.00705062179794789,-0.0013926305750164409,0.04779883274480569,0.03594475020844014,-0.027495711940576414,0.10397479514220166,0.07524414099312539,-0.07110113429427953
25,9.109102899994468,-0.017191373940873285,-0.044199297568026645,-0.012965709495902861,0.0071413527539309195,0.007196601202615981,-0.0015044073464618652,0.04821948728839089,0.03624881932016138,-0.02778393333100659,0.10405486142904705,0.07512635600774858,-0.07143640110296702
26,9.113651599996956,-0.017162099305207342,-0.04416989738908229,-0.012972020662700048,0.007337207981711453,0.0073438093295577446,-0.0016173524551908907,0.04864044879041906,0.03655238685122878,-0.028073503507288804,0.10412653994568967,0.07499602310943099,-0.07176811668165527
27,9.11808879999444,-0.01713202916944594,-0.04413989940360839,-0.012978790958498715,0.007534766205312679,0.007492244047716861,-0.0017314713267875548,0.049061683083848756,0.036855401805008826,-0.028364407878117684,0.10418970879743099,0.07485301896092846,-0.0720961669778529
28,9.122397899991483,-0.01710115664427592,-0.0441092986556679,-0.012986025141021684,0.0077340284583435875,0.007641903018796609,-0.0018467693268939388,0.04948315550788939,0.0371578126905883,-0.02865663138927783,0.10424424596507519,0.07469722220524232,-0.07242043731613085
29,9.12620379999862,-0.017069474836487544,-0.0440780901992011,-0.012993727989567853,0.007934995633242087,0.007792783695272102,-0.0019632517593326454,0.04990483090858444,0.03745956752977457,-0.0289501585219466,0.10429002961945733,0.07452851343936996,-0.07274081265388535
30,9.130313299989211,-0.01703697684954944,-0.04404626909887581,-0.013001904304758399,0.0081376684792851,0.007944883318436844,-0.002080923864226487,0.05032667363976523,0.037760613865899614,-0.029244973291421544,0.104326938003569,0.0743467755290115,-0.07305717759114938
31,9.13439279999875,-0.017003655784191572,-0.044013830430945276,-0.013010558908275356,0.00834204760059736,0.008098198916486173,-0.00219979081611067,0.050748647562680764,0.0380608987733657,-0.02954105924550254,0.10435484943921058,0.07415189366098254,-0.07336941640664987
32,9.138714699991397,-0.01696950473899629,-0.04398076928411385,-0.013019696642592553,0.00854813345415851,0.008252727302641016,-0.0023198577220393986,0.05117071604700532,0.03836036886687334,-0.029838399463510877,0.1043736425365411,0.07394375502868947,-0.0736774131660379
33,9.14272859999619,-0.01693451681099742,-0.04394708076041008,-0.013029322370698876,0.008755926347820056,0.008408465073305981,-0.0024411296196901245,0.05159284197216316,0.038658970308423045,-0.030136976555546775,0.10438319623359413,0.07372224866146744,-0.07398105179396422
34,9.146117699987371,-0.016898685096287343,-0.04391275997606726,-0.013039440975813872,0.008965426438323173,0.008565408606249741,-0.0025636114754641454,0.05201498772865573,0.038956648815162906,-0.03043677266209142,0.10438338995369198,0.07348726554246332,-0.07428021621181005
35,9.14988139999332,-0.016862002690632132,-0.043877802062411236,-0.013050057361095652,0.009176633729326394,0.008723554058826593,-0.002687308182587636,0.052437115220659566,0.039253349667343826,-0.03073776945437849,0.1043741036511617,0.073238698346685,-0.07457479036065287
36,9.154919199994763,-0.016824462690094584,-0.043842202166755384,-0.013061176449341133,0.009389548069444434,0.008882897366221188,-0.002812224559215252,0.05285918586772326,0.0395490177140484,-0.031039948134181938,0.104355217588649,0.07297644145403381,-0.07486465807334038
37,9.15922679999494,-0.0167860581916652,-0.04380595545330258,-0.0130728031826786,0.009604169150289598,0.00904343423971643,-0.0029383653465294437,0.05328116060556423,0.039843597381251546,-0.031343289433152816,0.10432661212714879,0.07270039160475676,-0.07514970299255991
38,9.16336279999814,-0.01674678229390108,-0.04376905710405416,-0.013084942522252582,0.009820496504517051,0.009205160165003402,-0.003065735206838696,0.053702999886067436,0.0401370326828508,-0.0316477736119444,0.10428816748319099,0.07241044800458701,-0.0754298084266492
39,9.1676138999901,-0.016706628097572698,-0.043731502319725626,-0.013097599447901025,0.01003852950386622,0.009368070400538473,-0.003194338721669767,0.05412466367611819,0.040429267229577355,-0.031953380458382794,0.10423976357838222,0.07210651194448738,-0.07570485731671514
40,9.171832299995003,-0.016665588706318648,-0.04369328632066885,-0.01311077895782474,0.01025826735719662,0.009532159975925304,-0.0033241803898511313,0.054546111456383946,0.04072024423695078,-0.03226008928632607,0.10418128013120746,0.07178848707581956,-0.07597473248252609
41,9.17596069999854,-0.016623657227308308,-0.04365440434780086,-0.013124486068249078,0.010479709108519397,0.009697423690336295,-0.0034552646255959904,0.05496730222088963,0.04100990653641566,-0.03256787893582373,0.10411259676813896,0.07145627959405315,-0.07623931680294153
42,9.180301599990344,-0.016580826771912492,-0.04361485166353884,-0.013138725813077868,0.01070285363502973,0.009863856110984663,-0.003587595756587005,0.05538819447669808,0.0412981965847822,-0.03287672777343519,0.10403359299766915,0.07110979798966718,-0.07649849328137835
43,9.18432380000013,-0.016537090456382044,-0.043574623552741255,-0.013153503243539604,0.010927699645135788,0.010031451571622248,-0.003721178022061884,0.05580874624327538,0.04158505647334809,-0.033186613692918726,0.10394414821034673,0.0707489532973532,-0.07675214514412391
44,9.18855709998752,-0.016492441402534426,-0.04353371532365502,-0.013168823427825898,0.011154245676485987,0.01020020417108537,-0.0038560155709036863,0.05622891505217156,0.041870427939354755,-0.033497514116345155,0.1038441417441643,0.07037365905645648,-0.07700015582408147
45,9.192849999992175,-0.016446872738448266,-0.04349212230886836,-0.01318469145072222,0.011382490093995378,0.010370107771885299,-0.003992112459735419,0.05664865794691483,0.042154252374789224,-0.0338094059946553,0.10373345303554012,0.06998383120607153,-0.07724240888532005
46,9.19695079998928,-0.016400377599165912,-0.0434498398662694,-0.013201112413230942,0.011612431087872042,0.010541155998825295,-0.004129472651014848,0.05706793148391341,0.04243647083699188,-0.03412226580816344,0.10361196182247732,0.06957938838699247,-0.0774787881082034
47,9.201252699989707,-0.016352949127403944,-0.0434068633800102,-0.013218091432186666,0.011844066671650774,0.010713342237676882,-0.0042681000111331685,0.057486691733992984,0.04271702405990062,-0.03443606956780326,0.10347954838721701,0.06916025161362066,-0.07770917759112876
48,9.20474249999097,-0.016304580474271628,-0.04336318826147605,-0.013235633639863891,0.01207739468023191,0.010886659633887836,-0.004407998308519892,0.05790489428526116,0.042995852462004866,-0.03475079281645424,0.103336093923445,0.06872634427390542,-0.07793346177682431
49,9.208279999991646,-0.016255264799997293,-0.04331880995025998,-0.013253744183577014,0.012312412767938185,0.011061101091322783,-0.004549171211752244,0.05832249424761494,0.04327289615758928,-0.03506641063040029,0.1031814807657503,0.06827759240478008,-0.07815152559971544
50,9.212312299991028,-0.0162049952746625,-0.043273723915142205,-0.013272428225272703,0.012549118406590015,0.011236659271062134,-0.004691622287671852,0.0587394462574611,0.043548094966915564,-0.03538289762184802,0.10301559244207303,0.06781392406285952,-0.07836325465646334
51,9.2158858999901,-0.01615376507894399,-0.04322792565507436,-0.013291690941114665,0.012787508883600527,0.011413326590225037,-0.00483535499951451,0.059155704482647876,0.04382138842237622,-0.035700227941764806,0.10283831370655956,0.06733526938990936,-0.07856853518966293
52,9.219185299996752,-0.016101567404863258,-0.043181410700168496,-0.013311537521060898,0.013027581300090744,0.011591095220818082,-0.004980372705049821,0.05957122262745107,0.044092715779205906,-0.03601837528226515,0.1026495305460603,0.0668415612289968,-0.07876725405820761
53,9.223083699995186,-0.01604839545654374,-0.04313417461269058,-0.013331973168433405,0.013269332569024931,0.011769957088644888,-0.00512667865473026,0.05998595393755828,0.04436201602661873,-0.036337312879209036,0.10244913014072354,0.06633273505928478,-0.07895929872100695
54,9.226491199995507,-0.01599424245097548,-0.04308621298805834,-0.013353003099480476,0.0135127594133661,0.01194990387224489,-0.005274275989851839,0.06039985120473632,0.04462922789799222,-0.03665701351445665,0.1022370008773068,0.0658087294547823,-0.07914455712544383
55,9.230082199996104,-0.015939101618787234,-0.04303752145584335,-0.013374632542931534,0.013757858364249103,0.012130927001885299,-0.0054231677407214005,0.06081286677192308,0.044894289885715075,-0.036977449517564535,0.10201303238179507,0.06526948659575471,-0.07932291765490847
56,9.234340099996189,-0.0158829662050259,-0.042988095680777,-0.01339686673954458,0.014004625759177323,0.012313017658619974,-0.005573356824831004,0.061224952538158774,0.0451571402555075,-0.03729859276761592,0.10177711538172447,0.06471495221653219,-0.07949426926987298
57,9.2385585999873,-0.015825829469943223,-0.04293793136376023,-0.013419710941646283,0.014253057740235657,0.012496166773397209,-0.005724846045040025,0.06163605996256426,0.045417717060846866,-0.03762041469605795,0.10152914166685251,0.06414507547412009,-0.07965850179956237
58,9.243374099998618,-0.015767684689789674,-0.04288702424287669,-0.01344317041266472,0.014503150252319373,0.012680365026235289,-0.0058776380877724865,0.06204614006895417,0.045675958156225306,-0.03794288629089112,0.10126900444324669,0.06355980868594721,-0.07981550610923975
59,9.246875299999374,-0.015708525157615474,-0.042835370094409145,-0.013467250426654878,0.014754899041384413,0.012865602845437502,-0.006031735521233045,0.06245514345267918,0.04593180120945423,-0.038265978100859493,0.10099659872358707,0.06295910738244748,-0.07996517415591015
60,9.250955600000452,-0.015648344184078636,-0.04278296473385901,-0.013491956267816978,0.015008299652731592,0.013051870406867214,-0.006187140793638212,0.06286302028839597,0.04618518371534725,-0.038589660240090716,0.10071182125469565,0.062342930267599926,-0.0801073992374162
61,9.255317099989044,-0.015587135098259857,-0.04272980401696858,-0.013517293230007662,0.015263347429319741,0.013239157633273555,-0.006343856231469871,0.06326972033632333,0.046436043007705485,-0.03891390239430097,0.1004145704029333,0.061711239087856314,-0.08024207619257599
62,9.259537199992335,-0.01552489124848421,-0.04267588384074605,-0.013543266616244188,0.01552003751010051,0.013427454193663434,-0.0065018840377566835,0.06367519294908523,0.04668431627194037,-0.039238673827053705,0.10010474651509423,0.06106399882882081,-0.08036910137161034
63,9.263730599996052,-0.015461606003149499,-0.0426212001444928,-0.013569881738201724,0.015778364828386862,0.01361674950272932,-0.00666122629037823,0.06407938708088587,0.046929940558649755,-0.03956394338572545,0.09978225224268061,0.060401177741524995,-0.08048837262948276
64,9.267905299988342,-0.015397272751561152,-0.04256574891083305,-0.013597143915703826,0.016038324110262077,0.013807032720331057,-0.006821884940394669,0.06448225129697553,0.04717285279645322,-0.03988967950771065,0.0994469924958754,0.05972274708006967,-0.08059978929324087
65,9.271989699991536,-0.015331884904773442,-0.042509526166745366,-0.013625058476206217,0.016299909873024813,0.01399829275102747,-0.0069838618104010606,0.0648837337824534,0.04741298980344616,-0.04021585022612332,0.09909887434227688,0.05902868116711989,-0.08070325208992155
66,9.276148799996008,-0.015265435896436957,-0.04245252798459606,-0.013653630754273957,0.016563116423669314,0.01419051824365082,-0.007147158592903145,0.06528378235091437,0.04765028830056486,-0.04054242317541879,0.0987378069119014,0.058318957538478836,-0.08079866308411099
67,9.280209999997169,-0.015197919183652112,-0.04239475048317416,-0.013682866091052088,0.0168279378574004,0.014383697590946497,-0.0073117768487171355,0.06568234445248342,0.0478846849242099,-0.040869365596590324,0.0983637013178495,0.057593556654342314,-0.08088592566490198
68,9.284422699987772,-0.01512932824782863,-0.04233618982872772,-0.013712769833729854,0.017094368056178654,0.014577818929249597,-0.007477718005387526,0.06607936718182082,0.04811611623727581,-0.04119664434268536,0.09797647071255866,0.05685246204344288,-0.08096494470334244
69,9.288636099998255,-0.015059656595550827,-0.04227684223600141,-0.013743347334998556,0.01736240068730018,0.014772870138213809,-0.007644983355631503,0.06647479728661154,0.04834451874294035,-0.0415242258852756,0.09757603039290172,0.05609566059172164,-0.08103562659164414
70,9.292742499994349,-0.014988897759448571,-0.042216703969275,-0.013774603952503189,0.017632029202010433,0.014968838840599524,-0.007813574055809082,0.0668685811764204,0.04856982889802897,-0.04185207632029042,0.09716229782236536,0.055323142503049934,-0.08109787915148145
71,9.296885599993402,-0.014917045299073783,-0.042155771343402704,-0.013806545048287919,0.017903246834155607,0.015165712402110825,-0.007983491124414703,0.06726066493136092,0.048791983126486436,-0.04218016137374522,0.09673519247772729,0.05453490156143396,-0.08115161168637748
72,9.301034399992204,-0.014844092801782307,-0.04209404072485295,-0.013839175988235522,0.018176046598866586,0.015363477931292549,-0.0081547354405937,0.06765099430971036,0.04901091783486202,-0.04250844640799855,0.09629463574069949,0.053730935393243376,-0.08119673505056026
73,9.30525169998873,-0.014770033883621048,-0.04203150853274854,-0.013872502141500863,0.01845042129127191,0.015562122279492526,-0.008327307742684503,0.06803951475570218,0.0492265694279021,-0.04283689642803739,0.09584055093675875,0.05291124520498182,-0.08123316160973942
74,9.30929499999911,-0.014694862190220257,-0.04196817123990679,-0.013906528879938545,0.01872636348524477,0.01576163204088476,-0.008501208626785944,0.06842617140745512,0.04943887432191439,-0.043165476087417026,0.09537286330305411,0.05207583561267729,-0.08126080524755766
75,9.313378299993929,-0.014618571397690806,-0.04190402537387943,-0.013941261577524797,0.019003865532180093,0.015961993552539754,-0.008676438545347503,0.06881090910450609,0.049647768958980605,-0.04349414969459853,0.09489149999133065,0.051224714891302266,-0.08127958144094208
76,9.317891299986512,-0.014541155213526356,-0.04183906751799222,-0.01397670560977372,0.019282919559802467,0.016163192894562656,-0.008852997805787874,0.06919367239576292,0.04985318982233805,-0.04382288121949805,0.094396390169483,0.050357894764833454,-0.0812894072568957
77,9.32296019999194,-0.01446260737751028,-0.041773294312383726,-0.014012866353148006,0.019563517471007555,0.016365215890287988,-0.00903088656913818,0.06957440554785861,0.050055073448894254,-0.04415163429979839,0.09388746508085019,0.049475389960317695,-0.08129020138858249
78,9.326793999993242,-0.014382921662627203,-0.041706702455043335,-0.014049749184464208,0.019845650942737585,0.016568048106519004,-0.009210104848711589,0.0699530525535837,0.050253356441001755,-0.044480372247790126,0.09336465803085467,0.048577218430747617,-0.08128188422088688
79,9.330219999988913,-0.014302091875979013,-0.04163928870284814,-0.014087359480292697,0.02012931142489097,0.01677167485381767,-0.009390652508801866,0.07032955714013239,0.05044797548077539,-0.04480905805721344,0.0928279043641375,0.047663401814124304,-0.08126437782717062
80,9.334357499988982,-0.014220111859705226,-0.04157104987259856,-0.014125702616352407,0.020414490139264493,0.016976081186859816,-0.009572529263408321,0.07070386277735007,0.05063886734558008,-0.04513765441007305,0.092277141700674,0.04673396544701045,-0.08123760590353869
81,9.33859109999321,-0.014136975491907554,-0.0415019828420524,-0.01416478396690048,0.02070117807852963,0.017181251904850387,-0.009755734674989481,0.07107591268788911,0.050825968922457734,-0.04546612368294833,0.09171231048642625,0.045788938298128606,-0.08120149358210782
82,9.342202299987548,-0.014052676687578546,-0.04143208455095708,-0.01420460890411693,0.02098936600525689,0.01738717155199528,-0.009940268153239082,0.0714456498599102,0.051009217223077954,-0.04579442795229792,0.09113335425920407,0.04482835303423273,-0.081155967417957
83,9.346098399997572,-0.013967209399534048,-0.041361352002079875,-0.014245182797484384,0.021279044450994856,0.017593824418037515,-0.01012612895388264,0.0718130170593885,0.051188549398697734,-0.04612252900066433,0.09054021946144974,0.043852245981391015,-0.08110095561839874
84,9.349934799989567,-0.013880567619349292,-0.04128978226223584,-0.014286511013163021,0.02157020371539406,0.017801194538850082,-0.010313316177503628,0.0721779568413007,0.05136390275479902,-0.046450388323832935,0.08993285524661779,0.04286065711103722,-0.08103638811533996
85,9.35499589999381,-0.013792745378298447,-0.04121737246331323,-0.014328598913360812,0.021862833865376515,0.018009265697090493,-0.010501828768397954,0.07254041156036517,0.05153521476593556,-0.046777967137621806,0.08931121340439313,0.041853630263196384,-0.08096219656520555
86,9.359686899988446,-0.01370373674829742,-0.04114411980329613,-0.014371451855699192,0.022156924734346457,0.018218021422913712,-0.010691665513455052,0.07290032338162415,0.05170242309217599,-0.04710522638504013,0.08867524856375697,0.04083121378925644,-0.08087831438810339
87,9.363762099994346,-0.013613535842849791,-0.04107002154728412,-0.01441507519257426,0.022452465921445463,0.01842744499475971,-0.010882825041070259,0.07325763429282636,0.05186546559914954,-0.047432126743394816,0.08802491862877275,0.039793461102517684,-0.08078467668935797
88,9.368322799986345,-0.013522136817995644,-0.04099507502850853,-0.014459474270513643,0.022749446790863347,0.018637519440228522,-0.011075305820083384,0.07361228611853388,0.052024280378942044,-0.04775862863081423,0.08736018488677298,0.03874043062600907,-0.08068122020048654
89,9.37239459999546,-0.013429533873263068,-0.04091927764934502,-0.014504654429529116,0.02304785647120738,0.018848227537036816,-0.011269106158743854,0.0739642205333798,0.052178805769719595,-0.048084692212877436,0.086681011808641,0.03767218551676136,-0.0805678832759099
90,9.3761480999965,-0.013335721252622095,-0.04084262688232212,-0.014550621002465099,0.023347683854920417,0.01905955181405167,-0.011464224203702902,0.07431337907455976,0.052328980374394436,-0.048410277409111316,0.08598736701596515,0.03658879337730347,-0.0804446058665144
91,9.380430099990916,-0.013240693245440907,-0.04076512027112542,-0.01459737931434312,0.023648917597751146,0.019271474552398114,-0.011660657939031259,0.07465970315482395,0.05247474307791512,-0.04873534389940597,0.08527922135949594,0.035490326138027564,-0.08031132951325973
92,9.385760599994684,-0.013144444187444055,-0.04068675543159718,-0.014644934681702368,0.0239515461182773,0.019483977786632748,-0.01185840518526323,0.07500313407560319,0.05261603306498096,-0.04905985113046014,0.08455654892937209,0.034376860253628475,-0.0801679973015195
93,9.391034699990996,-0.013046968461672527,-0.040607530052731,-0.014693292411936428,0.02425555759748207,0.01969704330599457,-0.012057463598466527,0.07534361304008363,0.052752789838921,-0.04938375832182731,0.08381932698585355,0.033248476821110026,-0.08001455372952772
94,9.395026899990626,-0.012948260499445393,-0.04052744189766133,-0.014742457802626306,0.02456093997838308,0.019910652655731293,-0.012257830669335237,0.07568108116577264,0.05288495324036297,-0.0497070244712971,0.0830675358676372,0.03210526173718901,-0.0798509447707733
95,9.398542999988422,-0.012848314781322867,-0.04044648880464742,-0.01479243614086983,0.024867680965710418,0.020124787138501157,-0.012459503722303183,0.07601547949683192,0.05301246346738535,-0.05002960836144602,0.08230115902175313,0.030947305776993242,-0.07967711812665615
96,9.402318499996907,-0.012747125838070564,-0.04036466868805146,-0.014843232702607507,0.025175768025635363,0.02033942781586225,-0.01266247991468988,0.07634674901688517,0.05313526109482281,-0.0503514685670624,0.08152018314730299,0.02977470426631571,-0.07949302320334092
97,9.4061834999884,-0.012644688251624755,-0.04028197953931053,-0.014894852751945006,0.02548518838555203,0.020554555509830468,-0.012866756235873947,0.07667483066251382,0.053253287091767486,-0.05067256346150992,0.08072459843161515,0.028587557094446235,-0.07929861092819823
98,9.410749699993175,-0.012540996656058385,-0.040198419427902095,-0.014947301540472342,0.02579592903391523,0.020770150804510387,-0.013072329506490534,0.07699966533797478,0.053366482840978134,-0.05099285122266789,0.07991439879971121,0.02738596918654706,-0.07909383365477114
99,9.414357999994536,-0.012436045738547645,-0.04011398650230279,-0.015000584306579861,0.026107976720141163,0.020986194047810203,-0.013279196377652777,0.07732119393071388,0.05347479016020209,-0.05131228983852615,0.07908958186806832,0.026170050660901476,-0.07887864517919296
100,9.41790509999555,-0.012329830240338789,-0.040028678990940036,-0.015054706274771125,0.026421317954570755,0.021202665353245068,-0.013487353330194482,0.0776393573257096,0.0535781513228563,-0.05163083711325811,0.0782501487415534,0.02493991651420896,-0.07865300097610302
101,9.422034999995958,-0.012222344957715006,-0.039942495203136245,-0.015109672654972778,0.026735939008486365,0.021419544601819298,-0.013696796673940696,0.07795409641934417,0.05367650907680387,-0.05194845067472379,0.07739610406920742,0.023695686464388868,-0.07841685837244511
102,9.42597259998729,-0.012113584742963101,-0.03985543353004521,-0.015165488641841526,0.02705182591418731,0.021636811443981576,-0.013907522547011079,0.07826535213419843,0.05376980666376367,-0.052265087981948594,0.07652745616845283,0.022437485291006986,-0.078170176406767
103,9.4301936999982,-0.012003544505339754,-0.039767492445580484,-0.015222159414068369,0.027368964465126246,0.021854445301664156,-0.014119526915150967,0.07857306543392752,0.0538579878408403,-0.05258070633148831,0.0756442169763113,0.021165443032567673,-0.07791291576653
104,9.434176599999772,-0.0118922192120371,-0.03967867050733529,-0.015279690133680173,0.027687340216105,0.022072425370412194,-0.014332805571086222,0.07887717733766125,0.05394099690152946,-0.05289526286440084,0.07474640201979756,0.019879694750350094,-0.07764503899147499
105,9.43848069998785,-0.011779603889147405,-0.03958896635749368,-0.015338085945338685,0.028006938483527425,0.022290730621592855,-0.014547354133910683,0.07917762893464031,0.054018778695337756,-0.05320871457425609,0.0738340304846563,0.018580380449330924,-0.07736651053617391
106,9.442744399988442,-0.011665693622626596,-0.03949837872373256,-0.015397351975637146,0.028327744345713623,0.022509339804683334,-0.014763168048505804,0.07947436139917255,0.054091278648148486,-0.0535210183146136,0.07290712525822138,0.017267645183566698,-0.07707729662879487
107,9.446794699993916,-0.0115504835592564,-0.039406906420114365,-0.015457493332394613,0.028649742643273756,0.022728231449644677,-0.014980242584988585,0.07976731600561587,0.05415844278269381,-0.0538321308058901,0.07196571303075655,0.01594163902978323,-0.07677736520887311
108,9.450915699999314,-0.011433968907604853,-0.03931454834796988,-0.015518515103948109,0.02897291797954346,0.022947383869375393,-0.015198572838186757,0.08005643414415421,0.05422021773870689,-0.054142008642333816,0.0710098245314597,0.014602516956061407,-0.07646668597644583
109,9.455068799987204,-0.01131614493898491,-0.03922130349677104,-0.015580422358442701,0.02929725472108526,0.023166775162248267,-0.01541815372714312,0.08034165733768922,0.054276550792332,-0.054450608299289466,0.07003949467982101,0.013250438664801356,-0.07614523040196604
110,9.45923349999066,-0.011197006988410904,-0.039127170944993274,-0.015643220143119637,0.029622736998260592,0.023386383214720963,-0.015638979994649492,0.08062292725884049,0.054327389875006515,-0.05475788614025274,0.06905476248682346,0.011885568618871318,-0.0758129717231232
111,9.463487799992436,-0.011076550455552526,-0.03903214986096717,-0.015706913483602657,0.029949348705868736,0.023606185704025562,-0.015861046206808102,0.08090018574603812,0.05437268359308251,-0.05506379842410954,0.06805567102190482,0.010508076067484624,-0.07546988494465794
112,9.467657699991832,-0.010954770805686116,-0.03893623950371906,-0.015771507383182583,0.030277073503848992,0.02382616010093786,-0.01608434675262409,0.08117337482025573,0.054412381246918065,-0.05536830131218903,0.0670422675217228,0.009118135099025109,-0.07511594681529216
113,9.472009099990828,-0.01083166357064297,-0.038839439223800294,-0.015837006822100333,0.030605894818054945,0.024046283672621335,-0.016308875843623956,0.08144243670198274,0.0544464328509261,-0.05567135087531624,0.066014603288387,0.007715924680451505,-0.07475113597237673
114,9.475395699992076,-0.010707224349754364,-0.03874174846410484,-0.015903416756828423,0.03093579584109393,0.02426653348555859,-0.01653462751350509,0.08170731382713425,0.054474789152984426,-0.05597290310203503,0.06497273353857937,0.006301628538975341,-0.07437543314499083
115,9.47992259998864,-0.010581448810793067,-0.03864316676067481,-0.01597074211935115,0.031266759533229965,0.024486886408552313,-0.016761595617820733,0.081967948862803,0.05449740165352754,-0.05627291390730347,0.06391671727854734,0.004875435463722233,-0.07398882125523633
116,9.484561399993254,-0.010454332690911066,-0.038543693743493805,-0.016038987816443546,0.031598768623350634,0.02470731911581115,-0.01698977383369985,0.08222428472215812,0.054514222627396566,-0.05657133914153605,0.06284661711763843,0.0034375396074961414,-0.0735912853531624
117,9.488655099994505,-0.010325871797573265,-0.03844332913726751,-0.01610815872894929,0.03193180560999052,0.024927808090127384,-0.017219155659605207,0.082476264578689,0.05452520514537182,-0.05686813459877271,0.06176249921313874,0.0019881404868342684,-0.07318281221344257
118,9.493142799998168,-0.01019606200948692,-0.03834207276219129,-0.016178259711057713,0.032265852762413276,0.025148329626136962,-0.01744973441511933,0.08272383188065782,0.05453030309602315,-0.057163256022458926,0.06066443334118381,0.0005274428508498648,-0.07276338998105103
119,9.496934199996758,-0.010064899277526594,-0.038239924534704435,-0.016249295589579972,0.03260089212175199,0.02536885983367391,-0.017681503240749328,0.08296693036591699,0.05452947120618169,-0.05745665911074886,0.059552493117073516,-0.0009443436600925386,-0.07233300824980543
120,9.50119409999752,-0.009932379625654368,-0.03813688446823065,-0.016321271163224477,0.03293690550221108,0.02558937464119595,-0.01791445509775574,0.08320550407814362,0.05452266506002952,-0.05774829952292076,0.05842675626132523,-0.0024270045797210927,-0.07189165825960324
121,9.5045223999914,-0.009798499151835071,-0.038032952673904566,-0.01639419120187169,0.03327387449233796,0.025809849799293287,-0.01814858276800926,0.08343949738380882,0.05450984111904287,-0.058038132886275365,0.057287304706759044,-0.003920320838275925,-0.07143933316503923
122,9.508055399986915,-0.00966325402894621,-0.03792812936128384,-0.016468060445848375,0.03361178045636219,0.02603026088427556,-0.018383878853875366,0.08366885498927838,0.05449095673928282,-0.058326114804723946,0.056134224651754765,-0.0054240691305696195,-0.07097602838919977
123,9.51248879999912,-0.009526640505682363,-0.037822414839046685,-0.016542883605201484,0.03395060453560548,0.02625058330182047,-0.018620335778140512,0.08389352195821274,0.05446597018836159,-0.05861220086854828,0.05496760639624983,-0.006938021784626698,-0.07050174160456772
124,9.51740099999006,-0.009388654907453714,-0.037715809515674444,-0.0166186653589718,0.034290327649961545,0.026470792290697945,-0.0188579457839757,0.08411344372734122,0.054434840663795676,-0.05889634666283421,0.05378754386232723,-0.00846194656422847,-0.07001647225364542
125,9.5238718999899,-0.009249293637278468,-0.03760831390011899,-0.016695410354467526,0.03463093049943369,0.026690862926567235,-0.019096700934930887,0.08432856611998442,0.05439752831156919,-0.05917850777335438,0.05259413416918934,-0.009995606656613263,-0.06952022095921616
126,9.52803529999801,-0.00910855317666895,-0.03749992860245461,-0.016773123206537885,0.03497239356572408,0.0269107701258512,-0.019336593114946125,0.08453883535839073,0.0543539942445865,-0.05945863979023182,0.051387477527827914,-0.011538760738026285,-0.06901298933447716
127,9.532154599990465,-0.008966430086511172,-0.037390654334514044,-0.0168518084968468,0.03531469711387106,0.027130488649682667,-0.019577614028375608,0.08474419807640682,0.054304200560705396,-0.059736698312287013,0.05016767746335331,-0.013091162947098008,-0.06849478034319714
128,9.536350599999423,-0.008822921007937684,-0.037280491910508466,-0.016931470773146693,0.035657821193940904,0.02734999310792456,-0.019819755200033977,0.08494460133361241,0.05424811036140503,-0.06001263895361455,0.048934841012066986,-0.014652562885054355,-0.06796559884416943
129,9.5405471999984,-0.008678022663193459,-0.03716944224763101,-0.01701211454855253,0.036001745642779505,0.027569257963267264,-0.020063007975273554,0.08513999262958469,0.054185687769817394,-0.060286417352333775,0.04768907859375396,-0.01622270570735885,-0.06742545191222593
130,9.544627099996433,-0.008531731856494576,-0.037057506366643594,-0.01709374430081626,0.03634645008581947,0.02778825753539459,-0.020307363520101422,0.08533031991700016,0.05411689794865403,-0.0605579891797619,0.04643050383847031,-0.017801331966415937,-0.06687434866152436
131,9.548662599991076,-0.008384045474879488,-0.03694468539244677,-0.017176364471601778,0.03669191393893777,0.028006966005226123,-0.020552812821330858,0.0855155316144981,0.05404170711950975,-0.06082731014773536,0.045159233686885306,-0.019388177546283657,-0.06631229998356414
132,9.5519784999924,-0.008234960489052683,-0.036830980554632214,-0.01725997946576062,0.03703811641036688,0.028225357419239337,-0.020799346686757626,0.08569557662059399,0.053960082581317445,-0.06109433601566394,0.04387538849582247,-0.020982973950915595,-0.06573931867096561
133,9.555517599990708,-0.008084473954220493,-0.03671639318801764,-0.017344593650608343,0.03738503650266499,0.0284434056938612,-0.021046955745368467,0.08587040432739661,0.0538719927273204,-0.06135902259885329,0.04257909190620584,-0.02258544855305253,-0.06515541956204232
134,9.559518799986108,-0.007932583010918814,-0.03660092473316377,-0.017430211355201893,0.03773265301473807,0.02866108461992756,-0.02129563044758471,0.08603996463345338,0.05377740706151402,-0.061621325776728374,0.041270470792455716,-0.024195324634100363,-0.06456061960677291
135,9.563712899995153,-0.00777928488583257,-0.03648457673687315,-0.017516836869617972,0.03808094454391396,0.028878367867207745,-0.02154536106553726,0.08620420795705819,0.05367629621529565,-0.061881201501689576,0.03994965545522698,-0.025812321318529653,-0.06395493800400484
136,9.567076299994367,-0.00762457689260665,-0.036367350852670545,-0.017604474444232618,0.03842988948807212,0.02909522898899861,-0.021796137693381856,0.0863630852506556,0.053568631964436834,-0.062138605808445886,0.0386167799609246,-0.027436153560088248,-0.06333839618872568
137,9.5704926999897,-0.007468456432648147,-0.036249248841264604,-0.01769312828900213,0.03877946604783417,0.029311641426786404,-0.022047950247649547,0.08651654801689476,0.053454387245844684,-0.06239349482276806,0.03727198244898932,-0.029066532076936873,-0.06271101798241249
138,9.574759799987078,-0.007310920995919584,-0.036130272570990545,-0.01778280257274548,0.03912965222882353,0.029527578514976404,-0.022300788467632733,0.08666454832551904,0.05333353617505878,-0.06264582477203785,0.03591540494575483,-0.03070316329914629,-0.062072829921157695
139,9.582527399994431,-0.007151968161722866,-0.03601042401823355,-0.01787350142242836,0.03948042584399254,0.029743013485696287,-0.022554641915820975,0.0868070388279143,0.05320605406343716,-0.06289555199665511,0.03454719250877447,-0.032345749525517824,-0.0614238609149749
140,9.586123199987924,-0.006991595599473691,-0.035889705267832625,-0.017965228922449117,0.039831764515999776,0.02995791947366477,-0.022809499978379298,0.08694397276707773,0.05307191743438486,-0.06314263295783143,0.033167492295020994,-0.03399398938307838,-0.060764141447246775
141,9.590733499993805,-0.006829801069466274,-0.03576811851346459,-0.018057989113926674,0.04018364567961781,0.030172269521126244,-0.023065351865647038,0.08707530398462955,0.052931104036823384,-0.06338702424252221,0.031776453279382555,-0.03564757831218217,-0.06009370337197836
142,9.5945742999902,-0.00666658242362828,-0.03564566605800804,-0.018151785993990494,0.04053604658416722,0.030386036582828357,-0.023322186612656035,0.08720098692850495,0.05278359285749568,-0.06362868256958046,0.030374226586220257,-0.037306208396107,-0.059412580293781526
143,9.598938199997065,-0.006501937606265863,-0.03552235031388709,-0.018246623515072696,0.040888944295986586,0.03059919353105617,-0.023579993079679253,0.08732097666264749,0.052629364135813865,-0.06386756479776225,0.0289609659234143,-0.0389695680854415,-0.058720808020365244
144,9.602335399991716,-0.0063358646547986225,-0.035398173803394585,-0.018342505584202456,0.04124231570094488,0.03081171316072984,-0.023838759952813725,0.08743522887821172,0.05246839937839337,-0.06410362793554032,0.027536827925915008,-0.04063734217177834,-0.05801842497583587
145,9.605755599986878,-0.006168361700484319,-0.03527313915899464,-0.018439436062302833,0.041596137507002084,0.03102356819455632,-0.024098475744608543,0.08754369990603528,0.052300681374113485,-0.06433682915245244,0.026101972232003626,-0.042309211591431875,-0.057305472338159115
146,9.609778799989726,-0.0059994269691331205,-0.035147249123604174,-0.018537418763490257,0.04195038624682246,0.031234731288248857,-0.024359128794739594,0.08764634672845832,0.05212619421023906,-0.06456712579002677,0.024656561183758606,-0.04398485324167682,-0.0565819937573918
147,9.613796899997396,-0.005829058781811184,-0.03502050655085324,-0.01863645745437681,0.042305038280430744,0.0314451750358091,-0.02462070727072592,0.08774312698937294,0.05194492328896735,-0.06479447537085126,0.02320075952560538,-0.04566394000662781,-0.05584803479144365
148,9.61796719999984,-0.005657255555533416,-0.03489291440532382,-0.0187365558533755,0.04266006979790673,0.03165487197488041,-0.0248831991686778,0.08783399900360436,0.051756855343340374,-0.06501883560493535,0.021734734342905862,-0.04734614100681903,-0.055103642480162356
149,9.62196989999211,-0.0054840158039452585,-0.034764475762766874,-0.018837717630008608,0.04301545682211732,0.031863794592158684,-0.02514659231406457,0.08791892176646374,0.05156197845177314,-0.06524016439533446,0.020258655160706626,-0.04903112191380361,-0.05434886522765145
150,9.626007799990475,-0.005309338137993354,-0.034635193810297366,-0.01893994640421916,0.043371175211488366,0.032071915328863186,-0.025410874362508197,0.087997854963928,0.05136028205142147,-0.06545841984355989,0.018772694032835643,-0.050718545409112414,-0.05358375264406943
151,9.630348399994546,-0.0051332212665849124,-0.03450507184656705,-0.019043245745685694,0.043727200662819085,0.032279206586255466,-0.02567603280059486,0.08807075898291324,0.05115175694899803,-0.06567356025392371,0.01727702549364177,-0.05240807127642895,-0.052808355565728715
152,9.634380599993165,-0.004955663997235612,-0.034374113281914885,-0.019147619173140302,0.044083508714136965,0.032485640731197675,-0.025942054946703656,0.08813759492106431,0.050936395333394675,-0.06588554413911123,0.01577182644163724,-0.05409935624328297,-0.05202272628483545
153,9.639689499992528,-0.004776665236705874,-0.03424232163849484,-0.019253070153690093,0.044440074747591374,0.0326911901017736,-0.026208927951863255,0.08819832459608704,0.05071419078777886,-0.0660943302263841,0.01425727610725764,-0.05579205442748818,-0.05122691860804657
154,9.643052499988698,-0.004596223991625362,-0.03410970055038085,-0.01935960210214217,0.04479687399238395,0.032895827012944794,-0.026476638800630788,0.08825291055527704,0.05048513829860513,-0.0662998774636264,0.01273355618628655,-0.057485817652593446,-0.050420987883198654
155,9.647106899996288,-0.004414339369105553,-0.03397625376364889,-0.019467218380332198,0.04515388152773926,0.03309952376224451,-0.02674517431199739,0.08830131608593113,0.0502492342651601,-0.06650214502576388,0.011200851008087055,-0.05918029543377979,-0.04960499096604701
156,9.651321199999074,-0.004231010577340211,-0.03384198513643586,-0.019575922296456705,0.04551107228591944,0.03330225263551103,-0.027014521140319016,0.08834350522623682,0.05000647650868798,-0.06670109232054107,0.009659347656310529,-0.06087513500405212,-0.04877898614157357
157,9.655469899997115,-0.004046236926193573,-0.03370689863897528,-0.01968571710440918,0.045868421055282896,0.0335039859126554,-0.027284665776268712,0.08837944277666006,0.04975686428172376,-0.06689667899430406,0.008109236084392802,-0.06256998117062616,-0.0479430332294147
158,9.65971159999026,-0.003860017827776085,-0.03357099835360955,-0.01979660600312008,0.04622590248339104,0.03370469587347027,-0.027555594547814196,0.08840909431176884,0.04950039827838028,-0.06708886493863027,0.006550709115144085,-0.06426447606556328,-0.047097193799919154
159,9.663893299992196,-0.0036723527970074607,-0.03343428847477864,-0.019908592135900818,0.04658349108016267,0.03390435480348079,-0.027827293621223756,0.08843242619161766,0.04923708064569831,-0.0672776102978588,0.004983962303070836,-0.0659582590536959,-0.04624153115437163
160,9.667893599995296,-0.003483241452166901,-0.033296773308985034,-0.020021678589791928,0.04694116122107275,0.034102934999845305,-0.02809974900210474,0.08844940557245758,0.04896691499467838,-0.06746287547556022,0.0034091937933998584,-0.06765096702103422,-0.04537611013497055
161,9.672047299987751,-0.003292683515430284,-0.0331584572747347,-0.02013586839491545,0.04729888715039342,0.03430040877729545,-0.02837294653646178,0.08846000041698038,0.04868990640929815,-0.06764462114053,0.00182660429344147,-0.06934223487392557,-0.04450099721646589
162,9.67597699999169,-0.0031006788133941692,-0.033019344902453986,-0.02025116452383163,0.047656642984475625,0.03449674847410975,-0.02864687191178376,0.08846417950479706,0.04840606145350692,-0.0678228082339995,0.00023639732928977525,-0.07103169569571276,-0.04361626060486271
163,9.679441899992526,-0.0029072272775864444,-0.03287944083438226,-0.020367569890900123,0.04801440271507491,0.03469192645811037,-0.02892151065816036,0.0884619124447582,0.04811538817897595,-0.06799739797642765,-0.001361220062518094,-0.0727189801825594,-0.042721970506144166
164,9.68265089999477,-0.00271232894496343,-0.03273874982444032,-0.02048508735164572,0.048372140212732666,0.03488591513269931,-0.02919684814942396,0.08845316969102678,0.04781789613665611,-0.06816835187688551,-0.0029660363647882227,-0.07440371589693623,-0.04181819994543405
165,9.687104799988449,-0.0025159839583931798,-0.032597276738074214,-0.020603719702128768,0.04872982923023193,0.035078686942948696,-0.02947286960434209,0.08843792256324574,0.04751359639056615,-0.0683356317464735,-0.004577834912390585,-0.07608552680802666,-0.040905025403683334
166,9.690500899989274,-0.002318192567124632,-0.03245502655207438,-0.020723469678320564,0.04908744340614178,0.03527021438174848,-0.029749560087867846,0.08841614326800795,0.04720250153306764,-0.06849919971285555,-0.006196393960570494,-0.07776403331771518,-0.03998252690925479
167,9.694690999996965,-0.0021189551272422437,-0.03231200435436974,-0.020844339955483883,0.049444956268446735,0.035460469996020254,-0.03002690451244991,0.08838780491847127,0.04688462569844304,-0.0686590182344171,-0.007821487261211199,-0.0794388530476164,-0.0390507878080717
168,9.698054199994658,-0.0019182721021057851,-0.032168215343796595,-0.020966333147558955,0.049802341238249836,0.03564942639297482,-0.030304887639397465,0.08835288155116751,0.046559984571805,-0.06881505011294019,-0.009452884755261803,-0.08110960198036848,-0.03810989421311984
169,9.701630699986708,-0.0017161440627750236,-0.032023664829842105,-0.021089451806555047,0.05015957163353801,0.03583705624639801,-0.030583494080292737,0.08831134814001708,0.04622859539344341,-0.06896725850330891,-0.011090353223141622,-0.08277589546930543,-0.037159934388460464
170,9.704873700000462,-0.0015125716884190638,-0.03187835823236232,-0.02121369842194786,0.05051662067299847,0.036023332302943474,-0.03086270829843442,0.08826318060787731,0.04589047695956829,-0.06911560692120228,-0.012733656876393582,-0.0844373489461496,-0.03620099846003441
171,9.709088399991742,-0.0013075557667101621,-0.03173230108127479,-0.02133907542008279,0.05087346147987751,0.03620822738842446,-0.03114251461031242,0.08820835583577173,0.045545649620932896,-0.0692600592504606,-0.014382558015631255,-0.08609357858997772,-0.035233177884722515
172,9.713374899991322,-0.0011010971942018574,-0.0315854990162257,-0.021465585163584242,0.05123006708587155,0.03639171441409548,-0.031422897187110874,0.08814685166911673,0.04519413527816585,-0.06940057974648399,-0.016036817804090185,-0.0877442021934927,-0.03425656450677665
173,9.71786199999042,-0.0008931969766913134,-0.03143795778623166,-0.021593229950771054,0.051586410435036284,0.036573766382906346,-0.03170384005621039,0.08807864692069424,0.04483595737338767,-0.06953713303596702,-0.017696196863632548,-0.08938883985691863,-0.03327124999288664
174,9.72198919999937,-0.0006838562295658319,-0.03128968324929627,-0.02172201201507797,0.051942464387701774,0.03675435639571602,-0.03198532710268889,0.0880037213720578,0.04447114087993059,-0.06966968411572791,-0.01936045535143519,-0.09102711377862324,-0.0322773257999865
175,9.726096399987,-0.00047307617813352855,-0.031140681372001655,-0.021851933524483187,0.052298201724392965,0.0369334576574635,-0.03226734207081442,0.08792205577588492,0.04409971229564854,-0.06979819835218276,-0.02102935262088425,-0.09265864735746147,-0.03127488358204162
176,9.73026659998868,-0.00026085815793813646,-0.030990958229075098,-0.021982996580941914,0.05265359514976382,0.037111043483327576,-0.03254986856554171,0.087833631860126,0.04372169963989737,-0.06992264148346497,-0.022702646897966975,-0.09428306485069823,-0.030264015556981043
177,9.73445659999561,-4.7203615057862106e-05,-0.03084052000293077,-0.022115203219826022,0.05300861729655137,0.03728708730487327,-0.03283289005402213,0.08773843233297397,0.04333713244961164,-0.07004297962186727,-0.024380095217306393,-0.09589999142100188,-0.02924481451269256
178,9.738607799998135,0.0001678858936117927,-0.030689372983186646,-0.02224855540936981,0.053363240729550065,0.03746156267617985,-0.03311638986712002,0.08763644088753066,0.042946041775904775,-0.07015917925600962,-0.02606145351432765,-0.09750905315532317,-0.02821737378119632
179,9.74278869999398,0.00038440870009131953,-0.03053752356615667,-0.02238305505012192,0.05371743794960357,0.03763444327995983,-0.03340035120094015,0.08752764220603097,0.04254846017999312,-0.07027120725307236,-0.02774647668011582,-0.09910987739922476,-0.02718178709544869
180,9.74690249998821,0.0006023630250666685,-0.03038497825431818,-0.022518703974403465,0.05407118139761325,0.03780570293365395,-0.03368475711836215,0.0874120219640655,0.04214442172709198,-0.0703790308598059,-0.0294349185286268,-0.10070209298725666,-0.02613814847617445
181,9.751038999995217,0.0008217469776549579,-0.030231743655754775,-0.022655503945772353,0.05442444345856415,0.03797531559550083,-0.03396959055057611,0.08728956683506998,0.04173396198047636,-0.07048261770384859,-0.0311265316849934,-0.10228533021591678,-0.025086552370179746
182,9.755177299986826,0.0010425585551865025,-0.030077826483574644,-0.022793456658493826,0.05477719646556978,0.03814325537058394,-0.03425483429862768,0.08716026449545125,0.04131711799559571,-0.07058193579585505,-0.032821067228294164,-0.10385922066014709,-0.024027093854099128
183,9.758569899990109,0.001264795643003238,-0.02992323355530453,-0.022932563737017287,0.05512941270393955,0.03830949651685361,-0.03454047103497088,0.08702410363196608,0.04089392831561888,-0.070676953532462,-0.03451827399224506,-0.10542339659684966,-0.022959869152018676
184,9.762274599997909,0.0014884560142736482,-0.029767971792259346,-0.023072826735459403,0.055481064415283256,0.038474013451137976,-0.03482648330503716,0.08688107395250327,0.040464432970211565,-0.0707676397026033,-0.036217898209011536,-0.10697749078151246,-0.02188497619944486
185,9.768365899988568,0.0017135373298243861,-0.029612048218887528,-0.023214247137093618,0.0558321238016657,0.038636780755155135,-0.035112853528839354,0.08673116619634343,0.040028673472887966,-0.07085396349503717,-0.0379196845189871,-0.10852113767414377,-0.020802514196962885
186,9.77200269998866,0.0019400371379888054,-0.029455469962092022,-0.023356826353846227,0.05618256302979418,0.03879777318150264,-0.03539956400260158,0.08657437213677371,0.039586692809872634,-0.07093589450105116,-0.03962337796266241,-0.11005397547908005,-0.01971258231949118
187,9.776529599999776,0.002167952874472451,-0.029298244250527183,-0.023500565725799078,0.056532354235194225,0.03895696565957956,-0.03568659690038505,0.08641068457523705,0.039138535420953774,-0.07101340271154961,-0.04132872505879944,-0.11157564710204548,-0.018615279059816824
188,9.779981399988174,0.0023972818622353636,-0.029140378413871876,-0.02364546652069879,0.056881469526349794,0.03911433330142114,-0.035973934275694466,0.08624009733522639,0.038684247180604196,-0.07108645851444899,-0.04303547307447707,-0.11308579929778417,-0.017510702844757517
189,9.784083899998222,0.0026280213113910583,-0.028981879882079176,-0.02379152993347245,0.05722988098882963,0.039269851407468144,-0.03626155806308272,0.08606260526233787,0.03822387538572874,-0.07115503269674896,-0.04474336887297257,-0.11458408137113799,-0.0163989529278277
190,9.788175599998794,0.002860168319122203,-0.028822756184602807,-0.023938757085749815,0.05757756068942787,0.03942349547230242,-0.03654945007977405,0.08587820422748371,0.037757468747291155,-0.07121909644914778,-0.04645215871021188,-0.11607014490276092,-0.015280129637967179
191,9.791791999989073,0.0030937198696130864,-0.028663014949600454,-0.024087149025392128,0.05792448068031638,0.03957524119034853,-0.036837592027306104,0.0856868911285917,0.037285077380280016,-0.07127862137012521,-0.0481615881430237,-0.117543643984908,-0.014154334293850263
192,9.795271499999217,0.003328672833998884,-0.028502663903114085,-0.024236706726027606,0.05827061300319913,0.03972506446152814,-0.03712596549318607,0.0854886638945601,0.03680675279342849,-0.07133357946986472,-0.04987140063942617,-0.11900423423689967,-0.013021669564823061
193,9.798686299996916,0.0035650239703317243,-0.028341710868227524,-0.024387431086593657,0.058615929693496514,0.0398729413968785,-0.03741455195256449,0.0852835214981975,0.03632254788714335,-0.0713839431772558,-0.05158133583644889,-0.12045157095720031,-0.011882240513886373
194,9.802095899998676,0.0038027699235638,-0.028180163764201335,-0.024539322930885895,0.05896040278460438,0.040018848324190094,-0.03770333276994803,0.08507146397426874,0.03583251695817112,-0.071429685352252,-0.053291129854314535,-0.12188530915566263,-0.010736154793917162
195,9.806039799994323,0.004041907225547883,-0.0280180306055848,-0.024692383007114217,0.0593040043122243,0.04016276179366288,-0.03799228920097322,0.08485249242989357,0.035336715697266284,-0.07147077929446029,-0.055000517851837544,-0.1233051059733775,-0.009583520837927257
196,9.809539999987464,0.004282432295055458,-0.027855319501305046,-0.024846611987466165,0.05964670631870673,0.040304658583525034,-0.03828140239418875,0.08462660904192408,0.034835201174285194,-0.07150719874086162,-0.05670923599442122,-0.12471062283925807,-0.008424446266122923
197,9.81277649999538,0.004524341437812364,-0.02769203865373358,-0.025002010467677416,0.05998848085736005,0.04044451570556866,-0.03857065339281072,0.08439381705142579,0.03432803181841142,-0.0715389178615162,-0.058417020525644514,-0.12610152507727004,-0.007259038449556281
198,9.8160535999923,0.004767630846551785,-0.027528196357730645,-0.02515857896660934,0.06032929999674907,0.04058231041060859,-0.038860023136470204,0.08415412076856424,0.03381526740642645,-0.07156591126184303,-0.060123605400548924,-0.12747747955255867,-0.006087406018107501
199,9.819822999997996,0.005012296601084659,-0.027363800999667603,-0.025316317925833623,0.060669135825043644,0.04071802019392321,-0.03914949246298698,0.08390752558622853,0.033296969061973644,-0.07158815399052201,-0.061828722096940854,-0.12883815398231538,-0.004909659102837495
200,9.82396239999798,0.005258334668387833,-0.02719886105642728,-0.025475227709224182,0.06100796045442732,0.040851622800707324,-0.03943904211018098,0.08365403798644418,0.03277319924940276,-0.07160562154373368,-0.06353210278112026,-0.13018322026750467,-0.0037259074811792103
201,9.828348499999263,0.005505740902710137,-0.027033385094382252,-0.02563530860255643,0.061345746025497846,0.04098309623146317,-0.0397286527176803,0.08339366552839156,0.03224402174608623,-0.07161828985805925,-0.06523348412210576,-0.13151235883913126,-0.0025362580653331755
202,9.832103499997174,0.005754511045696132,-0.02686738176835158,-0.025796560813113812,0.06168246471157889,0.04111241874722941,-0.04001830482867523,0.0831264168239686,0.03170950160111029,-0.07162613529440602,-0.06693260844619475,-0.1328252599051818,-0.0013408140295304981
203,9.835508799995296,0.006004640726527054,-0.026700859820536802,-0.025958984469301262,0.062018088722922915,0.04123956887463799,-0.04030797889159627,0.08285230151647092,0.031169705097505683,-0.07162913462384855,-0.06862922199074983,-0.13412162152908622,-0.00013967616157286843
204,9.839574699988589,0.006256125462078557,-0.026533828079437778,-0.02612257962026531,0.06235259031085045,0.041364525410837676,-0.04059765526175363,0.08257133027027824,0.0306246997264806,-0.07162726502248556,-0.07032307304524651,-0.13540114716330262,0.0010670555444552208
205,9.842937199995504,0.006508960657095137,-0.02636629545874885,-0.026287346235520807,0.06268594177186954,0.041487267428342495,-0.04088731420297363,0.08228351476457008,0.030074554169600243,-0.07162050407016331,-0.07201391220424501,-0.136663545611666,0.0022792820121776015
206,9.847111799987031,0.006763141604381194,-0.02619827095623547,-0.026453284204584253,0.0630181154517642,0.04160777427981112,-0.041176935889227904,0.08198886768096604,0.02951933827332426,-0.07160882974432958,-0.07370149376780838,-0.1379085330873278,0.003496906322331539
207,9.851165899992338,0.007018663485008522,-0.026029763652591707,-0.026620393336613705,0.06334908374961389,0.04172602560268939,-0.04146650040622007,0.08168740268591475,0.028959123014541326,-0.07159222040873257,-0.0753855757002512,-0.13913583364488247,0.004719833870599737
208,9.854827299990577,0.007275521368539884,-0.025860782710279334,-0.026788673360054947,0.06367881912173953,0.04184200132371092,-0.04175598775292352,0.08137913441866772,0.02839398047161143,-0.07157065480599828,-0.07706591707525721,-0.14034517665084265,0.005947970511525065
209,9.858275199992931,0.007533710213268418,-0.02569133737234892,-0.026958123922293825,0.06400729408562572,0.04195568166330541,-0.04204537784310808,0.08106407849433267,0.027823983810359755,-0.07154411206134173,-0.07874227409120425,-0.14153629274379995,0.007181219883556069
210,9.86163059998944,0.007793224866472933,-0.025521436961243264,-0.02712874458931477,0.06433448122389142,0.04206704713998596,-0.04233465050690781,0.08074225152407627,0.027249207287793984,-0.07151257169677998,-0.08041439665903868,-0.14270891005021857,0.008419481310478615
211,9.864918399995076,0.008054060064689434,-0.025351090877583006,-0.027300534845365813,0.06466035318837557,0.04217607857478744,-0.04262378549246261,0.08041367114577536,0.026669726268705566,-0.07147601365181694,-0.08208202771738847,-0.1438627530779243,0.009662649021071685
212,9.868218099989464,0.008316210433999462,-0.02518030859893416,-0.027473494092630384,0.06498488270435573,0.04228275709578811,-0.042912762467653326,0.08007835604975919,0.026085617238336703,-0.07143441830396796,-0.08374490672392301,-0.14499754636104706,0.010910613762520836
213,9.871932699999888,0.008579670490335738,-0.025009099678557162,-0.02764762165090636,0.06530804257484189,0.042387064142650435,-0.04320156102190937,0.07973632598122186,0.02549695778950061,-0.07138776647639507,-0.08540277625452106,-0.1461130217765318,0.012163266780639058
214,9.876045299999532,0.008844434639805235,-0.024837473744137657,-0.027822916757292492,0.0656298056848146,0.042488981471038495,-0.043490160668005574,0.07938760171258923,0.02490382657607114,-0.07133603942623871,-0.08705538728908575,-0.14720892488003998,0.013420503471381807
215,9.879397099997732,0.0091104971790291,-0.02466544049649983,-0.02799937856588198,0.06595014500529525,0.04258849115678265,-0.04377854084377544,0.07903220500317856,0.024306303248857016,-0.07127921882271887,-0.08870249907663237,-0.14828501544965791,0.014682223787846884
216,9.882717899992713,0.009377852295498645,-0.02449300970830352,-0.028177006147462748,0.06626903359725803,0.04268557559977828,-0.04406668091373088,0.0786701585726567,0.023704468404693854,-0.07121728673217488,-0.09034387432274286,-0.14934106217376847,0.015948329126294507
217,9.88626599998679,0.009646494067946917,-0.024320191222725992,-0.028355798489224142,0.06658644461548544,0.042780217527738695,-0.044354560170654436,0.07830148609962455,0.023098403565283927,-0.07115022562135302,-0.09197927396292735,-0.15037683630453932,0.01721871855467332
218,9.889725099987118,0.009916416466735866,-0.02414699495212871,-0.02853575449447007,0.06690235131246879,0.04287239999992273,-0.044642157837245636,0.07792621223734922,0.02248819117762,-0.07107801837295079,-0.09360845468930959,-0.15139210833383793,0.018493287049126957
219,9.89309030000004,0.01018761335425946,-0.02397343087670897,-0.028716872982339006,0.06721672704239104,0.042962106410891085,-0.044929453067838944,0.07754436263235324,0.021873914619710954,-0.07100064830316792,-0.09523116949943161,-0.15238664848485992,0.019771925612673047
220,9.897063199998229,0.010460078485363077,-0.02379950904313627,-0.028899152687531047,0.06752954526517758,0.04304932049428021,-0.04521642495019205,0.07715596393570788,0.021255658197029233,-0.0709180991762908,-0.09684717079112802,-0.15336023061312073,0.02105452328786622
221,9.901335899994592,0.010733805507779378,-0.023625239563173427,-0.029082592260042367,0.06784077955057045,0.04313402632652993,-0.04550305250732179,0.07676104379659034,0.020633507116684487,-0.07083035520596466,-0.09845621558872873,-0.15431263867834205,0.022340970749977374
222,9.9054080999922,0.011008787962580651,-0.02345063261228281,-0.029267190264907122,0.06815040358212698,0.043216208330448445,-0.04578931469930274,0.07635963083130655,0.020007547431525132,-0.07073740104071564,-0.10005807017763221,-0.15524367238369352,0.023631162981828074
223,9.90944999999192,0.011285019284647028,-0.023275698428218607,-0.029452945181946463,0.06845839116104348,0.04329585127848783,-0.046075190424986014,0.07595175457936308,0.019377865968700708,-0.07063922174358844,-0.10165251083171713,-0.1561531478382983,0.024924999412004007
224,9.913600599989875,0.011562492803149756,-0.023100447309606566,-0.02963985540552433,0.06876471620979857,0.043372940295731244,-0.04636065852363317,0.07553744546660644,0.018744550268404964,-0.07053580277655044,-0.10323932073460328,-0.15704089381258785,0.026222381816806493
225,9.917100899998331,0.011841201742048878,-0.022924889614512108,-0.029827919244309685,0.06906935277567876,0.04344746086267293,-0.046645697776508885,0.07511673478619643,0.01810768854272564,-0.0704271299970988,-0.10481828571250139,-0.15790674699745663,0.02752321162474608
226,9.920566699991468,0.012121139220605025,-0.02274903575899758,-0.030017134921045196,0.06937227503426786,0.04351939881787265,-0.046930286908487384,0.074689654696259,0.01746736965273243,-0.07031318966446636,-0.10638919169789934,-0.15875054919895942,0.028827388284136807
227,9.925698199993349,0.01240229825390532,-0.0225728962156689,-0.03020750057232245,0.06967345729295359,0.04358874036055035,-0.047214404589695336,0.07425623822137381,0.016823683090016608,-0.07019396844943195,-0.10795182561736391,-0.15957214844555984,0.030134809158188287
228,9.930157199996756,0.012684671753403523,-0.02239648151221182,-0.030399014248363936,0.069972873994429,0.04365547205309124,-0.04749802943719762,0.07381651924304636,0.01617671894482334,-0.07006945344137483,-0.10950597848386211,-0.16037140260072508,0.03144537061370802
229,9.934517099987715,0.012968252527474269,-0.02221980222991831,-0.03059167391281188,0.07027049972012205,0.04371958082338278,-0.04778114001669729,0.07337053247618425,0.015526567858371941,-0.06993963214927934,-0.11105144751537697,-0.16114818159354824,0.03275896891886171
230,9.938769899992622,0.013253033281980941,-0.02204286900220392,-0.030785477442523992,0.07056630919350675,0.043781053966934075,-0.048063714844229444,0.07291831344243355,0.014873320972946483,-0.06980449250152808,-0.11258803497154543,-0.16190236591617801,0.034075499554568185
231,9.942062399990393,0.013539006620856693,-0.021865692513117027,-0.030980422627375995,0.07086027728331705,0.04383987914880917,-0.04834573238785953,0.07245989845606454,0.014217069896369124,-0.06966402285247612,-0.11411554453013828,-0.1626338427944257,0.0353948553470606
232,9.945830199998454,0.013826165046698322,-0.021688283495840552,-0.031176507170071102,0.0711523790067439,0.04389604440545914,-0.04862717106943041,0.07199532462661584,0.013557906683063605,-0.06951821199734844,-0.11563377888736942,-0.16334250364434375,0.0367169253980821
233,9.951297599996906,0.01411450096137314,-0.02151065273118639,-0.03137372868595669,0.07144258953267044,0.04394953814650219,-0.048908009266381114,0.0715246298641893,0.012895923819100265,-0.06936704918746686,-0.11714254119788733,-0.1640282450291775,0.038041595641418284
234,9.955403799991473,0.014404006666639019,-0.02133281104608274,-0.031572084702848474,0.07173088418491191,0.04400034915643479,-0.04918822531361709,0.07104785287044717,0.012231214195519521,-0.06921052414064618,-0.1186416387491894,-0.16469097218741924,0.039368749913036225
235,9.959570299994084,0.01469467436477747,-0.021154769312054674,-0.031771572660862314,0.07201723844537808,0.04404846659619603,-0.04946779750541306,0.07056503311418767,0.011563871064841297,-0.06904862704776564,-0.12013088533905868,-0.16533060151067894,0.040698270521827264
236,9.964095099989208,0.014986496159239263,-0.020976538443698834,-0.03197218991225378,0.07230162795711553,0.044093880004526985,-0.04974670409733638,0.07007621080311298,0.010893987994347001,-0.06888134857854869,-0.12161010079952335,-0.16594705957347397,0.04203003795994095
237,9.967890599989914,0.01527946405530211,-0.020798129397153003,-0.03217393372126551,0.07258402852724177,0.04413657929915719,-0.05002492330819666,0.06958142686325505,0.010221658830436204,-0.06870867989047741,-0.12307910836062297,-0.1665402801566243,0.04336392978800591
238,9.971332999994049,0.015573569960740021,-0.02061955316856119,-0.03237680126398255,0.07286441612982114,0.04417655477787572,-0.05030243332204126,0.06908072293206603,0.009546977675983977,-0.06853061264358881,-0.12453773119088359,-0.16711020092263787,0.04469981920690181
239,9.974678999991738,0.01586880568650425,-0.02044082079253456,-0.032580789628195855,0.07314276690874298,0.04421379711953456,-0.050579212290224544,0.06857414136582539,0.008870038881587704,-0.06834713902094103,-0.12598578968003957,-0.16765676064901627,0.04603757417188953
240,9.979188999990583,0.01616516294741592,-0.020261943340608386,-0.03278589581327436,0.0734190571806575,0.04424829738504885,-0.050855238333568906,0.06806172525470817,0.008190937045301983,-0.06815825175057472,-0.12742310160853473,-0.16817989910319966,0.04737705757579255
241,9.98438389999501,0.016462633362870727,-0.020082931919694895,-0.032992116730045956,0.07369326343797579,0.04428004701839811,-0.05113048954461168,0.06754351842882123,0.007509767004896908,-0.06796394412449763,-0.12884948597109516,-0.16867956013733137,0.04871812865290514
242,9.988550499998382,0.016761208457555826,-0.019903797670532127,-0.033199449200687736,0.07396536235185452,0.0443090378475639,-0.051404943989919724,0.06701956544234561,0.00682662381256191,-0.06776421000929096,-0.13026476768298031,-0.16915569572777586,0.05006064515563846
243,9.992812999989836,0.017060879662178667,-0.01972455176612919,-0.0334078899586257,0.07423533077506772,0.0443352620853264,-0.051678579712422075,0.06648991154150774,0.006141602694491627,-0.06755904384748875,-0.13166877950046613,-0.16960826790334005,0.05140446445615328
244,9.997038699992116,0.01736163831420712,-0.019545205410208683,-0.03361743564844387,0.07450314574473237,0.04435871232987524,-0.05195137473373571,0.0659546026331886,0.005454799009993918,-0.06734844065927399,-0.13306136050131184,-0.17003724723612962,0.05274944278562396
245,10.001131499986514,0.017663475658620354,-0.019365769835646997,-0.03382808282580278,0.0747687844849263,0.04437938156527532,-0.05222330705651195,0.06541368526518512,0.004766308223281979,-0.06713239605001109,-0.1344423527872883,-0.1704426096156829,0.05409543369996326
246,10.004657299999964,0.01796638284867013,-0.019186256302912985,-0.034039827957367604,0.07503222440925418,0.04439726316184947,-0.0524943546668231,0.06486720662149001,0.004076225888673793,-0.06691090622435143,-0.13581159763283646,-0.17082433295819163,0.05544228629617329
247,10.008079699997324,0.018270350946652438,-0.019006676098505166,-0.03425266742074593,0.0752934431234272,0.04441235087652458,-0.05276449553662294,0.06431521453370352,0.00338464764900071,-0.06668396800819233,-0.13716893183354031,-0.17118239402592703,0.056789843783172075
248,10.01161729999876,0.01857537092468966,-0.018827040533387584,-0.034466597504435786,0.07555241842792135,0.04442463885320137,-0.05303370762631103,0.06375775750584756,0.0026916692465320034,-0.06645157887434208,-0.1385141856619738,-0.17151676661707194,0.05813794318024039
249,10.01584079999884,0.018881433665523695,-0.018647360941424034,-0.034681614407784174,0.07580912832075781,0.044434121623188924,-0.053301968887400734,0.06319488474231096,0.001997386536024439,-0.06621373696691789,-0.1398471843872423,-0.17182742277861646,0.059486415919920495
250,10.019617499987362,0.019188529963320624,-0.0184676486778104,-0.03489771424095665,0.0760635510003873,0.04444079410567996,-0.053569257265280855,0.06262664616037322,0.0013018954858366944,-0.06597044112213457,-0.14116775337603346,-0.1721143365188656,0.06083508956622086
251,10.02289199999359,0.01949665052448716,-0.018287915117505042,-0.03511489302491821,0.07631566486857169,0.04444465160819437,-0.05383555070205184,0.06205309237689154,0.0006052921609514418,-0.06572169087880532,-0.14247572295968589,-0.1723774873867255,0.06218379017495669
252,10.026389299993753,0.01980578596849861,-0.018108171653657537,-0.03533314669142581,0.07656544853316073,0.04444568982691724,-0.05410082713937233,0.0614742746814587,-9.232730486019962e-05,-0.0654674864800395,-0.14377092944311065,-0.17261686126477901,0.06353234314622498
253,10.030362399993464,0.0201159268287378,-0.01792842969603634,-0.03555247108303228,0.07681288081075656,0.04444390484691718,-0.054365064521309084,0.06089024501492973,-0.0007908667324311294,-0.06520782887684842,-0.1450532134641206,-0.1728324486259413,0.06488057252934627
254,10.034680999990089,0.020427063553344577,-0.017748700669455757,-0.03577286195310187,0.07705794072931668,0.04443929314229516,-0.0546282407972127,0.06030105595584991,-0.0014902299109333052,-0.06494271973546492,-0.1463224190644842,-0.17302424320792,0.06622830060335134
255,10.038554599988856,0.02073918650607579,-0.017568996012202406,-0.03599431496583746,0.07730060753070879,0.044431851576291766,-0.054890333924626764,0.05970676070649494,-0.002190320610548983,-0.06467216144434222,-0.1475783939652811,-0.17319224218472856,0.06757534837529128
256,10.042013699989184,0.021052285967175455,-0.017389327174461316,-0.0362168256963196,0.07754086067320079,0.044421577401333526,-0.055151321872220146,0.059107413077071735,-0.0028910425975929885,-0.06439615711744309,-0.14882098931530202,-0.17333644626479935,0.06892153564547927
257,10.045691199993598,0.02136635213425488,-0.017209705616742014,-0.03644038963055746,0.07777867983388784,0.044408468259017876,-0.05541118262272277,0.05850306747379365,-0.0035922996479775173,-0.06411471060071103,-0.15005005863715498,-0.17345685935580693,0.07026667989323836
258,10.050874900000052,0.02168137512318246,-0.01703014280830475,-0.03666500216555161,0.07801404491108592,0.04439252218005056,-0.055669894175910256,0.05789377889160537,-0.004293995559623431,-0.06382782648437169,-0.15126545792017984,-0.17355348910339072,0.07161059606698078
259,10.0552033999993,0.021997344968983153,-0.01685065022558709,-0.036890658609369104,0.07824693602670005,0.04437373758413023,-0.05592743455163916,0.0572796029015066,-0.00499603417028235,-0.06353551011110195,-0.1524670473166992,-0.17362634855579623,0.0729530975806257
260,10.059459799987962,0.02231425162674744,-0.016671239350631067,-0.03711735418123083,0.07847733352851531,0.044352113279741666,-0.05618378179289772,0.05666059562955735,-0.005698319383411894,-0.06323776758027215,-0.15365469206035975,-0.17367545728576272,0.07429399669385638
261,10.063555299988366,0.022632084972549323,-0.016491921669511453,-0.037345084011611226,0.07870521799239526,0.04432764846383113,-0.0564389139688754,0.05603681373677392,-0.006400755195071822,-0.06293460575303952,-0.15482826169267633,-0.17370084094461075,0.07563310423707628
262,10.067750599991996,0.022950834804373075,-0.016312708670765542,-0.03757384314235051,0.07893057022441034,0.04430034272138204,-0.0566928091780548,0.055408314404390036,-0.007103245716192645,-0.06262603225881505,-0.1559876288572523,-0.17370253038250938,0.07697022923137481
263,10.072168399987277,0.02327049084304845,-0.01613361184382484,-0.03780362652677937,0.0791533712629171,0.04427019602491016,-0.05694544555133355,0.0547751553235054,-0.007805695192356317,-0.062312055503430705,-0.157132668447192,-0.173680561394229,0.07830517871711296
264,10.07632689998718,0.023591042733194238,-0.015954642677448935,-0.038034429029856445,0.07937360238060288,0.04423720873387936,-0.057196801255182284,0.05413739468724277,-0.008508008024008444,-0.06199268467699272,-0.1582632572555001,-0.17363497477132744,0.07963775791196892
265,10.080504999990808,0.023912480044170032,-0.01577581265816192,-0.03826624542831858,0.07959124508650156,0.04420138159403328,-0.057446854494829995,0.053495091183224076,-0.009210088786661066,-0.06166792976077053,-0.15937927387920023,-0.17356581623553893,0.0809677700928837
266,10.084525799989931,0.02423479227103608,-0.015597133268691669,-0.03849907041084404,0.07980628112797743,0.04416271573664767,-0.057695583517477764,0.052848303986503066,-0.009911842250566108,-0.06133780153600491,-0.16048059828656636,-0.17347313618707247,0.08229501607101963
267,10.088685099995928,0.02455796883552109,-0.015418615986412289,-0.03873289857822879,0.08001869249268376,0.04412121267770299,-0.057942966615555376,0.05219709275554173,-0.010613173398882347,-0.061002311595043525,-0.16156711066098328,-0.1733569888818389,0.08361929360212736
268,10.092118399988976,0.024881999086997928,-0.015240272281790108,-0.03896772444357603,0.08022846141051414,0.04407687431698976,-0.05818898213002508,0.05154151763449399,-0.011313987440694112,-0.06066147235491813,-0.1626386894091865,-0.17321743075609544,0.08494039637687538
269,10.095611599987024,0.02520687230346721,-0.015062113616833359,-0.03920354243249919,0.08043557035557951,0.04402970293717588,-0.058433608453748044,0.05088163926529191,-0.012014189815627654,-0.060315297076646575,-0.16369520929296616,-0.17305451857416979,0.0862581128796595
270,10.09983699998702,0.025532577692548995,-0.014884151443545705,-0.03944034688333871,0.08064000204825725,0.04397970120287465,-0.05867682403494422,0.05021751880504054,-0.012713686191888271,-0.05996379988804014,-0.16473654193936196,-0.17286830934212025,0.08757222678137601
271,10.105290699997568,0.02585910439248293,-0.014706397202383467,-0.03967813204739301,0.08084173945730891,0.043926872159727945,-0.05891860738074326,0.049549217933977506,-0.01341238247017835,-0.05960699579982872,-0.16576255968331452,-0.17265886327606583,0.08888251945865558
272,10.109637599991402,0.026186441473137086,-0.014528862320716561,-0.039916892089164005,0.08104076580199368,0.04387121923344257,-0.059158937060774845,0.04887679884178779,-0.014110184805742923,-0.059244900708092116,-0.16677314004609786,-0.17242624761535408,0.0901887729177531
273,10.11366599999019,0.02651457793702521,-0.014351558211293521,-0.04015662108661709,0.08123706455407544,0.043812746228695104,-0.05939779171073923,0.0482003241993409,-0.014806999643129355,-0.058877531386736216,-0.16776816653613477,-0.17217053761769804,0.0914907707507544
274,10.11716749999323,0.026843502720331765,-0.014174496270711297,-0.04039731303145555,0.0814306194397076,0.043751457327887135,-0.05963515003593671,0.04751985713852844,-0.015502733746281762,-0.058504905482190304,-0.16874752502993723,-0.17189181401946751,0.09278829617012718
275,10.120546499994816,0.027173204693944446,-0.013997687877890342,-0.04063896182940909,0.08162141444127712,0.04368735708980668,-0.059870990814795313,0.046835461253272974,-0.016197294212759037,-0.05812704152178018,-0.16971109926418876,-0.17159015946531248,0.09408112896582181
276,10.124095199993462,0.02750367266449414,-0.013821144392555237,-0.04088156130053677,0.08180943379929748,0.04362045044826841,-0.060105292902467966,0.04614720061582653,-0.01689058847495137,-0.05774395893303702,-0.1706587689963018,-0.1712656571828375,0.09536904427190498
277,10.128076299995882,0.02783489537540273,-0.013644877153720779,-0.04112510517954465,0.08199466201438452,0.04355074271076525,-0.06033803523451636,0.04545513979265721,-0.017582524303578782,-0.05735567806204622,-0.17159041180821955,-0.17091839322955674,0.09665181383917265
278,10.132361799987848,0.02816686150793906,-0.013468897478183509,-0.041369587116118496,0.08217708384927794,0.04347823955708031,-0.06056919683065654,0.04475934384615819,-0.018273009827081445,-0.056962220182463115,-0.1725059063222078,-0.17054845993503592,0.09792920835582618
279,10.136412499996368,0.028499559682283074,-0.013293216659019029,-0.04161500067527173,0.08235668433083092,0.043402947037781636,-0.06079875679851568,0.04405987832452441,-0.01896195356295894,-0.05656360749509171,-0.17340513344376784,-0.1701559570538581,0.09920099847113868
280,10.139992099997473,0.028832978458597877,-0.013117845964085703,-0.04186133933770852,0.08253344875194976,0.04332487157258067,-0.06102669433737425,0.04335680925340861,-0.019649264446485997,-0.05615986312862083,-0.1742879751081105,-0.1697409902913727,0.10046695400842606
281,10.14361439998902,0.02916710633810957,-0.012942796634535254,-0.04210859650020201,0.08270736267351603,0.04324401994859475,-0.06125298874192879,0.0426502031359368,-0.020334851850127712,-0.055751011145568456,-0.17515431273113838,-0.1693036695957832,0.10172684324272373
282,10.147306799990474,0.029501931764194845,-0.012768079883330515,-0.04235676547598784,0.08287841192632629,0.04316039931854852,-0.06147761940608212,0.04194012695689307,-0.02101862559844136,-0.05533707654886019,-0.17600402706052168,-0.16884410899320676,0.10298043300706106
283,10.151165799994487,0.02983744312347652,-0.012593706893770573,-0.042605839495173,0.08304658261304813,0.04307401719891592,-0.061700565826759306,0.04122664818393958,-0.02170049598615755,-0.05491808528691404,-0.17683699909339964,-0.16836242751588143,0.10422748908587134
284,10.155136599991238,0.030173628746926945,-0.012419688818023553,-0.04285581170516026,0.08321186111016976,0.04298488146797532,-0.061921807607739056,0.040509834764378784,-0.02238037380058955,-0.054494064257036845,-0.17765311086320787,-0.16785874990137215,0.10546777642331479
285,10.159361199999694,0.030510476910979314,-0.012246036775667489,-0.04310667517108799,0.0833742340699298,0.042893000363770306,-0.062141324463497113,0.039789755120009464,-0.02305817034536976,-0.05406504130882416,-0.1784522458189713,-0.16733320692573006,0.10670105873103632
286,10.162756999998235,0.03084797583864668,-0.012072761852239598,-0.04335842287628567,0.08353368842222535,0.042798382481972805,-0.062359096223065145,0.03906647814082114,-0.023733797465553694,-0.05363104525072921,-0.17923428911423597,-0.1667859355972832,0.10792709805571597
287,10.169770499996956,0.031186113700648686,-0.01189987509779444,-0.04361104772274495,0.08369021137649071,0.0427010367736408,-0.0625751028339273,0.03834007317751314,-0.024407167572923872,-0.05319210585696048,-0.17999912765438086,-0.16621707915726858,0.109145655316103
288,10.173787499996251,0.03152487861654579,-0.011727387525471328,-0.04386454253160663,0.08384379042354499,0.04260097254287684,-0.06278932436593485,0.03761061003480637,-0.025078193671098918,-0.052748253869707044,-0.18074665048885552,-0.1656267875608565,0.11035649112875771
289,10.177247899991926,0.031864258655880946,-0.011555310110071423,-0.04411890004366344,0.08399441333741672,0.042498199444382635,-0.06300174101522077,0.03687815896078988,-0.02574678938472806,-0.05229952099935742,-0.18147674984577283,-0.16501521858938673,0.11155936649070626
290,10.181071299986796,0.03220424183932856,-0.011383653786644925,-0.044374112919878625,0.08414206817710526,0.04239272748088144,-0.06321233310811616,0.03614279063186466,-0.02641286899359622,-0.05184593992120342,-0.18218932115397346,-0.16438253842684863,0.11275404326545159
291,10.184595799990348,0.032544816139850434,-0.011212429449089014,-0.04463017374192043,0.08428674328828369,0.0422845670003968,-0.06342108110503815,0.03540457614191172,-0.027076347466481198,-0.051387544271728064,-0.1828842618629078,-0.1637289210008789,0.11394028370895082
292,10.18875949998619,0.03288596948385851,-0.011041647948757054,-0.044887075012712156,0.08442842730497255,0.04217372869340112,-0.06362796560437627,0.034663586996780925,-0.027737140489928612,-0.05092436864914343,-0.1835614700238561,-0.16305454644550896,0.11511784939503142
293,10.19242989999475,0.033227689752384326,-0.010871320093079596,-0.04514480915699802,0.08456710915119821,0.04206022358986164,-0.06383296734638473,0.03391989511493445,-0.028395164489675495,-0.050456448618369995,-0.1842208430718422,-0.16235959963858335,0.11628650040343926
294,10.196877099995618,0.033569964782255185,-0.010701456644197476,-0.04540336852192474,0.08470277804267179,0.04194406305621571,-0.06403606721710911,0.03317357283178772,-0.02905033664759559,-0.04998382071814172,-0.18486227780017372,-0.16164426978904728,0.1174459955809794
295,10.201044299989007,0.03391278236727719,-0.01053206831760728,-0.04566274537763913,0.08483542348848262,0.04182525879227976,-0.06423724625233604,0.0324246929005588,-0.02970257491978484,-0.04950652246387322,-0.18548567131612176,-0.16090875103676447,0.11859609362914175
296,10.205026599986011,0.03425613025942511,-0.01036316578081944,-0.04592293191790166,0.08496503529278407,0.04170382282807827,-0.06443648564154308,0.031673328488879604,-0.03035179805835813,-0.049024592345967954,-0.18609092206469685,-0.16015324299654377,0.11973655428655502
297,10.209341499998118,0.034599996170039046,-0.010194759652029354,-0.04618392026071595,0.08509160355645956,0.041579767520576426,-0.06463376673183478,0.03091955317136479,-0.030997925633934966,-0.04853806982312144,-0.1866779302092171,-0.15937795025664614,0.1208671387343815
298,10.213671499994234,0.03494436777102778,-0.010026860498801908,-0.04644570244897421,0.08521511867874831,0.04145310555032725,-0.06482907103183834,0.03016344092314486,-0.031640878053380055,-0.048046995317350544,-0.18724659697475063,-0.15858308106067087,0.12198760907127908
299,10.217795499993372,0.03528923269607859,-0.00985947883676971,-0.046708270451118236,0.08533557135885907,0.04132384991806077,-0.06502238021559946,0.02940506611774541,-0.03228057657162781,-0.04755141021154331,-0.18779682399324568,-0.15776884604586677,0.12309772832718509
300,10.221910399995975,0.03563457854187363,-0.009692625128345202,-0.046971616161816325,0.08545295259757864,0.041192013941235464,-0.06521367612645823,0.028644503525916968,-0.03291694329921816,-0.047051356844376765,-0.18832851313297003,-0.156935457453028,0.12419726096120864
301,10.22598289999587,0.03598039286931279,-0.009526309781446786,-0.04723573140265567,0.0855672536988762,0.04105761125056653,-0.06540294078090385,0.027881828314893747,-0.03354990120773052,-0.04654687850383969,-0.18884156658930631,-0.1560831287483615,0.12528597325598922
302,10.230233499998576,0.03632666320474303,-0.009360543148239015,-0.047500607922850414,0.08567846627150585,0.04092065578653336,-0.06559015637239811,0.02711711604648912,-0.03417937413426119,-0.046038019418960775,-0.18933588710855945,-0.1552120743324314,0.12636363346025462
303,10.234441199994762,0.0366733770411942,-0.009195335523886973,-0.047766237399964995,0.08578658223059547,0.040781161795871594,-0.06577530527516323,0.026350442674544193,-0.03480528678450324,-0.04552482475217837,-0.189811378040776,-0.15432250926872984,0.1274300118040949
304,10.238557599994238,0.03702052183962124,-0.009030697145324831,-0.04803261144065282,0.08589159379922866,0.040639143828055696,-0.06595837004794364,0.025581884542596037,-0.0354275647350285,-0.045007340590945064,-0.19026794329965097,-0.15341464909244001,0.12848488068097644
305,10.242981799994595,0.03736808503015278,-0.00886663819003868,-0.04829972158141005,0.08599349351001473,0.04049461673177252,-0.06613933343772586,0.02481151838165056,-0.0360461344348207,-0.044485613938625324,-0.19070548732370843,-0.15248870963700648,0.12952801522390556
306,10.246914499992272,0.03771605401334604,-0.008703168774863615,-0.04856755928934434,0.08609227420665265,0.040347595651391524,-0.06631817838342673,0.02403942130816472,-0.036660923206154744,-0.043959692701439915,-0.19112391533765127,-0.15154490686082236,0.13055919420043685
307,10.250990499989712,0.03806441616144809,-0.008540298954795106,-0.04883611596295848,0.08618792904548471,0.0401980960234312,-0.06649488801950763,0.023265670819705545,-0.03727185924472803,-0.04342962567212453,-0.1915231338383706,-0.1505834566693567,0.13157819999739992
308,10.255387400000473,0.03841315881966331,-0.00837803872181467,-0.04910538293294837,0.08628045149702533,0.04004613357302822,-0.06666944567953058,0.0224903447890014,-0.03787887161910106,-0.042895462516997766,-0.19190305068764907,-0.14960457485033724,0.13258481829165905
309,10.259493799996562,0.03876226930742702,-0.008216398003729801,-0.04937535146301537,0.08636983534746664,0.039891724310408425,-0.06684183489966786,0.021713521458851213,-0.038481890270304527,-0.04235725376228271,-0.19226357529353805,-0.1486084771375064,0.13357883828834788
310,10.263670399988769,0.039111734919685115,-0.008055386663028182,-0.049646012750692727,0.08645607470016611,0.03973488452735912,-0.06701203942214742,0.02093527943470873,-0.039080846011795595,-0.041815050779248006,-0.1926046193065908,-0.14759537931997319,0.13456005260376735
311,10.267826199997216,0.0394615429281797,-0.00789501449574615,-0.04991735792818578,0.08653916397709213,0.03957563079370041,-0.06718004319864243,0.020155697673960454,-0.03967567052994942,-0.04126890577147661,-0.1929260970010747,-0.14656549739187694,0.13552825710500654
312,10.271858899999645,0.03981168058274047,-0.007735291230351444,-0.05018937806322577,0.08661909792022493,0.03941397995375355,-0.06734583039361361,0.019374855475426608,-0.040266296385225955,-0.040718871761304044,-0.19322792522066484,-0.1455190478362276,0.1364832512648557
313,10.27620009999373,0.04016213511258164,-0.00757622652664024,-0.0504620641599371,0.08669587159291725,0.039249949122802816,-0.06750938538758912,0.018592832469078297,-0.04085265701495723,-0.04016500257421649,-0.19351002320979244,-0.1444562481095329,0.13742483829523702
314,10.28030579999904,0.04051289372760433,-0.007417829974648517,-0.050735407159717666,0.08676948038121209,0.03908355568354132,-0.06767069278038074,0.017809708606902556,-0.04143468673843391,-0.039607352824209886,-0.19377231241593554,-0.14337731712016982,0.13835282459458154
315,10.284407499988449,0.040863943619704184,-0.007260111093577833,-0.05100939794213214,0.08683991999512947,0.03891481728249175,-0.06782973739424529,0.017025564154218634,-0.04201232076356174,-0.03904597790265773,-0.19401471657977534,-0.14228247560990823,0.13926701911757855
316,10.288547299991478,0.041215271964084116,-0.007103079330735642,-0.051284027325817876,0.08690718646991397,0.03874375182639833,-0.0679865042770108,0.016240479679813832,-0.04258549519503394,-0.03848093396876774,-0.19423716187011617,-0.14117194656450877,0.14016723346808765
317,10.292762599987327,0.04156686592057205,-0.006946744060490258,-0.05155928606940345,0.0869712761672417,0.038570377478581476,-0.06814097870516075,0.015454536046168532,-0.04315414704430865,-0.03791227793769821,-0.19443957652791974,-0.14004595547730012,0.1410532818473761
318,10.296947099996032,0.041918712634943435,-0.006791114583240653,-0.05183516487243954,0.0870321857763888,0.03839471265524904,-0.06829314618686408,0.014667814402471155,-0.04371821423991318,-0.03734006747143331,-0.19462188994647683,-0.13890473023547406,0.14192498018711602
319,10.30117569999129,0.04227079924024841,-0.006636200124401252,-0.052111654376341965,0.08708991231538185,0.03821677602176763,-0.06844299246498564,0.013880396182282938,-0.044277635636501785,-0.036764360973911905,-0.19478403148068177,-0.1377485005012804,0.14278214515339677
320,10.304593999986537,0.04262311285814364,-0.006482009833401897,-0.0523887451653469,0.08714445313214753,0.038036586488900605,-0.06859050352007685,0.013092363106183719,-0.04483235102015492,-0.03618521758995866,-0.19492592868905045,-0.13657749645829645,0.1436245923898056
321,10.308158399988317,0.04297564060022877,-0.006328552782703066,-0.05266642776747814,0.08719580590568445,0.037854163209036513,-0.06873566557337747,0.012303797193655609,-0.04538230110729658,-0.03560269721462312,-0.1950475054974602,-0.13539194763947562,0.14445213444442642
322,10.31223539999337,0.043328369569387765,-0.006175837966826339,-0.052944692655526544,0.08724396864730886,0.03766952557243586,-0.06887846508988177,0.011514780780580809,-0.045927427540514584,-0.03501686050887766,-0.19514868252626508,-0.13419208347413994,0.1452645809675465
323,10.31746189999103,0.043681286861135406,-0.006023874301399979,-0.053223530248042134,0.0872889397019681,0.03748269320349334,-0.0690188887814673,0.010725396528479514,-0.0464676728919021,-0.03442776890735749,-0.19522938038330306,-0.13297813601310046,0.14606174210797238
324,10.321779199992308,0.04403437956496926,-0.00587267062221963,-0.05350293091033885,0.08733071774956094,0.03729368595695758,-0.06915692361002365,0.00993572741537324,-0.04700298068091924,-0.03383548460658852,-0.1952895227984367,-0.13175034254589724,0.1468434325385542
325,10.32533509998757,0.04438763476572687,-0.0057222356843244695,-0.05378288495551192,0.08736930180617715,0.03710252391404893,-0.06929255679048604,0.009145856719669951,-0.047533295398903316,-0.03324007054016816,-0.19532903576821506,-0.130508945397995,0.14760947162652677
326,10.328766799997538,0.04474103954494776,-0.005572578161089308,-0.054063382645467194,0.08740469122528753,0.03690922737848092,-0.0694257757937633,0.008355868017945533,-0.04805856252529014,-0.03264159036561539,-0.19534784412328068,-0.12925418919676213,0.1483596793825347
327,10.332928099989658,0.04509458098224021,-0.005423706643332921,-0.054344414191962155,0.08743688569896553,0.03671381687244687,-0.06955656834966507,0.007565845196592396,-0.04857872853001097,-0.0320401084723167,-0.19534586996746395,-0.12798631859364576,0.14909387369288374
328,10.337360599995009,0.04544824615665316,-0.005275629638442612,-0.05462596975765895,0.08746588525917148,0.03651631313262196,-0.06968492244989413,0.0067758724622258605,-0.0490937408712903,-0.031435689990762204,-0.19532303527158465,-0.1267055787303405,0.14981187245533437
329,10.342592199987848,0.045802022148053415,-0.0051283555695148765,-0.054908039457189625,0.08749169027905838,0.036316737106167646,-0.06981082635104825,0.00598603433235359,-0.04960354800181332,-0.030828400783216872,-0.19527926641340276,-0.12541221762045293,0.15051349856580978
330,10.347148899993044,0.04615589603850804,-0.004981892774512283,-0.05519061335823339,0.08751430147418068,0.036115109946683877,-0.06993426857753707,0.005196415609061964,-0.05010809938578701,-0.030218307412623196,-0.19521449651197617,-0.1241064878201949,0.15119858357543695
331,10.350838099999237,0.04650985491367138,-0.004836249505436881,-0.05547368148260546,0.08753371990358721,0.03591145301007547,-0.07005523792433244,0.004407101350804771,-0.05060734551862053,-0.029605477103693528,-0.19512866516418667,-0.12278864607729391,0.1518669677809145
332,10.355141499996536,0.046863885864176294,-0.004691433927520507,-0.0557572338073566,0.08754994697080182,0.03570578785034517,-0.0701737234595706,0.003618176848220608,-0.051101237941146654,-0.02898997771108186,-0.1950217166095403,-0.12145895170951464,0.15251849840479667
333,10.359802899998613,0.04721797598702911,-0.004547454118432225,-0.056041260265882985,0.08756298442472067,0.03549813621534501,-0.0702897145270451,0.002829727610765032,-0.051589729246187266,-0.02837187769519437,-0.19489359760455155,-0.1201176648216559,0.1531530274159985
334,10.363811199989868,0.04757211238700809,-0.004404318067502999,-0.05632575074904589,0.0875728343604848,0.03528852004251625,-0.07040320074861334,0.0020418393597203526,-0.052072773078353556,-0.027751246107989385,-0.1947442564403361,-0.1187650448137948,0.15377040922258914
335,10.367376999987757,0.04792628217806548,-0.004262033674967581,-0.05661069510630104,0.08757949922032085,0.03507696145464236,-0.07051417202657458,0.0012545980227736825,-0.05255032412854591,-0.027128152587449057,-0.19457364104249725,-0.11740134907303658,0.15437049827251892
336,10.370633699989412,0.04828047248473275,-0.00412060875122354,-0.05689608314683754,0.08758298179436977,0.03486348275563345,-0.0706226185460318,0.0004680897423952252,-0.05302233812317271,-0.026502667362785122,-0.19438169492842558,-0.11602683167301221,0.1549531455380812
337,10.373990599997342,0.04863467044352934,-0.003980051016107248,-0.05718190464072632,0.08758328522159534,0.034648106426366454,-0.07072853077731188,-0.00031759909688552863,-0.0534887718081315,-0.025874861277344938,-0.19416835479635916,-0.11464174252903432,0.15551819582855783
338,10.377952699986054,0.04898886320437529,-0.0038403680981865494,-0.05746814932007861,0.08758041299083344,0.0344308551205991,-0.07083189947851262,-0.001102381840601359,-0.05394958293119451,-0.025244805815553082,-0.1939335531359447,-0.11324632775523495,0.15606548941476628
339,10.382305999999517,0.04934303793200841,-0.0037015675340697973,-0.05775480688021504,0.08757436894192612,0.034211751660952604,-0.07093271569814089,-0.0018861715581858507,-0.054404730228878484,-0.024612573112677744,-0.1936772247832793,-0.1118408313530704,0.15659486778773554
340,10.386755499988794,0.04969718180740613,-0.0035636567677310178,-0.058041866980845416,0.08756515726682067,0.033990819034931806,-0.07103097077773862,-0.0026688810681134074,-0.05485417342248709,-0.023978235935195023,-0.19339931279753708,-0.11042549733057362,0.1571061803465503
341,10.390691499997049,0.05005128202921156,-0.003426643149851135,-0.05832931924725906,0.08755278251050033,0.03376808039093988,-0.07112665635436216,-0.003450422979269091,-0.0552978732221217,-0.02334186763646273,-0.1930997689325505,-0.10900057075020837,0.15759928738757348
342,10.394218199988243,0.05040532581516284,-0.003290533937175368,-0.05861715327152466,0.08753724957174881,0.03354355903426604,-0.07121976436284974,-0.004230709719902878,-0.05573579133119907,-0.022703542112907267,-0.19277855039726163,-0.10756629700208044,0.15807405774484473
343,10.39838639998925,0.0507593004035254,-0.0031553362918869095,-0.05890535861369894,0.08751856370384678,0.033317278423063715,-0.07131028703794642,-0.005009653552797395,-0.05616789044458367,-0.02206333377878236,-0.1924356182689363,-0.10612292024897749,0.15853036501191617
344,10.402127099994686,0.05111319305452694,-0.003021057280996851,-0.05919392480304368,0.08749673051521369,0.033089262164353345,-0.07139821691636747,-0.00578716659138794,-0.05659413424052858,-0.021421317552914453,-0.192070939015248,-0.10467068256901345,0.15896808652062208
345,10.405557999998564,0.05146699105179488,-0.002887703875750192,-0.0594828413392511,0.0874717559699739,0.03285953401006573,-0.07148354683881604,-0.006563160827241134,-0.057014487371873354,-0.020777568841721356,-0.19168448733925106,-0.1032098242930344,0.15938710550424345
346,10.409760299997288,0.05182068170379592,-0.0027552829510477687,-0.0597720976936772,0.08744364638837629,0.032628117853116055,-0.07156626995190923,-0.007337548169185637,-0.0574289154607139,-0.02013216350846155,-0.19127624733362017,-0.10174058476216044,0.15978731367985574
347,10.413964999999736,0.05217425234527689,-0.002623801284884015,-0.06006168331058269,0.08741240844704382,0.032395037723490325,-0.07164637970994707,-0.008110240480126514,-0.0578373850957275,-0.019485177835366286,-0.1908462108153724,-0.10026320246652085,0.16016861118447506
348,10.417916399994285,0.05252769033870632,-0.002493265557800546,-0.06035158760838067,0.08737804917909538,0.03216031778434103,-0.07172386987653223,-0.008881149602706861,-0.05823986382796482,-0.01883668849340537,-0.19039437430948677,-0.0987779143059597,0.1605309038204545
349,10.421283799994852,0.05288098307571629,-0.0023636823523554983,-0.06064179998089065,0.08734057597418787,0.031923982328107614,-0.07179873452609452,-0.009650187371725096,-0.058636320162195346,-0.01818677252669902,-0.18992073536344428,-0.09728495445159913,0.16087409913370473
350,10.424683699995512,0.053234117978544306,-0.0022350581526084912,-0.060932309798598566,0.08729999657853757,0.031686055772682145,-0.07187096804538451,-0.01041726560998786,-0.05902672354349153,-0.01753550735400378,-0.18942528786535842,-0.09578455328653232,0.16119810178549165
351,10.428013999990071,0.053587082501475355,-0.002107399343620981,-0.061223106409922866,0.08725631909499573,0.03144656265763829,-0.07194056513501003,-0.011182296102859441,-0.05941104434000633,-0.01688297079055817,-0.18890801703689794,-0.09427693666429521,0.16150280908037476
352,10.431478999991668,0.0539398641322844,-0.001980712210971721,-0.06151417914248697,0.08720955198327583,0.03120552764053628,-0.0720075208111065,-0.01194519055361645,-0.05978925382355971,-0.016229241085739518,-0.18836889668929235,-0.0927623255987255,0.16178810864415039
353,10.434617299993988,0.05429245039368024,-0.0018550029402870036,-0.06180551730439885,0.08715970406039028,0.030962975493308918,-0.07207183040717802,-0.01270586053580328,-0.060161324149907706,-0.015574396963690857,-0.18780789147962376,-0.09124093655835774,0.1620538793687097
354,10.43864229999599,0.05464482884475155,-0.001730277616785351,-0.0620971101855384,0.087106784501263,0.030718931098726122,-0.07213348957609624,-0.01346421746683612,-0.060527228341710086,-0.014918517653335552,-0.18722496529215757,-0.08971298276676344,0.16229999630435157
355,10.442775199990136,0.05499698708241571,-0.0016065422248363517,-0.06238894705885317,0.08705080283937963,0.030473419446918688,-0.07219249429218424,-0.01422017262814825,-0.06088694027931679,-0.01426168288943423,-0.18662009416747433,-0.08817867645710104,0.16252633931370813
356,10.446072399994591,0.05534891274287009,-0.0014838026475334682,-0.0626810171816626,0.0869917689672372,0.030226465631917367,-0.07224884085322404,-0.014973637243367392,-0.061240434701970825,-0.013603972872604756,-0.185993275929258,-0.08663823074629258,0.16273280058607206
357,10.449485499993898,0.055700593503044515,-0.0013620646662808665,-0.06297330979696995,0.08692969313636201,0.02997809484816689,-0.07230252588221697,-0.015724522576324354,-0.06158768721375343,-0.012945468209601818,-0.18534452770398605,-0.08509185961656686,0.162919284166452
358,10.452903999990667,0.05605201708205271,-0.0012413339603944186,-0.06326581413478086,0.08686458595696653,0.02972833238701697,-0.07235354632890821,-0.016472739989169156,-0.061928674284637664,-0.012286249877145994,-0.1846738754438968,-0.0835397763980994,0.1630856995288731
359,10.456565399988904,0.05640317124264196,-0.0011216161067169133,-0.06355851941342754,0.0867964583974973,0.02947720363322779,-0.07240189947125464,-0.01721820095563938,-0.06226337324416091,-0.01162639921418374,-0.18398134771221336,-0.0819821929039614,0.163231959032216
360,10.460332099988593,0.05675404379264093,-0.0010029165792473237,-0.06385141484089918,0.08672532178418453,0.02922473406151219,-0.07244758291688672,-0.017960817068909972,-0.06259176227548173,-0.010965997906294126,-0.18326697842119902,-0.0804193205403452,0.16335798255032383
361,10.463987099996302,0.057104622586405675,-0.0008852407487839848,-0.06414448961617807,0.08665118780052641,0.02897094923308923,-0.07249059460445025,-0.018700500077007524,-0.06291382041803208,-0.01030512794049962,-0.18253081387596556,-0.0788513722958313,0.16346370385754638
362,10.46782359998906,0.057454895526263275,-0.0007685938825817368,-0.06443773293058075,0.08657406848655234,0.028715874792204922,-0.07253093280470274,-0.019437161947631773,-0.06322952757766376,-0.009643871538025288,-0.18177291705094795,-0.07727856365829633,0.16354907353990072
363,10.472149799999896,0.05780485056395189,-0.0006529811440232435,-0.06473113396910306,0.08649397623778297,0.02845953646260372,-0.07256859612131134,-0.02017071493815884,-0.06353886453671677,-0.00898231108556354,-0.18099336674771757,-0.0757011120080344,0.16361405695049105
364,10.476115299999949,0.058154475702055994,-0.0005384075923046749,-0.06502468191176773,0.08641092380392718,0.02820196004396782,-0.0726035834913932,-0.02090107165365097,-0.0638418129592572,-0.008320529084570307,-0.18019225486880716,-0.07411923552870822,0.16365863003782968
365,10.48038729999098,0.05850375899543588,-0.0004248781821358255,-0.0653183659349738,0.08632492428737293,0.027943171408346297,-0.07263589418590337,-0.021628145094809918,-0.06413835539233713,-0.007658608116271131,-0.17936968418899796,-0.07253315245086156,0.16368277682904103
366,10.484580099990126,0.0588526885526507,-0.00031239776345467856,-0.06561217521284733,0.08623599114149642,0.027683196496584198,-0.07266552780989209,-0.022351848697960433,-0.06442847526511392,-0.006996630811313677,-0.1785257657449683,-0.07094308047479868,0.1636864876731518
367,10.48816639999859,0.05920125253737429,-0.00020097108115640634,-0.06590609891859293,0.08614413816882956,0.027422061314758807,-0.07269248430264721,-0.02307209636189062,-0.06471215688544223,-0.006334679828982445,-0.17766061588404103,-0.06934923615751769,0.16366975700919548
368,10.49162939999951,0.059549439169803355,-9.060277483675896e-05,-0.06620012622584563,0.08604937951915194,0.02715979193063631,-0.07271676393778344,-0.023788802463965097,-0.06498938543403472,-0.005672837844903286,-0.17677435521516555,-0.06775183484634824,0.16363258213517992
369,10.49642889999086,0.05989723672805792,1.8702621450276386e-05,-0.06649424631002307,0.08595172968752807,0.026896414470155283,-0.07273836732328522,-0.024501881878480715,-0.06526014696051734,-0.005011187540214939,-0.1758671116789672,-0.0661510918835841,0.16357496452036774
370,10.500929099987845,0.060244633549573615,0.00012694067942064428,-0.06678844834967777,0.08585120351225087,0.02663195511391526,-0.07275729540150845,-0.025211250017610865,-0.06552442838733327,-0.004349811578659571,-0.17493902661826755,-0.06454722462873753,0.1634969141840023
371,10.50523379999504,0.060591618032485466,0.00023410707677416076,-0.06708272152784935,0.0857478161725477,0.026366440093628655,-0.07277354944903809,-0.025916822898860745,-0.06578221752215466,-0.003688792560338324,-0.17399025829256204,-0.06294045382559361,0.16339845370830836
372,10.50932239998656,0.06093817863700166,0.0003401975973939846,-0.06737705503341558,0.08564158318597832,0.02609989568850893,-0.07278713107631579,-0.026618517214437462,-0.06603350307284354,-0.003028212966343921,-0.173020980528404,-0.06133100347467082,0.16327961857960863
373,10.513548299990362,0.061284303886766284,0.0004452081315313437,-0.06767143806244165,0.08553252040557979,0.02583234822160151,-0.07279804222704969,-0.027316250387789332,-0.06627827465883201,-0.0023681551097571923,-0.1720313795842284,-0.059719099815487994,0.16314045509028663
374,10.51788659999147,0.06162998237020998,0.0005491346759753303,-0.06796585981952644,0.08542064401680714,0.025563824056079924,-0.07280628517744572,-0.02800994061761807,-0.06651652281785154,-0.0017087010972490207,-0.17102165216941195,-0.058104970467097394,0.16298101863426312
375,10.52203519998875,0.061975202741887954,0.0006519733342076698,-0.06826030951914551,0.08530597053432232,0.025294349591522276,-0.07281186253530682,-0.028699506918395852,-0.06674823901036157,-0.0010499327938633851,-0.16999200557685876,-0.05648884408818316,0.16280137320804966
376,10.526253999996698,0.062319953723804666,0.000753720316542399,-0.06855477638699017,0.08518851679860712,0.025023951260171564,-0.07281477723897938,-0.029384869165449898,-0.06697341562352968,-0.0003919317886548811,-0.168942657539174,-0.05487095022103094,0.1626015905706848
377,10.530300099999296,0.06266422410672443,0.0008543719402503879,-0.06884924966130192,0.08506829997238749,0.024752655523179967,-0.07281503255617454,-0.03006594813431623,-0.06719204597439815,0.0002652206337336338,-0.16787383361725233,-0.05325151883310011,0.16238174890790574
378,10.53370799998811,0.06300800275146717,0.0009539246296686412,-0.06914371859420193,0.08494533753692818,0.02448048886684355,-0.07281263208268478,-0.03074266552470264,-0.0674041243101563,0.0009214435166290797,-0.16678576302987064,-0.051630779338280704,0.16214192999969157
379,10.537045999997645,0.0633512785901891,0.0010523749162943655,-0.06943817245301517,0.08481964728826319,0.02420747779884435,-0.07280757974101462,-0.0314149439661114,-0.06760964580339077,0.0015766562368410445,-0.16567867355518123,-0.05000895931579937,0.16188221394589405
380,10.54044939999585,0.06369404062764795,0.0011497194388638758,-0.06973260052158882,0.08469124733344496,0.023933648844523495,-0.07279987977905265,-0.03208270700056449,-0.06780860654199611,0.0022307784855596967,-0.16455278634777684,-0.04838628347688616,0.1616026744463957
381,10.54384049998771,0.0640362779424533,0.0012459549434165192,-0.07002699210160558,0.08456015608691457,0.023659028543204893,-0.07278953676885674,-0.03274587904630572,-0.06800100351606729,0.002883730235693671,-0.1634083149155469,-0.04676297347109759,0.16130337754398413
382,10.547385999991093,0.06437797968830247,0.001341078283343847,-0.07032133651389233,0.08442639226704446,0.023383643444574373,-0.07277655560559022,-0.0334043853722506,-0.06818683460624378,0.0035354317126001025,-0.16224547183764462,-0.0451392488530868,0.16098438587176456
383,10.551214599996456,0.0647191350952029,0.0014350864194242513,-0.07061562309972481,0.08428997489271531,0.023107520105097645,-0.07276094150654386,-0.034058152116024656,-0.06836609857842146,0.004185803395776416,-0.1610644801834145,-0.043515328871020775,0.16064576746449363
384,10.55464149999898,0.06505973347068034,0.0015279764198431658,-0.07090984122212837,0.08415092327971288,0.022830685084442214,-0.07274270001005834,-0.03470710635077182,-0.06853879508656181,0.004834766060858149,-0.15986558240369367,-0.04189143399131912,0.16028760320926477
385,10.558416599989869,0.06539976420097206,0.0016197454601987616,-0.07120398026717394,0.08400925703676451,0.022553164941872615,-0.07272183697420656,-0.035351176175107364,-0.06870492467973618,0.005482240841573338,-0.15864904127737664,-0.040267786313749165,0.15990998923183983
386,10.563645399990492,0.06573921675220304,0.0017103908234929921,-0.07149802964526808,0.08386499606120841,0.022274986232615358,-0.07269835857521503,-0.035990290787582244,-0.06886448880829235,0.00612814929104146,-0.15741513594953646,-0.03864460931304413,0.1595130371847319
387,10.567864599986931,0.06607808067154411,0.0017999099001078879,-0.07179197879243626,0.08371816053442786,0.021996175504204282,-0.07267227130565035,-0.036624380544591606,-0.06901748982880897,0.006772413446057888,-0.1561641598588405,-0.03702212778014878,0.15909687485158477
388,10.571906699988176,0.06641634558835122,0.0018883001877670418,-0.0720858171715982,0.08356877091705216,0.021716759292805428,-0.07264358197232064,-0.03725337701807568,-0.06916393100978688,0.007414955893281172,-0.15489641919086308,-0.03540056780423259,0.15866164459729748
389,10.575335499990617,0.06675400121528476,0.001975559291482179,-0.07237953427383416,0.0834168479439241,0.021436764119516363,-0.07261229769392673,-0.03787721304091834,-0.0693038165364581,0.008055699820981798,-0.15361222778997102,-0.03378015605375946,0.15820749849183668
390,10.578866899988498,0.06709103734940813,0.0020616849234847104,-0.07267311961964129,0.08326241261893372,0.02115621648665215,-0.07257842589854502,-0.03849582272349436,-0.0694371515106623,0.008694569045789911,-0.15231190102219,-0.03216111831268241,0.15773459154327069
391,10.583031399990432,0.06742744387326531,0.0021466749031422623,-0.07296656276017958,0.08310548620985199,0.020875142874045686,-0.07254197432106231,-0.039109141449429646,-0.06956394194381622,0.009331488009711534,-0.15099575333499066,-0.030543677970512235,0.15724307605682683
392,10.586596599998302,0.06776321075593758,0.0022305271568603064,-0.07325985327850748,0.08294609024319881,0.02059356973539052,-0.07250295100068282,-0.039717105872411534,-0.06968419474457752,0.009966381761251244,-0.14966409983134907,-0.028928055305187068,0.15673310064124035
393,10.590687699994303,0.0680983280540796,0.0023132397179691103,-0.07355298079080762,0.08278424649910249,0.02031152349464097,-0.0724613642785157,-0.04031965392468035,-0.06979791770601391,0.010599175944391543,-0.14831726065101797,-0.02731446796795108,0.15620481492732355
394,10.594711199999438,0.0684327859129346,0.00239481072659625,-0.07384593494760296,0.08261997700609909,0.020029030542458734,-0.07241722279517114,-0.04091672484927629,-0.06990511949718886,0.011229796817880246,-0.14695556679093505,-0.025703132221035197,0.15565837743656244
395,10.598995999986071,0.06876657456732833,0.00247523842952482,-0.07413870543496308,0.08245330403573109,0.019746117232681056,-0.07237053548819194,-0.04150825925560757,-0.07000580966034126,0.011858171307852602,-0.1455793629919846,-0.02409426397733362,0.1550939616938516
396,10.60338229998888,0.06909968434264062,0.00255452118003738,-0.07443128197569954,0.08228425009689726,0.01946280987879014,-0.07232131158922402,-0.042094199175046,-0.0700999986108802,0.012484227076559669,-0.1441890063490789,-0.022488078990309406,0.15451175772072723
397,10.607640499991248,0.06943210565575358,0.002632657437745609,-0.07472365433054927,0.08211283793000165,0.01917913475038136,-0.07226956062089199,-0.0426744881052532,-0.07018769763610076,0.013107892587068,-0.1427848633717844,-0.02088479233539332,0.1539119689156791
398,10.61164399998961,0.06976382901597587,0.002709645768405685,-0.07501581229934468,0.081939090500945,0.018895118069643082,-0.07221529239344646,-0.04324907104200195,-0.07026891889098413,0.013729097146755371,-0.14136730723289676,-0.019284617753562137,0.15329480735891418
399,10.615427499986254,0.0700948450259423,0.0027854848437194693,-0.07530774572216992,0.08176303099501629,0.018610786007858815,-0.0721585170012878,-0.043817894501248345,-0.07034367539160415,0.014347770934034478,-0.13993671587787757,-0.017687767069606047,0.15266048990309156
400,10.619772599995486,0.07042514438248867,0.0028601734411215934,-0.07559944448050288,0.08158468281070565,0.01832616468194037,-0.07209924481939724,-0.04438090653566188,-0.07041198100622229,0.014963845010229763,-0.13849347176307336,-0.016094449685450648,0.15200923573544145
401,10.623778999986826,0.07075471787750136,0.0029337104435526026,-0.07589089849834259,0.08140406955346222,0.018041280151002058,-0.07203748649976463,-0.04493805675458029,-0.07047385044459606,0.015577251326583058,-0.1370379638241401,-0.01450487239022733,0.151341267637223
402,10.628011999986484,0.07108355639874163,0.003006094839218336,-0.07618209774332231,0.08122121502934564,0.017756158412980293,-0.07197325296776286,-0.04548929635646064,-0.07052929924753784,0.016187922746317147,-0.1355705896247842,-0.012919239618926133,0.1506568153393127
403,10.632227099995362,0.07141165093064393,0.0030773257213357265,-0.07647303222780763,0.08103614323852147,0.01747082540129226,-0.07190655541839713,-0.04603457816621357,-0.07057834377831528,0.016795793078782068,-0.13409175533257064,-0.011337753863254483,0.14995611751650686
404,10.636190099990928,0.07173899255508756,0.0031474022878651576,-0.07676369200997919,0.0808488783686107,0.017185306981525067,-0.07183740531240325,-0.04657385666745876,-0.07062100121553322,0.01740079711764898,-0.1326018738029044,-0.009760615833974902,0.14923942152531994
405,10.639990099996794,0.07206557245214117,0.0032163238412294837,-0.07705406719489925,0.08065944478792425,0.016899628948151987,-0.07176581437218794,-0.04710708802436202,-0.07065728954584717,0.01800287067293573,-0.1311013624273271,-0.008188024313899755,0.14850698122660666
406,10.643483699997889,0.0723913819007797,0.0032840897880198265,-0.07734414793556157,0.0804678670386359,0.01661381702128055,-0.07169179457766812,-0.04763423009648734,-0.0706872275556562,0.018601950591589658,-0.12959064276884247,-0.006620175997444354,0.14775905509775225
407,10.647034699999494,0.07271641227957372,0.0033506996386882945,-0.07763392443392432,0.08027416982989666,0.016327896843435958,-0.07161535816204476,-0.04815524245768446,-0.07071083482251868,0.019197974774244196,-0.12807014134789035,-0.005057265463863791,0.1469959061529112
408,10.655434199987212,0.07304065506735061,0.003416153007227762,-0.07792338694192577,0.0800783780308549,0.016041893976378625,-0.07153651760750655,-0.04867008641729801,-0.07072813170662869,0.019790882195156546,-0.1265402895364932,-0.0034994851799759258,0.1462178027306711
409,10.659680899989326,0.07336410184382744,0.0034804496108388496,-0.07821252576248247,0.0798805166635992,0.01575583389795653,-0.07145528564084261,-0.04917872503819891,-0.0707391393422538,0.02038061292533505,-0.1250015234010564,-0.0019470254773788877,0.1454250187042807
410,10.66355109999131,0.07368674429021516,0.0035435892695842427,-0.07850133125046946,0.07968061089603266,0.015469741998991997,-0.07137167522895903,-0.04968112315672205,-0.07074387962902727,0.02096710815417725,-0.12345428378213535,-0.00040007447503555364,0.144617832536366
411,10.66779769999266,0.07400857418979374,0.0036055719060304925,-0.07878979381368215,0.07947868603465447,0.015183643580204496,-0.07128569957431655,-0.05017724740134289,-0.07074237522275958,0.021550310204951597,-0.12189901469449617,0.0011411820663745087,0.14379652557461964
412,10.672151099992334,0.07432958342845805,0.003666397544877446,-0.07907790391377965,0.0792747675172831,0.014897563849171732,-0.07119737211032194,-0.05066706619967448,-0.07073464952555265,0.022130162542650732,-0.12033616080692372,0.002676560939406824,0.1429613803477042
413,10.676190599988333,0.07464976399523411,0.0037260663125754673,-0.07936565206720941,0.07906888090578139,0.0146115279173324,-0.07110670649670213,-0.05115054977676027,-0.07072072667503457,0.022706609775690122,-0.11876616576612538,0.004205881708394438,0.14211267917341716
414,10.680428399995437,0.07496910798276611,0.0037845784369306247,-0.07965302884611308,0.07886105187879348,0.014325560797034356,-0.07101371661488184,-0.05162767014851455,-0.07070063153270616,0.0232795976525039,-0.11718947049199634,0.005728966924378564,0.1412507028489545
415,10.683673199993793,0.07528760758777397,0.0038419342466980374,-0.07994002487921377,0.07865130622452296,0.01403968739863162,-0.07091841656338527,-0.052098401106227,-0.07067438967143735,0.02384907305265011,-0.11560651115573752,0.007245642258893547,0.14037572915555802
416,10.687239499995483,0.07560525511148192,0.0038981341711635835,-0.08022663085268475,0.07843966983359514,0.013753932527633678,-0.07082082065328564,-0.0525627181936498,-0.07064202736273167,0.024414983971311824,-0.11401771787054761,0.008755736497932362,0.13948803054897527
417,10.691265099987504,0.0759220429600183,0.003953178739714188,-0.08051283751099989,0.07822616869202051,0.013468320881905499,-0.07072094340373226,-0.0530205986809122,-0.07060357156427138,0.024977279491722397,-0.11242351463858662,0.010259081561716154,0.13858787227377134
418,10.69544309999037,0.07623796364478726,0.004007068581396886,-0.08079863565776617,0.07801082887426802,0.01318287704891757,-0.07061879953762314,-0.05347202154117866,-0.07055904990702208,0.025535909754414762,-0.11082432087221177,0.011755512612105511,0.13767551322672844
419,10.698871799992048,0.07655300978281256,0.004059804424466867,-0.08108401615653914,0.07779367653641732,0.012897625503050212,-0.07051440397738067,-0.05391696743686752,-0.0705084906819091,0.026090825936630018,-0.10922055325548394,0.013244868137009633,0.13675120747786793
420,10.702410399986547,0.07686717409705382,0.0041113870959247345,-0.08136896993162125,0.0775747379093435,0.012612590602951381,-0.07040777184079086,-0.054355418711365316,-0.0704519228262394,0.026641980233869062,-0.10761262529888807,0.014726990082441742,0.13581520416756648
421,10.705730199988466,0.07718044941669525,0.004161817521043181,-0.08165348796884365,0.07735403929193632,0.012327796588950807,-0.07029891843692826,-0.054787359371643966,-0.07038937590930981,0.027189325838469027,-0.10600094521605634,0.016201723967783622,0.13486774684956482
422,10.709195299990824,0.07749282867740702,0.004211096722883331,-0.08193756131633159,0.07713160704442563,0.012043267580534197,-0.07018785926216839,-0.05521277506280161,-0.07032088011789671,0.027732816915841042,-0.10438591518658764,0.017668918883594533,0.13390907288659074
423,10.71335989999352,0.07780430492158003,0.004259225821800991,-0.08222118108525392,0.07690746758180646,0.011759027573874736,-0.0700746099963049,-0.055631653044717316,-0.07024646624188198,0.02827240857815835,-0.10276793227629795,0.01912842766128399,0.13293941436997242
424,10.717645999990054,0.07811487129853409,0.0043062060349430215,-0.08250433845055712,0.07668164736735321,0.011475100439423553,-0.06995918649877482,-0.05604398217403511,-0.07016616565837029,0.02880805686803208,-0.10114739040437402,0.020580107317203986,0.13195900194977583
425,10.722107499997946,0.07842452106470023,0.004352038675734099,-0.08278702465168426,0.07645417290619055,0.011191509919569681,-0.06984160480490775,-0.0564497528967294,-0.07008001031372321,0.02933971876317826,-0.09952468209880434,0.02202381939208723,0.13096806871416372
426,10.726113599987002,0.0787332475837769,0.004396725153354165,-0.08306923099327872,0.07622507073886774,0.010908279626375837,-0.06972188112211337,-0.05684895724428725,-0.06998803270493101,0.029867352191470617,-0.09790019810435127,0.023459429885340277,0.1299668504002544
427,10.729634999996051,0.07904104432686025,0.004440266972206872,-0.08335094884587226,0.07599436743496031,0.010625433039389046,-0.06960003182600885,-0.05724158882310303,-0.06989026586217822,0.030390916037313042,-0.0962743251529903,0.024886808764986557,0.1289555818800711
428,10.733180699986406,0.07934790487254867,0.004482665731379325,-0.08363216964655742,0.07576208958673025,0.010342993503517441,-0.06947607345655483,-0.05762764279262759,-0.06978674333417915,0.03091037012827006,-0.09464744331494827,0.026305829403925746,0.12793449298928716
429,10.737444299986237,0.07965382290702172,0.004523923124093354,-0.08391288489964444,0.07552826380290442,0.010060984226959495,-0.069350022714291,-0.05800711583333752,-0.06967749917530307,0.03142567520770139,-0.0930199253168972,0.027716368532186262,0.1269038068235482
430,10.741690299997572,0.07995879222409435,0.004564040937148505,-0.08419308617730306,0.07529291670259375,0.009779428279184947,-0.06922189645669337,-0.058380006119369804,-0.06956256793129587,0.03193679290761272,-0.09139213842912738,0.029118306758115588,0.12586374133799155
431,10.746484199989936,0.08026280672524672,0.004603021050356986,-0.08447276512019007,0.07505607490929303,0.00949834858897953,-0.06909171169462945,-0.05874631330175489,-0.06944198462218983,0.03244368573422749,-0.08976444643375298,0.030511529117790464,0.1248145124936643
432,10.750892999989446,0.08056586041962978,0.004640865435970842,-0.08475191343806246,0.07481776504493573,0.009217767942564122,-0.06895948558883226,-0.05910603849697056,-0.06931578472358152,0.03294631706628653,-0.08813721038671334,0.03189592532905252,0.12375633596310513
433,10.755194999990636,0.08086794742404708,0.004677576158101686,-0.08503052291037635,0.07457801372398636,0.0089377089817909,-0.0688252354463692,-0.059459184276338235,-0.06918400414748686,0.033444651154414896,-0.08651078806388289,0.033271389752022394,0.12268942744621901
434,10.759182499998133,0.0811690619629126,0.004713155372133288,-0.0853085853868717,0.07433684754758102,0.00865819420241734,-0.06868897871712122,-0.05980575465009685,-0.06904667922393841,0.033938653121976387,-0.08488553296572077,0.03463782118589662,0.12161400237986132
435,10.763643399986904,0.08146919836818504,0.00474760532412734,-0.08558609278814265,0.07409429309774863,0.008379245952451223,-0.06855073299024476,-0.06014575504874859,-0.06890384668348394,0.034428288962091436,-0.08326179363694616,0.03599512276078825,0.12053027399720524
436,10.76801039998827,0.08176835107927903,0.004780928350222664,-0.0858630371061937,0.07385037693170235,0.008100886430566178,-0.06841051599067506,-0.06047919230163017,-0.06875554363965858,0.03491352552279539,-0.08163991321829306,0.03734320185250273,0.11943845228042049
437,10.772070999999414,0.08206651464295321,0.0048131268760281615,-0.08613941040498174,0.07360512557623407,0.007823137684588461,-0.06826834557570813,-0.060806074614633075,-0.06860180757217268,0.0353943304955855,-0.08002022934299036,0.03868196985298164,0.1183387444562252
438,10.776353299996115,0.08236368371317607,0.0048442034160097805,-0.08641520482094456,0.07335856552218609,0.007546021610048487,-0.06812423973159668,-0.06112641154793751,-0.06844267631124067,0.03587067240458728,-0.07840307350713338,0.04001134191787139,0.1172313541850981
439,10.78032269999676,0.08265985305096936,0.00487416057287175,-0.08669041256351538,0.0731107232190257,0.007269559948794346,-0.06797821657021974,-0.06144021398864014,-0.06827818802281059,0.03634252058854372,-0.07678877083294024,0.04133123680757423,0.11611648135189853
440,10.78497459999926,0.08295501752423003,0.004903001036932331,-0.0869650259156244,0.07286162506953825,0.006993774287662809,-0.06783029432582427,-0.06174749412657319,-0.0681083811941786,0.03680984518828812,-0.07517764085620962,0.04264157690026434,0.11499432290189976
