,time,x,y,z,vx,vy,vz,ax,ay,az,jx,jy,jz
0,12.298007399993368,-0.020390598411031368,-0.02733470734966346,-0.004797052592745788,-0.0017069159748911381,-0.020423442440025915,0.004261724614882172,0.03390037210462417,0.023819088636204872,-0.0011483455484876625,0.10737381947378312,0.16757655241071215,-0.051566607542982944
1,12.30202350000036,-0.020397681204066702,-0.027423043152162305,-0.004778583776684228,-0.0015589084029042457,-0.02031858315191293,0.004256260396570236,0.03436671613429922,0.024548289726918537,-0.0013735660854669045,0.1077170478193989,0.1687544543017275,-0.05231390754727876
2,12.30844629999774,-0.02040411782537513,-0.027510917410496483,-0.004760140771788911,-0.0014088754523123804,-0.020210550842526917,0.004249812555775063,0.034834533084604845,0.0252825879577878,-0.001602030569849559,0.1080531264821908,0.1699274300207962,-0.05306278971668033
3,12.31288539999514,-0.02040989947870239,-0.027598316317953654,-0.004741727873721744,-0.00125681080347836,-0.02009932345605965,0.004242367011285496,0.03530379170931699,0.02602196151580725,-0.0018337456823432651,0.10838194191264389,0.17109527011265202,-0.053813171600480665
4,12.316899400000692,-0.02041501734068487,-0.027685225972388577,-0.00472334943926609,-0.0011027082733204036,-0.019984879033256926,0.004233909653696599,0.03577446026529658,0.02676638767597604,-0.002068717748303034,0.10870337831121141,0.1722577632124688,-0.05456497162974075
5,12.320682499994293,-0.020419462561446403,-0.027771632376650358,-0.004705009886445689,-0.0009465618174892478,-0.0198671957153899,0.0042244263469414615,0.03624650650206425,0.02751584279225697,-0.0023069527410413287,0.10901731762300594,0.17341469565232068,-0.05531810887376794
6,12.32506750000175,-0.020423226265204604,-0.027857521439027,-0.004686713694636962,-0.0007883655325908681,-0.01974625174827131,0.004213902929812432,0.036719897652666485,0.028270302286644088,-0.0025484562840530863,0.1093236398994903,0.17456585130687868,-0.056072502880551545
7,12.329264500003774,-0.02042629955088695,-0.02794287897370747,-0.004668465404674735,-0.0006281136584428066,-0.019622025486321616,0.004202325217473632,0.037194600426387066,0.029029740638783608,-0.002793233652941998,0.1096222236335965,0.17571101194423042,-0.05682807364631704
8,12.333288900001207,-0.02042867349275668,-0.028027690701261522,-0.004650269618951426,-0.00046580058036010323,-0.019494495396675242,0.004189679002965475,0.03767058100251948,0.029794131378083948,-0.0030412897773814947,0.1099129459352544,0.17684995758767844,-0.057584741622076184
9,12.3376838999975,-0.020430339141048706,-0.02811194224913737,-0.004632131001509725,-0.00030142083146563094,-0.019363640063315143,0.004175950058700182,0.03814780502460062,0.030563447076474286,-0.0032926292430978305,0.11019568272820349,0.1779824665106684,-0.05834242769229195
10,12.342769800001406,-0.020431287522615544,-0.028195619152177366,-0.004614054278128808,-0.00013496909502603424,-0.019229438191241833,0.0041611241379491005,0.03862623759589002,0.031337659340470614,-0.0035472562936460445,0.11047030928724429,0.17910831527387558,-0.05910105314571285
11,12.345994000002976,-0.020431509641583478,-0.028278706853151828,-0.004596044236404121,3.355979319872982e-05,-0.019091868610676774,0.004145186976322815,0.03910584327826278,0.032116738804255925,-0.0038051748321401096,0.11073670072760146,0.18022727887937323,-0.059860539671371
12,12.350244899993411,-0.02043099648001888,-0.02836119070331117,-0.004578105725820754,0.00020417084260985184,-0.018950910281291408,0.004128124293243464,0.03958658609193275,0.03290065512308327,-0.0040663884229941855,0.11099473184533892,0.18133913068021712,-0.06062080932668297
13,12.35462689999258,-0.020429738998604702,-0.02844305596295642,-0.00456024365782046,0.0003768689054177289,-0.018806542296467756,0.004109921793409751,0.040068429512961475,0.03368937696557182,-0.004330900293376129,0.1112442766120451,0.1824436422689021,-0.061381784416380994
14,12.35881689999951,-0.020427728137327204,-0.028524287802028283,-0.004542463005862325,0.0005516586742748212,-0.01865874388759426,0.004090565168256655,0.04055133646859908,0.03448287200614259,-0.004598713333898795,0.1114852078397178,0.18354058353571784,-0.06214338728904422
15,12.362817899993388,-0.02042495481617297,-0.028604871300714912,-0.004524768805477122,0.0007285446798833054,-0.01850749442839199,0.004070040097414445,0.041035269331887,0.0352811069178206,-0.00486983009830899,0.11171739712225105,0.18462972275385786,-0.06290554015765218
16,12.367053599999052,-0.020421409935836382,-0.028684791450078503,-0.004507166154315335,0.0009075312885811243,-0.018352773439272906,0.004048332250171089,0.04152018991649145,0.03608404736540864,-0.005144252802622549,0.11194071494713764,0.18571082671264372,-0.06366816503440209
17,12.371500099994591,-0.020417084378437568,-0.02876403315270086,-0.004489660212188826,0.0010886226999048338,-0.01819456059172525,0.004025427286938769,0.04200605947227482,0.036891657999444855,-0.005421983324248007,0.11215503094548294,0.18678366073312008,-0.06443118373998163
18,12.375354799994966,-0.020411969008251016,-0.028842581223348013,-0.004472256201106141,0.0012718229441372466,-0.01803283571272423,0.004001310860723891,0.04249283868229737,0.03770390244951174,-0.005703023201202083,0.11236021405688651,0.1878479883649748,-0.06519451793547974
19,12.379352899995864,-0.020406054672444798,-0.028920420389654037,-0.004454959405301432,0.0014571358798442765,-0.017867578789175435,0.003975968618600403,0.042980487659818566,0.03852074331556527,-0.0059873736315101,0.11255613250284133,0.18890357122185492,-0.06595808909715264
20,12.383607900002971,-0.020399332201830527,-0.02899753529282421,-0.0044377751712569805,0.0016445651913965767,-0.0176987699724007,0.003949386203185006,0.04346896594506806,0.03934214215981577,-0.00627503547220263,0.11274265378677305,0.18995016920989832,-0.06672181837278623
21,12.387583100004122,-0.020391792411624088,-0.029073910488357734,-0.00442070890771933,0.001834114386478381,-0.017526389582651954,0.00392154925411917,0.04395823250224737,0.040168059500038884,-0.006566009237470235,0.11291964483760887,0.1909875404905059,-0.06748562645674666
22,12.39109869999811,-0.020383426102217196,-0.029149530446790032,-0.004403766085708957,0.002025786793583139,-0.01735041811365508,0.003892443409560349,0.044448245717545944,0.04099845480113362,-0.006860295096576507,0.11308697228107517,0.19201544121974934,-0.0682494335367286
23,12.394453500004602,-0.020374224059959842,-0.02922437955445488,-0.004386952238523469,0.002219585559505153,-0.017170836237196983,0.003862054307682099,0.04493896339849564,0.04183328646617339,-0.007157892871550991,0.11324450278016857,0.19303362566535773,-0.0690131593269633
24,12.39823669999896,-0.02036417705795361,-0.029298442114266486,-0.004370272961734266,0.0024155136468296144,-0.016987624807747053,0.0038303675881852985,0.045430342774939445,0.042672511828978556,-0.007458802035390218,0.11339210339147233,0.19404184645670175,-0.06977672327043602
25,12.401879900004133,-0.02035327585685589,-0.0293717023465217,-0.0043537339131766335,0.0026135738314326403,-0.016800764867108648,0.003797368893813867,0.045922340501476096,0.043516087147335465,-0.007763021711504328,0.11352964151730949,0.1950398545582643,-0.07054004467185111
26,12.40536799999245,-0.020341511205694864,-0.02944414438972243,-0.004337340812933262,0.002813768699992513,-0.01661023764909937,0.0037630438718707845,0.04641491265801384,0.044363967595338914,-0.008070550673071225,0.11365698426217424,0.19602739911547412,-0.07130304254068512
27,12.408627600001635,-0.020328873842695317,-0.02951575230141844,-0.0043210994433111865,0.0030161006474945184,-0.01641602458426895,0.003727378175739414,0.04690801474663379,0.04521610725527418,-0.0083813873411221,0.11377399783158568,0.1970042273958916,-0.07206563532257021
28,12.412897000001976,-0.020315354496115264,-0.029586510059070693,-0.004305015648812117,0.0032205718747149816,-0.016218107304649926,0.0036903574664161206,0.04740160168693033,0.04607245910944945,-0.008695529781566048,0.11388054750549505,0.19797008473615638,-0.07282774075167787
29,12.416870000000928,-0.020300943885093563,-0.02965640156093533,-0.004289095336096085,0.0034271843856856976,-0.01601646764854636,0.003651967414057399,0.04789562781264385,0.04693297503161775,-0.00901297570199541,0.1139764979149467,0.19892471459021743,-0.07358927587602142
30,12.421054999998889,-0.020285632720508543,-0.029725410626968547,-0.0042733444739383565,0.003635939985148764,-0.015811087665358912,0.0036121936995401984,0.04839004686940048,0.04779760577922764,-0.009333722448929814,0.11406171336650196,0.19986785866179804,-0.0743501571292453
31,12.425188199995318,-0.02026941170584769,-0.02979352099975244,-0.00425776909317955,0.00384684027600141,-0.015601949620440763,0.0035710220160329494,0.048884812014158306,0.048666300985993935,-0.009657767005244112,0.11413605815073422,0.2007992569257507,-0.07511030034257374
32,12.433756200000062,-0.020252271538088434,-0.029860716345441973,-0.004242375286668919,0.004059886656746026,-0.015389035999987116,0.0035284380705781957,0.04937987581562249,0.049539009154333596,-0.009985105987516039,0.11419939651038112,0.20171864767622028,-0.07586962073421213
33,12.437764999995125,-0.020234202908589943,-0.02992698025473322,-0.00422716920920075,0.004275080318938593,-0.01517232951595671,0.0034844275856866225,0.049875190253415316,0.05041567764835414,-0.010315735643362228,0.11425159252861719,0.20262576771259397,-0.0766280329039726
34,12.441963499994015,-0.020215196503996044,-0.029992296243853033,-0.004212157077443819,0.004492422244631516,-0.014951813111022137,0.003438976300942792,0.050370706717522355,0.05129625268790215,-0.010649651848739271,0.11429251025131873,0.20352035248319358,-0.07738545083732795
35,12.446002900003805,-0.020195243007149196,-0.030056647755570213,-0.004197345169863863,0.004711913203817247,-0.014727469963542971,0.0033920699746225764,0.05086637600852283,0.052180679342797846,-0.010986850105314886,0.11432201374566275,0.20440213603209326,-0.07814178790405012
36,12.450380199996289,-0.020174333098015574,-0.030120018160228294,-0.004182739826639014,0.004933553751873119,-0.01449928349256608,0.0033436943853216937,0.05136214833754399,0.053068901526422366,-0.011327325537757171,0.11433996710014692,0.2052708509032344,-0.0788969568369111
37,12.45451850000245,-0.020152457454621204,-0.030182390756800088,-0.00416834744956814,0.005157344227004573,-0.014267237362854367,0.0032938353335966483,0.05185797332649162,0.05396086198912079,-0.011671072890921055,0.11434623460006309,0.20612622807685727,-0.07965086972507893
38,12.458497100000386,-0.020129606753999222,-0.030243748773964078,-0.004154174501972053,0.005383284747691989,-0.014031315489944298,0.0032424786436176657,0.052353800009526205,0.054856502311238155,-0.012018086527080283,0.11434068083385901,0.20696799695333543,-0.08040343802737486
39,12.462694100002407,-0.02010577167314815,-0.03030407537120282,-0.004140227508587518,0.0056113752101467195,-0.013791502045235035,0.00318961016483364,0.05284957683421586,0.055755762896382254,-0.012368360423228838,0.11432317067722256,0.20779588544887043,-0.08115457258693204
40,12.467022099997848,-0.020080942890001216,-0.030363353639923485,-0.004126513055454015,0.005841615285767913,-0.013547781461104393,0.0031352157736484715,0.053345251662874425,0.05665858296528956,-0.012721888168440049,0.11429356943145284,0.20860962002234057,-0.08190418361788585
41,12.471487599992544,-0.020055111084406687,-0.030421566604600606,-0.004113037789793212,0.006074004418610155,-0.013300138436051165,0.003079281375108916,0.05384077177491444,0.05756490054932089,-0.01307866296105259,0.11425174290843988,0.20940892551548232,-0.08265218070403683
42,12.47729709999112,-0.02002826693911915,-0.03047869722394123,-0.004099808419881093,0.0063085418228607,-0.013048557939867493,0.0030217929046053266,0.0543360838689222,0.058474652482941286,-0.013438677606017989,0.11419755750516732,0.21019352509458294,-0.08339847289725742
43,12.48061769999913,-0.020000401140801722,-0.030534728392072524,-0.004086831714912682,0.006545226480325101,-0.01279302521884641,0.0029627363295825077,0.054831134065656824,0.05938777439671004,-0.013801924512940046,0.11413088054421056,0.2109631405003189,-0.0841429688132702
44,12.484061900002416,-0.01997150438103914,-0.030589642939752082,-0.004074114504859327,0.006784057137930459,-0.012533525801014994,0.0029020976512574583,0.05532586791307827,0.06030420071192726,-0.014168395694252971,0.11405158063003416,0.21171749229769296,-0.08488557658637731
45,12.487820700000157,-0.019941567357361616,-0.03064342363560092,-0.0040616636803185325,0.007025032305254653,-0.012270045501388351,0.002839862906346026,0.05582023039243631,0.06122386463579145,-0.014538082762868191,0.11395952755865944,0.212456299972145,-0.0856262036607203
46,12.491857000000891,-0.019910580774279367,-0.030696053187359334,-0.0040494861923562695,0.0072681502520823916,-0.01200257042724476,0.002776018168801058,0.056314165922515175,0.062146698156879565,-0.014910976928542222,0.1138545917909929,0.21317928188129853,-0.08636475637804915
47,12.496074099995894,-0.019878535344327656,-0.030747514243165665,-0.004037589052341731,0.007513409005971261,-0.011731086983418843,0.0027105495515705553,0.056807618361155034,0.06307263203988611,-0.015287068991948462,0.1137366439687625,0.2138861549305993,-0.08710113955212438
48,12.500459499991848,-0.019845421789122426,-0.030797789392858047,-0.004025979331774399,0.007760806349820969,-0.011455581877622351,0.002643443208387234,0.057300531005298645,0.06400159581829026,-0.015666349337354123,0.11360555468586844,0.21457663433940774,-0.0878352563557797
49,12.504410199995618,-0.019811230840426432,-0.030846861169299314,-0.004014664162103275,0.008010339819439796,-0.01117604212580092,0.002574685335590188,0.057792846590529946,0.0649335177870664,-0.016048807925712595,0.11346119470104604,0.21525043395459328,-0.08856700846446132
50,12.50872719999461,-0.019775953241225976,-0.03089471204972521,-0.004003650734538153,0.008262006701109836,-0.010892455057518072,0.0025042621739743568,0.058284507292964964,0.06586832499807081,-0.016434434288585195,0.11330343539545525,0.2159072666444243,-0.08929629621979863
51,12.51289369999722,-0.01973957974681815,-0.03094132445711599,-0.00399294629985281,0.00851580402916985,-0.010604808321351982,0.0024321600106648987,0.058775454732758796,0.06680594325616825,-0.01682321752265208,0.11313214896409644,0.21654684422387233,-0.09002301876661949
52,12.516329299993233,-0.019702101125908533,-0.030986680761591424,-0.003982558168180023,0.008771728583610925,-0.010313089890313067,0.0023583651810142646,0.059265629977656546,0.06774629711397079,-0.01721514628482224,0.11294720858061273,0.21716887740680374,-0.09074707424707631
53,12.519695499999216,-0.019663508161719297,-0.031030763281829386,-0.003972493708798306,0.009029776887690109,-0.010017288067286387,0.002282864070518978,0.05975497354792953,0.06868930986754977,-0.017610208788427943,0.11274848881236607,0.21777307606147103,-0.09146836007591692
54,12.52445309999166,-0.019623791653107587,-0.03107355428650806,-0.003962760349910307,0.009289945205568887,-0.009717391490486418,0.0022056431167497116,0.060243425423525905,0.06963490355339043,-0.01800839280072198,0.11253586610971149,0.2183591493804367,-0.09218677313861874
55,12.529292099992745,-0.019582942415694107,-0.03111503599577183,-0.003953365578412807,0.009552229539988836,-0.009413389138925856,0.002126688811289772,0.06073092505325003,0.0705829989455774,-0.01840968564079039,0.11230921896555701,0.2189268060828731,-0.09290220974885786
56,12.5333668999956,-0.019540951283001665,-0.031155190582720912,-0.003944316939658299,0.009816625629989691,-0.009105270337894811,0.0020459877016832787,0.06121741136329685,0.07153351555450382,-0.018814074176680875,0.11206842742073349,0.21947575445188283,-0.09361456539313849
57,12.537654600004316,-0.019497809107603545,-0.03119400017492477,-0.0039356220372081,0.010083128948659027,-0.0087930247644408,0.0019635263933985517,0.061702822762141674,0.07248637162438049,-0.019221544821100847,0.11181337222885433,0.22000570186625987,-0.09432373442234208
58,12.542178499992588,-0.01945350676228157,-0.03123144685595926,-0.003927288532576901,0.010351734700892725,-0.00847664245286954,0.0018792915518135982,0.0621870971418319,0.07344148412788418,-0.019632083525870852,0.11154393448395035,0.22051635451845483,-0.09502960992005041
59,12.54573499999242,-0.01940803514119389,-0.03126751266696776,-0.003919324144968656,0.010622437821155857,-0.008156113800271356,0.0017932699042276035,0.06267017187964749,0.07439876876122095,-0.020045675776480674,0.1112599960620073,0.22100741775526947,-0.09573208389199811
60,12.550373799997033,-0.01936138516105247,-0.03130217960824625,-0.003911736651003691,0.010895232971257555,-0.007831429572064785,0.0017054482418936273,0.06315198384322192,0.07535813994172909,-0.020462306588185746,0.11096144039747294,0.22147859657260174,-0.09643104761388635
61,12.554439500003356,-0.019313547762310167,-0.03133542964085249,-0.0039045338844369637,0.011170114538156299,-0.007502580907543778,0.0016158134220639493,0.06363246939893676,0.07631951080723297,-0.02088196050357963,0.1106481528397055,0.22192959569488468,-0.09712639182018223
62,12.55862719999277,-0.019264513910357262,-0.03136724468823922,-0.0038977237358674356,0.011447076631807598,-0.007169559325426899,0.0015243523700438173,0.06411156442013387,0.07728279321433495,-0.02130462159032776,0.1103200202861309,0.222360119458191,-0.097818006644935
63,12.56258379999781,-0.019214274596727202,-0.03139760663791148,-0.00389131415243852,0.01172611308304049,-0.006832356729419343,0.0014310520812564464,0.06458920429232863,0.07824789773675551,-0.02173027343822666,0.10997693068190537,0.22276987192744852,-0.09850578150477025
64,12.566648099993472,-0.019162820840311533,-0.03142649734310805,-0.003885313137529545,0.01200721744145043,-0.006490965413776534,0.001335899623322271,0.065065323917083,0.07921473366464163,-0.022158899155922968,0.10961877291365284,0.2231585569654277,-0.09918960507694
65,12.571725899993908,-0.01911014368858393,-0.03145389862450696,-0.003879728750438171,0.012290382973309392,-0.006145378068872138,0.0012388821381523977,0.0655398577162972,0.0801832090035052,-0.022590481367782297,0.10924543701177915,0.2235258783231788,-0.09986936536847421
66,12.575510599999689,-0.01905623421883325,-0.031479792271955284,-0.0038745691060536975,0.012575602659495965,-0.005795587786770865,0.0011399868440550116,0.0660127396378373,0.08115323047431577,-0.02302500221120797,0.10885681452787706,0.22387153987941383,-0.10054494985381851
67,12.579077699992922,-0.019001083539405512,-0.031504160046222966,-0.003869842374521213,0.012862869193454257,-0.005441588066795682,0.0010392010378520822,0.06648390316309993,0.08212470351451494,-0.023462443334703525,0.10845279885937344,0.22419524583196468,-0.10121624564104773
68,12.583234799996715,-0.018944682790954657,-0.03152698368078086,-0.0038655567808965462,0.013152174979189607,-0.005083372821091815,0.000936512097002572,0.06695328131545533,0.08309753227976945,-0.023902785896632906,0.10803328543562016,0.22449670096381685,-0.10188313955765482
69,12.587577500002226,-0.018887023147701902,-0.03154824488360284,-0.003861720604792001,0.013443512129300702,-0.004720936380178761,0.000831907481729895,0.06742080666942585,0.08407161964729276,-0.024346010564026965,0.10759817170718058,0.22477561087714668,-0.1025455180960214
70,12.59208299999591,-0.018828095818703566,-0.03156792533899199,-0.0038583421800128586,0.013736872463054887,-0.004354273498485483,0.0007253747371554755,0.06788641135903611,0.08504686721962783,-0.024792097510870758,0.10714735666737941,0.22503168201452908,-0.10320326727843883
71,12.59626350000326,-0.018767892049127124,-0.031586006709430715,-0.0038554298941846097,0.014032247504492702,-0.003983379359869612,0.0006169014954410596,0.06835002708284227,0.08602317532815254,-0.025241026415739453,0.10668074028286964,0.22526462154191912,-0.10385627256669008
72,12.599753000002238,-0.018706403121535462,-0.03160247063745477,-0.0038529921883708766,0.014329628480546808,-0.00360824958312225,0.0005064754779427764,0.06881158510734378,0.08700044303584768,-0.025692776459301493,0.10619822346169841,0.2254741371891505,-0.10450441891323581
73,12.603201599995373,-0.01864362035717925,-0.03161729874755114,-0.003851037556681966,0.014629006319176106,-0.003228880227463163,0.00039408449737510324,0.06927101627173574,0.08797856813941915,-0.02614732632239841,0.10569970849506541,0.22565993728183273,-0.10514759089420772
74,12.608567599992966,-0.01857953511729738,-0.03163047264807972,-0.0038495745458740236,0.014930371647525881,-0.0028452677980271754,0.0002797164599815791,0.06972825099515174,0.08895744717234251,-0.026604654184701343,0.10518509950925402,0.22582173112428383,-0.10578567284371045
75,12.611948899997516,-0.01851413880442529,-0.03164197393321877,-0.0038486117549387617,0.015233714790124739,-0.0024574092513329664,0.00016335936771042083,0.07018321928533554,0.08993697541030615,-0.02706473772395558,0.10465430272630911,0.22595922938253277,-0.10641854894092251
76,12.61537600000156,-0.018447422863711035,-0.031651784184934015,-0.0038481578346837462,0.015539025767119944,-0.0020653020007222562,4.5001320391788856e-05,0.07063585074814457,0.09091704687757739,-0.02752755411539245,0.10410722662363624,0.22607214424392832,-0.10704610322008026
77,12.619947799990769,-0.018379378784238926,-0.031659884974971284,-0.0038482214873032422,0.015846294292556778,-0.0016689439217733922,-7.536948208149697e-05,0.07108607459760573,0.09189755435382978,-0.027993080031060418,0.10354378197656611,0.2261601896724353,-0.10766821958043965
78,12.624905599994236,-0.01830999810036052,-0.031666257866872556,-0.003848811465939589,0.01615550977270109,-0.0012683333576813283,-0.0001977647375708905,0.07153381966578803,0.09287838938272326,-0.028461291639323406,0.10296388152322289,0.22622308167459315,-0.1082847817430648
79,12.629197300004307,-0.018239272393032798,-0.03167088441801525,-0.003849936574235114,0.016466661304404266,-0.0008634691245968002,-0.0003221960395070526,0.071979014409952,0.09385944228103797,-0.028932164603817135,0.10236743932604915,0.22626053851230343,-0.10889567312515896
80,12.633539100002965,-0.018167193291163345,-0.03167374618167458,-0.003851605665874556,0.01677973767348779,-0.0004543505169270927,-0.00044867487469773317,0.07242158691688524,0.09484060214909973,-0.029405674081857576,0.101754370474382,0.22627228089430265,-0.10950077681147118
81,12.63764159999846,-0.01809375247296253,-0.03167482470910881,-0.003853827644117971,0.017094727353145805,-4.097731258480224e-05,-0.0005772126211289025,0.07286146490747247,0.09582175688157438,-0.029881794723149346,0.10112459120112914,0.22625803179532458,-0.1100999756680012
82,12.642040999999152,-0.018018941667302547,-0.03167410155166713,-0.0038566114613240846,0.01741161850236931,0.0003766502218050092,-0.0007078205457614313,0.07329857574204296,0.096802793176325,-0.030360500669180238,0.10047801928149552,0.2262175162965141,-0.11069315250223384
83,12.646129599990672,-0.01794275265508325,-0.03167155826292008,-0.003859966118464089,0.0177303989643951,0.0007985313257328636,-0.0008405098023269719,0.0737328464283984,0.09778359654382224,-0.030841765553319227,0.09981457451229765,0.22615046179819076,-0.11128019017884147
84,12.650249400001483,-0.017865177270604656,-0.03166717640081225,-0.003863900664625883,0.018051056265199577,0.0012246647396793237,-0.000975291429125488,0.07416420363131723,0.09876405131784671,-0.03132556250121442,0.09913417879670706,0.2260565982645595,-0.11186097167419219
85,12.654413800002658,-0.01778620740294584,-0.03166093752983719,-0.0038684241965087655,0.01837357761203012,0.0016550487000358566,-0.0011121763468245863,0.07459257368131736,0.09974404066702154,-0.03181186413136376,0.09843675635173321,0.22593565853219058,-0.1124353801421863
86,12.662685599992985,-0.01770583499735017,-0.03165282322323414,-0.0038735458579085926,0.018697949891974885,0.0020896809340793052,-0.0012511753562619969,0.07501788258595986,0.10072344660818998,-0.03230064255608396,0.09772223433049129,0.22578737867174076,-0.11300329906186804
87,12.666096899993136,-0.017624052056616612,-0.031642815065206525,-0.003879274839193413,0.01902415967059221,0.002528558655008768,-0.001392299136253307,0.07544005604400826,0.10170215002108496,-0.03279186938336133,0.09699054317877877,0.2256114984241511,-0.1135646124667996
88,12.670742999995127,-0.017540850642496837,-0.031630894653161726,-0.003885620376769612,0.019352193190603204,0.002971678557047289,-0.0015355582414104927,0.07585901945982458,0.10268003066548957,-0.033285515719809915,0.09624161658723801,0.22540776189211345,-0.11411920503218308
89,12.67572199999995,-0.017456222877097884,-0.03161704359997204,-0.003892591752538629,0.019682036370646003,0.0034190368106275606,-0.0016809630999753064,0.07627469795711375,0.10365696720190326,-0.033781552173277905,0.09547539104952586,0.2251759179656139,-0.1146669618275033
90,12.679538900003536,-0.017370160944290062,-0.03160124353625625,-0.003900198293344313,0.02001367480408756,0.0038706290576728374,-0.0018285240116604124,0.07668701638948794,0.10463283721239276,-0.034279948853660584,0.0946918050063159,0.2249157204389961,-0.11520776791892547
91,12.683717899999465,-0.01728265709111991,-0.031583476112681454,-0.003908449370410916,0.020347093757869503,0.0043264504069634654,-0.001978251145489825,0.07709589934678746,0.10560751722227352,-0.03478067537205859,0.09389079835032262,0.2246269281066583,-0.11574150810200108
92,12.68831460000365,-0.01719370362922812,-0.03156372300228485,-0.00391735439877172,0.02068227817137476,0.004786495429605827,-0.0021301545376327434,0.07750127116135247,0.10658088272179053,-0.03528370083927279,0.09307231264985229,0.2243093043374925,-0.11626806690896428
93,12.693039099991438,-0.017103292936272316,-0.031541965902814856,-0.003926922836688247,0.0210192126553278,0.0052507581545868905,-0.0022842440892309377,0.07790305591628263,0.10755280818410917,-0.035788993865025834,0.09223629144140062,0.22396261679839313,-0.11678732876967679
94,12.699797499997658,-0.017011417457354523,-0.03151818653909144,-0.00393716418506004,0.021357881490732887,0.0057192320643991825,-0.002440529564225832,0.07830117745424629,0.1085231670845982,-0.03629652255785278,0.09138268026665326,0.22358663817760194,-0.11729917809071609
95,12.704519099992469,-0.016918069706453154,-0.0314923666653852,-0.0039480879868250334,0.02169826862785072,0.006191910090762564,-0.0025990205871849427,0.07869555938606101,0.10949183192509364,-0.03680625452500855,0.0905114266035238,0.22318114696123662,-0.11780349924207124
96,12.70853889999853,-0.01682324226785934,-0.03146448806781476,-0.003959703826350482,0.022040357685211093,0.006668784610459628,-0.002759726641128158,0.07908612509890472,0.1104586742599162,-0.03731815687224315,0.0896224798556275,0.22274592755044212,-0.1183001764880567
97,12.712830299991763,-0.0167269277976175,-0.031434532566762,-0.003972021328814478,0.022384131948660763,0.007149847441283107,-0.0029226570653522275,0.07947279776480494,0.11142356472115113,-0.03783219620311001,0.08871579149570524,0.22228077004860952,-0.11878909390945556
98,12.717057200003184,-0.01662911902496991,-0.031402482019304595,-0.003985050159578018,0.022729574370449715,0.00763508983809051,-0.003087821053251044,0.07985550035009374,0.11238637304282022,-0.03834833861806602,0.08779131542198562,0.2217854699102434,-0.11927013536227352
99,12.721035700000357,-0.016529808753805206,-0.031368318321665443,-0.003998800023547611,0.02307666756836103,0.008124502488961155,-0.0032552276501323263,0.0802341556269875,0.1133469680831166,-0.03886654971342209,0.08684900829340313,0.22125982763244834,-0.11974318445522199
100,12.7265461999923,-0.016428989864110507,-0.031332023411678546,-0.004013280664528416,0.02342539382489758,0.008618075511443635,-0.0034248857510288024,0.080608686185949,0.11430521784590124,-0.039386794580248005,0.08588882960396418,0.22070364872306988,-0.12020812462147414
101,12.73025379999308,-0.016326655313426953,-0.03129357927127097,-0.0040285018645678655,0.023775735086519097,0.009115798448899278,-0.003596804098505393,0.08097901444791207,0.11526098950266134,-0.03990903780394524,0.08491074180010492,0.2201167436368038,-0.12066483929682192
102,12.73362559999805,-0.01622279813830846,-0.03125296792896046,-0.004044473443289785,0.024127672962934887,0.009617660266940041,-0.0037709912804666902,0.08134506267766146,0.1162141494134528,-0.04043324346469682,0.083914710338762,0.21949892774331442,-0.12111321212322641
103,12.737953799995012,-0.016117411455783378,-0.03121017146236825,-0.004061205257219005,0.02448118872645694,0.010123649349953592,-0.003947455727968043,0.08170675299656115,0.11716456314858217,-0.04095937513880548,0.08290070363419372,0.21885002172094153,-0.12155312710036369
104,12.741829299993697,-0.01601048846481887,-0.031165172000746852,-0.0040787071990964945,0.024836263311403022,0.010633753497729237,-0.004126205713034642,0.08206400739547297,0.11811209551296342,-0.04148739590045771,0.08186869329255,0.21816985195544936,-0.12198446862679255
105,12.745983699991484,-0.015902022447787746,-0.03111795172752213,-0.004096989197185062,0.025192877313561818,0.011147959922194235,-0.004307249346487899,0.08241674774951921,0.11905661057125799,-0.04201726832341896,0.08081865434270112,0.21745825064115631,-0.1224071215479293
106,12.750622399995336,-0.015792006771937463,-0.031068492882849352,-0.004116061214565638,0.025551010989724055,0.011666255244257745,-0.004490594575779238,0.0827648958330031,0.11999797167310863,-0.04254895448321377,0.07975056531351123,0.21671505577046643,-0.12282097124514327
107,12.754558100001304,-0.01568043489086104,-0.03101677776618267,-0.004135933248424186,0.025910644257277043,0.01218862549076598,-0.004676249182835382,0.08310837333484151,0.12093604147818865,-0.043082415959593584,0.07866440834838301,0.21594011112842687,-0.12322590362634085
108,12.759020900004543,-0.01556730034596958,-0.03096278873885757,-0.004156615329329305,0.026271756693869632,0.012715056091563391,-0.004864220781913539,0.08344710187447885,0.12187068198138853,-0.04361761383863528,0.07756016935936966,0.21513326619149734,-0.12362180510209896
109,12.762461799997254,-0.015452596767966075,-0.030906508226685833,-0.004178117520500536,0.026634327537144762,0.013245531876666248,-0.0050545168174648955,0.08378100301865622,0.12280175453698731,-0.044154508715001976,0.07643783839954882,0.21429437596290685,-0.12400856260963647
110,12.766936899992288,-0.015336317878320252,-0.030847918722562494,-0.004200449917067435,0.026998335684549853,0.013780037073533443,-0.0052471445620094065,0.08410999830055475,0.12372911988241134,-0.04469306069424944,0.07529741007781872,0.21342330144071703,-0.12438606351834613
111,12.775131399990642,-0.015218457490744032,-0.03078700278908449,-0.004223622645319453,0.02736375969323537,0.014318555304446121,-0.005442111114019289,0.08443400924016199,0.12465263816646482,-0.04523322939426767,0.07413888356175789,0.21251991058575262,-0.12475419540373217
112,12.780870799993863,-0.015099009512667244,-0.030723743061180323,-0.004247645861946649,0.02773057778004184,0.014861069584023306,-0.005639423395806317,0.08475295736343999,0.1255721689814829,-0.045774973945626754,0.0729622622263453,0.21158407909835591,-0.12511284582269214
113,12.78425270000298,-0.014977967946713203,-0.03065812224875026,-0.0042725297532712515,0.028098767821564646,0.015407562316880374,-0.005839088151408311,0.08506676421964533,0.12648757139829847,-0.04631825299106967,0.07176755341745415,0.21061569065762614,-0.1254619022323603
114,12.788718099996911,-0.01485532689217386,-0.03059012313931631,-0.0042982845344700414,0.028468307354291254,0.015958015295447926,-0.006041111944472039,0.08537535139844613,0.12739870400046996,-0.046863024685154304,0.07055476852634583,0.20961463629402452,-0.12580125214175364
115,12.792000200002803,-0.014731080546484188,-0.030519728600681327,-0.004324920448787553,0.02883917357481445,0.016512409697927093,-0.006245501156136597,0.08567864054788807,0.12830542491380723,-0.047409246695061365,0.06932392331641493,0.2085808135965825,-0.12613078339103317
116,12.79617600000347,-0.01460522320669549,-0.030446921583596732,-0.004352447766740099,0.029211343340125366,0.017070726086364476,-0.006452261982923318,0.0859765533943451,0.12920759183372396,-0.04795687620265828,0.06807503835709051,0.2075141264572615,-0.1264503843588884
117,12.800490900001025,-0.014477749270947233,-0.030371685124438302,-0.004380876785310676,0.029584793167999755,0.017632944404844652,-0.006661400434637054,0.0862690117642484,0.13010506205254654,-0.048505869907105606,0.06680813911419647,0.2064144852152778,-0.12675994391607776
118,12.804451299991342,-0.014348653239937014,-0.03029400234788957,-0.004410217827134788,0.029959499237479446,0.01819904397780195,-0.006872922332278684,0.08655593760482068,0.1309976924881181,-0.04905618402651802,0.06552325555361561,0.20528180710904334,-0.12705935109556404
119,12.80859529999725,-0.01421792971838822,-0.03021385646963225,-0.004440481239677242,0.030335437389438433,0.01876900350846102,-0.007086833305960803,0.08683725300236805,0.13188533971502675,-0.04960777429771002,0.06422042167582222,0.20411601668512735,-0.12734849472419132
120,12.812917699993704,-0.014085573416515073,-0.030131230799043174,-0.004471677394399904,0.03071258312722297,0.019342801077419435,-0.007303138792818027,0.08711288019897757,0.13276785999675633,-0.050160595974662686,0.06289967541223491,0.2029170456977618,-0.12762726330171548
121,12.816422899995814,-0.013951579151484754,-0.030046108741897,-0.004503816685920368,0.031090911617362462,0.019920414141367086,-0.007521844034909382,0.08738274160991025,0.13364510931604312,-0.0507146038272203,0.06156105894692905,0.20168483260371864,-0.12789554520682356
122,12.819900899994536,-0.013815941848876275,-0.02995847380307425,-0.0045369095311615214,0.031470397690360405,0.020501819531932034,-0.007742954077117305,0.0876467598430886,0.13451694340264594,-0.051269752141343786,0.06020461921935429,0.20041932188618597,-0.1281532291360408
123,12.82396900000458,-0.01367865654413574,-0.029868309589274035,-0.004570966368491994,0.03185101584157427,0.02108699345464075,-0.007966473765052235,0.08790485772084944,0.13538321775783932,-0.051825994721613644,0.05883040844068315,0.199120463656096,-0.12840020455720022
124,12.827220199993462,-0.013539718384027597,-0.02977559981173111,-0.004605997656857548,0.032232740232195106,0.02167591148797638,-0.008192407742973315,0.08815695830390935,0.13624378767872614,-0.05238328489541609,0.05743848443853934,0.19778821400866636,-0.12863636184240435
125,12.831491099990672,-0.013399122628081394,-0.029680328288936766,-0.0046420138749035,0.032615544690335244,0.022268548582549827,-0.008420760451729292,0.08840298491610708,0.13709850828582285,-0.05294157551659908,0.056028910514167495,0.19642253565074208,-0.12886159192890811
126,12.835527499992168,-0.013256864650033598,-0.029582478949363066,-0.004679025520088249,0.03299940271222248,0.022864879060397247,-0.008651536126710923,0.0886428611671304,0.1379472345528127,-0.053500818966717475,0.054601754764795674,0.19502339832111595,-0.129075785722021
127,12.838909500002046,-0.013112939939264006,-0.029482035834189842,-0.004717043107787944,0.03338428746348489,0.023464876614409165,-0.00888473879580267,0.08887651097138169,0.13878982133777604,-0.05406096715351084,0.05315708945999297,0.1935907789238053,-0.12927883353933045
128,12.842629199993098,-0.012967344102226408,-0.02937898310003387,-0.004756077170392247,0.0337701717805086,0.02406851430789881,-0.009120372277321912,0.08910385856529641,0.13962612341409947,-0.0546219715073287,0.0516949911273299,0.19212466136301057,-0.12947062487262256
129,12.846027399995364,-0.01282007286387323,-0.02927330502167962,-0.004796138256391128,0.0341570281718728,0.02467576457429928,-0.009358440177939634,0.08932482852695159,0.1404559955002748,-0.055183782977543644,0.05021554106590888,0.19062503631926198,-0.1296510484968915
130,12.84954039999866,-0.012671122069073752,-0.029164985994811047,-0.004837236929452597,0.03454482881987758,0.025286599216990318,-0.009598945890588533,0.08953934579783772,0.1412792922888668,-0.05574635202992195,0.048718825534753124,0.18909190099462103,-0.12981999263919436
131,12.852980800002117,-0.012520487684025496,-0.029054010538743853,-0.004879383767491357,0.03493354558216775,0.02590098940924668,-0.009841892592360903,0.0897473357041011,0.14209586847410255,-0.05630962864450105,0.04720493559651683,0.18752525894776692,-0.12997734512107909
132,12.858632000003126,-0.01236816579765837,-0.028940363299157727,-0.004922589361728305,0.035323149993444866,0.026518905694304186,-0.010087283242398335,0.08994872397696031,0.142905578779409,-0.05687356231419533,0.045673967159563233,0.18592512007769027,-0.13012299345822922
133,12.863136200001463,-0.012214152623031202,-0.02882402905082802,-0.004966864315740884,0.03571361326726816,0.0271403179855469,-0.010335120579777512,0.09014343677431348,0.1437082779848608,-0.057438102043537775,0.04412602141130906,0.1842915009432082,-0.13025682481387005
134,12.866820099996405,-0.012058444498720266,-0.028704992700356376,-0.0050122192445042485,0.036104906297953925,0.027765195566811222,-0.010585407121388994,0.09033140070491287,0.14450382095748893,-0.05800319634688168,0.04256120530027843,0.18262442543821747,-0.13037872585800164
135,12.871178100001998,-0.011901037890199348,-0.028583239288899765,-0.005058664773423222,0.03649699966258609,0.02839350709283591,-0.01083814515980742,0.09051254285415265,0.14529206268458453,-0.05856879324592151,0.04097963162071513,0.18092392490359863,-0.1304885825583143
136,12.875310999996143,-0.011741929391210833,-0.02845875399489721,-0.005106211537354992,0.03688986362313928,0.029025220589854996,-0.011093336761148787,0.09068679080897735,0.14607285830497793,-0.059134840266081366,0.03938141861364475,0.17919003765383557,-0.13058628000752429
137,12.878841300000204,-0.011581115725127357,-0.02833152213679368,-0.0051548701796224825,0.037283468128705345,0.029660303456319075,-0.01135098376290934,0.09085407268020983,0.14684606313823728,-0.05970128443253841,0.03776668946940416,0.17742280842880453,-0.13067170256180738
138,12.882397599998512,-0.01141859374630359,-0.028201529175760555,-0.005204651351018308,0.03767778281781011,0.030298722463741438,-0.011611087771788361,0.09101431712314552,0.1476115327111932,-0.060268072267811904,0.03613557233364239,0.17562228789952355,-0.13074473427929298
139,12.887302699993596,-0.011254360441417791,-0.028068760718412196,-0.005255565708799268,0.0380727770208185,0.030940443757649396,-0.011873650161506148,0.09116745335993245,0.14836912278285114,-0.06083514979158942,0.03448820078827034,0.17378853275299652,-0.13080525918881902
140,12.891898100002436,-0.011088412930802736,-0.027933202519518148,-0.005307623915671373,0.03846841976244535,0.031585432858646456,-0.012138672070625299,0.09131341120433643,0.1491186893716518,-0.061402462520646586,0.032824714233884264,0.17192160635699774,-0.13085316109721848
141,12.8959218999953,-0.010920748469765498,-0.027794840484710495,-0.005360836638765446,0.038864679764375305,0.032233654663600064,-0.012406154400367993,0.0914521210874376,0.14986008878614873,-0.06196995546700204,0.03114525799724853,0.17002157919681354,-0.13088832325557412
142,12.90012520000164,-0.010751364449895653,-0.027653660673185775,-0.005415214548603222,0.03926152544799651,0.03288507344696982,-0.012676097812421279,0.09158351408332771,0.15059317765605643,-0.06253757313494282,0.029449983242810816,0.16808852875219732,-0.13091062825131247
143,12.904509500003767,-0.010580258400361354,-0.027509649300400806,-0.0054707683180539105,0.039658924937243364,0.0335396528622645,-0.012948502726728553,0.09170752193403937,0.15131781296186073,-0.06310525951824349,0.02773904690093648,0.16612253933280163,-0.1309199581836437
144,12.90852100000484,-0.01040742798919288,-0.02736279274076197,-0.005527508621281148,0.04005684606154635,0.03419735594362703,-0.013223369319270734,0.09182407707462092,0.15203385206443973,-0.06367295809871303,0.026012611715966746,0.16412370200390825,-0.13091619499638654
145,12.91286029999901,-0.010232871024553137,-0.027213077530307293,-0.005585446132680313,0.04045525635889231,0.034858145107548415,-0.013500697519845138,0.09193311265848242,0.15274115273403016,-0.06424061184630034,0.0242708463739092,0.16209211463903414,-0.13089922075841803
146,12.91682289999153,-0.010056585455994655,-0.027060490369380866,-0.005644591525806219,0.040854123078994053,0.03552198215470393,-0.01378048700984757,0.09203456258357792,0.15343957318030446,-0.0648081632200733,0.022513925699138338,0.16002788212818897,-0.13086891782568708
147,12.921286900003906,-0.009878569375702608,-0.026905018125298996,-0.005704955472291195,0.04125341318657771,0.03618882827192786,-0.014062737220059688,0.09212836151945734,0.15412897208314325,-0.06537555416972927,0.020742030810959045,0.15793111629226256,-0.13082516894781415
148,12.925475600000937,-0.009698821019723306,-0.026746647835007506,-0.005766548640753588,0.04165309336478693,0.03685864403431658,-0.014347447328444193,0.0922144449348065,0.15480920862196992,-0.06594272613749869,0.018955349377328207,0.15580193573902007,-0.13076785734654098
149,12.929490499998792,-0.009517338769177682,-0.02658536670772965,-0.005829381695696724,0.04205313001870908,0.037531389407457684,-0.014634616257948705,0.09229274912669932,0.1554801425052743,-0.06650962006033585,0.01715407608214645,0.15364046602878365,-0.13069686676091624
150,12.933713699996588,-0.00933412115145921,-0.026421162127604068,-0.005893465296398364,0.04245348927903312,0.03820702374978911,-0.014924242674319951,0.09236321125219044,0.1561416340013841,-0.0670761763722144,0.015338413052705738,0.1514468400095338,-0.13061208140734115
151,12.938816900001257,-0.009149166841415672,-0.02625402165631226,-0.00595881009579071,0.042854137005849786,0.038885505815095145,-0.015216324983927547,0.09242576936127433,0.15679354397089454,-0.06764233500597164,0.01350856994641714,0.14922119817247767,-0.1305133858532661
152,12.94378639999195,-0.008962474662514113,-0.026083933035694888,-0.006025426739330987,0.043255038792595325,0.03956679375514676,-0.01551086133159418,0.09248036242923012,0.15743573390052362,-0.0682080353945086,0.011664763716188018,0.1469636888973712,-0.13040066480317905
153,12.95016680000117,-0.008774043587988408,-0.02591088419035634,-0.006093325863862632,0.043656159970132134,0.04025084512249124,-0.0158078495984298,0.09252693038754593,0.15806806593766923,-0.06877321647077847,0.00980721829055003,0.14467446850049062,-0.1302738028458199
154,12.954562899991288,-0.008583872741968836,-0.025734863230256855,-0.0061625180964670935,0.044057465610960724,0.040937616873392216,-0.016107287399661704,0.09256541415348964,0.15869040292468028,-0.06933781666679431,0.00793616437503194,0.1423537011275164,-0.1301326843558624
155,12.958548399998108,-0.008391961400593109,-0.025555858453291586,-0.006233014053306203,0.04445892053355679,0.04162706537091649,-0.016409172082460115,0.09259575565931069,0.15930260843248506,-0.06990177391276488,0.006051839454465549,0.14000155862143074,-0.12997719362552662
156,12.962713699991582,-0.008198308993098336,-0.025373858347855948,-0.006304824338455113,0.04486048930683642,0.04231914638816572,-0.016713500723760773,0.09261789788183084,0.15990454679371663,-0.07046502563724377,0.004154487763731849,0.1376182202616797,-0.12980721520102156
157,12.967821099999128,-0.008002915102893332,-0.025188851595396664,-0.006377959542725792,0.045262136254749806,0.0430138151116505,-0.017020270128091815,0.09263178487139226,0.1604960831340791,-0.07102750876918294,0.0022443601787132143,0.13520387244966692,-0.12962263423369516
158,12.971184599999106,-0.007805779468610743,-0.02500082707294785,-0.006452430242481112,0.04566382546099748,0.043711026144794086,-0.01732947682541417,0.09263736178050258,0.16107708340274554,-0.07158915974112717,0.00032171425098323204,0.1327587086720314,-0.12942333661537547
159,12.975341800003662,-0.007606901985138449,-0.024809773855651664,-0.006528246998439612,0.04606552077387245,0.0444107335115701,-0.017641117068976142,0.09263457489308387,0.1616474144034058,-0.0721499144924413,-0.001613185700394388,0.13028292955443457,-0.12920920898796898
160,12.979350800000248,-0.007406282704629702,-0.02461568121926286,-0.006605420354470987,0.046467185811230105,0.04511289066027548,-0.01795518683318179,0.09262337165391372,0.16220694382513084,-0.07270970847258797,-0.0035600685292635705,0.12777674315301052,-0.128980138693226
161,12.98854289999872,-0.0072039218374914255,-0.024418538642636715,-0.006683960836382361,0.04686878396558566,0.04581745046743589,-0.018271681811473938,0.0926037006983912,0.16275554027594813,-0.07326847664391914,-0.005518656167717349,0.12524036558201537,-0.12873601356588837
162,12.992029999993974,-0.006999819753350144,-0.024218335810199693,-0.006763878950695416,0.047270278409342205,0.04652436524186983,-0.018590597414226775,0.0925755118827988,0.1632930733191492,-0.07382615348315999,-0.00748866356917921,0.12267402135584175,-0.12847672177034575
163,12.996207399992272,-0.006793976981994949,-0.024015062614402147,-0.006845185183414389,0.04767163210015061,0.0472335867289089,-0.01891192876664172,0.09253875631456202,0.16381941350983104,-0.07438267298278387,-0.009469798764028764,0.12007794330256782,-0.12820215195544674
164,13.000468999991426,-0.0065863942142969385,-0.023808709158152388,-0.006927889998784956,0.048072807786399975,0.047945066114778855,-0.01923567070665195,0.09249338638202889,0.16433443243045404,-0.0749379686538387,-0.011461763020593081,0.11745237217506245,-0.12791219361298148
165,13.004361600003904,-0.00637707230310457,-0.023599265757231373,-0.007012003838044055,0.048473768012835795,0.04865875403112821,-0.019561817782842775,0.09243935578333343,0.16483800272401067,-0.0754919735304309,-0.013464250999327462,0.11479755640237639,-0.12760673744740555
166,13.0086575000023,-0.006166012264114382,-0.02338672294268751,-0.007097537118160733,0.04887447512630074,0.04937460055969694,-0.01989036425239506,0.09237661955483803,0.16532999812742738,-0.07604462017575812,-0.0154769507898928,0.11211375223345597,-0.12728567562734835
167,13.012807799997972,-0.005953215276716553,-0.023171071463210863,-0.007184500230568134,0.04927489128159947,0.050092555237134774,-0.020221304079057915,0.09230513409967533,0.16581029350597967,-0.07659584068877436,-0.01749954391992486,0.10940122385819737,-0.12694890187207067
168,13.01711620000424,-0.005738682684814767,-0.022952302287486164,-0.007272903539886766,0.04967497844748693,0.05081256705996835,-0.020554630931149908,0.09222485721611463,0.1662787648877438,-0.07714556671097246,-0.01953170540881968,0.10666024341290022,-0.1265963115418615
169,13.02123019999999,-0.0055224159976198384,-0.02273040660652394,-0.007362757382639156,0.0500746984127792,0.051534584489718295,-0.02089033817959059,0.09213574812563724,0.1667352894980591,-0.07769372943383321,-0.021573103839235126,0.10389109106171626,-0.12622780181191154
170,13.025214099994628,-0.005304416890416581,-0.022505375835969153,-0.007454072065956041,0.05047401279258525,0.052258555458165226,-0.021228418895966304,0.09203776750068283,0.16717974579468614,-0.07824025960711574,-0.023623401397784818,0.10109405510682529,-0.12584327189093025
171,13.02944440000283,-0.00508468720530339,-0.022277201618386654,-0.0075468578662742525,0.05087288303465841,0.05298442737277175,-0.021568865850633605,0.09193087749237192,0.16761201350322447,-0.0787850875482025,-0.02568225386838434,0.09826943191903949,-0.12544262325769076
172,13.033553400004166,-0.004863228951904027,-0.022045875825522806,-0.007641125028026461,0.05127127042586855,0.05371214712225564,-0.021911671510866114,0.09181504175830985,0.1680319736516689,-0.07932814315244112,-0.02774931065135642,0.0954175258113179,-0.12502575985879757
173,13.037649599995348,-0.004640044308051075,-0.021811390560542602,-0.007736883762322984,0.05166913609879468,0.05444166108231147,-0.02225682803904763,0.09169022549014362,0.1684395086047304,-0.07986935590420445,-0.02982421478917066,0.09253864908085574,-0.12459258830464949
174,13.04214459999639,-0.004415135620440551,-0.021573738160241666,-0.007834144245625866,0.05206644103843612,0.05517291512148149,-0.02260432729091489,0.09155639544114269,0.1688345020987574,-0.08040865488893191,-0.03190660289604774,0.08963312218989457,-0.12414301808070542
175,13.04580459999852,-0.0041885054052571554,-0.021332911197232463,-0.007932916618415446,0.052463146089044274,0.05590585460718007,-0.02295416081385512,0.09141351995436622,0.16921683927762468,-0.0809459688060217,-0.033996105049740516,0.08670127372272092,-0.12367696171623682
176,13.050159199992777,-0.0039601563487696384,-0.021088902482104047,-0.008033210983849667,0.05285921196107809,0.05664042441187582,-0.023306319845260597,0.09126156899118244,0.16958640672728179,-0.08148122598233562,-0.036092344819114004,0.08374344016823951,-0.12319433494265308
177,13.054210000002058,-0.0037300913078957324,-0.020841705065554664,-0.008135037406416384,0.05325459923828314,0.05737656891941569,-0.02366079531094331,0.0911005141591967,0.1699430925097563,-0.08201435438646434,-0.03819493952644584,0.08075996590906931,-0.12269505682929403
178,13.058704299997771,-0.003498313310736122,-0.02059131224049665,-0.00823840591057892,0.05364926838488933,0.058114232031501935,-0.024017577823613252,0.09093032873849607,0.1702867861976077,-0.08254528164340988,-0.04030350066869058,0.07775120299281274,-0.12217904990582364
179,13.062830399998347,-0.0032648255570769573,-0.020337717544132865,-0.008343326479415172,0.05404317975291753,0.058853357174315016,-0.0243766576814204,0.09075098770592405,0.170617378905947,-0.08307393504991228,-0.04241763428632831,0.07471751086646519,-0.12164624032271251
180,13.066937600000529,-0.0030296314188604577,-0.020080914760004155,-0.008449809053250532,0.05443629358958783,0.05959388730526827,-0.02473802486656592,0.09056246775812633,0.17093476332458726,-0.08360024159052389,-0.044536941161457476,0.07165925652439485,-0.12109655800425369
181,13.071261799996137,-0.002792734440623178,-0.019820897920007206,-0.00855786352828494,0.05482857004482603,0.06033576491990962,-0.025101669043983574,0.09036474733410765,0.1712388337513467,-0.08412412795426301,-0.0466610169330259,0.068576814588876,-0.12052993678469918
182,13.075208099995509,-0.0025541383399015133,-0.019557661306382156,-0.00866749975521438,0.05521996917886752,0.06107893205896507,-0.02546757956009533,0.0901578066372782,0.17152948612489743,-0.08464552055186882,-0.04878945221150507,0.06547056727817396,-0.11994631451175976
183,13.07934060000116,-0.002313847007604022,-0.01929119945366936,-0.00877872753784713,0.055610450969954955,0.06182333031552529,-0.025835745441642403,0.08994162765701591,0.17180661805779196,-0.08516434553335263,-0.050921832530547086,0.062340904369541386,-0.1193456331418828
184,13.082671500000288,-0.002071864508350173,-0.019021507150634682,-0.008891556631715125,0.05599997532212912,0.0625689008423755,-0.026206155394593107,0.08971619419113222,0.17207012886899095,-0.08568052880607904,-0.05305773791585819,0.05918822320937646,-0.118727838764643
185,13.086110699994606,-0.0018281950807751035,-0.018748579442162686,-0.009005996742680742,0.05638850207312148,0.06331558435946419,-0.026578797803130674,0.0894814918711732,0.17231991961697773,-0.08619399605252878,-0.05519674215283333,0.05601292899951087,-0.11809288151514247
186,13.09404280000308,-0.0015828431377999201,-0.018472411631117163,-0.009122057525539374,0.05677599100236441,0.06406332116152016,-0.02695366072871516,0.08923750819123662,0.17255589313476902,-0.08670467274762012,-0.05733841216147994,0.052815435134308274,-0.11744071554149724
187,13.09802099999797,-0.0013358132668669885,-0.018192999280168265,-0.009239748582618085,0.057162401839133695,0.06481205112582489,-0.027330731909221483,0.088984232538694,0.17277795406595273,-0.08721248417618974,-0.05948230796460052,0.04959616323223683,-0.11677129906654858
188,13.101434099997276,-0.0010871102301396188,-0.01791033821358562,-0.009359079462370709,0.05754769427082518,0.06556171372014206,-0.027709998758152932,0.08872165622328362,0.17298600889997257,-0.08771735545084937,-0.061627983591947745,0.04635554272992882,-0.1160845946324041
189,13.105050099999062,-0.0008367389646655787,-0.017624424518996703,-0.009480059657969685,0.05793182795134957,0.06631224801079598,-0.028091448363934065,0.08844977249999139,0.17317996600464539,-0.08821921153158739,-0.06377498893593836,0.043094009963324124,-0.1153805695443501
190,13.109454099991126,-0.0005847045825039757,-0.017335254549109894,-0.00960269860589502,0.05831476250960752,0.06706359267088309,-0.028475067489294195,0.08816857658205042,0.1733597356534771,-0.08871797724747521,-0.06592287184791072,0.03981200698151749,-0.11465919618767346
191,13.113333599991163,-0.00033101237081527063,-0.017042824923401634,-0.00972700568452078,0.058696457557997184,0.06781568598858725,-0.028860842570748554,0.08787806564564243,0.17352523004789328,-0.08921357731901648,-0.06807117919561899,0.03650998086530287,-0.11392045199015872
192,13.119043400001829,-7.566779191438007e-05,-0.016747132529767367,-0.009852990212699557,0.059076872700930046,0.06856846587558411,-0.029248759718175588,0.08757823883372635,0.17367636333864528,-0.08970593637952824,-0.07021945638559263,0.033188384041775876,-0.11316431921495874
193,13.1229394999973,0.00018132351671316306,-0.01644817452613581,-0.009980661448345285,0.05945596754337168,0.06932186987554197,-0.029638804714483546,0.08726909726488198,0.17381305165076918,-0.09019497899569383,-0.07236724643167813,0.0298476750357227,-0.11239078481132188
194,13.1270605000027,0.00043995574243217527,-0.016145948342046183,-0.01011002858701482,0.059833701699434305,0.0700758351727426,-0.030030963015366025,0.08695064404521652,0.1739352131115082,-0.09068062968764946,-0.0745140899869605,0.02648831842827335,-0.11159984026309963
195,13.130373399995731,0.0007002228975161796,-0.015840451680187703,-0.010241100760488646,0.06021003480102077,0.07083029860082432,-0.030425219749142748,0.08662288427693142,0.17404276787491305,-0.09116281294822338,-0.07665952662203494,0.023110783739994076,-0.1107914815543769
196,13.137817700000596,0.0009621188192433354,-0.015531682517900993,-0.010373887035351055,0.06058492650649143,0.07158519665161613,-0.03082155971668196,0.08628582505914328,0.17413563814007815,-0.09164145326272435,-0.07880309666319986,0.01971554388663145,-0.10996570927820445
197,13.14206519999425,0.0012256371700299573,-0.015219639108640973,-0.010508396411570194,0.06095833650931522,0.07234046548403888,-0.03121996739141282,0.08593947548050923,0.1742137481623497,-0.09211647512912376,-0.08094434267683848,0.016303073777145863,-0.10912252863396665
198,13.147927099998924,0.001490771437601471,-0.014904319983401065,-0.010644637821078351,0.061330224546672585,0.07309604093303672,-0.03162042691942283,0.0855838466071747,0.1742770242594034,-0.09258780307782129,-0.08308280986604914,0.012873849934491753,-0.10826194940123038
199,13.1521184000012,0.0017575149352005391,-0.014585723952098631,-0.01078262012635284,0.06170055040800207,0.07385185851853088,-0.03202292211964163,0.08521895147195913,0.17432539481916387,-0.09305536169160025,-0.08521804539261427,0.00942835131433791,-0.10738398589960485
200,13.15625810000347,0.0020258608018321363,-0.014263850104921526,-0.010922352118997886,0.06206927394350942,0.07460785345441981,-0.0324274364841115,0.08484480506818383,0.17435879031298268,-0.09351907562504515,-0.08734959742285228,0.005967060214044087,-0.10648865692420587
201,13.160327799996594,0.002295802002545469,-0.013938697813635487,-0.011063842518327857,0.06243635507266064,0.07536396065764732,-0.03283395317833953,0.08446142434713243,0.1743771433114406,-0.09397886962393728,-0.08947701445023948,0.0024904626990684352,-0.10557598585287294
202,13.164401799993357,0.002567331328752706,-0.013610266732852039,-0.011207099969952204,0.06280175379266911,0.07612011475733968,-0.03324245504173635,0.08406882821775322,0.17438038850122367,-0.09443466854560219,-0.09159984469663034,-0.0010009510510559333,-0.10464600080604528
203,13.168075800000224,0.002840441398584501,-0.013278556801256646,-0.011352133044362488,0.06316543018698605,0.07687625010402015,-0.033652924588144756,0.08366703754931237,0.17436846270392586,-0.09488639737969173,-0.09371763537400173,-0.004506686339728106,-0.10369873478962734
204,13.171709999995072,0.0031151246572823548,-0.012943568242796709,-0.011498950235521917,0.0635273444338106,0.07763230077890913,-0.03406534400645866,0.08325607517749878,0.17434130489642005,-0.09533398126977052,-0.09582993220709086,-0.008026243827417921,-0.1027342260351645
205,13.175704599998426,0.0033913733776279424,-0.012605301567829056,-0.011647559959457736,0.06388745681463329,0.07838820060331539,-0.034479695161338926,0.08283596591121707,0.17429885623075222,-0.09577734553704814,-0.09793627962363406,-0.011559119943722515,-0.10175251839442988
206,13.179145599991898,0.0036691796604095654,-0.012263757574226498,-0.011797970552856966,0.06424572772280501,0.0791438831481087,-0.034895959594038135,0.08240673653704265,0.1742410600509389,-0.09621641570538754,-0.10003622082320238,-0.015104807095498909,-0.10075366145890095
207,13.18264729999646,0.003948535434925793,-0.011918937348443175,-0.011950190271665958,0.06460211767211911,0.07989928174325676,-0.03531411852333331,0.08196841582541778,0.17416786191105635,-0.09665111752607343,-0.10212929659053506,-0.018662792621176368,-0.09973771053227544
208,13.185897200004549,0.004229432459526341,-0.011570842266538395,-0.012104227289694213,0.0649565873054341,0.08065432948745473,-0.03573415284656547,0.08152103454539775,0.17407920960110662,-0.09708137700258232,-0.10421504375461221,-0.022232557471077052,-0.09870472662336315
209,13.190355500002624,0.0045118623221904915,-0.011219473995158475,-0.012260089697222951,0.06530909740338364,0.0814089592578864,-0.036156043140787165,0.08106462548421048,0.1739750531765515,-0.09750712041528926,-0.10629299578096936,-0.025813576762251666,-0.0976547766242382
210,13.194049900004757,0.004795816441143511,-0.010864834492475928,-0.012417785499618889,0.06565960889316888,0.08216310372010993,-0.03657976966401631,0.08059922345686595,0.1738553449793667,-0.0979282743477829,-0.10836268625876798,-0.02940532269226837,-0.09658793394812512
211,13.198386000003666,0.005081286065511318,-0.010506926009085567,-0.012577322615953675,0.06600808285735175,0.08291669533800161,-0.03700531235661195,0.0801248652954746,0.17372003964230653,-0.09834476571710415,-0.11042365294070451,-0.03300726776924595,-0.09550427925568174
212,13.202068999991752,0.005368262276013157,-0.01014575108885746,-0.012738708877629608,0.06635448054255473,0.08366966638367852,-0.03743265084279027,0.0796415898238213,0.17356909408194607,-0.09875652180635991,-0.11247543948764566,-0.03661888586564825,-0.09440390077182274
213,13.206189599994104,0.00565673598569172,-0.009781312569746977,-0.01290195202701221,0.06669876336803357,0.08442194894738199,-0.03786176443228328,0.07914943783155358,0.1734024674938068,-0.09916347029770929,-0.11451759459493059,-0.040239651091410325,-0.0932868943250086
214,13.210347000000183,0.005946697940680161,-0.00941361358456204,-0.013067059716070332,0.06704089293415323,0.08517347494735798,-0.03829263212214084,0.07864845205633261,0.1732201213551716,-0.09956553930531804,-0.11654967036821698,-0.043869036329966186,-0.09215336338185372
215,13.214357399992878,0.006238138721005726,-0.009042657561687479,-0.013234039505024362,0.06738083103080585,0.08592417613976497,-0.038725232598675136,0.07813867717210678,0.17302201943290638,-0.09996265740864499,-0.11857122141433797,-0.04750651256012488,-0.09100341928461055
216,13.217892699991353,0.006531048741429773,-0.008668448225766349,-0.013402898861003184,0.06771853964578492,0.08667398412862215,-0.039159544239551425,0.07762015977914698,0.17280812779215604,-0.10035475368745593,-0.12058180463335846,-0.05115154888041958,-0.08983718150847082
217,13.221433600003364,0.006825418252324019,-0.008290989598338025,-0.01357364515671052,0.06805398097311689,0.08742283037579272,-0.03959554511603611,0.07709294839412359,0.172578414803955,-0.10074175775734152,-0.1225809792519687,-0.05480361258366564,-0.0886547775074057
218,13.225309599991306,0.007121237340582823,-0.007910285998432938,-0.013746285669101391,0.06838711742134929,0.08817064621099813,-0.04003321299539553,0.07655709343985219,0.17233285115327643,-0.10112359980339425,-0.12456830699619258,-0.05846216887925309,-0.08745634231772095
219,13.229461099996117,0.007418495930571307,-0.007526342043123815,-0.013920827578069258,0.06871791162179333,0.0889173628418711,-0.0404725253434361,0.0760126472338727,0.17207140984905125,-0.10150021061228817,-0.1265433524246311,-0.06212668025968201,-0.08624201816484167
220,13.233872900003917,0.007717183785109121,-0.007139162648033237,-0.014097277965144508,0.06904632643671307,0.08966291136405682,-0.040913459327181316,0.07545966397530512,0.171794066237711,-0.10187152160254581,-0.128505683188833,-0.06579660551190714,-0.08501195405663238
221,13.237996500000008,0.008017290506489583,-0.006748753027797279,-0.014275643812204818,0.069372324967454,0.09040722277138342,-0.04135599181767435,0.07489819973117065,0.1715007980217808,-0.10223746485309103,-0.13045486979322463,-0.06947139859470793,-0.083766305561693
222,13.241534100001443,0.00831880553753394,-0.006355118696484862,-0.014455932000197945,0.06969587056251354,0.09115022796612436,-0.04180009939290268,0.07432831242532936,0.17119158528315803,-0.10259797313159319,-0.13239048475756143,-0.07315050779837463,-0.08250523487615244
223,13.245919399996636,0.008621718162680498,-0.005958265467972397,-0.014638149307877449,0.07001692682557373,0.09189185776937081,-0.04224575834084655,0.07375006183206488,0.17086641050899282,-0.10295297992359932,-0.13431210217963246,-0.07683337561887574,-0.0812289109335518
224,13.250167999998666,0.008926017509108545,-0.005558199456273184,-0.014822302410551921,0.07033545762351606,0.0926320429315185,-0.04269294466265617,0.07316350956881444,0.17052525861605802,-0.10330241946183122,-0.13621929897780857,-0.08051943949593933,-0.07993750936951281
225,13.254390799993416,0.009231692547896988,-0.005154927075821108,-0.015008397878848266,0.07065142709439116,0.09337071414285143,-0.04314163407595428,0.07256871907897772,0.1701681169702288,-0.10364622675501119,-0.13811165729609676,-0.08420813285595312,-0.07863121244174222
226,13.258956799996668,0.00953873209521739,-0.004748455041708254,-0.015196442177489567,0.07096479965528452,0.09410780204419766,-0.04359180201826338,0.0719657556037894,0.16979497540180813,-0.1039843376164654,-0.1399887662083697,-0.0878988855871246,-0.07731020886590405
227,13.262724799991702,0.009847124813560829,-0.0043387903698761925,-0.015386441664088089,0.07127554001004219,0.09484323723764593,-0.04404342365055628,0.07135468615034833,0.16940582622088568,-0.10431668869152629,-0.14185022185786753,-0.0915911236798384,-0.07597469355175726
228,13.266867099999216,0.010156859212997924,-0.003925940377260653,-0.015578402587953937,0.07158361315685932,0.09557695029733461,-0.04449647386092101,0.07073557946228028,0.16900066423578228,-0.10464321748384754,-0.14369562653404166,-0.09528426842398324,-0.07462486735570553
229,13.271133200003533,0.010467923652471511,-0.003509912681889248,-0.015772331088919844,0.07188898439575143,0.09630887178032833,-0.04495092726833959,0.070108505995773,0.1685794867753698,-0.10496386238066056,-0.14552458704784071,-0.098977735383043,-0.07326093677025462
230,13.27491920000466,0.010780306341121468,-0.0030907152029318193,-0.0159682331961826,0.07219161933593507,0.0970389322376005,-0.04540675822657196,0.06947353790432911,0.16814229371641273,-0.10527856267639633,-0.1473367122310888,-0.1026709329815592,-0.07188311381708162
231,13.278235199992196,0.011093995339641385,-0.0026683561607029143,-0.01616611482716152,0.07249148390316687,0.097767062225147,-0.04586394082813962,0.0688307490364875,0.1676890875181381,-0.10558725859701448,-0.14913161003009434,-0.10636326078115942,-0.07049161624916991
232,13.283171000002769,0.011408978561667046,-0.0022428440766157553,-0.01636598178637442,0.07278854434710447,0.09849319231526853,-0.04632244890842053,0.06818021494578141,0.16721987326452792,-0.10588989132537818,-0.15090888550913353,-0.11005410812858515,-0.06908666762841557
233,13.286677700001746,0.011725243775196936,-0.0018141877730868685,-0.016567839764331602,0.07308276724873192,0.09921725310805109,-0.04678225604985282,0.06752201290577435,0.16673465871061388,-0.10618640302625623,-0.1526681410076586,-0.11374285387981836,-0.06766849717338777
234,13.290153399997507,0.012042778604045111,-0.0013823963733904905,-0.01677169433644829,0.07337411952785099,0.09993917524304981,-0.04724333558624653,0.06685622191865485,0.16623345432716233,-0.10647673687037768,-0.15440897980673673,-0.11742886761091291,-0.06623733900998484
235,13.295667700003833,0.01236157052932668,-0.0009474793014618714,-0.016977550961975993,0.07366256845058113,0.10065888941115694,-0.04770566060719591,0.0661829226984757,0.16571627333646816,-0.1067608370529353,-0.15613101370510224,-0.12111151241496661,-0.06479343031718941
236,13.299993099994026,0.012681606890975715,-0.0005094462816487578,-0.017185414982953215,0.0739480816367054,0.10137632636659612,-0.04816920396255164,0.06550219761404642,0.16518313173278343,-0.10703864880155961,-0.15783387126318876,-0.12479014813455475,-0.06333700916199772
237,13.304199299993344,0.013002874889294436,-6.83073384106772e-05,-0.01739529162317561,0.07423062706667519,0.10209141693896749,-0.048633938266902293,0.06481413060067731,0.16463404829007847,-0.107310118376046,-0.1595172014861705,-0.12846413288384514,-0.06186831336183858
238,13.308451999997487,0.013325361586531874,0.00037592720403403865,-0.01760718598718554,0.07451017308819076,0.10280409204530931,-0.04909983590404416,0.06411880707113127,0.16406904456927013,-0.10757519306646322,-0.16118067123973956,-0.13213282207912647,-0.06038758072869204
239,13.312767900002656,0.013649053908490123,0.0008232467221135718,-0.01782110305928101,0.0747866884224337,0.10351428270220576,-0.049566869031446324,0.06341631384977911,0.1634881449343905,-0.10783382119499772,-0.16282396018131814,-0.1357955664587066,-0.05889505018609932
240,13.316911899994013,0.01397393864615705,0.001273640293360598,-0.01803704770254394,0.07506014217007645,0.10422192003798875,-0.0500350095847365,0.06270673912750979,0.16289137657698738,-0.10808595212374913,-0.16444675717850793,-0.13945171076138668,-0.0573909627800486
241,13.32107890000043,0.014300002457364666,0.001727096696923423,-0.018255024657888006,0.0753305038171237,0.10492693530505733,-0.050504229282233686,0.06199017242694619,0.16227876954375361,-0.1083315362653414,-0.16604875822437104,-0.14310059319429436,-0.055875562062142586
242,13.324425300001169,0.014627231868472498,0.002183604414130802,-0.01847503854312622,0.07559774324062025,0.10562925989231912,-0.050974499629526035,0.06126670457543476,0.1616503567655428,-0.10857052509404123,-0.16762966487822956,-0.14674154506032405,-0.05434909425390717
243,13.329353499997524,0.014955613276075455,0.0026431516291109715,-0.018697093852058467,0.07586183071425824,0.10632882533776142,-0.05144579192409993,0.06053642768378328,0.1610061740882296,-0.10880287115779422,-0.16918918388610407,-0.1503738906876821,-0.052811808007654275
244,13.333417000001646,0.015285132948735831,0.0031057262294654888,-0.01892119495357924,0.07612273691390052,0.10702556334116015,-0.051918077260022254,0.059799435122542176,0.1603462603023364,-0.10902852808726936,-0.17072702888790198,-0.1539969482740378,-0.05126395336984841
245,13.337738200003514,0.015615777028739071,0.0035713158069984826,-0.019147346090805772,0.0763804329229822,0.10771940577690794,-0.052391326532647865,0.059055821485936945,0.15967065716657292,-0.10924745059890509,-0.17224292274349004,-0.157610031092756,-0.049705780647214225
246,13.341992000001484,0.015947531533872617,0.0040399076585017415,-0.01937555138022661,0.0766348902377213,0.1084102847069273,-0.05286551044332831,0.05830568254797693,0.1589794094270019,-0.10945959449412036,-0.17373659780504588,-0.16121244776118573,-0.04813754001344268
247,13.346914199995808,0.016280382359226866,0.004511488786595952,-0.019605814810870568,0.07688608077213957,0.10909813239366481,-0.05334059950411246,0.0575491152240258,0.15827256483825206,-0.10966491665894984,-0.1752077951356118,-0.16480350186126733,-0.046559481759576124
248,13.352425599994604,0.016614315279017557,0.004986045900628476,-0.019838140243496075,0.07713397686293992,0.10978288131318827,-0.05381656404245205,0.05678621753368733,0.15755017418597403,-0.10986337506542641,-0.17665626620558247,-0.1683824927660428,-0.044971855958183655
249,13.358710200001951,0.016949315948429022,0.005463565417628175,-0.020072531409800937,0.07737855127420537,0.11046446416837569,-0.05429337420591431,0.0560170885476633,0.1568122913008855,-0.110054928768304,-0.178081776947548,-0.17194871802418735,-0.04337491100639143
250,13.362973199997214,0.017285369905477334,0.005944033463317566,-0.020308991911652547,0.07761977720181558,0.11114281390213422,-0.054770999966859066,0.05524182831547426,0.15605897306054764,-0.11023953789380471,-0.1794841100570901,-0.17550147506257596,-0.04176889251431184
251,13.366403799998809,0.017622462572891854,0.006427435873182283,-0.020547525220338217,0.07785762827751899,0.11181786371060455,-0.0552494111270538,0.05446053779236405,0.15529027938864495,-0.11041716362670169,-0.1808630629730155,-0.17904006054565955,-0.040154043512089586
252,13.371176999993622,0.017960579260013692,0.006913758193597748,-0.020788134675835405,0.07809207857271545,0.11248954705637357,-0.055728577322238744,0.053673318784536746,0.15450627326231745,-0.11058776820086187,-0.1822184442732909,-0.18256376889245943,-0.03853060504027368
253,13.375078900004157,0.018299705164710064,0.007402985683013218,-0.021030823486101642,0.07832310260205343,0.11315779768174236,-0.05620846802665989,0.052880273907316915,0.15370702072430165,-0.11075131489144874,-0.18355007293861955,-0.18607189240035804,-0.03689881609168578
254,13.37924490000296,0.018639825375303946,0.00789510331319352,-0.02127559472638407,0.07855067532684976,0.11382254962204419,-0.05668905255756646,0.05208150653677306,0.1528925908891892,-0.11090776800496092,-0.18485778002992279,-0.18956372271077393,-0.03525891311129169
255,13.383745899991482,0.01898092487251809,0.008390095770518597,-0.021522451338548368,0.07877477215826735,0.11448373721896674,-0.057170300079657586,0.05127712075333022,0.152063055942857,-0.1110570928670977,-0.18614140870015045,-0.19303855107412493,-0.03361113014500216
256,13.387144499996792,0.019322988531432227,0.008887947457340777,-0.02177139613042686,0.07899536896024593,0.11514129513386515,-0.05765217960947448,0.05046722129329092,0.15121849114642796,-0.111199255814088,-0.18740081089356733,-0.19649566625274967,-0.03195570035579349
257,13.39175460000115,0.019666001123452518,0.009388642493399773,-0.022022431775185525,0.0792124420522593,0.11579515836111863,-0.05813466001977194,0.049651913521072774,0.15035897485388783,-0.1113342241937043,-0.18863584309199208,-0.19993435183557745,-0.03029285789051265
258,13.395941499999026,0.020009947318292656,0.009892164717295792,-0.022275560810710023,0.0794259682120053,0.11644526224159628,-0.058617710043919316,0.048831303417619605,0.14948458853933397,-0.1114619663727812,-0.18984636487885628,-0.2033538856210723,-0.028622838146315922
259,13.400102400002652,0.02035481168596664,0.01039849768802131,-0.02253078563901087,0.07963592467806259,0.11709154247624998,-0.059101298280337215,0.04800549756509201,0.14859541681994357,-0.11158245174053998,-0.1910322419114684,-0.2067535421815408,-0.02694587573817896
260,13.405082099998252,0.020700578698792937,0.01090762468655206,-0.02278810852564793,0.07984228915244784,0.11773393513977941,-0.059585393196927315,0.047174603109501945,0.14769154746098387,-0.11169565069848068,-0.19219335120938352,-0.21013259713146953,-0.025262201472657973
261,13.408500999998068,0.021047232733409412,0.011419528717497322,-0.023047531599174022,0.08004503980294847,0.11837237669426842,-0.06006996313542138,0.04633872769954066,0.14677307136176376,-0.11180153463746205,-0.19332958395727565,-0.21349032958773448,-0.023572040986119473
262,13.413400899997214,0.02139475807279773,0.01193419251080917,-0.023309056850597126,0.08024415526514932,0.1190068040027282,-0.060554976315612324,0.04549797942490575,0.14584008253930822,-0.11190007591578387,-0.19444084269099518,-0.21682602030317047,-0.021875616563384766
263,13.416873599999237,0.021743138908315866,0.012451598523550211,-0.023572686132860673,0.08043961464423052,0.11963715434259205,-0.06104040083951315,0.04465246677953263,0.14489267813049622,-0.11199124785203877,-0.19552703579238415,-0.22013894743827803,-0.020173150255769316
264,13.421038300002692,0.02209235934173809,0.01297172894171986,-0.023838421160341825,0.08063139751667536,0.1202633654192771,-0.061526204695526006,0.04380229864766451,0.1439309584124045,-0.11207502473023544,-0.19658807523867555,-0.2234283852985475,-0.018464864805892017
265,13.425227999992783,0.0224424033873023,0.013494565682139695,-0.024106263508367927,0.0808194839319473,0.12088537537985553,-0.06201235576264557,0.04294758428660189,0.14295502681539582,-0.1121513818006706,-0.19762388039568984,-0.22669360868712535,-0.016750981269941626
266,13.42941549999523,0.022793254973764537,0.014020090394398298,-0.02437621461275123,0.0810038544140482,0.12150312282672977,-0.06249882181463567,0.0420884332798766,0.14196498990571485,-0.11222029526443168,-0.1986343842943177,-0.22993389934440084,-0.015031715645744606
267,13.433874800000922,0.02314489794645983,0.014548284462855197,-0.024648275769341563,0.08118448996278933,0.12211654683115282,-0.06298557052409824,0.04122495546556934,0.14096095734273004,-0.11228174224502628,-0.19961953609866767,-0.23314854895939618,-0.013307277436264035
268,13.437877100004698,0.02349731606936776,0.015079129008702966,-0.02492244813359636,0.08136137205472792,0.12272558694653259,-0.06347256946640395,0.040357260868079066,0.1399430418354136,-0.11233570076042687,-0.2005792985587559,-0.23633685757237657,-0.011577870719181892
269,13.442133799995643,0.023850493027181393,0.015612604892086547,-0.025198732720167403,0.08153448264384637,0.1233301832215748,-0.06395978612351869,0.039485459648531736,0.13891135911343652,-0.11238214970397609,-0.2015136440835359,-0.2394981305933427,-0.009843696151527345
270,13.446232899994357,0.024204412427378752,0.01614869271427933,-0.025477130402504034,0.08170380416205882,0.1239302762133367,-0.06444718788776858,0.03860966207060579,0.13786602790950533,-0.11242106883381633,-0.20242255198064318,-0.24263167683670567,-0.008104952730471269
271,13.450086299999384,0.024559057802296152,0.016687372819915676,-0.025757641912472564,0.08186931951959395,0.12452580700021676,-0.06493474206557487,0.03772997847487881,0.13680716994750106,-0.11245243876906529,-0.20330600650564273,-0.24573680669232098,-0.006361839230747491
272,13.45523819999653,0.024914412611202967,0.017228625299279654,-0.02604026783999186,0.08203101210527906,0.1251167171949055,-0.06542241588118569,0.036846519261570634,0.13573490994067738,-0.11247624099171133,-0.20416399499357085,-0.24881283010774333,-0.00461455534111197
273,13.460350800000016,0.02527046024237745,0.01777242999064988,-0.026325008632685123,0.08218886578677327,0.12570294895735956,-0.06591017648042742,0.035959394881093974,0.13464937559729834,-0.11249245785264485,-0.20499650804511418,-0.2518590579869028,-0.00286330150058306
274,13.472965099994326,0.02562718401518351,0.018318766482700765,-0.026611864595548013,0.08234286491076957,0.12628444500780148,-0.06639799093448878,0.035068715815182894,0.13355069760670657,-0.11250107257213349,-0.205803544426381,-0.2548748104341292,-0.0011082758344708155
275,13.48085350000474,0.025984567182148297,0.018867614116960092,-0.026900835890633235,0.08249299430306441,0.12686114863957287,-0.06688582624367627,0.03417459252495085,0.13243900957346588,-0.11250206921928158,-0.20658511869570714,-0.25785942835295067,0.0006503306121685864
276,13.48562690000108,0.026342592931039566,0.019418951990321735,-0.027191922536751238,0.08263923926830928,0.1274330037315631,-0.06737364934102015,0.03327713536587679,0.13131444790284058,-0.1124954326711682,-0.2073412649390913,-0.2608122795162893,0.002412336133986877
277,13.490057699993486,0.026701244386941117,0.019972758957611022,-0.027485124409186074,0.08278158558934304,0.1279999547600693,-0.06786142709567551,0.03237645450346812,0.13017715168229507,-0.11248114857271181,-0.20807203306188599,-0.26373275472932856,0.004177566090946694
278,13.494278600002872,0.027060504614324375,0.020529013634200306,-0.027780441239425586,0.08292001952621209,0.12856194681019736,-0.06834912631618019,0.03147265986040663,0.12902726260025021,-0.11245920331553272,-0.20877748150021638,-0.26662025847838117,0.005945848278136587
279,13.498074000002816,0.027420356619115318,0.021087694398673203,-0.028077872614905533,0.0830545278150443,0.12911892558701735,-0.06883671375367251,0.030565861095420633,0.1278649249086793,-0.1124295840379723,-0.20945767098933699,-0.26947420007830986,0.007717008841577175
280,13.503053399996134,0.027780783350756302,0.021648779395536905,-0.02837741797876767,0.08318509766688602,0.12967083742664012,-0.06932415610514937,0.02965616760447394,0.1266902854186371,-0.1123922786393751,-0.210112660290867,-0.27229398738219085,0.009490869726115089
281,13.507342099997912,0.0281417677042629,0.022212246537982483,-0.028679076629632132,0.08331171676658626,0.13021762930733405,-0.06981142001680787,0.028743688536692978,0.12550349351740805,-0.11234727580224084,-0.2107425041075182,-0.2750790239031703,0.01126724738599599
282,13.51170319999801,0.02850329252227605,0.0227780735106936,-0.028982847721384503,0.08343437327177185,0.13075924886075024,-0.07029847208749548,0.02782853281363996,0.12430470118899546,-0.11229456501768884,-0.21134725441921118,-0.27782871176090107,0.013045953467769997
283,13.518876599991929,0.02886534059711,0.023346237772704174,-0.02928873026297811,0.08355305581189876,0.131295644383217,-0.0707852788722725,0.02691080913365275,0.12309406300571711,-0.11223413660168767,-0.211926965944342,-0.28054246168662234,0.014826798516763549
284,13.52297499999986,0.029227894672796247,0.02391671656030503,-0.02959672311825199,0.08366775348726489,0.13182676484689218,-0.07127180688600299,0.025990625943755948,0.12187173606192697,-0.11216598168837574,-0.21248170298200394,-0.28321970519194667,0.016609596636423828
285,13.527060799999164,0.029590937447122902,0.02448948688999828,-0.029906825005764328,0.08377845586781783,0.1323525599104828,-0.0717580226068593,0.025068091384662556,0.12063787986007858,-0.1120900922058834,-0.2130115425278062,-0.28585989977421616,0.01839416738279187
286,13.531239100004314,0.029954451573668293,0.02506452556149696,-0.030219034498640815,0.08388515299169064,0.13287297992940938,-0.07224389247970336,0.02414331323566356,0.11939265619930407,-0.11200646085322394,-0.21351657183266548,-0.2884625240181891,0.020180333864859117
287,13.535494600000677,0.03031841966382764,0.025641809160767533,-0.03053335002443741,0.08398783536353166,0.1333879759655592,-0.07272938291939074,0.023216398880800633,0.11813622910395749,-0.11191508109259016,-0.21399688317532428,-0.2910270687504807,0.021967919191617002
288,13.538837699990836,0.030682824288832167,0.026221314063114114,-0.030849769865017355,0.08408649395274699,0.13389749979683097,-0.07321446031408513,0.022287455299090316,0.11686876478890569,-0.11181594715705781,-0.21445256961504866,-0.29355303052708387,0.0237567438234441
289,13.542211799998768,0.031047647981760535,0.026803016436303763,-0.031168292156442675,0.08418112019174549,0.13440150392658706,-0.07369909102862926,0.021356589067530855,0.11559043164455021,-0.11170905406585185,-0.21488372340345607,-0.29603990942760194,0.02554662452402294
290,13.546057500003371,0.031412873239542734,0.027386892243732672,-0.03148891488888043,0.08427170597420731,0.1348999415930683,-0.07418324140799176,0.020423906365099588,0.11430140022124739,-0.11159439764113929,-0.21529043686652707,-0.2984872114591936,0.027337374997682035
291,13.550558799994178,0.031778482524956506,0.02797291724763311,-0.031811635906524104,0.0843582436533636,0.13539276677871115,-0.0746668777807837,0.01948951296811065,0.11300184319348236,-0.11147197451776815,-0.21567280464819352,-0.3008944532906339,0.029128807906390743
292,13.554356799999368,0.03214445826861631,0.0285610670123204,-0.032136452907530366,0.08444072604022473,0.13587993421925162,-0.07514996646278987,0.018553514234755167,0.11169193530323367,-0.11134178214256821,-0.2160309249582544,-0.303261165065156,0.0309207362374264
293,13.558445300004678,0.03251078287095439,0.02915131690747884,-0.03246336344397108,0.08451914640172599,0.13636139941255146,-0.07563247376047935,0.01761601508963657,0.11037185329975331,-0.11120381877222908,-0.21636489877727685,-0.3055868895575588,0.032712972647408786
294,13.562601999990877,0.032877438704193636,0.029743642111485204,-0.03279236492180048,0.08459349845882165,0.1368371186271798,-0.07611436597451833,0.01667712001520619,0.10904177589024124,-0.11105808347828973,-0.2166748283824548,-0.30787117980422224,0.03450532789404873
295,13.566744199997627,0.03324440811431215,0.030338017614769088,-0.033123454600837696,0.08466377638455638,0.13730704891081144,-0.07659560940332391,0.01573693304908285,0.1077018837001787,-0.11090457615861696,-0.21696081629122924,-0.31011359757970197,0.036297609959126564
296,13.571100899993326,0.03361167342299939,0.030934418223209262,-0.03345662959476472,0.08472997480213612,0.1377711480984647,-0.07707617034667656,0.014795557784649757,0.10635235923721433,-0.11074329755000079,-0.21722296476068223,-0.3123137130431791,0.0380896240412942
297,13.575160599997616,0.03397921692960394,0.03153281856156543,-0.03379188687114024,0.08479208878300461,0.13822937482058634,-0.07755601510938309,0.013853097372715544,0.10499338685456354,-0.11057424923969537,-0.21746137566483065,-0.31447110483294755,0.039881172541860355
298,13.57949180000287,0.034347020913073054,0.03213319307694472,-0.03412922325142943,0.08485011384492869,0.13868168851097204,-0.07803511000498921,0.012909654523175303,0.10362515271407521,-0.11039743367813766,-0.2176761504944404,-0.316585360032825,0.04167205495906959
299,13.584924199996747,0.03471506763388379,0.03273551604230212,-0.034468635411049935,0.08490404595008925,0.1391280494145311,-0.07851342135955279,0.011965331506673242,0.10224784474992243,-0.11021285419140514,-0.217867390357028,-0.3186560740518395,0.04346206818296264
300,13.588430499992684,0.03508333933596596,0.03333976155997431,-0.03481011987943437,0.08495388150318096,0.13956841859489194,-0.07899091551546449,0.011020230156263707,0.10086165263271249,-0.11002051499137737,-0.2180351960305561,-0.32068285012382103,0.04525100667805413
301,13.592279100004816,0.03545181824861686,0.03394590356524607,-0.0351536730401095,0.08499961734951758,0.14000275794185557,-0.07946755883530911,0.01007445186860817,0.09946676773751739,-0.1098204211866095,-0.21817966776156572,-0.32266529792975834,0.04703866198456746
302,13.5954866999964,0.035820486588407724,0.034553915829948725,-0.035499291130792185,0.08504125077314208,0.14043103017872385,-0.07994331770578053,0.009128097607386915,0.09806338311993128,-0.10961257879681922,-0.21830090465810428,-0.3246030314739664,0.04882482206763162
303,13.600129400001606,0.036189326561082084,0.035163771966090114,-0.035846970243502495,0.08507877949496156,0.14085319886954537,-0.08041815854166873,0.008181267909760783,0.09665169350251956,-0.10939699476940437,-0.2183990044337946,-0.32649566822901666,0.050609271477083544
304,13.604254399993806,0.03655832036344607,0.03577544542951589,-0.036196706324694274,0.08511220167091343,0.14126922842632608,-0.0808920477899179,0.007234062892002379,0.09523189525829183,-0.10917367699254395,-0.21847406419610818,-0.3283428317762303,0.0523917922842696
305,13.608460799994646,0.036927450185250836,0.03638890952360201,-0.03654849517540343,0.08514151589014912,0.14167908411613195,-0.08136495193372716,0.006286582249121625,0.09380418637425166,-0.10894263430359143,-0.2185261819789957,-0.33014415575922607,0.05417216494339283
306,13.61289879999822,0.037296698211067125,0.03700413740297764,-0.03690233245141405,0.085166721173197,0.14208273206798344,-0.0818368374966814,0.005338925247205447,0.09236876640058292,-0.10870387649470593,-0.2185554576459334,-0.33189928486298376,0.055950168483052794
307,13.616180700002587,0.03766604662215176,0.0376211020772774,-0.03725821366344253,0.08518781697007971,0.14248013927951747,-0.08230767104690086,0.004391190715211783,0.09092583640570885,-0.1084574143195844,-0.21856199222952225,-0.3336078720619075,0.05772557980468936
308,13.620860399998492,0.03803547759830589,0.03823977641492211,-0.03761613417733967,0.0852048031584059,0.1428712736234922,-0.08277741920123037,0.003443477043036507,0.0894755989493441,-0.10820325950517691,-0.21854588706091807,-0.3352695757235788,0.05949817345820465
309,13.624897499990766,0.03840497331972491,0.03886013314692739,-0.03797608921431115,0.08521768004147076,0.14325610385421522,-0.08324604862949049,0.00249588218085733,0.08801825806267112,-0.10794142476036472,-0.21850724450422504,-0.3368840606616321,0.06126772280168633
310,13.62929759999679,0.03877451596884025,0.03948214487074017,-0.03833807385115646,0.08522644834634212,0.1436345996138765,-0.08371352605874205,0.0015485036308317986,0.08655401921226126,-0.1076719237776181,-0.2184461694965073,-0.3384510021701194,0.06303400089595339
311,13.633879699991668,0.0391440877321527,0.04010578405410224,-0.03870208302052637,0.08523110922188895,0.14400673143866366,-0.08417981827755162,0.0006014384330856609,0.08508308924526373,-0.1073947712339165,-0.21836276978360708,-0.339970087308893,0.06479678026984846
312,13.63915809999162,0.0395136708020571,0.04073102303893974,-0.03906811151119889,0.08523166423674594,0.1443724707646195,-0.08464489214026409,-0.0003452168446342314,0.0836056763421794,-0.10710998279444187,-0.218257154516678,-0.3414410116892453,0.06655583212164365
313,13.642616500001168,0.03988324737865801,0.04135783404527755,-0.03943615396837375,0.0852281153772523,0.14473178993334784,-0.08510871457130012,-0.0012913661088001913,0.08212198998992583,-0.10681757512042454,-0.21812943339932947,-0.34286347664703626,0.06831092579904191
314,13.646970799993142,0.04025279967157651,0.04198618917517825,-0.03980620489398563,0.08522046504540036,0.14508466219763738,-0.08557125256949677,-0.0022369137430545243,0.08063224095912673,-0.10651756587734615,-0.21797971768865282,-0.3442371906686909,0.0700618295016565
315,13.651950799991027,0.040622309901748095,0.042616060416705286,-0.040178258647036315,0.08520871605674876,0.14543106172697057,-0.08603247321247612,-0.003181764618731053,0.07913664126481022,-0.10620997373669334,-0.21780812139663708,-0.3455618728029818,0.07180831158761171
316,13.655457400003796,0.04099176030321139,0.0432474196479097,-0.04055230944394578,0.08519287163827984,0.1457709636128067,-0.08649234366100107,-0.0041258241082250575,0.07763540411411012,-0.10589481837282941,-0.21761476156695064,-0.34683725347107447,0.07355014070177095
317,13.658794799994212,0.04136113312488744,0.04388023864083912,-0.04092835135892212,0.08517293542619686,0.14610434387363716,-0.08695083116331687,-0.005068998097915149,0.07612874385993913,-0.10557212046363595,-0.21739975773411002,-0.348063073170082,0.07528708486236442
318,13.66838829999324,0.041730410632349335,0.04451448906556831,-0.041306378324350336,0.08514891146366933,0.1464311794598668,-0.08740790305951243,-0.006011192996842925,0.07461687595993345,-0.1052419016953056,-0.21716323203843665,-0.3492390832465867,0.07701891128994182
319,13.672100600000704,0.04209957510958194,0.04515014249425053,-0.04168638413120002,0.08512080419855499,0.14675144825851313,-0.08786352678590346,-0.006952315750631794,0.07310001692341767,-0.10490418476446708,-0.2169053116296267,-0.35036505131416806,0.07874538763000247
320,13.677837900002489,0.04246860886073176,0.045787170405188794,-0.04206836242945219,0.08508861848102434,0.14706512909762773,-0.08831766987941223,-0.00789227387101125,0.07157838422336657,-0.10455899337237481,-0.21662613185029123,-0.3514407694778658,0.08046628425102295
321,13.683898999996018,0.04283749421184609,0.04642554418692561,-0.04245230672854495,0.08505235956102666,0.14737220175023194,-0.08877029998190021,-0.008830975477344499,0.07005219617204463,-0.10420635220710468,-0.21632583848009937,-0.3524660599037698,0.08218137675633491
322,13.688715399999635,0.043206213512600886,0.04706523514234838,-0.042838210397837896,0.08501203308555441,0.14767264693765983,-0.08922138484439356,-0.009768329345614757,0.06852167178466625,-0.10384628691595972,-0.21600458819099214,-0.35344077491902826,0.08389044711137335
323,13.69285029999446,0.043574749138016185,0.04770621449280807,-0.04322606666709445,0.08496764509568434,0.14796644633231146,-0.0896708923311764,-0.010704244953900653,0.066987030654168,-0.10347882407788998,-0.21566254643128097,-0.3543647915234503,0.08559328238707999
324,13.696725499990862,0.04394308349015833,0.04834845338224854,-0.04361586862698171,0.08491920202344756,0.1482535825599098,-0.09011879042377707,-0.011638632513012663,0.06544849286246618,-0.10310399118679588,-0.21529988351269522,-0.3552380021509167,0.08728967162286759
325,13.700175499994655,0.04431119899982826,0.04899192288134478,-0.0440076092295874,0.08486671068860498,0.14853403920148447,-0.09056504722491672,-0.012571402978033988,0.0639062789353494,-0.10272181665115354,-0.21491677118309105,-0.35606030830045543,0.08897940314589844
326,13.704642700002296,0.044679078128235725,0.04963659399164944,-0.044401281288953945,0.08481017829541723,0.1488078007952374,-0.0910096309624922,-0.013502468049234282,0.062360609808969854,-0.10233232980056636,-0.21451338265671285,-0.35683162189578616,0.09066226469784351
327,13.708844099994169,0.0450467033686596,0.05028243764974724,-0.04479687748162996,0.08474961242941226,0.14907485283823593,-0.09145250999358152,-0.01443174018387297,0.06081170677294532,-0.10193556088429105,-0.21408989559549782,-0.3575518710412756,0.09233804570063345
328,13.712983899997198,0.04541405724809408,0.05092942473141617,-0.045194390347239065,0.08468502105405283,0.14933518178778518,-0.09189365280841398,-0.015359132622967927,0.05925979138693276,-0.10153154105813975,-0.2136464935669762,-0.35822100356768377,0.09400653884276693
329,13.716969799992512,0.04578112232888004,0.05157752605579383,-0.04559381228906582,0.08461641250727198,0.14958877506239754,-0.09233302803426198,-0.01628455941574222,0.057705085392980394,-0.10112030236924906,-0.2131833647541004,-0.35883898560249894,0.09566753931336446
330,13.72098410000035,0.04614788121032123,0.052226712389547035,-0.045995135574658265,0.08454379549792852,0.1498356210424049,-0.09277060443927912,-0.017207935435203964,0.05614781064449978,-0.10070187774962473,-0.21270069990411078,-0.35940579669748,0.09732084274772644
331,13.724469399996453,0.04651431653028488,0.052876954451043436,-0.04639835233644715,0.08446717910220738,0.1500757090703122,-0.093206350936336,-0.018129176384804904,0.05458818906087363,-0.10027630101872756,-0.21219868991371063,-0.35992142404318317,0.09896624323818876
332,13.72817089999444,0.046880410966786676,0.053528222914524214,-0.04680345457238176,0.08438657276001738,0.15030902945101607,-0.09364023658688075,-0.019048198793078022,0.05302644260660161,-0.0998436068942686,-0.21167752393440212,-0.36038585891693076,0.10060353196276065
333,13.733335400000216,0.047246147239560145,0.054180488414277604,-0.04721043414658259,0.08430198627143799,0.15053557345197743,-0.09407223060486845,-0.01996492000386492,0.05146279327671263,-0.09940383100668806,-0.2111373896393065,-0.36079909859667203,0.1022324977270674
334,13.736979900000732,0.04761150811161078,0.054833721548813066,-0.047619282790011264,0.08421342979320198,0.15075533330331362,-0.09450230236074722,-0.020879258173267384,0.04989746305931297,-0.09895700990525058,-0.21057847533925025,-0.36116115252803593,0.10385292963399176
335,13.741423999992548,0.047976476390754946,0.05548789288503562,-0.04802999210115779,0.08412091383516856,0.15096830219764626,-0.0949304213854405,-0.02179113227822623,0.04833067386751563,-0.098503181049372,-0.2100009720268864,-0.36147204699750446,0.10546461962804775
336,13.745989599992754,0.04834103493114342,0.056142972962418686,-0.04844255354674501,0.0840244492567316,0.151174474289603,-0.09535655737425794,-0.02270046213120023,0.046762647461461075,-0.09804238279264897,-0.20940507382175969,-0.3617318259539105,0.1070673629295444
337,13.751765199995134,0.04870516663476913,0.056798932297174115,-0.04885695846244975,0.08392404726316549,0.1513738446949892,-0.09578068019073917,-0.0236071683926047,0.045193605373122225,-0.09757465437042047,-0.20879097730086565,-0.3619405500898852,0.10866095743932822
338,13.755185000001802,0.04906885445295902,0.05745574138641784,-0.04927319805364063,0.08381971940192552,0.15156640948963745,-0.0962027598704568,-0.02451117257968482,0.0436237688362912,-0.09710003588895968,-0.20815888073381092,-0.36209829607646543,0.11024520364412468
339,13.758917200000724,0.04943208138784971,0.058113370712329915,-0.04969126339613219,0.08371147755891678,0.1517521657079721,-0.0966227666247665,-0.025412397072321246,0.042053358718022134,-0.09661856831385647,-0.20750898444170432,-0.3622051577336981,0.11181990523245958
340,13.76261639999575,0.049794830493846996,0.058771790746307735,-0.050111145436955204,0.08359933395474413,0.15193111134126425,-0.09704067084450921,-0.02631076512501586,0.04048259543846595,-0.09613029345386773,-0.20684149210854996,-0.3622612491907429,0.11338487035107793
341,13.766953899990767,0.05015708487906897,0.059430971953110937,-0.05053283499514294,0.08348330114087722,0.1521032453355011,-0.09745644310362116,-0.027206200884070258,0.03891169887490765,-0.09563525393840373,-0.2061566108659426,-0.36226670739720307,0.11493991198614809
342,13.772615599998971,0.050518827706772275,0.060090884794996136,-0.050956322762532764,0.08336339199575148,0.15226856758880866,-0.09787005416264087,-0.028098629400306007,0.03734088825982195,-0.0951334931980726,-0.20545455038614394,-0.3622216926737372,0.11648484740066982
343,13.780778799991822,0.05088004219676144,0.06075149973583948,-0.05138159930458282,0.08323961972082278,0.152427078948437,-0.09828147497215044,-0.02898797663837797,0.03577038208013545,-0.0946250554470456,-0.2047355220229558,-0.36212638834264727,0.1180194980717339
344,13.78456329999608,0.051240711626780885,0.061412787245245244,-0.05180865506120347,0.08311199783658768,0.1525787812073093,-0.09869067667612957,-0.029874169482043897,0.034200397978485925,-0.0941099856641457,-0.20399973788671655,-0.3619809993114963,0.11954368933697333
345,13.788134799993712,0.05160081933388974,0.06207471780263845,-0.05223748034760307,0.08298054017859242,0.1527236771001509,-0.0990976306152329,-0.03075713573545579,0.03263115266476788,-0.09358832957827906,-0.20324740970377564,-0.36178574857163814,0.1210572489377777
346,13.79214609999326,0.05196034871581926,0.0627372619013399,-0.052668065355147835,0.08284526089344192,0.15286177029927112,-0.09950230833001765,-0.031636804118538454,0.031062861847757885,-0.09306013366215728,-0.20247874732777982,-0.36154087275532093,0.12256000505303517
347,13.79623389999324,0.052319283232313024,0.06340039005262219,-0.0531004001522356,0.08270617443484886,0.15299306541009935,-0.09990468156416651,-0.03251310425537019,0.029495740185190477,-0.09252544513478096,-0.20169395761298767,-0.3612466195254579,0.12405178488294005
348,13.79968349999399,0.05267760640645008,0.06406407278974606,-0.05353447468518363,0.08256329555974345,0.15311756796653406,-0.10030472226773689,-0.03338596665979033,0.02793000123802036,-0.09198431196744379,-0.20089324374298356,-0.3609032466190664,0.12553241387103828
349,13.8032666999934,0.053035301825951404,0.06472828067197609,-0.05397027877913057,0.08241663932444737,0.153235284426082,-0.10070240260043577,-0.034255322717958295,0.02636585742879397,-0.09143678289296273,-0.20007680446565018,-0.3605110192322385,0.1270017146530239
350,13.806683000002522,0.05339235314446989,0.06539298428857482,-0.05440780213895265,0.08226622108093473,0.15334622216484636,-0.10109769493494906,-0.035121104667326535,0.024803520018590115,-0.09088290742079849,-0.19924483450723673,-0.3600702072833278,0.12845950671630077
351,13.810514400000102,0.05374874408286436,0.06605815426277505,-0.054847034350194515,0.08211205647318838,0.15345038947246598,-0.10149057186034763,-0.03598324558279054,0.02324319908912619,-0.09032273584923821,-0.19839752680617312,-0.3595810880848097,0.12990560867511095
352,13.8146962000028,0.05410445843045795,0.06672376125573005,-0.05528796488001496,0.08195416143358102,0.15354779554694822,-0.1018810061855222,-0.03684167937503422,0.021685103496527487,-0.08975631926078513,-0.19753507466346745,-0.359043953598648,0.1313398419412222
353,13.819040000002133,0.05445948004628074,0.06738977597044106,-0.05573058307814754,0.0817925521792458,0.15363845048920738,-0.10226897094254948,-0.03769634079532893,0.020129440790512237,-0.08918370950250776,-0.1966576731245912,-0.3584591158294722,0.1327620329804311
354,13.823164499990526,0.05481379286029668,0.06805616915566011,-0.056174878177875524,0.08162724520841588,0.15372236529719663,-0.10265443938995664,-0.03854716544586305,0.01857641712138937,-0.08860495916186037,-0.1957655196072182,-0.3578269082715892,0.1341720140995444
355,13.83033909999358,0.05516738087461447,0.06872291160976662,-0.0566208392970208,0.0814582572967054,0.15379955185963987,-0.10303738501587767,-0.03939408978998501,0.017026237146694545,-0.08802012154020715,-0.1948588135607793,-0.3571476866105353,0.13556962387004212
356,13.833887400003732,0.05552022816468222,0.06938997418461594,-0.05706845543894621,0.0812856054933602,0.15387002294935404,-0.10341778154108835,-0.040237051159580386,0.015479103932103794,-0.08742925062496856,-0.19393775658400983,-0.35642182955304874,0.13695470759786235
357,13.837783800001487,0.05587231888046581,0.07005732778935794,-0.057517715493570744,0.08110930711747484,0.1539337922161216,-0.10379560292192103,-0.04107598776633435,0.013935218850871744,-0.08683240105907133,-0.19300255265891386,-0.355649737531364,0.138327117515674
358,13.842393700004322,0.056223637247610765,0.07072494339422379,-0.05796860823839719,0.08092937975414566,0.1539908741791408,-0.10417082335303457,-0.041910838711137786,0.012394781495982065,-0.08622962811142737,-0.1920534070648637,-0.3548318292973248,0.13968671153607368
359,13.846051999993506,0.05657416756858726,0.07139279203427908,-0.058421122339551344,0.0807458412506062,0.15404128421913627,-0.1045434172700732,-0.042741543985932405,0.010857989609122787,-0.08562098765719646,-0.19109052515577832,-0.35396853823860797,0.1410333515717019
360,13.850219999992987,0.056923894223818446,0.07206084481314214,-0.05887524635283271,0.08055870971236426,0.15408503857019323,-0.10491335935226528,-0.043568044472512134,0.00932503902478378,-0.08500653616283375,-0.19011411132809716,-0.35306030942528066,0.14236690256761503
361,13.854770099991583,0.057272801672791966,0.07272907290666639,-0.05933096872477624,0.08036800349934772,0.15412215431138346,-0.10528062452495245,-0.04439028193541812,0.0077961236248453745,-0.08438633067474409,-0.18912436760605883,-0.3521075967371775,0.1436872309156983
362,13.858151399996132,0.05762087445515487,0.07339744756658602,-0.059788277793724975,0.08017374122210323,0.1541526493582056,-0.10564518796208999,-0.04520819900847115,0.006271435307588274,-0.08376042881808024,-0.18812149217365146,-0.35111085720169205,0.1449942014224343
363,13.861584500002207,0.057968097191792155,0.0740659401241241,-0.060247161790913495,0.07997594173805882,0.15417654245394233,-0.1060070250887656,-0.0460217391749352,0.004751163991386881,-0.08312888881169385,-0.18710567709762424,-0.35007054252721714,0.14628767295771525
364,13.865006499996523,0.05831445458588927,0.0747345219935633,-0.06070760884156236,0.07977462414789457,0.15419385316113274,-0.10636611158382939,-0.04683084673430297,0.003235497657144253,-0.08249176950466874,-0.18607710552904383,-0.3489870911890409,0.1475674940409084
365,13.868221199998516,0.058659931423979184,0.07540316467578007,-0.06116960696598438,0.07956980779209337,0.15420460185329748,-0.10672242338272946,-0.04763546675819036,0.0017246224206193934,-0.0818491304295511,-0.1850359501189976,-0.3478609230225142,0.14883349987211045
366,13.872110399999656,0.05900451257697496,0.07607183976174357,-0.06163314408070367,0.079361512247694,0.15420880970703849,-0.10707593668060358,-0.048435545043382405,0.00021872262175220142,-0.08120103186462876,-0.18398237287060407,-0.3466924376501938,0.15008551154423974
367,13.875614399992628,0.0593481830011887,0.07674051893598137,-0.06209820799958871,0.0791497573252491,0.15420649869453865,-0.10742662793565486,-0.04923102806644431,-0.0012820190893688612,-0.08054753489399448,-0.18291652644598008,-0.3454820186095765,0.15132333856469135
368,13.879423099991982,0.0596909277393377,0.0774091739800133,-0.0625647864350007,0.07893456306597196,0.15419769157640714,-0.10777447387276427,-0.050021862948101896,-0.0027774216989790088,-0.07988870144795648,-0.18183855809099952,-0.3442300465655369,0.15254678631423643
369,13.88375169999199,0.060032731921538664,0.07807777677575511,-0.06303286699895791,0.0787159497390033,0.15418241189464335,-0.10811945148721683,-0.05080799744188954,-0.004267305858252481,-0.07922459429841545,-0.18074861662697428,-0.3429369211631432,0.15375566898194423
370,13.887851199993747,0.06037358076629017,0.07874629930889133,-0.06350243720431636,0.07849393783865652,0.15416068396523397,-0.10846153804827402,-0.051589379959165,-0.005751494019290261,-0.07855527698709885,-0.1796468594185367,-0.34160308034404935,0.15494982211775896
371,13.89206159999594,0.06071345958144299,0.07941471367221468,-0.06397348446596521,0.07826854808146762,0.1541325328699376,-0.10880071110227756,-0.052365959618185354,-0.007229810631254118,-0.07788081371207739,-0.17853345429745526,-0.34022900445503734,0.1561291058263822
372,13.896014500001913,0.06105235376515694,0.08008299206892773,-0.06444599610203426,0.07803980140301478,0.15409798444718098,-0.1091369484752377,-0.05313768628580581,-0.00870208231198509,-0.07720126922830087,-0.17740857608533692,-0.33881520548343447,0.1572933984151423
373,13.900075700003072,0.061390248806843656,0.08075110681590332,-0.06491995933511185,0.07780771895460666,0.15405706528235513,-0.10947022827507435,-0.0539045105963993,-0.01016813795078319,-0.07651670878920261,-0.17627240178500878,-0.3373622130958898,0.1584425882540331
374,13.904680299994652,0.06172713028809472,0.0814190303469021,-0.06539536129347182,0.0775723220999379,0.1540098026978203,-0.10980052889369904,-0.05466638395185321,-0.011627808758949136,-0.07582719811782798,-0.17512510780329726,-0.33587056632090684,0.15957656908648038
375,13.908589700004086,0.0620629838835954,0.08208673521574623,-0.06587218901230936,0.07733363241177749,0.15395622474276385,-0.11012782900900556,-0.055423258516403916,-0.013080928300431987,-0.07513280338910554,-0.17396686933398717,-0.3343408110186928,0.16069523814538236
376,13.913161399992532,0.0623977953620241,0.08275419409944902,-0.06635042943498534,0.07709167166866901,0.1538963601829393,-0.11045210758679819,-0.05617508721128232,-0.014527332520428501,-0.07443359121731391,-0.17279785994320418,-0.3327734994301897,0.16179849576894836
377,13.917097300000025,0.06273155058693744,0.0834213798012996,-0.06683006941427887,0.07684646185166545,0.1538302384902763,-0.11077334388267372,-0.05692182370595265,-0.015966859772119806,-0.07372962864168454,-0.17161825156996838,-0.33116918958513025,0.16288624563742748
378,13.921060699998634,0.06306423551764143,0.08408826525390242,-0.06731109571364786,0.07659802514110549,0.1537578898323877,-0.11109151744382477,-0.05766342241276284,-0.0173993508401372,-0.0730209831118156,-0.17042821496147903,-0.329528444534432,0.16395839443008287
379,13.925168899993878,0.06339583621004856,0.08475482352217102,-0.06779349500849734,0.07634638391339461,0.15367934506197606,-0.1114066081107953,-0.05839983848195824,-0.018824648960641874,-0.0723077224762495,-0.1692279188861325,-0.32785183068950696,0.16501485048558157
380,13.928653099996154,0.06372633881752107,0.08542102780627558,-0.06827725388745516,0.0760915607378247,0.15359463570616666,-0.11171859601918487,-0.05913102778950702,-0.02024259983038861,-0.07158991497950447,-0.1680175285056773,-0.32613991403847725,0.166055520420088
381,13.932513199993991,0.06405572959170049,0.08608685144454421,-0.06876235885365511,0.07583357837346073,0.1535037939558353,-0.11202746160137846,-0.05985694691799661,-0.021653051593991147,-0.07086762927998114,-0.1667972033858986,-0.32439325377983164,0.16708030499786203
382,13.939405900004203,0.06438399488332383,0.08675226791631795,-0.06924879632602768,0.07557245976612599,0.15340685265505177,-0.11233318558840598,-0.06057755312720706,-0.023055854797774687,-0.07014093448280574,-0.16556709595530894,-0.32261239807106235,0.16808909702625616
383,13.942811100001563,0.06471112114302706,0.08741725084476047,-0.06973655264059919,0.075308228045544,0.1533038452908079,-0.11263574901195691,-0.06129280432164068,-0.024450862340171894,-0.06940990017599212,-0.16432735304534687,-0.32079788877159443,0.16908178339706748
384,13.946440200001234,0.06503709492213648,0.08808177399962407,-0.07022561405180013,0.07504090652260537,0.15319480598289117,-0.11293513320655346,-0.06200265903445256,-0.025837929466707783,-0.06867459644558152,-0.1630781207643125,-0.3189502728878791,0.17005825310839368
385,13.950513000003411,0.06536190287344848,0.08874581129997149,-0.07071596673378308,0.074770518686649,0.15307976947365629,-0.11323131981169646,-0.06270707643724875,-0.0272169138196517,-0.0679350938422362,-0.1618195492214757,-0.31707011406683594,0.17101840647832914
386,13.954489900002956,0.06568553175199736,0.0894093368168532,-0.07120759678174968,0.074497088202644,0.15295877111746817,-0.11352429077374881,-0.06340601636498591,-0.028587675532677465,-0.06719146331647474,-0.1605517939502825,-0.3151579974026239,0.171962158250076
387,13.958534099991084,0.06600796841581062,0.09007232477593774,-0.07170049021328488,0.074220638908255,0.1528318468696526,-0.11381402834751979,-0.06409943933811207,-0.029950077322201406,-0.06644377615833702,-0.15927501444270883,-0.313214523840121,0.17288943474165072
388,13.962763799994718,0.06632919982665138,0.09073474956009309,-0.07219463296969764,0.07394119481083199,0.1526990332751471,-0.11410051509762516,-0.06478730657475568,-0.03130398453350746,-0.06569210395733828,-0.15798937155212497,-0.3112403013444878,0.17380016929301606
389,13.967008499996156,0.0666492130507475,0.09139658571191861,-0.07269001091736699,0.07365878008436991,0.15256036745705162,-0.1143837338997242,-0.06546957999034303,-0.03264926515550449,-0.06493651858161821,-0.15669502481239062,-0.30923593932937476,0.17469429826455513
390,13.97045189999335,0.06696799525950768,0.09205780793622717,-0.07318660984909343,0.07337341906650187,0.15241588710515133,-0.11466366794169905,-0.06614622218653758,-0.03398578981853078,-0.0641770921725977,-0.15539213065187987,-0.30720204469747353,0.17557175727229668
391,13.974393099997542,0.0672855337302245,0.09271839110247751,-0.07368441548545529,0.07308513625555466,0.15226563046448638,-0.11494030072484533,-0.06681719643536876,-0.03531343177477362,-0.06341389715677741,-0.15408084124262178,-0.30513921822279444,0.176432478102719
392,13.979473899991715,0.06760181584676495,0.09337831024715723,-0.07418341347617036,0.07279395630767954,0.1521096363240446,-0.11521361606515385,-0.06748246665819059,-0.03663206686469959,-0.0626470062671504,-0.15276130413993103,-0.3030480538505973,0.17727638924399167
393,13.983566800001428,0.06791682910024861,0.09403754057611713,-0.0746835894014634,0.0724999040340903,0.15194794400562223,-0.11548359809468689,-0.06814199740668525,-0.037941573491402876,-0.06187649255039365,-0.151433664154926,-0.3009291430993219,0.17810342109979485
394,13.987048099996173,0.06823056108971426,0.09469605746685757,-0.07518492877343975,0.07220300439835878,0.15178059335273922,-0.11575023126292232,-0.06879575385806086,-0.03924183262521072,-0.061102429343064556,-0.15009806488476196,-0.29878308040357804,0.17891351151959636
395,13.991641699991304,0.06854299952277455,0.09535383647076667,-0.07568741703746447,0.07190328251369452,0.15160762471945996,-0.11601350033792343,-0.06944370180932578,-0.040532727824368044,-0.06032489023083184,-0.1487546473951517,-0.29661046296431276,0.17970660611990472
396,13.995164499996465,0.06885413221625904,0.09601085331530977,-0.07619103957354605,0.07160076364029,0.15142907895912916,-0.11627339040732947,-0.07008580766106073,-0.04181414523834348,-0.0595439490218861,-0.14740354866743835,-0.29441188580992284,0.18048265409195555
397,13.998992099994211,0.06916394709684585,0.09666708390616989,-0.07669578169772417,0.07129547318274103,0.15124499741316397,-0.1165298868792949,-0.07072203839822555,-0.04308597358568222,-0.05875967974252795,-0.14604490115038762,-0.2921879393532013,0.18124160600867525
398,14.004094699994312,0.06947243220168234,0.09732250432933999,-0.07720162866346163,0.07098743668755839,0.1510554218999819,-0.11678297548344167,-0.07135236157004428,-0.04434810413612498,-0.05797215662959734,-0.14467883435593312,-0.2899392139438314,0.181983417423026
399,14.008432300004642,0.06977957567899516,0.09797709085316746,-0.07770856566304024,0.07067667984076267,0.150860394703948,-0.11703264227173284,-0.07197674528465083,-0.045600430727941725,-0.05718145409485558,-0.1433054789243576,-0.28766630788840997,0.18270805512215973
400,14.012603299997863,0.07008536578869007,0.09863081993035047,-0.0782165778289604,0.0703632284654424,0.15065995856415249,-0.11727887361911589,-0.07259515822422875,-0.046842849819603176,-0.05638764666317639,-0.14192496883687464,-0.28536983159995344,0.18341549987142733
401,14.017009100003634,0.07038979090294084,0.09928366819988518,-0.07872565023534257,0.07004710851921755,0.15045415666290982,-0.11752165622386039,-0.07320756965884524,-0.04807526054310051,-0.05559080891313086,-0.14053743962688772,-0.2830504037251714,0.18410574309595737
402,14.020967599994036,0.07069283950676704,0.09993561248896234,-0.07923576789932976,0.06972834609167766,0.15024303261407385,-0.11776097710768603,-0.07381394944607828,-0.049297564722031215,-0.05479101544395709,-0.13914302565775707,-0.28070864340086366,0.18477878049788582
403,14.025156899995636,0.07099450019860075,0.1005866298148131,-0.07974691578249013,0.06940696740184862,0.1500266304513801,-0.11799682361581379,-0.07441426802124242,-0.05050966685776347,-0.0539883408714988,-0.13774185822960675,-0.27834516533790743,0.18543460667314832
404,14.02882549999049,0.07129476169084235,0.10123669738650462,-0.08025907879221987,0.06908299879571557,0.1498049946168809,-0.11822918341705879,-0.07500849638059755,-0.051711474104888584,-0.05318285984186007,-0.13633406477002483,-0.27596057865102935,0.18607321340871869
405,14.033102400004282,0.0715936128104058,0.10188579260668552,-0.08077224178314668,0.06875646674383526,0.14957816994950057,-0.11845804450399988,-0.07559660606455611,-0.052902896247236715,-0.05237464704211093,-0.1349197700251354,-0.27355548900958193,0.18669459247053255
406,14.037428399999044,0.07189104249925365,0.10253389307328223,-0.08128638955853408,0.0684273978390046,0.1493462016736785,-0.11868339519316531,-0.07617856915122123,-0.05408384569198162,-0.05156377718976424,-0.13349909869917803,-0.27113050384767523,0.18729874073114522
407,14.042118199999097,0.07218703981492217,0.10318097658114597,-0.0818015068716865,0.06809581879392909,0.14910913538797552,-0.11890522412511108,-0.07675435826248538,-0.055254237490840546,-0.05075032499901235,-0.13207217736835977,-0.2686862368329056,0.18788566387084918
408,14.046161099991878,0.07248159393103609,0.10382702112365029,-0.08231757842735427,0.06776175643883843,0.14886701705353306,-0.11912352026431378,-0.07732394657416607,-0.05641398937293335,-0.04993436513810658,-0.13063913486354423,-0.26622330789034643,0.18845537684746616
409,14.050465599997551,0.07277469413781308,0.10447200489423797,-0.08283458888313779,0.06742523771906707,0.14861989298239459,-0.11933827289887933,-0.07788730782542334,-0.057563021766190464,-0.04911597219151968,-0.12920010174087074,-0.26374233996383034,0.18900790191699063
410,14.054368299999624,0.07306632984255752,0.10511590628791724,-0.08335252285089,0.06708628969258816,0.14836780982577918,-0.11954947164010771,-0.07844441632430453,-0.05870125780212472,-0.04829522063449097,-0.1277552090022793,-0.2612439558281695,0.1895432657179733
411,14.059225499993772,0.07335649057014354,0.10575870390270704,-0.08387136489811675,0.06674493952754601,0.14811081456236147,-0.1197571064219809,-0.0789952469460656,-0.05982862330959371,-0.04747218482047411,-0.12630458769122793,-0.25872877670709593,0.1900614973995594
412,14.064230899995891,0.07364516596348744,0.10640037654103157,-0.08439109954937486,0.06640121449980459,0.14784895448659935,-0.11996116750061876,-0.07953977513520989,-0.06094504680758589,-0.04664693897191655,-0.1248483691930914,-0.2561974223525986,0.19056262849416367
413,14.067809799991664,0.07393234578400945,0.10704090321106431,-0.08491171128766775,0.0660551419904623,0.14758227719707648,-0.12016164545368704,-0.08007797690641459,-0.062050459499671,-0.04581955716881151,-0.12338668450999059,-0.25365050994333993,0.19104669313022773
414,14.073186399997212,0.07421801991208461,0.1076802631280215,-0.08543318455583836,0.06570674948339245,0.14731083058487815,-0.12035853117975395,-0.08060982884028053,-0.06314479525723284,-0.044990113337632316,-0.1219196645159957,-0.2510886527871008,0.1915137280314807
415,14.077139300003182,0.07450217834748318,0.10831843571540532,-0.08595550375795921,0.0653560645627949,0.14703466282207917,-0.1205518158976022,-0.08113530808647193,-0.06422799060266679,-0.0441586812398908,-0.12044744097899464,-0.24851246110536507,0.1919637726879881
416,14.081195599996136,0.07478481120980031,0.10895540060619759,-0.08647865326071938,0.0650031149107093,0.14675382235026543,-0.12074149114548634,-0.08165439236832812,-0.06529998469941684,-0.04332533445958824,-0.11897014585784853,-0.2459225419919871,0.19239686903619652
417,14.08591759999399,0.07506590873887485,0.10959113764400334,-0.0870026173948081,0.06464792830452672,0.14646835786910825,-0.12092754878033601,-0.08216705997990803,-0.06636071933481462,-0.042490146394548525,-0.1174879100910274,-0.2433194979658074,0.19281306071512502
418,14.089447599995763,0.07534546129519748,0.11022562688414544,-0.08752738045629478,0.06429053261452852,0.14617831832503472,-0.12110998097693812,-0.0826732897800965,-0.0674101388975642,-0.04165319025031966,-0.11600086253209088,-0.2407039255243774,0.19321239230023735
419,14.093059499995434,0.07562345936030816,0.11085884859470997,-0.08805292670800562,0.06393095580144914,0.1458837528999973,-0.12128878022708713,-0.08317306118041685,-0.06844819034803852,-0.040814539038151076,-0.11450912775648232,-0.23807641397520907,0.19359490857901349
420,14.096363399992695,0.07589989353718311,0.11149078325754336,-0.08857924038089617,0.06356922591412062,0.14558471100040182,-0.12146393933874974,-0.083666354120117,-0.06947482318562834,-0.03997426557517765,-0.11301282425507153,-0.23543754575240816,0.1939606562332226
421,14.100421299997834,0.07617475455061186,0.1121214115692018,-0.0891063056754207,0.06320537108725144,0.14528124224616018,-0.12163545143521683,-0.0841531490383157,-0.07048998942178464,-0.03913244246780772,-0.1115120646468961,-0.23278789711822223,0.19430968677447166
422,14.106099900003755,0.07644803324756493,0.11275071444185346,-0.0896341067628975,0.06283941953931264,0.14497339645985216,-0.12180330995412397,-0.08463342685093364,-0.07149364355345164,-0.03828914208644898,-0.11000695652935183,-0.23012803761317063,0.19464205511785737
423,14.109645699994871,0.07671972059755257,0.11337867300413386,-0.09016262778686965,0.062471399570516714,0.14466122365600853,-0.12196750864638424,-0.08510716893021292,-0.07248574253134056,-0.037444436561266295,-0.10849760284021806,-0.22745852858614796,0.1949578147748223
424,14.113325800004532,0.07698980769297493,0.11400526860195516,-0.09069185286446109,0.06210133956088131,0.144344774030548,-0.12212804157517196,-0.08557435708478767,-0.07346624572061512,-0.03659839779859689,-0.1069841025806121,-0.22477992272611313,0.19525701661871459
425,14.116781299992,0.077258285749464,0.11463048279926995,-0.09122176608772863,0.061729267968380984,0.14402409795040122,-0.1222849031149978,-0.08603497354547326,-0.07443511486510397,-0.035751097487413654,-0.10546655360282707,-0.2220927674668679,0.1955397130547781
426,14.121064499995557,0.0775251461062177,0.11525429737879052,-0.09175235152500993,0.06135521332713415,0.1436992459432582,-0.12243808795074866,-0.08648900096951413,-0.07539231407751365,-0.03490260707957669,-0.10394505533421966,-0.21939760996432564,0.19580596223275926
427,14.125071000002208,0.07779038022632616,0.11587669434266376,-0.09228359322226724,0.060979204245517976,0.14337026868727712,-0.12258759107659144,-0.08693642244999544,-0.07633780984680567,-0.03405299775976337,-0.10241970764850733,-0.2166949968219452,0.19605582721675066
428,14.12849400000414,0.07805397969708944,0.11649765591310118,-0.09281547520442585,0.060601269404273725,0.14303721700076774,-0.12273340779475214,-0.08737722151030242,-0.07727157102602837,-0.03320234043291931,-0.10089060818532515,-0.21398546875032462,0.19628937058242218
429,14.132313800000702,0.07831593623032736,0.11711716453296434,-0.09334798147670718,0.06022143755466969,0.14270014183200583,-0.12287553371431087,-0.08781138209028626,-0.07819356879338003,-0.032350705741043165,-0.09935785156295168,-0.211269558076163,0.1965066506075772
430,14.13730950000172,0.07857624166268133,0.1177352028663065,-0.09388109602595691,0.05983973751672652,0.14235909424925416,-0.12301396475012645,-0.08823888853389593,-0.07910377661843758,-0.03149816408367447,-0.09782153125084132,-0.20854779301946624,0.19670772435661193
431,14.141660599998431,0.07883488795590876,0.11835175379887156,-0.09441480282196867,0.059456198177487415,0.1420141254308699,-0.1231486971218091,-0.08865972559158336,-0.08000217026031317,-0.03064478560792893,-0.09628174310172843,-0.20582070467322983,0.19689265461776148
432,14.147492199990666,0.07909186719716989,0.11896680043854992,-0.0949490858188032,0.059070848489222595,0.14166528665534148,-0.12327972735255868,-0.0890738784385669,-0.0808887277944132,-0.029790640168823913,-0.09473858669123443,-0.2030888310673302,0.1970615138173432
433,14.151362999997218,0.07934717159930661,0.11958032611579096,-0.09548392895610207,0.05868371746754109,0.14131262929116403,-0.12340705226779324,-0.08948133268885408,-0.08176342964583841,-0.028935797285368048,-0.09319216372296928,-0.20035271548495756,0.1972143826159233
434,14.155404599994654,0.07960079350111297,0.12019231438397115,-0.09601931616039493,0.05829483418947363,0.1409562047865866,-0.12353066899360646,-0.08988207439967354,-0.08262625860154242,-0.028080326113061268,-0.09164257641120901,-0.19761290163590964,0.19735134563241047
435,14.15879249999125,0.07985272536759734,0.1208027490197176,-0.09655523134639979,0.05790422779154596,0.14059606465938201,-0.12365057495515777,-0.09027609007147176,-0.0834771998018729,-0.02722429543706659,-0.09008992631065403,-0.19486993084892687,0.19747248791048122
436,14.163047299996832,0.08010295979023618,0.12141161402318743,-0.09709165841831635,0.0575119274678618,0.14023226048666756,-0.12376676787507054,-0.09066336664219628,-0.084316240728381,-0.0263677736753546,-0.08853431380577423,-0.19212434155540473,0.19757789413178092
437,14.168223699991358,0.08035148948721964,0.12201889361830304,-0.0976285812711124,0.05711796246822572,0.13986484389478057,-0.12387924577184944,-0.0910438914828638,-0.08514337119088508,-0.025510828878698627,-0.08697583845097513,-0.18937666897607314,0.19766764882960092
438,14.171923799993236,0.080598307303689,0.12262457225294372,-0.0981659837918034,0.056722362096264516,0.13949386654921125,-0.12398800695827862,-0.09141765239479348,-0.08595858331256297,-0.024653528731966152,-0.08541459841813859,-0.1866274444604111,0.19774183547328472
439,14.175519399999756,0.08084340621196599,0.12322863459909361,-0.09870384986072499,0.056325155707574105,0.13911938014460756,-0.12409305003985026,-0.09178463760038388,-0.08676187151128682,-0.02379594056205434,-0.08385068968740467,-0.1838771941422309,0.19780053523415145
440,14.178881400002863,0.0810867793117742,0.12383106555294657,-0.09924216335279895,0.05592637270792088,0.13874143639486994,-0.12419437391323157,-0.09214483573332845,-0.0875532324730561,-0.022938131349883793,-0.08228420534488574,-0.1811264361150269,0.19784382443246512
441,14.18288439999742,0.08132841983045273,0.12443185023496826,-0.09978090813879244,0.055526042551473455,0.13836008702338654,-0.12429197776479738,-0.09249823582330201,-0.0883326651088361,-0.0220801677604749,-0.08071523379632116,-0.17837567613005262,0.19787177019694738
