,time,x,y,z,vx,vy,vz,ax,ay,az,jx,jy,jz
0,8.796056999999564,-0.00314576726172845,-0.05626950354571758,0.01559030006712157,0.003187908936640017,-0.0004271123647935763,0.013388816475266869,0.03095167306745976,0.0281675447850236,0.005883985948710005,-0.046069756774621766,0.15018679799927798,-0.07567048296924823
1,8.80104819999542,-0.003132055979683526,-0.056271053556089384,0.01564678333979065,0.00331795441979731,-0.0003070581764271727,0.013412944113587792,0.030755736492042694,0.028803505647711274,0.00556287979962537,-0.04690535893673109,0.15158568314830043,-0.07670440528389323
2,8.80604279995896,-0.003117798324081231,-0.056272091914906536,0.015703365453234225,0.0034471666500997438,-0.0001843111229575372,0.013435709174372784,0.030556280939227326,0.02944534730542258,0.005237400596044644,-0.04773956649553611,0.1529771768007676,-0.07774553340873076
3,8.810273699986283,-0.0031029978381608638,-0.056272607220080345,0.015760040625635813,0.0035755308081951856,-5.884648374322474e-05,0.013457093162119094,0.03035331235063436,0.030093037864868635,0.004907518181851422,-0.04857234886456908,0.15436092786824154,-0.07879376337662233
4,8.814202499983367,-0.0030876581275693597,-0.056272587965613186,0.015816802996956456,0.003703032100045654,6.936032431609134e-05,0.013477077455145967,0.030146836798383734,0.030746543952656052,0.0045732028476605305,-0.04940367470368934,0.1557365851348523,-0.07984898719782012
5,8.81943939998746,-0.0030717828602534352,-0.05627202254219134,0.015873646628406866,0.003829655757484391,0.00020033374053841373,0.01349564330751323,0.029936860488280145,0.03140583071489628,0.004234425347662983,-0.0502335119436823,0.15710379755849638,-0.08091109277877004
6,8.824756199959666,-0.003055375766349359,-0.05627089923780417,0.01593056550192782,0.003955387038785697,0.0003340980542206854,0.01351277185101046,0.029723389762773306,0.032070861819061026,0.003891156917374355,-0.051061827829635885,0.1584622145836155,-0.08197996370779123
7,8.829307099978905,-0.0030384406380702944,-0.056269206238389574,0.01598755351967908,0.004080211229246955,0.00047067739841322425,0.013528444097225175,0.02950643110377782,0.03274159945622822,0.003543369292286377,-0.05188858891374733,0.15981148608327286,-0.08305547919438495
8,8.833318199962378,-0.003020981329591164,-0.056266931628505615,0.01604460450353722,0.004204113641782234,0.00061009574369992,0.013542640939689226,0.029285991135694082,0.03341800434244914,0.003191034726126903,-0.05271376097715582,0.16115126226648296,-0.08413751428343366
9,8.838040700007696,-0.0030030017569309887,-0.056264063392028406,0.016101712194602644,0.004327079617529781,0.0007523768919841928,0.013555343156100916,0.029062076628887067,0.0341000357202132,0.0028341260077058964,-0.053537308959695634,0.16248119371296088,-0.08522594022578878
10,8.841625800007023,-0.00298450589783263,-0.05626058941287614,0.01615887025271614,0.0044490945264749485,0.0008975444702815383,0.013566531410613395,0.028834694503299382,0.034787651360108036,0.002472616476051506,-0.05435919695695001,0.1638009315121295,-0.08632062465235861
11,8.845820399990771,-0.002965497791639879,-0.056256497475759296,0.016216072255985182,0.004570143768088142,0.0010456219245194795,0.01357618625618437,0.02860385183195489,0.035480807563456014,0.0021064800357885626,-0.055179388260821874,0.1651101273326345,-0.08742143155072102
12,8.849928599956911,-0.002945981539171822,-0.05625177526695691,0.016273311700320307,0.0046902127719772825,0.0011966325133523365,0.013584288136994128,0.028369555844229767,0.03617945916456033,0.0017356911724718017,-0.05599784539434327,0.166408433213828,-0.08852822139829586
13,8.854174299980514,-0.0029259613025944277,-0.056246410375118946,0.01633058199898179,0.004809286998553326,0.0013505993019801124,0.013590817390924508,0.028131813929062697,0.03688355953158381,0.0013602249668417722,-0.056814530092816305,0.16769550175110887,-0.08964085126102157
14,8.858991999994032,-0.0029054413052893033,-0.05624039029209467,0.01638787648213691,0.004927351939709789,0.0015075451559706707,0.013595754252097093,0.027890633638384905,0.03759306057035734,0.0009800571093262571,-0.05762940325306984,0.1689709865129607,-0.09075917481625455
15,8.862855599960312,-0.0028844258317195547,-0.05623370241378707,0.016445188396428036,0.00504439311951718,0.0016674927351107245,0.013599078853474417,0.027646022690758096,0.038307912728774145,0.0005951639141031522,-0.058442424919751365,0.17023454197145568,-0.09188304252094971
16,8.866810699983034,-0.0028629192272926875,-0.0562263340410331,0.016502510904551813,0.005160396094933192,0.001830464487265056,0.013600771229516705,0.02739798897492004,0.03902806500001235,0.00020552233218419522,-0.05925355434262561,0.17148582367602552,-0.09301230171597655
17,8.870710999995936,-0.0028409258982204813,-0.05621827238050985,0.016559837084849646,0.00527534645652702,0.0019964826422546704,0.013600811318893373,0.027146540552939503,0.03975346492839411,-0.0001888900354014957,-0.06006275011394482,0.1727244887052284,-0.09414679664323267
18,8.874847900005989,-0.0028184503113757847,-0.05620950454566638,0.016617159930909734,0.005389229829216152,0.0021655692057654056,0.013599178967250894,0.026891685662603877,0.04048405861641636,-0.0005880949246679513,-0.06086997041904651,0.17395019604903336,-0.09528636850945905
19,8.879169799969532,-0.0027954969941461788,-0.056200017557681246,0.016674472351180896,0.0055020318730108105,0.002337745953285352,0.013595853930033375,0.02663343271846166,0.04121979073383244,-0.000992113396026749,-0.061675173298574644,0.17516260721126095,-0.0964308555153891
20,8.883236999972723,-0.002772070534284497,-0.056189798346445455,0.01673176716859838,0.005613738283759529,0.002513034424090017,0.013590815875357022,0.02637179031199968,0.04196060452976118,-0.0014009658215932558,-0.06247831669388435,0.17636138655707503,-0.09758009286717369
21,8.887402099964675,-0.002748175579756204,-0.05617883375157068,0.016789037120221912,0.005724334793895093,0.002691455915281818,0.013584044386937716,0.026106767212302835,0.04270644184469769,-0.001814671872637335,-0.06327935819808185,0.17754620078006428,-0.09873391290369457
22,8.891494199982844,-0.002723816838583626,-0.05616711052342245,0.016846274856886192,0.005833807173185674,0.0028730314758764934,0.013575518967071267,0.02583837236832994,0.04345724311813022,-0.002233250507962786,-0.06407825466728433,0.1787167180103161,-0.09989214542694401
23,8.896056799974758,-0.0026989990786870006,-0.05615461532417824,0.01690347294286406,0.005942141229499955,0.003057781900906804,0.013565219039658941,0.025566614912850394,0.04421294739303236,-0.0026567199641430103,-0.06487496196633606,0.1798726075479439,-0.10105461788731827
24,8.900330399977975,-0.0026737271277222554,-0.056141334728910336,0.0169606238555425,0.0060493228095914505,0.0032457277255468083,0.01355312395327003,0.025291504166863505,0.04497349232123365,-0.003085097745462397,-0.06566943490158832,0.1810135400020893,-0.10222115531399237
25,8.904324400005862,-0.002648005872915446,-0.05612725522669347,0.017017719985111614,0.006155337799900884,0.003436889219260838,0.013539212984252163,0.025013049644101813,0.04573881416908353,-0.0035184006135650756,-0.06646162715212543,0.18213918742994079,-0.10339158051776683
26,8.908274799992796,-0.0026218402608937726,-0.056112363221737016,0.017074753634266856,0.006260172127378468,0.003631286379975518,0.013523465339881136,0.02473126105603015,0.0465088478239938,-0.003956644579106216,-0.0672514911552591,0.18324922342940028,-0.10456571439801052
27,8.912341299990658,-0.0025952352975130858,-0.056096645034541724,0.017131717017924552,0.006363811760328424,0.0038289389282838908,0.0135058601615416,0.02444614831731419,0.047283526800883734,-0.004399844893988175,-0.06803897796764341,0.18434332322024097,-0.10574337607009629
28,8.916422499984037,-0.0025681960476817843,-0.0560800869030808,0.01718860226295094,0.00646624270927736,0.0040298663016717666,0.01348637652794233,0.024157721551990252,0.048062783249406625,-0.0048480160440860275,-0.06882403710806513,0.18542116401469436,-0.10692438309131777
29,8.920605399995111,-0.002540727635181,-0.056062674984005294,0.017245401407904804,0.006567451027870795,0.004234087648782765,0.013464993458358243,0.02386599110025906,0.04884654796351881,-0.005301171743388093,-0.06960661645105469,0.18648242505224935,-0.10810855172720923
30,8.925354700011667,-0.0025128352424809387,-0.05604439535387353,0.017302106402793838,0.0066674228137988106,0.004441621823725326,0.013441689915895056,0.023570967525552367,0.04963475038899958,-0.005759324928966428,-0.07038666208067842,0.1875267872406316,-0.10929569707336631
31,8.929159499995876,-0.0024845241105532633,-0.05602523401040449,0.017358709108844798,0.006766144209752141,0.004652487380401146,0.013416444810773694,0.02327266162255917,0.05042731862999378,-0.006222487756144253,-0.07116411788421938,0.18855393290079134,-0.11048563308442405
32,8.933229799964465,-0.0024557995386793744,-0.05600517687375503,0.017415201298287553,0.006863601404415481,0.004866702566867334,0.013389237003635696,0.022971084427717444,0.05122417945438208,-0.006690671593710715,-0.07193892479934694,0.1895635454542013,-0.11167817264326724
33,8.9373695999966,-0.0024266668842544193,-0.05598420978782081,0.017471574654153103,0.00695978063351202,0.005084285319710119,0.013360045308867955,0.02266624723358639,0.05202525829768766,-0.007163887019671728,-0.07271102002343387,0.19055530938814547,-0.11287312760177536
34,8.941664699988905,-0.0023971315625867695,-0.05596231852156093,0.017527820770085654,0.007054668180917901,0.005305253258439941,0.013328848497943939,0.022358161606003287,0.05283047926815384,-0.007642143816808198,-0.07348033687083454,0.1915289103135579,-0.11407030871730098
35,8.945734799955972,-0.002367199046692634,-0.05593948877034611,0.0175839311501688,0.00714825037985138,0.0055296236799079555,0.01329562530278588,0.02204683939965883,0.05363976515113834,-0.008125450967891405,-0.07424680554846139,0.1924840348607954,-0.11526952560594263
36,8.94992079999065,-0.0023368748670855133,-0.05591570615733039,0.017639897208765944,0.0072405136141185725,0.0057574135527381715,0.013260354419146324,0.02173229276871619,0.05445303741331233,-0.008613816650847338,-0.0750103542764693,0.19342037079551339,-0.11647058671381155
37,8.954119500005618,-0.002306164611560311,-0.05589095623484623,0.017695710270374976,0.007331444319392136,0.005988639511779348,0.013223014510011082,0.021414534172939485,0.05527021620803146,-0.009107248233729864,-0.07577090999923164,0.19433760734298527,-0.1176732994213472
38,8.960374399961438,-0.0022750739249720094,-0.05586522448582302,0.017751361569497387,0.007421028984508675,0.006223317852582407,0.013183584209023155,0.021093576382319592,0.056091220382268776,-0.009605752270764403,-0.07652839835146838,0.19523543558197515,-0.11887747030951595
39,8.966213000006974,-0.0022436085090088453,-0.055838496325228686,0.017806842250521815,0.007509254152786409,0.006461464525910778,0.013142042123919034,0.02076943248348815,0.05691596748530594,-0.010109334499565038,-0.0772827430122566,0.19611354878070342,-0.12008290538023544
40,8.97099529998377,-0.0022117741219598768,-0.05581075710153449,0.01786214336762211,0.007596106423376655,0.006703095132291066,0.013098366839976087,0.020442115889788802,0.057744373778498205,-0.01061799983903627,-0.07803386492812689,0.19697164244321955,-0.12128941021251825
41,8.974991199967917,-0.0021795765784767673,-0.0557819920982026,0.017917255884669952,0.007681572452666387,0.006948224916605715,0.013052536923466543,0.020111640354240144,0.058576354244356504,-0.011131752387906356,-0.0787816819852588,0.19780941420508955,-0.12249679000294898
42,8.978430099959951,-0.0021470217493295297,-0.05575218653519643,0.017972170675162026,0.00776563895573899,0.007196868762720236,0.01300453092511724,0.01977801998237023,0.05941182259543315,-0.011650595422970264,-0.07952610928742151,0.19862656390285832,-0.12370484940961299
43,8.9837256000028,-0.0021141155611559964,-0.05572132557051352,0.018026878522161807,0.00784829270788501,0.0074490411881507675,0.012954327383578428,0.0194412692428366,0.06025069128398944,-0.0121745313963074,-0.08026705963733574,0.1994227936204818,-0.12491339238975095
44,8.987678400008008,-0.0020808639962048288,-0.05568939430174083,0.018081370118255974,0.007929520546152433,0.007704756338772802,0.012901904828906963,0.019101402976203097,0.06109287151127276,-0.012703561932156063,-0.08100444384303018,0.20019780742289103,-0.12612222214753857
45,8.991657799982931,-0.0020472730920719187,-0.055656377767632215,0.018135636065525557,0.008009309370931415,0.007964027983566945,0.01284724178606146,0.01875843640297746,0.061938273234938265,-0.01323768782369097,-0.08173817086095102,0.2009513111589762,-0.12733114100677403
46,8.995751799957361,-0.0020133489414300397,-0.05562226094970801,0.018189666875531817,0.008087646147572314,0.008226869509390208,0.012790316778412652,0.018412385131181784,0.06278680517666521,-0.013776909028824525,-0.08246814795582916,0.2016830128090921,-0.128539950208056
47,8.999363999988418,-0.001979097691751609,-0.0555870287738766,0.018243452969316978,0.008164517908034245,0.008493293915785967,0.012731108331273933,0.018063265163042484,0.06363837483250795,-0.014321224665274645,-0.08319428095871115,0.2023926225779099,-0.12974844977565986
48,9.004190999956336,-0.0019445255450244424,-0.055550666112077714,0.01829698467741987,0.008239911752559493,0.008763313809842506,0.012669594975453299,0.017711092900385687,0.06449288848129497,-0.014870633005243846,-0.08391647461180422,0.20307985251203012,-0.13095643835533805
49,9.00826179998694,-0.001909638757460401,-0.055513157783947366,0.018350252239906602,0.008313814851367557,0.009036941401073782,0.012605755250828738,0.017355885148420288,0.06535025119175655,-0.015425131469119798,-0.08463463294128593,0.20374441688212108,-0.13216371291882742
50,9.012778699980116,-0.0018744436391968666,-0.055474488558504315,0.018403245806416352,0.008386214446361452,0.00931418849633805,0.012539567709953273,0.016997659117990716,0.06621036683414504,-0.015984716617663534,-0.08534865954174027,0.2043860326117436,-0.13337006850922237
51,9.016671999997923,-0.0018389465539910054,-0.0554346431558578,0.01845595543622242,0.00845709785284074,0.009595066494816581,0.012471010921696208,0.01663643242696232,0.0670731380909773,-0.01654938414356361,-0.08605845770192849,0.20500441883717244,-0.1345752981248423
52,9.020747400005348,-0.001803153918906802,-0.05539360624893635,0.018508371098308704,0.008526452461219507,0.009879586383022842,0.012400063474919362,0.016272223101413935,0.06793846646494453,-0.017119128862645362,-0.08676393042197833,0.20559929675662125,-0.13577919255705748
53,9.025101399980484,-0.0017670722039948427,-0.05535136246523759,0.018560482671461764,0.008594265738749458,0.010167758729847888,0.012326703982192414,0.015905049576878376,0.0688062522883837,-0.017693944704058016,-0.08746498038313838,0.20617038975769572,-0.13698154025748147
54,9.029518399969676,-0.0017307079319648236,-0.05530789638859883,0.018612279944378606,0.008660525231248342,0.010459593681649384,0.01225091108355186,0.01553493069978996,0.06967639473226175,-0.01827382470036443,-0.08816150985805729,0.206717423324877,-0.1381821275054956
55,9.033475900010671,-0.0016940676778507643,-0.055263192560988224,0.01866375261579042,0.008725218564835248,0.010755100957372733,0.012172663450299897,0.0151618857294813,0.07054879181486716,-0.018858760979140358,-0.08885342056347771,0.2072401250046806,-0.13938073863997377
56,9.037493199983146,-0.0016571580686688884,-0.05521723548431652,0.01871489029460241,0.00878833344767587,0.01105428984371336,0.012091939788834192,0.014785934340872569,0.07142334041050043,-0.01944874475501754,-0.0895406135031158,0.20773822417387558,-0.1405771560886002
57,9.041718399967069,-0.001619985783068125,-0.05517000962226901,0.0187656825000498,0.008849857671740461,0.011357169190311095,0.012008718844513842,0.01440709662779274,0.07229993625621187,-0.020043766321530095,-0.09022298880790232,0.20821145202802135,-0.141771160570232
58,9.04599249997409,-0.001582557550973171,-0.05512149940215776,0.01881611866187025,0.008909779114577108,0.011663747404969262,0.011922979405557874,0.014025393107015557,0.07317847396039544,-0.020643815044863456,-0.09090044555195849,0.20865954199848258,-0.14296253148306312
59,9.050131700001655,-0.0015448801532200436,-0.055071689216793875,0.01886618812049274,0.008968085741103698,0.011974032448921496,0.011834700306963895,0.013640844723132014,0.07405884701304179,-0.021248879358972805,-0.09157288156053993,0.20908222970604065,-0.14415104711908983
60,9.054366900003515,-0.001506960421184038,-0.055020563426379614,0.018915880127243007,0.009024765605422267,0.012288031832137265,0.011743860434447747,0.013253472854205276,0.07494094779394106,-0.021858946761139857,-0.09224019326072735,0.20947925286828004,-0.14533648488407117
61,9.058501599996816,-0.0014688052363999859,-0.05496810636042025,0.01896518384456564,0.009079806852658637,0.012605752608657834,0.011650438728399609,0.012863299317901785,0.07582466758215524,-0.022474003808945483,-0.092902275607358,0.2098503517166014,-0.14651862157551956
62,9.06293979997281,-0.0014304215301747046,-0.0549143023196555,0.019014088346262864,0.009133197720828448,0.012927201371981629,0.01155441418784917,0.012470346377770529,0.0767098965677362,-0.023094036118169826,-0.09355902205692793,0.21019526903099034,-0.14769723354497324
63,9.066919300006704,-0.0013918162831915268,-0.05485913557801026,0.019062582617750064,0.009184926542729725,0.013252384250498987,0.011455765874439434,0.012074636749594149,0.07759652386149116,-0.023719028361132814,-0.09421032455406758,0.2105137499893362,-0.14887209670956716
64,9.070853899989745,-0.0013529965251067961,-0.05480259038456453,0.019110655556328068,0.009234981747862445,0.013581306902959833,0.011354472916405883,0.011676193607782217,0.0784844375054305,-0.02434896426469181,-0.09485607354404128,0.21080554246869562,-0.15004298645938646
65,9.075070899969433,-0.001313969334138215,-0.05474465096554237,0.019158295971472204,0.009283351864375003,0.013913974513996504,0.011250514512567159,0.01127504059161697,0.07937352448507276,-0.02498382660780116,-0.0954961580403705,0.21107039713808107,-0.15120967758215276
66,9.079233399999794,-0.001274741836644933,-0.054685301526319535,0.01920549258513823,0.00933002552103642,0.014250391789695149,0.011143869936324796,0.01087120181107656,0.0802636707406747,-0.02562359721887498,-0.096130465786155,0.21130806730767893,-0.15237194402554055
67,9.08334199996898,-0.0012353212066992696,-0.054624526253449796,0.019252234032085112,0.0093749914492319,0.014590562953213218,0.01103451853967614,0.010464701851720914,0.08115476117826516,-0.02626825697134312,-0.09675888352610416,0.211518308928886,-0.15352955857311934
68,9.08751719997963,-0.0011957146656499807,-0.0545623093167095,0.01929850886021477,0.009418238484976232,0.014934491740443876,0.010922439757251538,0.010055565778221875,0.08204667968087546,-0.026917785778282306,-0.09738129731577676,0.21170088072181692,-0.1546822926705111
69,9.091566399962176,-0.0011559294816770097,-0.05449863487116043,0.01934430553092889,0.009459755570939088,0.015282181395728156,0.010807613110372512,0.00964381913664231,0.08293930912064816,-0.02757216258650667,-0.09799759277552288,0.21185554443004445,-0.15582991621094666
70,9.0959946999792,-0.001115972969337681,-0.05443348705923053,0.019389612419502888,0.009499531758477646,0.015633634667621445,0.010690018211138767,0.009229487955825625,0.08383253137221472,-0.028231365369391217,-0.098607655248264,0.2119820649133978,-0.1569721974195478
71,9.100408500002231,-0.0010758524891043178,-0.05436685001281243,0.019434417815477164,0.009537556209673606,0.015988853804718407,0.01056963476654686,0.008812598748344854,0.08472622732558655,-0.02889537111998692,-0.09921136988630694,0.21208021009005973,-0.15810890284739718
72,9.104316699958872,-0.0010355754468932634,-0.05429870785537939,0.019478709923065787,0.009573818199373803,0.016347840551528135,0.010446442582635244,0.00839317851116037,0.08562027689904458,-0.029564155843794186,-0.09980862171161702,0.2121497509248103,-0.15923979727327472
73,9.108375300012996,-0.000995149293585298,-0.05422904470411856,0.019522476861582694,0.009608307117232777,0.016710596144407723,0.010320421568663852,0.007971254726060898,0.08651455905193123,-0.03023769455104964,-0.10039929557605065,0.21219046144073866,-0.16036464371510623
74,9.112377299985384,-0.0009545815245374427,-0.05415784467208124,0.019565706665885602,0.009641012469757095,0.017077121307545254,0.01019155174132416,0.007546855360656444,0.08740895179763865,-0.03091596124959609,-0.10098327592835944,0.21220211883507012,-0.1614832034820389
75,9.1165191999753,-0.000913879679086142,-0.05408509187035,0.019608387286837697,0.009671923882356295,0.017447416249002857,0.010059813228978878,0.0071200088707833705,0.08830333221737707,-0.03159892893760829,-0.10156044649467287,0.21218450311995513,-0.16259523621521002
76,9.12060849997215,-0.0008730513400417803,-0.05401077041022226,0.019650506591787287,0.009701031101407482,0.017821480656815752,0.009925186275933329,0.0066907442041907175,0.08919757647013513,-0.032286569596806564,-0.10213069007968045,0.21213739680986918,-0.16370050003810363
77,9.124977100000253,-0.000832104133174461,-0.05393486440541031,0.019692052365065497,0.009728323996337346,0.018199313695119273,0.009787651246732344,0.006259090804621224,0.09009155980381302,-0.03297885418645002,-0.10269388854571013,0.21206058546606266,-0.1647987518404008
78,9.129263099981472,-0.0007910457266909716,-0.05385735797425755,0.019733012308502138,0.009753792561721162,0.01858091400034176,0.00964718863048228,0.005825078615674013,0.09098515656977237,-0.033675752638942895,-0.10324992284912733,0.21195385776584652,-0.16588974755045263
79,9.133287800010294,-0.0007498838307028694,-0.05377823524197061,0.01977337404195984,0.009777426919397359,0.018966279677454224,0.00950377904518495,0.005388738084578782,0.09187824023455343,-0.034377233856124616,-0.10379867301023422,0.21181700507414683,-0.1669732420596997
80,9.137705200002529,-0.000708626196685622,-0.05369748034286717,0.01981312510388646,0.009799217320598345,0.019355408296262023,0.009357403242090912,0.004950100166312228,0.09277068339081333,-0.03508326570423903,-0.10434001802799557,0.21164982140874272,-0.16804898908946853
81,9.141883999982385,-0.0006672806169287308,-0.05361507742263936,0.01985225295188589,0.009819154148099776,0.019748296887746725,0.00920804211007581,0.004509196328091059,0.09366235776875025,-0.0357938150091016,-0.10487383583109047,0.2114521034980704,-0.1691167412897277
82,9.145766199973878,-0.0006258549239767543,-0.05353101064063241,0.019890744963307377,0.009837227918389244,0.02014494194045408,0.009055676680034397,0.004066058553901032,0.09455313424752888,-0.03650884755190113,-0.10540000330427861,0.21122365063084478,-0.17017625037782616
83,9.150003599992488,-0.0005843569900611501,-0.05344526417213852,0.019928588435853368,0.009853429283853734,0.020545339396932198,0.008900288129292272,0.003620719348767712,0.09544288286543708,-0.037228328065536456,-0.10591839634289014,0.2109642645748136,-0.17122726719058667
84,9.15406139998231,-0.0005427947265228592,-0.0533578222107055,0.019965770588206005,0.009867749034984314,0.020949484650205144,0.008741857786030779,0.0031732117428261795,0.09633147283062637,-0.037952220230857286,-0.10642888984887001,0.21067375001706443,-0.17226954170191253
85,9.158365999988746,-0.0005011760832255634,-0.053268668970460384,0.020002278560672288,0.00988017810259789,0.02135737254030165,0.008580367133730428,0.002723569295625136,0.09721877253498024,-0.03868048667314932,-0.10693135764516247,0.21035191450592436,-0.1733028232311946
86,9.162380099995062,-0.0004595090479595408,-0.053177788688447344,0.020038099415848012,0.00989070756007818,0.021768997350845604,0.008415797815625431,0.002271826100918313,0.09810464956436486,-0.03941308896013188,-0.10742567238367438,0.20999856810331782,-0.17432686074444742
87,9.1665604999871,-0.0004178016458360332,-0.05308516562698001,0.020073220139300487,0.009899328625637863,0.022184352805671187,0.008248131639163998,0.0018180167917444079,0.09898897070956691,-0.040149987600981464,-0.10791170552689243,0.20961352380247775,-0.17534140314978014
88,9.171097399957944,-0.00037606193867203253,-0.05299078407600796,0.020107627640270073,0.009906032664602372,0.022603432065505552,0.008077350580471106,0.0013621765453734522,0.09987160198006548,-0.04089114204682007,-0.10838932741435925,0.20919659767788457,-0.17634619961590822
89,9.175088899966797,-0.00033429802436539665,-0.05289462835549697,0.020141308752390515,0.009910811191713735,0.023026227724700057,0.007903436788804674,0.0009043410878263808,0.10075240861623369,-0.04163651069242366,-0.10885840732761172,0.20874760920961272,-0.17734099969388956
90,9.179172399977688,-0.00029251803626021555,-0.052796682817823064,0.020174250234428048,0.009913655873452474,0.023452731808015798,0.0077263725910039355,0.00044454669827399996,0.10163125510584482,-0.04238605087773671,-0.1093188134265123,0.20826638175894988,-0.17832555327078978
91,9.183254799980205,-0.0002507301425023545,-0.05269693185017987,0.020206438771039226,0.009914558530378521,0.02388293576749398,0.007546140495932846,-1.7169785906745458e-05,0.10250800520028316,-0.04313971888919005,-0.10977041257616148,0.2077527422896943,-0.17929961053473234
92,9.187398799986113,-0.00020894254538508726,-0.052595359876999065,0.020237860973547482,0.00991351113949574,0.0243168304793781,0.007362723198917342,-0.0004807709632747487,0.10338252192870076,-0.04389746996092079,-0.11021307030178287,0.20720652150721477,-0.1802629219287243
93,9.192018700006884,-0.00016716348068470752,-0.05249195136238364,0.020268503380738365,0.009910505836642226,0.02475440624110366,0.00717610358617847,-0.0009462188628881754,0.10425466761540052,-0.044659258275700976,-0.11064665105169881,0.20662755410218198,-0.18121523806963083
94,9.195770099991933,-0.0001254012169860127,-0.05238669081255373,0.020298352459673465,0.009905534918900654,0.025195652768366876,0.0069862647392618165,-0.0014134749406632115,0.10512430389604749,-0.04542503696547449,-0.11107101863642053,0.20601567814796523,-0.18215630963217377
95,9.19994309998583,-8.366405499759727e-05,-0.05227956277830463,0.02032739460652299,0.009898590847019273,0.02564055919225104,0.00679318993946611,-0.0018825000776388403,0.10599129172997229,-0.04619475811130783,-0.11148603662840921,0.2053707345790335,-0.18308588726210875
96,9.204127700009847,-4.1960326856928606e-05,-0.05217055185747679,0.020355616147417026,0.009889666247836878,0.026089114056398948,0.006596862672273064,-0.0023532545797054056,0.10685549141198554,-0.04696837274319519,-0.11189156871647782,0.20469256730714772,-0.18400372141406418
97,9.20834549999563,-2.983954251987893e-07,-0.0520596426974377,0.02038300333931545,0.009878753916706097,0.026541305314238862,0.006397266631777626,-0.002825698178856844,0.10771676258566071,-0.047745830838642235,-0.11228747905799592,0.20398102329089166,-0.18490956218355384
98,9.212601599982008,4.131334642802678e-05,-0.051946819997575264,0.02040954237089654,0.009865846819907806,0.026997120326268893,0.0061943857251297585,-0.0032997900358881847,0.10857496425573468,-0.04852708132105514,-0.11267363250138876,0.203235952326905,-0.18580315951548854
99,9.216817600012291,8.286647655031001e-05,-0.05183206851180256,0.02043521936346432,0.009850938097051676,0.027456545857387493,0.005988204076978264,-0.0037754887435233536,0.1094299547996308,-0.04931207206008206,-0.113049894541681,0.20245720731635886,-0.18668426358064935
100,9.222054899961222,0.0001243525442419272,-0.05171537305107375,0.02046002037187464,0.009834021063464222,0.027919568074274984,0.005778706033909688,-0.004252752328737926,0.1102815919821057,-0.05010074987317563,-0.11341613108466883,0.2016446447748526,-0.18755262503644876
101,9.225806000002194,0.0001657630710014999,-0.05159671848591089,0.02048393138547995,0.009815089212569772,0.028386172542847508,0.005565876168878979,-0.004731538253899002,0.11112973297107055,-0.050893060528132555,-0.11377220822534836,0.20079812490203697,-0.18840799533375457
102,9.229345300002024,0.0002070895512816524,-0.05147608974894129,0.0205069383290927,0.009794136218268905,0.028856344225771925,0.005349699285626978,-0.005211803417220206,0.11197423435282479,-0.051688948747242516,-0.11411799217484751,0.19991751181280198,-0.18925012697756205
103,9.233441599993968,0.0002483234532546919,-0.05135347183744529,0.020529027063967364,0.009771155937315586,0.029330067480048176,0.005130160423076104,-0.005693504153285629,0.11281495214982619,-0.05248835821202512,-0.11445334932556021,0.19900267369967353,-0.19007877361987766
104,9.237381499959156,0.00028945621958830436,-0.051228849815914024,0.020550183388800908,0.009746142411691189,0.02980732605467398,0.004907244859707916,-0.006176596234053881,0.11365174183729351,-0.05329123156816174,-0.11477814633270934,0.19805348264781442,-0.19089369024482242
105,9.241592300008053,0.0003304792682312464,-0.05110220881861683,0.020570393040751696,0.009719089870973164,0.03028810308836714,0.004680938117917226,-0.0066610348700695725,0.11448445835941713,-0.05409751043179285,-0.11509225007250315,0.19706981501698753,-0.19169463344089815
106,9.24577959999442,0.0003713839932090082,-0.050973534052178235,0.02058964169647667,0.009689992734698848,0.030772381107366898,0.004451225968336577,-0.007146774711114648,0.11531295614918145,-0.05490713539674494,-0.11539552746257885,0.1960515514994059,-0.1924813616502142
107,9.249918499961495,0.00041216176542943124,-0.05084281079816392,0.02060791497318671,0.00965884561472865,0.031260142023323334,0.004218094434129432,-0.00763376984590628,0.1161370891450632,-0.05572004604292869,-0.11568784533210114,0.1949985765752448,-0.19325363544058902
108,9.254163899982814,0.00045280393349829184,-0.050710024415675466,0.020625198429719997,0.009625643317612396,0.03175136713123947,0.003981529795243863,-0.00812197380165319,0.11695671080626402,-0.05653618094585964,-0.11596907055674145,0.19391077867541018,-0.19401121774304522
109,9.258230599982198,0.0004933018245448663,-0.050575160343953686,0.020641477567633237,0.009590380846956263,0.0322460371074891,0.003741518592625484,-0.008611339544891357,0.11777167413078087,-0.05735547768705832,-0.11623907043334197,0.1927880502850084,-0.1947538739271313
110,9.262538000009954,0.0005336467450574665,-0.05043820410499007,0.020656737832310538,0.009553053405782079,0.03274413200791118,0.00349804763238347,-0.0091018194841986,0.11858183167151079,-0.058177872864205844,-0.11649771306656735,0.19163028793187306,-0.1954813715923639
111,9.266571199987084,0.0005738299817288929,-0.05029914130614619,0.020670964614089744,0.009513656398871365,0.03324563126596344,0.003251103989917886,-0.009593365474289597,0.1193870355542246,-0.059003302099786,-0.11674486762721832,0.1904373930912071,-0.19619348015123433
112,9.270725000009406,0.0006138428023117297,-0.05015795764278069,0.02068414324940611,0.00947218543509013,0.033750513690968306,0.003000675014012853,-0.010085928820907931,0.12018713750129742,-0.05983170004772575,-0.11698040454084405,0.18920927299482077,-0.1968899704469484
113,9.274851399997717,0.0006536764564833947,-0.0500146389008835,0.020696259021953135,0.009428636329691664,0.03425875746646649,0.002746748330907902,-0.010579460286511041,0.12098198885650387,-0.06066300039881505,-0.11720419568580405,0.18794584077091744,-0.1975706147301711
114,9.278982399962842,0.0006933221767208457,-0.04986917095971669,0.020707297163860564,0.009383005106593413,0.034770340148671974,0.0024893118483454543,-0.011073910096831842,0.12177144060992695,-0.06149713588715132,-0.11741611454799854,0.18664701531773856,-0.19823518684441996
115,9.283155000011902,0.000732771179184824,-0.049721539794461714,0.020717242856889334,0.009335288000624466,0.035285238665035565,0.00222835375958785,-0.011569227947867983,0.12255534342168813,-0.06233403829712202,-0.11761603620629309,0.18531272098911927,-0.19888346237090487
116,9.287211799994113,0.0007720146646135061,-0.04957173147887237,0.020726081233643435,0.00928548145974351,0.03580342931289989,0.0019638625474059676,-0.012065363012320609,0.12333354764420557,-0.06317363847107009,-0.11780383704752206,0.18394288771050493,-0.1995152188253996
117,9.29145709995646,0.000811043819225443,-0.049419732187933385,0.020733797378798487,0.00923358214723204,0.03632488775825061,0.0016958269880316382,-0.012562263944181215,0.12410590334690218,-0.06401586631793606,-0.11797939423077293,0.1825374512235631,-0.20013023584943715
118,9.29571139998734,0.0008498498156317004,-0.0492655282005239,0.02074037633034691,0.009179586943873646,0.03684958903457966,0.0014242361550734148,-0.013059878880654555,0.12487226034052586,-0.06486065082253516,-0.1181425851243024,0.18109635289976728,-0.2007282953377047
119,9.299891499977091,0.0008884238137571682,-0.04910910590208562,0.020745803080859517,0.009123492950131021,0.0373775075418415,0.0011490794233907833,-0.013558155441998943,0.1256324682002861,-0.06570792005527336,-0.11829328699293001,0.1796195398096379,-0.20130918133379855
120,9.304170799965505,0.0009267569617710516,-0.048950451787295145,0.020750062578763332,0.009065297488326593,0.03790861704551138,0.0008703464729280314,-0.01405704073081402,0.12638637629075788,-0.06655760118054571,-0.11843137699549959,0.17810696504800452,-0.20187267985066543
121,9.308129199955149,0.0009648403970265633,-0.048789552462740006,0.02075313972963551,0.009004998104825529,0.0384428906757515,0.0005880272925176645,-0.014556481331859656,0.1271338337917602,-0.06740962046493879,-0.11855673228777812,0.1765585877338328,-0.2024185789806469
122,9.31239049998112,0.0010026652470098156,-0.048626394649598045,0.02075501939751321,0.0089425925722179,0.038980300926687445,0.00030211218364513127,-0.01505642331221111,0.12787468972325836,-0.06826390328655664,-0.11866922999858089,0.17497437312543423,-0.20294666909243048
123,9.31657169997925,0.0010402226302979073,-0.048460965186319566,0.020755686406219255,0.008878078891500382,0.03952081965578426,1.2591764173626293e-05,-0.015556812220876683,0.12860879297221375,-0.06912037414488348,-0.1187687470633975,0.17335429315345613,-0.20345674301637093
124,9.320699899981264,0.0010775036575262071,-0.04829325103131195,0.020755125540703405,0.00881145529426163,0.0400644180833492,-0.0002805430279743229,-0.01605759308755041,0.1293359923219791,-0.0699789566716718,-0.11885516010718587,0.171698326722924,-0.2039485962182877
125,9.324936899996828,0.0011144994323648621,-0.048123239265626006,0.02075332154839904,0.008742720244874503,0.0406110667921556,-0.0005773009311838358,-0.016558710421241716,0.13005613648169412,-0.07083957364227007,-0.11892834555589042,0.1700064598746339,-0.20442202671836215
126,9.329079199989792,0.0011512010525045605,-0.047950917095643766,0.020750259140595067,0.008671872442692994,0.04116073572719343,-0.0008776903565615785,-0.017060108209968165,0.13076907411704142,-0.07170214698582726,-0.11898817997529203,0.1682786857042388,-0.2048768346393374
127,9.33345079998253,0.0011875996106515594,-0.04777627185576693,0.020745922993822833,0.008598910824247031,0.0417133941955524,-0.0011817193843887642,-0.017561729922241472,0.13147465387896004,-0.072566597792812,-0.11903454050477599,0.16651500400335384,-0.20531282168523038
128,9.338088699965738,0.0012236861955319488,-0.047599291011105646,0.02074029775125793,0.008523834565426892,0.042269010866414596,-0.001489395760598436,-0.01806351851041673,0.13217272443137598,-0.07343284632082284,-0.11906730526698271,0.16471542103895595,-0.20572979073587086
129,9.341608499991708,0.0012594518929050932,-0.047419962160167015,0.020733368024136795,0.00844664308364977,0.042827553771171305,-0.001800726893277445,-0.018565416415631603,0.13286313447805623,-0.07430081199868964,-0.1190863536872482,0.16287994916015974,-0.20612754536616068
130,9.345784200006165,0.0012948877865861584,-0.04723827303754289,0.020725118393188018,0.00836733604000255,0.043388990303642024,-0.0021157198491783065,-0.0190673655738483,0.13354573278702453,-0.07517041342823134,-0.1190915666865386,0.1610086066472367,-0.20650588945797807
131,9.349925399990752,0.0013299849594776163,-0.04705421151659654,0.020715533410078334,0.008285913341357446,0.043953287220397125,-0.002434381350235996,-0.01956930742241913,0.13422036821614275,-0.07604156838508586,-0.1190828267508093,0.15910141785018944,-0.20686462710171616
132,9.354026099957991,0.0013647344946096053,-0.04686776561214773,0.02070459759887329,0.008202375142459436,0.04452041064119248,-0.0027567177700867987,-0.020071182906713125,0.13488688973869475,-0.07691419381963786,-0.11906001789572633,0.15715841309724246,-0.20720356276429167
133,9.358328800008168,0.0013991274761890311,-0.04667892348315569,0.020692295457512593,0.008116721847986032,0.04509032604950779,-0.003082735130592929,-0.02057293248638423,0.13554514646819638,-0.07778820585926495,-0.11902302551970285,0.15517962882160238,-0.20752250163083577
134,9.36235479998868,0.0014331549906572909,-0.04648767343539971,0.020678611459300066,0.00802895411458188,0.04566299829319035,-0.003412439098380313,-0.02107449614075909,0.13619498768504784,-0.07866351981214573,-0.1189717362055418,0.15316510809366438,-0.20782125001594023
135,9.36651769996388,0.001466808127756524,-0.04629400392415665,0.020663530054408182,0.007939072852873116,0.046238391585218065,-0.0037458349813953087,-0.021575813373433148,0.13683626286583,-0.07954005017297257,-0.11890603763965615,0.15111490099284366,-0.20809961565908325
136,9.370853699976578,0.0015000779816043163,-0.046097903556875076,0.020647035671397043,0.007847079229463219,0.04681646950459014,-0.004082927725490644,-0.022076823216977515,0.13746882171309116,-0.08041771062925006,-0.1188258187435924,0.14902906453778153,-0.20835740788683
137,9.374985600006768,0.0015329556517767763,-0.04589936109584534,0.0206291127187477,0.007752974668907694,0.04739719499734119,-0.004423721911035231,-0.022577464238643746,0.13809251418405494,-0.08129641406837501,-0.11873096994875952,0.1469076625120359,-0.2085944377923756
138,9.379711799963845,0.001565432244399884,-0.045698365460865094,0.020609745586409697,0.0076567608556618325,0.047980530377673955,-0.004768221749559785,-0.02307767454738656,0.13870719051893776,-0.08217607258544839,-0.11862138355864583,0.14475076561523031,-0.20881051816019125
139,9.38329829997383,0.0015974988732489859,-0.04549490573189985,0.020588918647362685,0.007558439735996198,0.04856643732921208,-0.005116431080432491,-0.023577391802621948,0.13931270127093087,-0.08305659748972011,-0.1184969543021838,0.14255845178726054,-0.20900546330970432
140,9.387653899961151,0.0016291466608562909,-0.04528897115173794,0.02056661625919198,0.007458013519870561,0.04915487690638557,-0.005468353367558947,-0.024076553225914524,0.1399088973372507,-0.08393789931108327,-0.11835758000168664,0.14033080602266548,-0.20917908921113526
141,9.39290889998665,0.0016603667396261617,-0.04508055112863938,0.02054282276567798,0.0073554846827508635,0.049745809535945346,-0.005823991696112577,-0.02457509561536605,0.14049562998755613,-0.0848198878074954,-0.11820316183605768,0.13806792000083012,-0.20933121360709495
142,9.396647799992934,0.0016911502529579274,-0.044869635238978085,0.020517522498399315,0.007250855967361865,0.050339195018588204,-0.006183348769297132,-0.025072955359521535,0.14107275089188162,-0.08570247197249771,-0.11803360384446314,0.1357698923163194,-0.20946165600679936
143,9.40019359998405,0.001721488356375948,-0.04465621322987701,0.02049069977834953,0.007144130385386885,0.050934992530706845,-0.0065464269051404836,-0.025570068447573924,0.1416401121509961,-0.08658556004258756,-0.11784881207886076,0.1334368288385465,-0.20957023763401472
144,9.404167699976824,0.0017513722186667559,-0.04444027502183564,0.020462338917567262,0.007035311219134428,0.051533160626270766,-0.006913228033319277,-0.02606637047612638,0.1421975663273679,-0.08746905950429892,-0.11764869414386954,0.1310688427246638,-0.20965678129955462
145,9.408342499984428,0.0017807930230231688,-0.044221810711349244,0.020432424220779715,0.006924402023180924,0.05213365723883729,-0.007283753692012404,-0.02656179665551828,0.14274496647563242,-0.08835287710050005,-0.11743315940967353,0.12866605433654862,-0.20972111138384733
146,9.412496700009797,0.001809741968195279,-0.044000810573519435,0.020400939987059337,0.006811406625984023,0.052736439683689296,-0.00765800502477875,-0.027056281818382176,0.1432821661728572,-0.08923691883732697,-0.11720211961145426,0.12622859120644778,-0.20976305427149214
147,9.417077499965671,0.0018382102696481663,-0.043777265064655416,0.020367870511493615,0.00669632913145321,0.05334146466010137,-0.008035982777469107,-0.02754976043102275,0.14380901954871989,-0.09012108999414432,-0.1169554893888063,0.12375658791040188,-0.2097824389651678
148,9.42170999996597,0.0018661891607261256,-0.0435511648248654,0.020333200086867793,0.006579173920467179,0.05394868825373191,-0.008417687295187886,-0.028042166606520813,0.14432538131470657,-0.09100529513565381,-0.11669318651932073,0.12125018611414469,-0.20977909763584635
149,9.425838499970268,0.0018936698938231717,-0.04332250068063773,0.020296913005360278,0.006459945652333981,0.05455806593913544,-0.008803118519307106,-0.028533434118081288,0.1448311067946765,-0.09188943812649308,-0.11641513184024403,0.11870953471217123,-0.20975286625420198
150,9.429409199976362,0.0019206437415595751,-0.04309126364741108,0.020258993560250523,0.006338649266195887,0.05516955258241232,-0.009192275984551163,-0.02902349641147681,0.1453260519552327,-0.09277342214866674,-0.1161212489158512,0.11613478985057557,-0.2097035847006643
151,9.433349500002803,0.0019471019979642088,-0.04285744493213328,0.020219426047639006,0.006215289982384641,0.0557831024439771,-0.009585158816157752,-0.029512286615591805,0.14581007343647928,-0.0936571497170729,-0.11581146358936018,0.11352611565680924,-0.20963109624985138
152,9.436822699964978,0.001973035979662509,-0.042621035935808176,0.020178194768179055,0.006089873303737436,0.05639866918146749,-0.009981765727093528,-0.029999737551088933,0.1462830285885435,-0.09454052269258816,-0.11548570381666903,0.11088368480820877,-0.20953524729260628
153,9.441717099980451,0.0019984370270699136,-0.04238202825602989,0.02013528402882029,0.005962405016879117,0.05701620585282058,-0.010382095015325322,-0.03048578173955163,0.1467447755071256,-0.0954234422952511,-0.11514390011887132,0.10820767850805814,-0.20941588739388856
154,9.445684999984223,0.0020232965055906335,-0.04214041368950379,0.02009067814456345,0.005832891193461087,0.05763566491948149,-0.01078614456114693,-0.030970351415965075,0.14719517306981914,-0.09630580911783523,-0.11478598635698749,0.10549828728487798,-0.2092728695187086
155,9.449799699999858,0.0020476058068215333,-0.041896184234553706,0.02004436144022637,0.005701338191338304,0.058256998249785724,-0.011193911824564754,-0.03145337854438937,0.1476340809783983,-0.09718752314093702,-0.1144119000849761,0.10275571128245477,-0.20910605022902465
156,9.454075899964664,0.002071356349760823,-0.04164933209361437,0.01999631825222085,0.005567752655676066,0.05888015712252434,-0.011605393842751766,-0.031934794833416255,0.14806135979758323,-0.09806848374820859,-0.11402158212608436,0.09998015961044922,-0.2089152894925651
157,9.458213599980809,0.002094539582021271,-0.041399849675708575,0.019946532930340096,0.005432141519996713,0.05950509223065303,-0.012020587227561559,-0.0324145317482711,0.1484768709918532,-0.0989485897398342,-0.11361497574782474,0.09717185043833869,-0.2087004504628423
158,9.463120899978094,0.002117146981047717,-0.04114772959890836,0.01989498983955653,0.005294512007184402,0.060131753685167606,-0.012439488163095912,-0.03289252051931502,0.14888047696500376,-0.09982773934590856,-0.11319202596345361,0.09433101107530006,-0.2084613994500487
159,9.466960399993695,0.0021391700553387554,-0.040892964692779504,0.019841673361829747,0.005154871630460136,0.060760091019146575,-0.012862092403331613,-0.03336869214825865,0.14927204109763342,-0.10070583023966802,-0.11275267904741997,0.09145787765732624,-0.2081980056952491
160,9.470489399973305,0.0021606003456724684,-0.040635548000808625,0.019786567897924334,0.0050132281943341605,0.061390053191942594,-0.01328839526979956,-0.033842977412579654,0.14965142778406323,-0.10158275954896534,-0.11229688220884398,0.08855269535678975,-0.20791014104020755
161,9.474723699968308,0.002181429426336136,-0.04037547278281234,0.019729657869237378,0.004869589795543756,0.062021588593536243,-0.013718391649308305,-0.03431530686898412,0.15001850247159002,-0.1024584238667177,-0.11182458369517674,0.0856157186598842,-0.2075976799737527
162,9.479839399980849,0.002201648906359875,-0.04011273251732767,0.019670927719635484,0.004723964823976457,0.0626546450490584,-0.014152075991711236,-0.03478561085869785,0.15037313169974464,-0.10333271926277236,-0.11133573350739451,0.08264721128594453,-0.20726050013568556
163,9.483377199969254,0.002221250430754131,-0.03984732090398309,0.019610361917301106,0.004576361963563236,0.06328916982347495,-0.01458944230773014,-0.035253819516956525,0.15071518313886523,-0.10420554129860231,-0.11083028426383273,0.07964744617446426,-0.20689848276844452
164,9.487379099999089,0.0022402256817508474,-0.03957923186584941,0.019547944956587904,0.00442679019312173,0.06392510962643426,-0.015030484166846256,-0.035719862785578774,0.15104452562924592,-0.1050767850429793,-0.11030819154051943,0.07661670557904439,-0.20651151280420416
165,9.49174889997812,0.0022585663800480655,-0.039308459551769995,0.019483661359884854,0.004275258787143439,0.06456241061728195,-0.015475194695255967,-0.03618367042532517,0.15136102922050204,-0.10594634508740376,-0.10976941361261792,0.07355528104502979,-0.20609947884165852
166,9.4957247999846,0.002276264286057728,-0.039034998338669365,0.019417495679488844,0.004121777316532765,0.0652010184102402,-0.015923566573891913,-0.03664517202629181,0.1516645652105304,-0.10681411556158205,-0.10921391107358645,0.07046347340764224,-0.20566227292563333
167,9.499897499976214,0.002293311201156509,-0.038758842833839735,0.01934943249948546,0.003966355649306606,0.0658408780797509,-0.01637559203650915,-0.03710429701705897,0.15195500618485866,-0.10767999014699858,-0.10864164669478908,0.0673415930245926,-0.20519979015939338
168,9.504117799981032,0.0023096989689395165,-0.038479987877204615,0.019279456437637715,0.0038090039512562713,0.0664819341659867,-0.016831262867820676,-0.03756097467390124,0.15223222605756648,-0.1085438620891251,-0.108052585526108,0.0641899599031372,-0.2047119286698659
169,9.508347800001502,0.0023254194764767006,-0.03819842854355886,0.019207552147282553,0.0036497326865694334,0.06712413068053906,-0.017290570401686498,-0.03801513413078434,0.15249610011170592,-0.10940562421069956,-0.10744669516161057,0.06100890349187096,-0.2041985896130057
170,9.51249509997433,0.0023404646555717982,-0.037914160144784326,0.019133704319234845,0.003488552618407783,0.06776741111227005,-0.017753505519361102,-0.03846670439081472,0.15274650503846748,-0.11026516892398064,-0.10682394613709975,0.05779876286665297,-0.20365967679776226
171,9.51702089997707,0.002354826484023613,-0.03762717823204061,0.01905789768369866,0.0033254748094324617,0.06841171843333059,-0.018220058647785822,-0.0389156143395875,0.1529833189791678,-0.11112238824085685,-0.10618431228849114,0.054559886960689905,-0.2030950964195222
172,9.520663500006776,0.0023684969868893865,-0.03733747859792998,0.018980117012185663,0.003160510622269198,0.06905699510536613,-0.018690219757921518,-0.03936179275965707,0.1532064215663552,-0.11197717378285407,-0.10552777076916191,0.051292634311604995,-0.20250475723365446
173,9.525299799977802,0.002381468237750001,-0.037045057278635746,0.018900347119440438,0.002993671719911761,0.0697031830858814,-0.01916397836312531,-0.039805168344031305,0.1534156939636652,-0.11282941679270758,-0.10485430163439291,0.0479973730836996,-0.2018885708916778
174,9.529252499982247,0.002393732359976751,-0.036749910556033605,0.018818572865372564,0.0028249700660733464,0.07035022383478211,-0.019641323517580796,-0.04024566970713913,0.15361101890711382,-0.11367900814720332,-0.10416388731500587,0.044674480869739366,-0.20124645219051712
175,9.533437600010076,0.0024052815279995074,-0.03645203495977486,0.01873477915699518,0.0026544179254975766,0.07099805832108771,-0.020122243814783045,-0.040683225393887745,0.15379228074328224,-0.11452583837085105,-0.10345651232264548,0.041324344414974776,-0.20057831931530953
176,9.537358500005212,0.0024161079685761115,-0.036151427269341126,0.01864895095036983,0.0024820278642335393,0.07164662702979503,-0.020606727386084062,-0.04111776388814587,0.15395936546828365,-0.11536979765077239,-0.10273216321071797,0.037947360021810254,-0.19988409396103804
177,9.54174710001098,0.002426203962062857,-0.03584808451606975,0.018561073252557278,0.002307812749875277,0.07229586996891949,-0.021094761899303285,-0.04154921362147167,0.1541121607693591,-0.11621077585139929,-0.10199082868154517,0.034543933503911356,-0.1991637012927299
178,9.545821700012311,0.0024355618436859034,-0.035542003985149145,0.01847113112357408,0.002131785751763254,0.07294572667670933,-0.021586334557396954,-0.041977502982499255,0.15425055606345753,-0.11704866252902651,-0.10123249975720344,0.03111447980302335,-0.19841706995630104
179,9.550003799959086,0.002444174004813456,-0.035233183217583376,0.018379109678354613,0.0019539603411447195,0.07359613622901214,-0.022081432097191274,-0.042402560327106736,0.15437444253560156,-0.11788334694660159,-0.10045717001632794,0.027659423069627858,-0.19764413198007302
180,9.55406509997556,0.002452032894228531,-0.03492162001212542,0.018284994088718316,0.0017743502912894642,0.0742470372468124,-0.022580040788176464,-0.04282431398979887,0.1544837131781474,-0.11871471808744709,-0.09966483584023787,0.02417919651411535,-0.19684482264786976
181,9.55843699997058,0.002459131019402111,-0.03460731242717821,0.018188769585341897,0.0015929696775542326,0.07489836790392901,-0.023082146431355588,-0.043242692295949826,0.15457826282789613,-0.11954266466898082,-0.09885549632678765,0.02067424247554542,-0.19601908057979084
182,9.562227999966126,0.0024654609477664535,-0.03429025878266301,0.01809042145973627,0.0014098328773952766,0.07555006593486563,-0.02358773435815426,-0.04365762357245966,0.15465798820593316,-0.12036707515711904,-0.09802915265904377,0.01714501296575609,-0.1951668478770122
183,9.567251199972816,0.0024710153079883527,-0.03397045766185427,0.017989935066227952,0.0012249545703429399,0.07620206864284403,-0.024096789429390884,-0.04406903615467529,0.15472278795932615,-0.12118783778121722,-0.09718580729724378,0.013591970005078434,-0.19428807041713295
184,9.571452100004535,0.002475786791242233,-0.03364790791318029,0.01788729582394469,0.0010383497379558698,0.07685431290800598,-0.024609296034312316,-0.044476858390235526,0.15477256270379444,-0.1220048405509629,-0.09632546365661197,0.010015586214120048,-0.19338269835826905
185,9.57603100000415,0.0024797681524830243,-0.033322608651988966,0.017782489218804983,0.0008500336637631905,0.07750673519580625,-0.025125238089706493,-0.044881018643276156,0.15480721507039544,-0.12281797127556578,-0.09544812661345589,0.006416345207298494,-0.19245068679931412
186,9.57975269999588,0.0024829522117187693,-0.03299455926227765,0.017675500805511175,0.000660021933183267,0.07815927156560805,-0.025644599039099856,-0.04528144530254118,0.1548266497515113,-0.12362711758621625,-0.09455380329797648,0.0027947413133518582,-0.19149199650391902
187,9.583729600009974,0.0024853318552828137,-0.03266375939838647,0.01756631620954576,0.00046833043339750434,0.07881185767946364,-0.026167361852059305,-0.04567806679227095,0.15483077354517943,-0.12443216696137836,-0.0936425030508183,-0.0008487204922229964,-0.1905065942828617
188,9.588101200002711,0.002486900037105349,-0.03233020898665419,0.01745492112917036,0.0002749753531773297,0.07946442881108352,-0.026693509023602825,-0.04607081157994709,0.1548194954005096,-0.12523300675247157,-0.09271423621685167,-0.00451352440143901,-0.18949445301694431
189,9.592913099972066,0.0024876497799841447,-0.031993908227035885,0.017341301337426982,7.997318269270455e-05,0.08011691985499989,-0.02722302257371793,-0.04645960817701278,0.15479272646358005,-0.12602952420935665,-0.09176901285351229,-0.008199143816412558,-0.18845555136182898
190,9.596809200011194,0.0024875741768544775,-0.03165485759468159,0.017225442684141067,-0.00011665928666696454,0.08076926533592264,-0.02775588404698712,-0.04684438513572955,0.15475038012249567,-0.12682160650352942,-0.0908068426011905,-0.01190504125090683,-0.18738987322107176
191,9.604804200003857,0.0024866663920583526,-0.031313057841475096,0.017107331097925907,-0.0003149049624578179,0.08142139941828272,-0.028292074512301844,-0.04722507104880494,0.15469237205411396,-0.12760914074916452,-0.08982773572004679,-0.015630667696777872,-0.1862974073868227
192,9.60931410000194,0.002484919662613043,-0.030968509997532142,0.016986952588188095,-0.0005147464513574934,0.08207325591598198,-0.02883157456266534,-0.047601594554989246,0.15461862027444379,-0.12839201402328038,-0.08883170420428176,-0.019375462033774875,-0.18517814718063655
193,9.613129300007133,0.0024823272994788275,-0.030621215372657037,0.01686429324713361,-0.0007161660593772967,0.08272476830236135,-0.029374364315076586,-0.047973884348096,0.15452904519034655,-0.1291701133837552,-0.08781876206594798,-0.02313885117034345,-0.18403209017557504
194,9.617221999971662,0.002478882688825741,-0.030271175557756824,0.01673933925177425,-0.0009191457921141901,0.08337586972038655,-0.02992042341048501,-0.0483418691849911,0.15442356964874798,-0.12994332588714935,-0.0867889249867094,-0.02692025061587389,-0.18285923816726474
195,9.62105449999217,0.00247457929329919,-0.029918392426212036,0.016612076865934085,-0.0011236673550303086,0.08402649299303105,-0.03046973101382466,-0.04870547789167781,0.1543021189835155,-0.1307115386064774,-0.0857422101715697,-0.030719064468584235,-0.18165959690147354
196,9.625207700009923,0.0024694106532843433,-0.029562868135203337,0.016482492442255612,-0.0013297121537562424,0.08467657063385702,-0.031022265814118745,-0.049064639370052864,0.1541646210647722,-0.13147463864673412,-0.08467863681009018,-0.03453468495284791,-0.18043317561104982
197,9.633016099978704,0.002463370388169194,-0.029204605126993088,0.01635057242420533,-0.0015372612944275033,0.08532603485781387,-0.031578006024644674,-0.04941928260787931,0.1540110063496742,-0.132232513158763,-0.08359822690973881,-0.03836649240747849,-0.17917998644223526
198,9.637442199978976,0.0024564521976061147,-0.028843606130160956,0.016216303348078498,-0.0017462955840718752,0.08597481759224732,-0.032136929383155495,-0.04976933669256744,0.1538412079318236,-0.13298504934994643,-0.08250100594967423,-0.04221385544783644,-0.17790004399121218
199,9.641985399997791,0.00244864986277165,-0.028479874160792683,0.01607967184500284,-0.001956795531062047,0.08662285048811445,-0.03269901315213506,-0.05011473082665872,0.15365516159067918,-0.13373213449416751,-0.08138700290539443,-0.04607613085000047,-0.1765933655479106
200,9.645934299973304,0.0024399572476242596,-0.028113412523621158,0.015940664642941152,-0.0021687413456334867,0.08727006493140926,-0.03326423411910343,-0.050455394341814494,0.15345280584194573,-0.13447365594455535,-0.08025624967019712,-0.04995266335996878,-0.17525997150661407
201,9.650220300012734,0.0024303683001597456,-0.027744224813118865,0.01579926856869245,-0.002382112940454992,0.08791639205480252,-0.03383256859697949,-0.05079125670942311,0.15323408198859326,-0.13520950114690813,-0.07910878030292434,-0.053842785652639245,-0.17389988566452325
202,9.654214899986982,0.002419877053664184,-0.027372314914540844,0.015655470549891498,-0.002596889931235979,0.08856176274949733,-0.03440399242449947,-0.051122247548247395,0.1529989341715919,-0.1359395576549552,-0.07794463052336902,-0.057745818464614955,-0.17251313560135828
203,9.658487599983346,0.0024084776279642344,-0.0269976870049172,0.015509257617006438,-0.002813051637361498,0.08920610767729671,-0.03497848096670826,-0.051448296630778274,0.15274730941981182,-0.13666371314697998,-0.0767638375652674,-0.06166107077467396,-0.171099752768438
204,9.662641400005668,0.0023961642306747177,-0.02662034555399434,0.015360616905334178,-0.003030577082553078,0.0898493572828798,-0.03555600911551804,-0.05176933388964306,0.1524791576992367,-0.13738185544183298,-0.07556644022765042,-0.06558784002405699,-0.16965977251874495
205,9.666679699963424,0.0023829311584433552,-0.026240295325123994,0.015209535656993307,-0.0032494449955577653,0.09049144180628423,-0.03613655129033454,-0.05208528942439193,0.15219443196100674,-0.1380938725158082,-0.07435247905445076,-0.06952541248618849,-0.16819323419882973
206,9.670295699965209,0.0023687727981925393,-0.025857541376099233,0.01505600122291421,-0.0034696338108661734,0.09113229129558735,-0.036720081438757976,-0.05239609350942022,0.15189308818751562,-0.13879965251943074,-0.07312199692825282,-0.07347306357993211,-0.1667001809716535
207,9.673829599982128,0.002353683628358018,-0.0254720890599366,0.014900001064826073,-0.0036911216694683014,0.09177183561977721,-0.03730657303735082,-0.05270167660575996,0.15157508543781284,-0.1394990837928399,-0.07187504033510732,-0.07743005816528327,-0.16518065951689512
208,9.67942399997264,0.0023376582201242954,-0.025083944025603624,0.014741522757240522,-0.003913886419670985,0.09241000448181644,-0.03789599909246839,-0.053001969379664025,0.1512403858912081,-0.14019205488005052,-0.07061166079806021,-0.0813956512255719,-0.16363471963890233
209,9.683358699956443,0.002320691238656425,-0.024693112218690826,0.014580553989431628,-0.004137905618010368,0.09304672743188082,-0.038488332141146823,-0.05329690272648171,0.15088895488692303,-0.14087845454103126,-0.06933191537533111,-0.08536908848324269,-0.16206241398279386
210,9.686869299970567,0.002302777444327719,-0.02429959988202764,0.014417082567412068,-0.004363156530270616,0.09368193388075743,-0.03908354425203553,-0.05358640779344229,0.15052076096250472,-0.14155817176357283,-0.06803586595297788,-0.08934960650356025,-0.16046379829861804
211,9.69192169996677,0.0022839116939429535,-0.023903413556241485,0.01425109641590526,-0.004589616132588444,0.09431555311340704,-0.03968160702638517,-0.05387041599756807,0.1501357758926033,-0.14223109577759296,-0.06672357825440116,-0.09333643255458608,-0.15883893180266775
212,9.695725900004618,0.0022640889419567674,-0.023504560080259352,0.014082583580313198,-0.004817261112622829,0.09494751430268909,-0.0402824915991007,-0.05414885904010851,0.14973397472856587,-0.1428971160700504,-0.06539512130017969,-0.09732878443451899,-0.15718787724788066
213,9.69984099996509,0.0022433042416870083,-0.02310304659175118,0.013911532228679715,-0.005046067870781211,0.09557774652325786,-0.040886168639855086,-0.05442166891989989,0.1493153358386694,-0.14355612239984333,-0.06405056718291109,-0.10132587054630968,-0.15551070114922033
214,9.703911799995694,0.0022215527465227936,-0.022698880527514315,0.013737930653648927,-0.005276012521501818,0.09620617876562661,-0.0414926083542679,-0.05468877794590146,0.1488798409470858,-0.1442080048146232,-0.0626899907110541,-0.10532689041345661,-0.15380747429555738
215,9.70841779996408,0.0021988297111270477,-0.022292069623798316,0.01356176727441856,-0.00550707089458555,0.0968327399503922,-0.042101780485160806,-0.05495011874755284,0.14842747516976684,-0.14485265367000813,-0.06131346890567021,-0.10933103534637444,-0.15207827222026707
216,9.712600399972873,0.002175130492633336,-0.021882621916569516,0.01338303063868781,-0.005739218536565606,0.09745735894260173,-0.042713654313898106,-0.05520562428306789,0.14795822704779196,-0.14548995965036363,-0.05992108067026212,-0.11333748884785008,-0.15032317551342142
217,9.716540800000075,0.0021504505518368565,-0.02147054574171473,0.013201709424599372,-0.005972430712109281,0.09807996456625825,-0.043328198661817384,-0.05545522784700904,0.14747208857983546,-0.14611981379064767,-0.05851290675538278,-0.11734542700655975,-0.14854227000350673
218,9.720726099971216,0.0021247854543794574,-0.021055849735183516,0.013017792442675242,-0.006206682405451447,0.09870048561896112,-0.04394538189175421,-0.05569886307828281,0.1469690552521971,-0.14674210749872324,-0.057089029933037626,-0.12135401922030786,-0.14673564670322684
219,9.725234799960162,0.0020981308719285447,-0.0206385428330685,0.012831268637745889,-0.006441948321863744,0.09931885088666483,-0.04456517190966087,-0.05593646396918425,0.1464491260651727,-0.1473567325767465,-0.05564953519575451,-0.1253624290721336,-0.1449034015115814
220,9.729191999998877,0.0020704825833497155,-0.020218634271623206,0.012642127090872413,-0.006678202889164303,0.09993498915854163,-0.04518753616631135,-0.056167964875070565,0.14591230355569954,-0.147963581240968,-0.054194509740055435,-0.12936981527460154,-0.143045634963862
221,9.733336900011636,0.0020418364758729396,-0.0197961335872171,0.012450357021261347,-0.006915420259268482,0.10054882924193131,-0.04581244165908699,-0.056393300523266215,0.14535859381576688,-0.14856254614101347,-0.05272404271152699,-0.13337533261762508,-0.14116245220832718
222,9.737393599993084,0.0020121885462521198,-0.019371050616227403,0.012255947788171762,-0.007153574309773655,0.10116029997735902,-0.04643985493384401,-0.0566124060205876,0.1447880065070718,-0.1491535203794883,-0.05123822512520829,-0.1373781323524119,-0.13925396324184033
223,9.741000099980738,0.001981534901917915,-0.01894339549486754,0.012058888892814323,-0.007392638645573378,0.10176933025360851,-0.04706974208686441,-0.05682521686157706,0.14420055487619315,-0.1497363975332448,-0.04973715027101912,-0.14137736163036776,-0.1373202834278817
224,9.744638499978464,0.0019498717621236942,-0.018513178658951898,0.011859169980241953,-0.007632586600511587,0.10237584902286792,-0.04770206876690275,-0.05703166893944514,0.14359625577397714,-0.1503110716773532,-0.04822091426214144,-0.14537216325799227,-0.1353615338986095
225,9.749914999993052,0.0019171954590844146,-0.018080410843596583,0.011656780841231635,-0.007873391239089002,0.10297978531596644,-0.04833680017733914,-0.057231698558927235,0.14297512967277745,-0.15087743740975806,-0.04668961637040802,-0.14936167757921376,-0.13337784150905624
226,9.7541981000104,0.0018835024391081917,-0.01764510308285576,0.011451711414156926,-0.008115025358225704,0.10358106825766539,-0.04897390107843388,-0.05742524245005301,0.14233720066997355,-0.15143538987486338,-0.04514335929264436,-0.15334504607441968,-0.1313693386312559
227,9.75867000001017,0.0018487892637203197,-0.017207266709293505,0.011243951786850752,-0.008357461489083604,0.10417962708192458,-0.049613335789679205,-0.0576122377832482,0.14168249647487252,-0.1519848247864534,-0.043582249543779844,-0.15732141437712047,-0.1293361632180491
228,9.762371499964502,0.0018130526107794788,-0.016766913353491456,0.0110334921984581,-0.008600671898956323,0.10477539114708294,-0.05025506819224719,-0.0577926221864178,0.14101104838679818,-0.15252563845181555,-0.042006397958616125,-0.1612899332369949,-0.1272784591246193
229,9.766463399981149,0.001776289275585825,-0.0163240549434927,0.010820323041278179,-0.008844628593235673,0.1053682899509402,-0.050899061731544834,-0.05796633376427755,0.14032289127387484,-0.1530577277973718,-0.040415920191838026,-0.16524975798961988,-0.1251963761428682
230,9.77081979997456,0.0017384961719806202,-0.015878703704182293,0.01060443486259557,-0.009089303317464482,0.1059582531457587,-0.05154527941987799,-0.05813331111965202,0.1396180635555864,-0.15358099039309134,-0.03881093710720814,-0.16920004796100904,-0.1230900696283163
231,9.775006000010762,0.0016996703334370186,-0.01543087215660468,0.010385818366499938,-0.009334667559482613,0.10654521055319797,-0.05219368383921229,-0.058293493376086795,0.13889660718657956,-0.15409532447497673,-0.03719157503946529,-0.17313996630766926,-0.12095970026248286
232,9.779102500004228,0.0016598089141416058,-0.014980573117218331,0.0101644644156939,-0.009580692551670404,0.1071290921791801,-0.05284423714402657,-0.0584468202013543,0.1381585676405712,-0.15460062896747367,-0.035557965975003394,-0.17706868005954002,-0.1188054342700784
233,9.783235799986867,0.0016189091900662739,-0.014527819697087855,0.009940364033288684,-0.009827349273292825,0.10770982822868862,-0.05349690106426274,-0.058593231831589015,0.1374039938937896,-0.15509680350778804,-0.03391024775127972,-0.18098536061959614,-0.11662744411086819
234,9.787615299981551,0.0015769685600300015,-0.014072625301013879,0.009713508404587146,-0.010074608452946372,0.10828734912049427,-0.05415163690838419,-0.05873266909647421,0.13663293840467042,-0.15558374847412762,-0.032248564464898495,-0.18488918491534764,-0.11442590933421841
235,9.791599599993788,0.0015339845467501015,-0.013615003626601035,0.00948388887885363,-0.010322440571115534,0.1088615855017828,-0.05480840556656369,-0.058865073446817164,0.13584545708759127,-0.1560613650172227,-0.03057306710502493,-0.1887793366114807,-0.1122010169734068
236,9.795835400000216,0.0014899547978824514,-0.013154968663264533,0.009251496971070116,-0.010570815862852136,0.10943246826265926,-0.055467167514007536,-0.05899038698507526,0.13504160928234557,-0.15652955509189168,-0.028883914105047842,-0.19265500655008086,-0.10995296131898004
237,9.79995879996568,0.0014448770870501555,-0.012692534691175882,0.00901632436367807,-0.01081970432058913,0.10999992855051847,-0.05612788281440952,-0.05910855249758154,0.13422145772416633,-0.1569882214866511,-0.027181271598278944,-0.19651539238910734,-0.10768194337757822
238,9.804164199973457,0.0013987493148600561,-0.012227716280148324,0.008778362908305462,-0.01106907569709158,0.11056389778429669,-0.05679051112352469,-0.0592195134872262,0.13338506851624743,-0.1574372678507194,-0.025465313547706005,-0.20035969841569354,-0.10538817014236083
239,9.809314399957657,0.0013515695099065202,-0.011760528288462425,0.008537604627478499,-0.01131889950854595,0.11112430766861042,-0.05745501169285093,-0.0593232142067759,0.13253251110134126,-0.15787659871747703,-0.02373622194178333,-0.2041871360662366,-0.10307185370047325
240,9.813220100011677,0.0013033358297619092,-0.01129098586163232,0.00829404171631761,-0.011569145037791956,0.11168109020776863,-0.058121343373400476,-0.05941959969320574,0.13166385822989585,-0.1583061195239464,-0.02199418695824733,-0.2079969245406234,-0.10073321043554874
241,9.818572999967728,0.0012540465619531227,-0.010819104431113186,0.00804766654421738,-0.011819781337701252,0.11223417771964302,-0.058789464619545734,-0.05950861580239941,0.1307791859264748,-0.1587257366275295,-0.020239406911183994,-0.21178829081396905,-0.09837246069596477
242,9.822512199985796,0.0012037001249235871,-0.010344899712950575,0.007798471656510122,-0.012070777234701794,0.11278350284939712,-0.059459333492931865,-0.05959020924303499,0.12987857345779555,-0.1591353573226914,-0.01847208805079502,-0.2155604692584796,-0.09598982902198276
243,9.82676199998241,0.0011522950689800905,-0.009868387706372148,0.007546449776112828,-0.01232210133244217,0.11332899858308718,-0.060130907666463236,-0.05966432760959723,0.12896210330233676,-0.1595348898596125,-0.016692444471314922,-0.219312701527841,-0.0935855445401705
244,9.830914499994831,0.0010998300772238829,-0.009389584692322357,0.007291593805157136,-0.01257372201559424,0.11387059826113506,-0.060804144428373244,-0.05973091941548709,0.12802986111935116,-0.15992424346419692,-0.014900698201826264,-0.22304423665216222,-0.09115984117706177
245,9.835006699955557,0.0010463039664654558,-0.008908507231940619,0.007033896826601976,-0.012825607453796569,0.1144082355916679,-0.061479000686379424,-0.05978993412679959,0.12708193571767265,-0.16030332835852576,-0.013097079400488557,-0.22675433089790314,-0.08871295773492664
246,9.83919510000851,0.0009917156881224017,-0.00842517216498354,0.006773352105828508,-0.013077725605741797,0.11494184466372809,-0.06215543297192569,-0.059841322197070605,0.1261184190259098,-0.1606720557815042,-0.011281826686647433,-0.2304422471730057,-0.0862451379110203
247,9.843372799979988,0.0009360643290997387,-0.00793959660819174,0.0065099530922170116,-0.013330044223412971,0.11547135996036162,-0.06283339744451148,-0.059885035103854255,0.12513940606626756,-0.16103033800947705,-0.00945518766488847,-0.234107254085929,-0.0837566302568563
248,9.847049499978311,0.0008793491126520591,-0.007451797953601744,0.00624369342070533,-0.013582530856479253,0.11599671637160745,-0.0635128498961078,-0.059921025387887246,0.12414499493267256,-0.16137808837653253,-0.007617419404843621,-0.2377486251452751,-0.08124768824010829
249,9.850762099958956,0.0008215693992268005,-0.006961793866803314,0.005974566913328531,-0.013835152856862383,0.11651784920740148,-0.06419374575565748,-0.059949246693710816,0.12313528677134171,-0.1617152212956396,-0.005768788468093778,-0.24136563839029196,-0.07871857077888746
250,9.85446999996202,0.000762724687287901,-0.006469602285142568,0.00570256758073942,-0.014087877383474818,0.11703469421040202,-0.06487604009366943,-0.05996965380906187,0.12211038576202225,-0.16204165228345546,-0.003909570465102442,-0.24495757636098775,-0.07616954320367844
251,9.858462399977723,0.0007028146141191296,-0.005975241415871194,0.0054276896237094715,-0.014340671407118246,0.11754718756873572,-0.06555968762692803,-0.05998220270176006,0.12107039909881216,-0.1623572979895717,-0.002040049596029464,-0.24852372617038954,-0.0736008779716749
252,9.8625844999915,0.0006418389566064496,-0.00547872973424213,0.0051499274346096455,-0.014593501715532663,0.11805526592866133,-0.06624464272333386,-0.05998685055522816,0.12001543697079117,-0.1626620762273432,-0.00016051850369640556,-0.2520633796082567,-0.07101285452352989
253,9.866895999992266,0.0005797976319987866,-0.004980085981552023,0.004869275598870511,-0.01484633491859431,0.11855886640715234,-0.066930859406873,-0.05998355580413974,0.1189456125419669,-0.16295590600192678,0.0017287215662897455,-0.25557583355589614,-0.06840575831034346
254,9.870702799991705,0.0005166906986465759,-0.004479329163130849,0.004585728896421173,-0.015099137453665245,0.11905792660439171,-0.06761829136269414,-0.05997227817128929,0.11786104192840913,-0.16323870753290814,0.003627360363752601,-0.25906039085526894,-0.06577987962986148
255,9.874913299980108,0.0004525183567174363,-0.003976478546279043,0.004299282303106604,-0.015351875591102083,0.11955238461616177,-0.06830689194226855,-0.059952978706626754,0.11676184417086978,-0.16351040227253003,0.005535078106015474,-0.2625163612433172,-0.0631355129493501
256,9.879473400011191,0.00038728094888828055,-0.003471553658152677,0.004009930992083068,-0.015604515439934609,0.12004217904610816,-0.06899661416862089,-0.059925619828577914,0.11564814120404121,-0.1637709129226113,0.007451545139271124,-0.2659430618025227,-0.06047295683627575
257,9.88328690000344,0.00032097896101312116,-0.0029645742835972128,0.0037176703351913597,-0.01585702295372283,0.12052724901787053,-0.06968741074163183,-0.05989016536593341,0.11452005782537812,-0.16402016345219086,0.0093764221560485,-0.26933981683279706,-0.057792514252815605
258,9.887640799977817,0.0002536130227658084,-0.0024555604629304204,0.0034224959043075345,-0.01610936393658869,0.12100753418708372,-0.0703792340434175,-0.05984658059733599,0.11337772166543582,-0.16425807911692925,0.011309360957168262,-0.2727059575573512,-0.055094493031796
259,9.892153299995698,0.00018518390825699127,-0.001944532489674969,0.0031244034726707957,-0.016361504049406,0.12148297475325844,-0.07107203614379574,-0.05979483228674655,0.1122212631591715,-0.16448458648076447,0.013250005229266745,-0.2760408221586316,-0.05237920634232489
260,9.895798699988518,0.00011569253662467714,-0.0014315109082411945,0.0028233890161881484,-0.0166134088161311,0.12195351147154045,-0.07176576880584808,-0.0597348887163772,0.11105081551597958,-0.16469961343923883,0.015197990672082136,-0.2793437562474359,-0.049646973091125556
261,9.900086499983445,4.513997259782772e-05,-0.0009165165115605653,0.002519448714715402,-0.0168650436302704,0.1224190856643387,-0.07246038349158257,-0.059666719721084345,0.10986651468703854,-0.16490308924453773,0.017152944208407774,-0.2826141135347624,-0.0468981184418391
262,9.905006199958734,-2.6472572967599588e-05,-0.00039957033867043043,0.002212578953314088,-0.01711637376150098,0.12287963923280933,-0.07315583136770691,-0.05959029672796149,0.10866849932968285,-0.16509494453319395,0.019114482701220688,-0.2858512564225906,-0.04413297444742273
263,9.908636200008914,-9.914374258086477e-05,0.00011930632774931899,0.0019027763234837987,-0.017367364362471858,0.12333511466818332,-0.07385206331152479,-0.05950559280154639,0.1074569107697698,-0.16527511135645742,0.0210822120500593,-0.2890545561087704,-0.04135188062414964
264,9.912422599969432,-0.00017287203163773564,0.0006400919638869909,0.0015900376243694,-0.017617980475805674,0.12378545506293338,-0.07454902991696497,-0.059412582691030995,0.10623189296516725,-0.165443523212838,0.0230557273027362,-0.29222339192161945,-0.0385551844679877
265,9.91593749995809,-0.000247655787971722,0.001162764807356562,0.0012743598639425484,-0.01786818704129793,0.12423060412179382,-0.07524668150075199,-0.05931124287452692,0.10499359247372946,-0.1656001150828281,0.025034613641624764,-0.29535715056390155,-0.035743241931528946
266,9.920679099974222,-0.00032349321143605264,0.001687302859801311,0.000955740260156887,-0.018117948903291804,0.12467050617265739,-0.07594496810872797,-0.05920155159796143,0.10374215842315786,-0.1657448234654658,0.027018447508161035,-0.2984552266784334,-0.032916417792136735
267,9.924863899999764,-0.0004003823535170761,0.002213683889543145,0.0006341762420762724,-0.01836723081820526,0.1251051061773412,-0.07664383952233149,-0.059083488909863785,0.10247774247420906,-0.16587758641616074,0.02900679724377733,-0.30151702473919595,-0.030075085922238818
268,9.92843069997616,-0.0004783211169796879,0.002741885434276985,0.0003096654509753571,-0.0186159974621991,0.12553434974217334,-0.07734324526523823,-0.05895703669485848,0.10120049877461429,-0.1659983435855358,0.030999223041325855,-0.3045419605620045,-0.02721962948854546
269,9.93316670000786,-0.0005573072555453697,0.0032718848038093317,-1.7794258588162387e-05,-0.01886421343898642,0.12595818312837043,-0.0780431346101673,-0.05882217870886107,0.09991058390955315,-0.16610703625893225,0.03299527622938895,-0.3075294621767377,-0.024350440998923483
270,9.937472399964465,-0.0006373383736034471,0.0038036590828401306,-0.00034820481773033675,-0.019111843287797338,0.1263765532622067,-0.07874345658585494,-0.05867890061860433,0.09860815684822054,-0.1662036073956465,0.03499449838457587,-0.3104789715186619,-0.02146792215336796
271,9.941677699971478,-0.0007184119259562677,0.004337185133787058,-0.0006815679422275012,-0.019358851491521625,0.12678940774494113,-0.07944415998419149,-0.05852719004431706,0.09729337888004323,-0.16628800166717905,0.0369964213470509,-0.3133899466347633,-0.01857248378190623
272,9.945706199971028,-0.000800525217599098,0.0048724395996510685,-0.0010178851315332288,-0.01960520248503322,0.1271966948624489,-0.08014519336751758,-0.058367036599119355,0.0959664135426484,-0.1663601654959479,0.039000568688382184,-0.31626186252336264,-0.015664546267426
273,9.94994309998583,-0.0008836754035354737,0.0054093989069218685,-0.001357157667826371,-0.01985086066366494,0.12759836359454124,-0.08084650507608744,-0.05819843191932808,0.09462742655100259,-0.16642004709710162,0.0410064577809236,-0.31909421031872154,-0.012744540360090892
274,9.954040299984626,-0.0009678594886285346,0.005948039268522028,-0.0016993866150909235,-0.020095790391788448,0.1279943636239997,-0.08154804323571753,-0.05802136968640811,0.09327658573225366,-0.16646759652409795,0.04301360107587978,-0.32188649625086174,-0.009812907773206815
275,9.958241699961944,-0.0010530743274887004,0.006488336686788608,-0.002044572818228542,-0.02033995601147401,0.1283846453453467,-0.08224975576563409,-0.05783584564650426,0.09191406096363802,-0.16650276571553987,0.04502150600507006,-0.3246382412510508,-0.006870101044944119
276,9.962508699973114,-0.0011393166243980036,0.0070302669564912025,-0.002392716902204559,-0.020583321851235105,0.1287691598733562,-0.08295159038651653,-0.05764185763322064,0.0905400241106482,-0.16652550853958847,0.04702967404415339,-0.32734898097288617,-0.003916582727846851
277,9.966669599991292,-0.0012265829332714787,0.0075738056678853125,-0.0027438192712283017,-0.02082585223488021,0.12914785905130324,-0.08365349462871942,-0.0574394055950492,0.08915464896476231,-0.16653578083396697,0.04903759991979686,-0.3300182658235608,-0.0009528243240248597
278,9.971134099992923,-0.0013148696576561118,0.008118928209799923,-0.003097880107968418,-0.02106751149048862,0.12952069545894976,-0.08435541584065304,-0.057228491624832296,0.08775811118134809,-0.16653354044139773,0.05104477149049272,-0.33264566095604137,0.002020694627115845
279,9.975583899999036,-0.0014041730507678924,0.008665609772758195,-0.0034548993728038373,-0.02130826395951057,0.12988762242027044,-0.08505730119730412,-0.05700911998819588,0.0863505882174583,-0.1665187472419162,0.05305067010806343,-0.3352307465702231,0.0050034870540995625
280,9.979164799966384,-0.0014944892155674726,0.00921382535213017,-0.003814876803110923,-0.021548074005982756,0.1302485940109143,-0.0857590977088888,-0.05678129714996478,0.0849322592671961,-0.1664913631840491,0.05505477107027913,-0.33777311869024257,0.007995058774658153
281,9.983326199988367,-0.0015858141048749022,0.00976354975131636,-0.004177811912587375,-0.021786906025851132,0.13060356506538573,-0.08646075222963616,-0.05654503179878048,0.08350330519295814,-0.16645135231357722,0.05705654401380416,-0.3402723900581765,0.010994909466780924
282,9.987420799967367,-0.0016781435215238753,0.01031475758496098,-0.004543703990613422,-0.022024724456393925,0.13095249118392646,-0.08716221146668363,-0.05630033487020405,0.08206390845326636,-0.16639868079652795,0.059055453171070124,-0.3427281908375332,0.014002534130174117
283,9.99175169999944,-0.0017714731185558966,0.010867423282193556,-0.00491255210165071,-0.022261493785739193,0.13129532873908825,-0.08786342198905435,-0.05604721956916859,0.08061425302808096,-0.1663333169356187,0.06105095730338752,-0.34514016922142193,0.017017424410015455
284,9.9957322999835,-0.0018657983994547578,0.011421521089897564,-0.005284355084679171,-0.022497178562477106,0.13163203488198524,-0.08856433023669122,-0.055785701393645984,0.07915452434150562,-0.1662552311820908,0.06304250926883241,-0.34750799205361466,0.020039069401985677
285,9.999947800009975,-0.001961114718421731,0.011977025076004734,-0.0056591115526720605,-0.022731743405377,0.13196256754821514,-0.08926488252953398,-0.05551579816074191,0.07768490918186513,-0.16616439614536666,0.06502955559507531,-0.34983134528282356,0.023066956059499353
286,10.004150099994147,-0.002057417280691955,0.01253390913281361,-0.006036819892109345,-0.022965153013219636,0.13228688546343784,-0.08996502507663465,-0.05523753003396343,0.0762055956205813,-0.16606078660145104,0.06701153660368837,-0.35210993394277906,0.02610056941242202
287,10.008353999990504,-0.0021547011428925122,0.013092146980330876,-0.0064174782625295804,-0.02319737217474409,0.13260494814861273,-0.09066470398530548,-0.054950919548266156,0.0747167729324185,-0.16594437950074453,0.06898788730673301,-0.3543434817690453,0.029139392514743487
288,10.012669299962,-0.0022529612134426615,0.013651712169634064,-0.006801084596120409,-0.02342836577869117,0.1329167159249051,-0.09136386527030022,-0.05465599162976399,0.07321863151758967,-0.1658151539768858,0.07095803865338089,-0.3565317309892668,0.0321829062209481
289,10.01657229999546,-0.0023521922529965763,0.01421257808625424,-0.007187636597347833,-0.02365809882391644,0.13322214991826672,-0.0920624548630366,-0.05435277361026782,0.07171136282376997,-0.1656730913564502,0.07292141842938023,-0.3586744425985461,0.03523058921999808
290,10.020784199994525,-0.002452388874928828,0.014774717953577324,-0.0075771317426244576,-0.02388653642955619,0.13352121206368497,-0.0927604186208594,-0.054041295239413124,0.07019515926588145,-0.16551817516750567,0.0748774515925415,-0.36077139677777165,0.03828191817693043
291,10.025048199982848,-0.002553545545862817,0.015338104836262597,-0.007969567280016842,-0.024113643845242696,0.13381386510908722,-0.093457702336335,-0.05372158869637066,0.06867021414458044,-0.16535039114811764,0.07682556041647697,-0.3628223929034007,0.0413363673693951
292,10.029135999968275,-0.0026556565862423677,0.015902711643676928,-0.008364940228992092,-0.024339386461368902,0.1341000726189027,-0.09415425174658616,-0.05339368860076244,0.0671367215659597,-0.16516972725796875,0.07876516480733654,-0.36482724903458735,0.04439340771739543
293,10.03339799999958,-0.0027587161709466852,0.016468511133343307,-0.008763247380203907,-0.024563729819395707,0.1343797989772902,-0.09485001254268453,-0.053057632021702446,0.06559487636435915,-0.16497617369504267,0.08069568281906112,-0.3667858010589127,0.04745250561107087
294,10.037428399955388,-0.0028627183299488367,0.017035475914402284,-0.009164485295318337,-0.024786639622192838,0.13465300939104916,-0.09554493037912606,-0.05271345848436923,0.06404487402926909,-0.16476972291712508,0.08261653137332318,-0.36869790202134395,0.05051312215019518
295,10.041673599975184,-0.002967656949017878,0.017603578451085043,-0.00956865030687971,-0.025008081744401556,0.13491966989223123,-0.09623895088340477,-0.05236120997297787,0.062486910633797535,-0.16455036966489825,0.08452712722510518,-0.3705634217539302,0.05357471302757073
296,10.04576269997051,-0.003073525770464688,0.018172791066196844,-0.009975738518217092,-0.025228022242800578,0.13517974734044835,-0.0969320196656828,-0.05200093092921314,0.060921182764695,-0.1643181109844249,0.08642688789121829,-0.3723822463734797,0.05663672895713802
297,10.050049199955538,-0.003180318393931474,0.018743085944609564,-0.010385745803391721,-0.02544642736665557,0.13543320942489445,-0.09762408232855373,-0.05163266824737443,0.05934788745505613,-0.164072946246634,0.08831523213094113,-0.37415427762964637,0.059698616458517054
298,10.054278499970678,-0.0032880282772248495,0.01931443513676218,-0.010798667807185778,-0.025663263568044156,0.13568002466608625,-0.09831508447687691,-0.05125647126875738,0.05776722211983985,-0.1638148771631913,0.09019158000373481,-0.37587943195301476,0.0627598183167328
299,10.0585199999623,-0.0033966487371923757,0.019886810562167977,-0.011214499945132714,-0.02587849751215803,0.1359201624173414,-0.09900497172767454,-0.05087239177631226,0.05617938449659528,-0.16354390780210987,0.09205535282036863,-0.37755763944890164,0.06581977373455593
300,10.062611999979708,-0.003506172950642479,0.0204601840129275,-0.011633237403589451,-0.026092096087582957,0.13615359286601963,-0.09969368972009758,-0.05048048398943757,0.05458457258946364,-0.16326004460233642,0.09390597317514185,-0.37918884324348356,0.06887791899381701
301,10.066820100008044,-0.0036165939553076502,0.021034527157246217,-0.012054875139850717,-0.026304026416556988,0.1363802870345289,-0.10038118412544579,-0.050080804558366866,0.05298298461541607,-0.16296329638378726,0.09574286529128116,-0.3807729986674266,0.07193368861080496
302,10.07087999995565,-0.0037279046508508352,0.021609811542955958,-0.01247940788230571,-0.02651425586520314,0.13660021678111328,-0.10106740065721825,-0.049673412556050754,0.051374818955137194,-0.16265367435219508,0.09756545581284118,-0.38231007206766243,0.07498651645632218
303,10.075076500012074,-0.0038400977999148898,0.02218600860103922,-0.01290683013063716,-0.02672275205371919,0.1368133548004451,-0.10175228508117427,-0.04925836946586835,0.04976027410927912,-0.16233119209970334,0.09937317455203809,-0.38380003905395993,0.0780358364644524
304,10.079203700006474,-0.003953166029214866,0.022763089649155584,-0.013337136156062794,-0.026929482866506767,0.1370196746240441,-0.10243578322538889,-0.048835739167209576,0.04813954866412571,-0.1619958656037385,0.10116545452171274,-0.3852428820990388,0.08108108264682769
305,10.082780500000808,-0.004067101830672852,0.023341025895169575,-0.013770320001619167,-0.027134416462239602,0.1372191506205801,-0.10311784099030429,-0.04840558792291297,0.046512841268076546,-0.16164771322748403,0.1029417313698347,-0.3866385887429491,0.08412168885628248
306,10.087458800000604,-0.004181897562595128,0.02391978844067962,-0.014206375482487859,-0.027337521283886727,0.13741175799609395,-0.10379840435878929,-0.047967984369614865,0.044880350612447543,-0.16128675572074502,0.10470144295466571,-0.3879871517172927,0.08715708943019662
307,10.09242150001228,-0.004297545450891499,0.024499348284547758,-0.014645296186364095,-0.027538766068699386,0.13759747279413834,-0.10447741940619806,-0.047522999508768385,0.043242275406907775,-0.1609130162149991,0.10644402919862644,-0.3892885712427616,0.09018672106796714
308,10.096701800008304,-0.004414037590336636,0.025079676326429805,-0.015087075473867737,-0.02773811985815851,0.1377762718957917,-0.10515483231038791,-0.04707070669822448,0.04159881434091282,-0.16052652020843464,0.10816893169153952,-0.3905428579235324,0.09321002503066185
309,10.1005232000025,-0.00453136594587326,0.02566074337030518,-0.015531706478996352,-0.02793555200789068,0.1379481330194739,-0.10583058936165184,-0.046611181646595404,0.039950166034743065,-0.16012729554245966,0.10987559310276263,-0.39175003420462,0.09622644905834207
310,10.108530099969355,-0.00464952235395707,0.026242520128005493,-0.01597918210961993,-0.028131032197568066,0.13811303472054745,-0.1065046369725383,-0.04614450240979121,0.03829652898865221,-0.1597153723705778,0.11156345711479161,-0.392910135326514,0.09923544964846963
311,10.114185299957173,-0.004768498523943383,0.026824977222741037,-0.01642949504801672,-0.028324530440795206,0.13827095639070452,-0.10717692168752145,-0.04567074938594294,0.03663810152585839,-0.1592907831156912,0.11323196914455749,-0.3940232112637613,0.10223649498093644
312,10.120218799973372,-0.004888286039515402,0.0274080851926242,-0.01688263775144948,-0.028516017094966158,0.1384218782570876,-0.10784739019246097,-0.04519000530585889,0.03497508172535122,-0.15885356241431967,0.11488057744591554,-0.39508932798467183,0.10522906712071778
313,10.124636099964846,-0.005008876360153944,0.02799181449418853,-0.017338602452781047,-0.02870546287107081,0.13856578138111006,-0.10851598932380205,-0.04470235521865428,0.03330766735426418,-0.15840374705533622,0.11650873414631577,-0.39610856629512076,0.10821266203640979
314,10.128748299961444,-0.005130260822648375,0.02857613550590223,-0.017797381161128126,-0.028892838843430912,0.1387026476570068,-0.10918266607751885,-0.04420788647346884,0.031636055810427895,-0.15794137592403001,0.11811589579662585,-0.3970810186324547,0.11118678748003398
315,10.133113199961372,-0.005252430642648408,0.029161018531674982,-0.018258965662552272,-0.02907811645935227,0.13883245981017053,-0.10984736761784294,-0.0437066887004617,0.02996044408176852,-0.15746648995871412,0.11970152314165368,-0.3980067850930275,0.11415095998306651
316,10.137255400011782,-0.005375376916256401,0.029746433804357434,-0.018723347520787248,-0.02926126754870056,0.1389552013953602,-0.11051004128584097,-0.043198853794463386,0.0282810287223472,-0.15697913212011072,0.12126508062026808,-0.3988859703007076,0.11710470243605238
317,10.14151349995518,-0.005499090621659874,0.03033235148923292,-0.019190518078002306,-0.02944226433341574,0.13907085679483522,-0.11117063460788501,-0.042684475900184454,0.026598005838155594,-0.15647934736836167,0.12280603639957317,-0.39971868170618335,0.12004754273945466
318,10.145776899997143,-0.00562356262080401,0.0309187416875012,-0.019660468455600953,-0.029621079436963155,0.13917941121644423,-0.1118290953040365,-0.042163651395579434,0.024911571077491475,-0.15596718264378645,0.12432386289119896,-0.40050502891628725,0.12297901337593027
319,10.150016699975822,-0.005748783661103845,0.0315055744397541,-0.020133189555054904,-0.029797685893707723,0.1392808506916782,-0.11248537129635434,-0.04163647887270335,0.023221919622407747,-0.15544268684749832,0.12581803716543682,-0.4012451233264367,0.12589865143906162
320,10.15426679997472,-0.005874744377195783,0.03209281972944283,-0.02060867205877288,-0.029972057158203683,0.13937516207368703,-0.11313941071711546,-0.041103059117584675,0.021529246182186424,-0.15490591082192,0.12728804097506596,-0.40193907746637164,0.12880599841243998
321,10.158428099995945,-0.006001435292728096,0.03268044748633687,-0.02108690643100386,-0.03014416711439909,0.13946233303527772,-0.11379116191695866,-0.040563495090881,0.0198337449903028,-0.15435690733326213,0.12873336060253182,-0.40258700450486384,0.131700599897624
322,10.162427100003695,-0.006128846822190035,0.03326842758997446,-0.021567882918774525,-0.030313990084762522,0.13954235206690535,-0.11444057347295745,-0.04001789190904022,0.018135609802074508,-0.15379573105433206,0.13015348702648977,-0.40318901803331875,0.13458200567274212
323,10.166621899988968,-0.006256969272779256,0.033856729873104556,-0.022051591552860562,-0.030481500839328764,0.13961520847465145,-0.11508759419661906,-0.0394663568235523,0.016435033893449847,-0.15322243854651835,0.1315479164789063,-0.40374523171696725,0.13744977005084422
324,10.170954799978064,-0.006385792846307185,0.034445324125120226,-0.022538022148791536,-0.030646674604650613,0.13968089237820472,-0.1157321731418053,-0.038908999197414335,0.014732210061597138,-0.1526370882395789,0.13291615090597386,-0.4042557589323838,0.14030345237892466
325,10.17493929999182,-0.006515307641141908,0.03503418009548362,-0.023027164307888964,-0.030809487072646177,0.13973939470884442,-0.11637425961256129,-0.03834593048049703,0.01302733062674861,-0.15203974040941873,0.1342576979936973,-0.40472071204915877,0.14314261744297674
326,10.179164599976502,-0.0066455036541881105,0.03562326749714237,-0.02351900741833718,-0.03096991440934303,0.1397907072074366,-0.11701380317084897,-0.037777264185794045,0.011320587438844966,-0.15143045715446382,0.135572071042165,-0.40514020183656874,0.14596683598280402
327,10.18317480001133,-0.006776370782903676,0.036212556009937655,-0.024013540656286594,-0.0311279332635253,0.13983482242247355,-0.11765075364417665,-0.03720311586584831,0.009612171884380776,-0.1508093023690992,0.13685878917740915,-0.4055143376514588,0.1487756854515607
328,10.187552399991546,-0.0069078988273525216,0.036802015284004085,-0.024510752986988883,-0.03128352077527911,0.13987173370812767,-0.11828506113310863,-0.03662360308721551,0.00790227489146528,-0.15017634171364014,0.1381173778473238,-0.40584322727496813,0.15156875058271185
329,10.192138899990823,-0.0070400774922932275,0.03739161494316135,-0.025010633165963542,-0.0314366545844244,0.13990143522233356,-0.1189166760186416,-0.036038845402710004,0.006191086938044112,-0.14953164258299106,0.13934736910109438,-0.4061269767160564,0.15434562368104385
330,10.195739899994804,-0.007172896389302949,0.03798132458829795,-0.025513169740195255,-0.031587312838826424,0.13992392192491132,-0.1195455489694501,-0.035448964323512834,0.004478798058616289,-0.14887527407416365,0.14054830150175646,-0.4063656902931392,0.15710590481327225
331,10.199906199995894,-0.007306345038936111,0.03857111380074701,-0.026018351049361527,-0.03173547420259245,0.13993918957570517,-0.12017163094898911,-0.03485408329215475,0.0027655978517677872,-0.14820730695332898,0.14171972002599825,-0.40655946973920953,0.1598492012902866
332,10.204117799992671,-0.0074404128729174115,0.03916095214565432,-0.026526165227089928,-0.0318811178641555,0.13994723473277024,-0.12079487322246174,-0.03425432765546884,0.0010516754944319745,-0.1475278136277001,0.1428611760793512,-0.4067084125144196,0.1625751261699759
333,10.207756099989638,-0.007575089236368661,0.039750809175338894,-0.027036600202244455,-0.032024223544243065,0.13994805475063143,-0.12141522736368482,-0.03364982463744549,-0.0006627802363525998,-0.1468368681252047,0.1439722274022483,-0.4068126098917191,0.1652832964264464
334,10.212054600007832,-0.007710363390068958,0.0403406544326463,-0.02754964370024065,-0.03216477150373204,0.13994164777865364,-0.12203264526188526,-0.0330407033129769,-0.0023775809330445243,-0.14613454608180038,0.14505243811010393,-0.406872146008464,0.16797333214282342
335,10.21787160000531,-0.00784622451274774,0.04093045745429547,-0.028065283244389255,-0.032302742551396084,0.13992801275955682,-0.12264707912845868,-0.032427094580374224,-0.0040925385278472,-0.14542092472795173,0.14610137964415512,-0.406887099674923,0.17064485852914468
336,10.22181359998649,-0.007982661703410273,0.04152018777421957,-0.028583506157268304,-0.03243811805152891,0.139907149428037,-0.1232584815036518,-0.03180913112709687,-0.005807465277556096,-0.14469608285893557,0.14711863253143245,-0.4068575481576887,0.17329750985458292
337,10.225718699977731,-0.008119663983694955,0.042109814926901135,-0.029104299562123105,-0.03257087993140275,0.1398790583094091,-0.12386680526307076,-0.031186947387433838,-0.007522173765698964,-0.143960100788171,0.14810378779045158,-0.40678356966315266,0.17593093149714276
338,10.229531099961603,-0.008257220300261678,0.042699308450701495,-0.02962765038429319,-0.03270101068853491,0.13984374071820993,-0.12447200362397005,-0.030560679496383643,-0.00923647690831773,-0.14321306030024672,0.14905644734516033,-0.40666524311642166,0.17854477893669138
339,10.233996899973135,-0.008395319527210393,0.04328863789118418,-0.030153545352665317,-0.03282849339775749,0.1398011987567922,-0.12507403015136495,-0.029930465243846262,-0.010950187954245063,-0.1424550446127393,0.1499762236770075,-0.40650264726761104,0.18113871620815367
340,10.237991200003307,-0.008533950468529063,0.043877772804432454,-0.030681971001151945,-0.03295331171809774,0.13975143531392523,-0.12567283876399857,-0.029296444031435977,-0.012663120483352702,-0.14168613834227942,0.15086273921559556,-0.4062958602535842,0.18371241526520893
341,10.242387700011022,-0.008673101860570222,0.044466682760360934,-0.031212913670194534,-0.03307544989948379,0.13969445406340375,-0.1262683837401682,-0.028658756831809837,-0.014375088403133677,-0.14090642747173393,0.15171562584329357,-0.4060449594237424,0.18626555601858438
342,10.246970199979842,-0.008812762374555456,0.04505533734602141,-0.031746359508291126,-0.03319489278928216,0.13963025946267738,-0.12686061972341575,-0.028017546149656417,-0.01608590594548212,-0.14011599931594926,0.15253452465237893,-0.40575002159470047,0.18879782663895192
343,10.250720699958038,-0.008952920619107078,0.045643706168902884,-0.03228229447354763,-0.03331162583867457,0.13955885675148658,-0.12744950172806538,-0.02737295598307147,-0.017795387665422296,-0.13931494248638024,0.1533190860342918,-0.40541112352330977,0.19130892344815564
344,10.254317999992054,-0.009093565142806353,0.04623175886022592,-0.03282070433525206,-0.03342563510886995,0.13948025195050284,-0.1280349851446157,-0.026725131783794303,-0.019503348441875786,-0.13850334685775034,0.15406896990266947,-0.4050283425359265,0.19379855067879628
345,10.258211300009862,-0.009234684436777543,0.046819465078231225,-0.0333615746754713,-0.033536907277146026,0.13939445185995822,-0.12861702574499634,-0.026074220416703354,-0.021209603481694986,-0.13768130353470717,0.15478384583025454,-0.4046017568514413,0.19626642022013127
346,10.262539099960122,-0.009376266937297059,0.047406794511462395,-0.03390489089066964,-0.03364542964271987,0.13930146405825145,-0.12919557968767917,-0.025420370118898486,-0.022913968323153296,-0.13684890482062462,0.1554633931345358,-0.4041314451617683,0.19871225076265922
347,10.266545599966776,-0.00951830102842699,0.0479937168820428,-0.034450638193348614,-0.033751190132444604,0.13920129690054808,-0.1297706035226718,-0.02476373045847464,-0.024616258836442313,-0.13600624419146914,0.15610730095078967,-0.4036174857779825,0.20113576658723062
348,10.2701597000123,-0.00966077504467228,0.048580201948946515,-0.03499880161370764,-0.03385417730633242,0.13909395951738246,-0.13034205419640857,-0.024104452292988438,-0.02631629121996433,-0.13515341627480923,0.15671526857425505,-0.40305995563114605,0.20353669658267445
349,10.274636099988127,-0.00980367727366081,0.04916621951126341,-0.035549366001325106,-0.03395438036290116,0.13897946181328905,-0.13090988905656703,-0.02344268772534743,-0.028013881992406918,-0.13429051683196264,0.15728700651652355,-0.40245893049495357,0.20591477467859978
350,10.279114799981471,-0.009946995958845645,0.04975173941145856,-0.03610231602685958,-0.034051789144325516,0.1388578144654712,-0.1314740658568085,-0.022778590053371794,-0.029708847990912227,-0.13341764273335752,0.15782223816249355,-0.4018144871871923,0.20826974201129975
351,10.283322900009807,-0.010090719302228542,0.050336731538626084,-0.03665763618377086,-0.03414639414135844,0.13872902892244804,-0.13203454276138682,-0.022112313711716163,-0.031401006381708944,-0.13253489192242204,0.15832070119784,-0.40112670540754175,0.21060134891309748
352,10.287362199975178,-0.010234835467103678,0.050921165831737183,-0.03721531079006007,-0.034238186497992755,0.13859311740263344,-0.13259127834958456,-0.021444014209398354,-0.033090174673773454,-0.13164236337417617,0.15878214798838972,-0.4003956677981167,0.21290935542367398
353,10.291625199955888,-0.010379332580820452,0.05150501228288199,-0.03777532399002805,-0.034327158015855966,0.13845009289286783,-0.1331442316199727,-0.020773848068523244,-0.03477617072997215,-0.130740157054811,0.15920634517223214,-0.39962145943568106,0.21519353075921807
354,10.295815599965865,-0.010524198737564267,0.052088240940505216,-0.03833765975605141,-0.034413301158355336,0.13829996914690332,-0.13369336199450607,-0.020101972765249814,-0.03645881277644217,-0.1298283738847554,0.15959307355259592,-0.39880416723870593,0.21745365241911274
355,10.299970799998846,-0.010669422001154266,0.052670821912635245,-0.03890230189037542,-0.03449660905457509,0.13814276068385628,-0.13423862932247171,-0.01942854666941804,-0.03813791940873547,-0.12890711570578556,0.15994212869918545,-0.39794387918967555,0.21968950530277556
356,10.304183200001717,-0.010814990407856967,0.05325272537010673,-0.039469234026923324,-0.03457707550291256,0.1379784827866408,-0.1347799938843071,-0.01875372898044692,-0.03981330959464393,-0.1279764852515363,0.16025332185272761,-0.3970406836187129,0.22190088090344198
357,10.308350100007374,-0.010960891969214655,0.053833921549776495,-0.04003843963312146,-0.03465469497443502,0.13780715150039738,-0.1353174163952999,-0.01807767965933642,-0.04148480267430469,-0.12703658612140672,0.16052648065814107,-0.3960946690676484,0.2240875768648438
358,10.312467199983075,-0.011107114674887309,0.05441438075773287,-0.040609902011739744,-0.03472946261594266,0.13762878363092554,-0.13585085800918625,-0.017400559358385217,-0.043152218361879414,-0.12608752275480853,0.1607614493252693,-0.3951059245622755,0.2262493969929111
359,10.316727400000673,-0.011253646495506812,0.05499407337249838,-0.04118360430274711,-0.03480137425273298,0.13744339674309836,-0.13638028032163346,-0.016722529351837708,-0.04481537674795463,-0.12512940040497297,0.1609580879432698,-0.3940745394510266,0.22838615087571085
360,10.32043949997751,-0.011400475385542185,0.055572969848225726,-0.041759529485181364,-0.03487042639107912,0.1372510091592748,-0.13690564537361738,-0.01604375147138117,-0.04647409829986111,-0.12416232511640295,0.1611162712242276,-0.3930006033061523,0.23049765340535988
361,10.324955099960787,-0.011547589286174689,0.056151040717887096,-0.04233766037903309,-0.034936616220450536,0.1370516399577116,-0.13742691565471515,-0.015364388047383576,-0.048128203863241154,-0.12318640370271006,0.1612358876884518,-0.39188420644010247,0.23258372544048503
362,10.32912149996264,-0.011694976128181772,0.05672825659645674,-0.04291797964714326,-0.03499994161549598,0.13684530897096242,-0.13794405410629573,-0.01468460185125835,-0.04977751466672089,-0.1222017437184824,0.16131683989073084,-0.3907254406582223,0.23464419518505542
363,10.33268589997897,-0.011842623834828892,0.0573045881840868,-0.043500469797114034,-0.035060401137778356,0.13663203678425026,-0.13845702412457547,-0.014004556034794955,-0.05142185232982245,-0.1212084534254987,0.16135904518250396,-0.3895244001641796,0.2366788995074729
364,10.337485199968796,-0.011990520324768088,0.05788000626927615,-0.04408511318323214,-0.035117994037246275,0.13641184473379994,-0.13896578956352384,-0.013324414066098852,-0.05306103887526861,-0.1202066417534767,0.16136243664638733,-0.38828118299778813,0.2386876854123688
365,10.34169979998842,-0.012138653514942206,0.05845448173203218,-0.04467189200840415,-0.0351727202534289,0.13618475490510687,-0.13947031473758817,-0.01264433966104445,-0.05469489674901524,-0.11919641825388069,0.1613269640550138,-0.3869958933614518,0.24067041177919207
366,10.346073299995624,-0.012287011323493541,0.05902798554702507,-0.04526078832610283,-0.03522458041632969,0.13595079013110056,-0.13997056442420994,-0.011964496711132448,-0.05632324885216683,-0.11817789304601435,0.16125259377308862,-0.3856686441907494,0.2426269508195628
367,10.349886899988633,-0.012435581672675599,0.05960048878673404,-0.04585178404232364,-0.035273575847013114,0.13570997399014442,-0.14046650386609513,-0.011285049215768414,-0.05794591858267791,-0.11715117675854339,0.16113930712983035,-0.3842995580020501,0.2445571882065644
368,10.354283099994063,-0.012584352491766683,0.06017196262458479,-0.04644486091755021,-0.03531970855792752,0.13546233080384773,-0.14095809877323762,-0.010606161223839755,-0.05956272987441361,-0.11611638047449853,0.16098709883106083,-0.3828887657335792,0.2464610219177632
369,10.358392699970864,-0.012733311719984378,0.060742378338077316,-0.047040000568727904,-0.03536298125299939,0.13520788563473615,-0.14144531532472585,-0.009927996779379698,-0.061173507229081735,-0.11507361568255099,0.16079597666702997,-0.381436405738054,0.24833836114268787
370,10.362314699974377,-0.012882447309399934,0.0613117073119037,-0.04763718447124453,-0.03540339732749815,0.13494666428379457,-0.14192812017035553,-0.009250719865607172,-0.06277807574680168,-0.11402299423122496,0.1605659622168747,-0.3799426231803587,0.25018912565863655
371,10.366736700001638,-0.013031747227851605,0.061879921041055205,-0.04823639396091748,-0.03544096086765873,0.13467869328787987,-0.14240648043205037,-0.008574494344652503,-0.06437626115295918,-0.11296462828543474,0.16029709190179064,-0.37840756957234345,0.25201324507915224
372,10.371444999997038,-0.013181199461855855,0.06244699113391828,-0.04883761023598643,-0.03547567665003829,0.13440399991703747,-0.14288036370510837,-0.007899483892719508,-0.06596788982485377,-0.11189863028703227,0.15998941760824484,-0.37683140293686773,0.2538106579376674
373,10.37540059996536,-0.013330792019515272,0.06301288931535902,-0.049440814359110984,-0.035507550140592196,0.13412261217168941,-0.14334973805929,-0.0072258519345577725,-0.06755278881993636,-0.11082511291906876,0.15964300589455707,-0.3752142864055307,0.25558130975282034
374,10.3791968000005,-0.013480512933421989,0.06357758742979545,-0.050045987259372544,-0.0355365874934784,0.13383455877971287,-0.1438145720397632,-0.006553761585312925,-0.06913078589063613,-0.10974418908265071,0.15925793568817756,-0.37355638469618585,0.2573251489966188
375,10.38299289997667,-0.013630350263555515,0.06414105744425741,-0.05065310973427993,-0.03556279554964322,0.1335398691935033,-0.1442748346679965,-0.005883375604409879,-0.0707017094829051,-0.1086559718951883,0.15883429682306285,-0.3718578620649861,0.2590421242805205
376,10.3875727999839,-0.013780292100174237,0.06470327145143402,-0.05126216245177876,-0.035586181835237006,0.13323857358706517,-0.14473049544268932,-0.005214856349732405,-0.07226538873378163,-0.1075605746909715,0.15837219269296599,-0.3701188842500502,0.2607321872756061
377,10.391617499990389,-0.013930326566699893,0.06526420167270908,-0.051873125952264926,-0.035606754559813644,0.1329307028530957,-0.14518152434066978,-0.0045483657091402695,-0.07382165348631922,-0.10645811099480258,0.15787174639098478,-0.36833962363800055,0.2623952995212256
378,10.396129600005224,-0.014080441822593902,0.06582382046118394,-0.05248598065060154,-0.035624522614168944,0.13261628859994964,-0.14562789181760283,-0.00388406500289504,-0.07537033433070178,-0.10534869446517837,0.15733310517780358,-0.366520264062171,0.26403143695564724
379,10.400215399975425,-0.014230626066223611,0.06638210030468733,-0.053100706838138376,-0.03563949556771765,0.1322953631483766,-0.14606956880840918,-0.003222114877511853,-0.07691126265961926,-0.10423243882973128,0.1567564401030006,-0.36466100102135524,0.26564058882899494
380,10.404089199961165,-0.014380867537716514,0.06693901382877071,-0.05371728468473235,-0.035651683665437035,0.13196795952801887,-0.14650652672742911,-0.0025626752113774394,-0.07844427071122682,-0.10310945783757497,0.1561419430215977,-0.3627620382846536,0.26722275339252777
381,10.408362699963618,-0.014531154521800739,0.06749453379968856,-0.05433569424076835,-0.03566109782444831,0.1316341114737867,-0.14693873746843975,-0.0019059050337511014,-0.07996919159590085,-0.10197986523108299,0.15548982443957435,-0.3608235859232,0.2687779343761437
382,10.41249139996944,-0.014681475350630444,0.06804863312736323,-0.05495591543917983,-0.03566774963027743,0.13129385342213062,-0.14736617340458094,-0.001251962448544134,-0.0814858593226064,-0.10084377472792756,0.15480031304474973,-0.35884586044961875,0.2703061394365045
383,10.41673619998619,-0.014831818406594791,0.06860128486833375,-0.055577928097469066,-0.03567165133279401,0.13094722050719432,-0.1477888073882212,-0.0006010045572752664,-0.0829941088268287,-0.09970130000593985,0.15407365581039079,-0.3568290853742422,0.2718073799968911
384,10.420779099978972,-0.014982172125109102,0.06915246222868829,-0.05620171191972659,-0.035672815841822664,0.13059424855685164,-0.14820661275075592,4.681261802328877e-05,-0.0844937760016294,-0.0985525546864987,0.15331011794414057,-0.3547734915039317,0.2732816713487505
385,10.425138299993703,-0.015132524997386843,0.06970213856697954,-0.05682724649864972,-0.03567125672243204,0.13023497408859763,-0.14861956330233325,0.0006913342114198824,-0.08598469772809693,-0.09739765231853492,0.15250998280647918,-0.35267931641162426,0.2747290324661701
386,10.429141999979038,-0.015282865573191067,0.07025028739712255,-0.057454511317559735,-0.03566698818990038,0.12986943430532885,-0.14902763333151756,0.0013324065894900394,-0.08746671190193124,-0.0962367063634839,0.1516735516609312,-0.3505468036945741,0.2761494853371584
387,10.433486800000535,-0.01543318246356396,0.07079688239127453,-0.05808348575241755,-0.03566002510436043,0.1294976670910103,-0.1494307976048884,0.001969877425824861,-0.08893965745764151,-0.09506983018492693,0.15080114284129312,-0.3483762016287237,0.27754305352424935
388,10.437623500009067,-0.015583464343533143,0.07134189738269615,-0.05871414907383749,-0.035650382965136944,0.12911971100625177,-0.14982903136661666,0.002603595770417719,-0.09040337438378777,-0.09389713704567731,0.1498930904330445,-0.3461677617816511,0.27890976138876905
389,10.442385900008958,-0.015733699954793484,0.0718853063685941,-0.05934648044909941,-0.03563807790480673,0.12873560528384634,-0.150222310338039,0.0032334121130575175,-0.09185770373548637,-0.09271874010396078,0.1489497434885227,-0.3439217401453267,0.28024963510094586
390,10.446042599971406,-0.015883878108363333,0.0724270835129447,-0.05998045894415888,-0.0356231266830017,0.12834538982424123,-0.15061061071720183,0.003859178446099645,-0.09330248765920021,-0.09153475240198679,0.14797146651976995,-0.34163840024104786,0.28156270460660004
391,10.450015000009444,-0.01603398768721409,0.07296720314929837,-0.06061606352565546,-0.035605546679939856,0.12794910519086736,-0.1509939091783393,0.004480748332013728,-0.09473756943141756,-0.0903452868455506,0.14695864036655795,-0.33931801460491806,0.28284900502865223
392,10.454067199956626,-0.016184017648871916,0.07350563978356384,-0.06125327306291849,-0.03558535588965891,0.12754679260528418,-0.15137218287124538,0.005097976973471656,-0.09616279349596421,-0.08915045618079047,0.1459116618265819,-0.3369608631847858,0.2841085756038845
393,10.45787039998686,-0.01633395702799026,0.07404236809677162,-0.06189206632997004,-0.03556257291295643,0.12713849394219465,-0.151745409420556,0.005710721277778034,-0.09757800548916912,-0.08795037298275235,0.14483094193786694,-0.33456723097903907,0.2853414570049496
394,10.46263490000274,-0.01648379493889205,0.07457736294781629,-0.06253242200752471,-0.035537216950080414,0.126724251724378,-0.15211356692502467,0.006318839912479624,-0.09898305225727268,-0.08674514965472142,0.14371690450686636,-0.33213740708977935,0.28654769072711467
395,10.466586499998812,-0.016633520578080624,0.07511059937617724,-0.06317431868498642,-0.0355093077932006,0.12630410911755796,-0.15247663395679897,0.006922193357388293,-0.100377781873611,-0.08553489842195627,0.14256998569764204,-0.3296716857829177,0.2877273214174488
396,10.471162999980152,-0.016783123226718443,0.07564205260461765,-0.06381773486244213,-0.03547886581866053,0.12587810992519058,-0.15283458956064336,0.007520643956727426,-0.10176204366496035,-0.08431973131138637,0.14139063380921804,-0.32717036850722386,0.28888039908487495
397,10.474987099994904,-0.01693259225307271,0.0761716980418613,-0.0644626489526521,-0.03544591197900931,0.12544629858311043,-0.15318741325304455,0.008114055969278059,-0.10313568824574111,-0.08309976012671645,0.1401793087019765,-0.3246337638031182,0.2900069789872754
398,10.479254100006074,-0.017081917114926917,0.07669951128524648,-0.06510903928303599,-0.03541046779483094,0.1250087201540302,-0.15353508502122445,0.008702295615690052,-0.10449856754359342,-0.08187509642907566,0.1389364814208196,-0.322062185491428,0.2911071205881975
399,10.484027999977116,-0.017231087361957595,0.07722546812335637,-0.06575688409765491,-0.035372555346377274,0.12456542032197114,-0.15387758532208243,0.009285231125451637,-0.10585053481831312,-0.08064585152091644,0.1376626339865853,-0.3194559526058229,0.29218088687093713
400,10.487508799997158,-0.017380092638075325,0.07774954453862604,-0.06640616155918856,-0.035332197265001405,0.12411644538660314,-0.15421489508107247,0.00986273278244232,-0.10719144468685782,-0.07941213643244567,0.13635825891013462,-0.31681538983438085,0.2932283437967702
401,10.49190839997027,-0.017528922683729267,0.0782717167099251,-0.06705684975090775,-0.03528941672440664,0.12366184225746439,-0.15454699569103114,0.010434672967806391,-0.10852115314600508,-0.07817406191009044,0.13502385873465833,-0.3141408262438769,0.2942495594135934
402,10.495874899963384,-0.017677567338174417,0.07879196101511596,-0.06770892667864176,-0.035244237431718485,0.12320165844811037,-0.15487386901095748,0.011000926201647665,-0.10983951758660478,-0.07693173841044293,0.13365994599446707,-0.3114325943528777,0.2952446030192431
403,10.499901300005147,-0.017826016541700872,0.07931025403358721,-0.0683623702727405,-0.03519668361838214,0.12273594207021346,-0.1551954973647899,0.01156136918555561,-0.11114639680842388,-0.07568527609577909,0.13226704348773313,-0.30869103013212,0.2962135452314154
404,10.504121600009968,-0.017974260337824354,0.0798265725487621,-0.06901715839003161,-0.035146780030876,0.12226474182758676,-0.15551186354014837,0.012115880846599184,-0.11244165103440197,-0.07443478482741411,0.1308456844096872,-0.3059164720776153,0.29715645789703715
405,10.508289599965792,-0.018122288875437195,0.08034089355058155,-0.06967326881577202,-0.03509455192123834,0.12178810701016352,-0.15582295078705521,0.012664342380975762,-0.11372514191768272,-0.07318037416198506,0.12939641217879802,-0.3031092607706225,0.2980734136270701
406,10.512404999986757,-0.01827009241091901,0.08085319423796186,-0.07033067926559418,-0.03504002503741283,0.1213060874879617,-0.15612874281664602,0.013206637296539734,-0.11499673255216017,-0.07192215334872774,0.1279197799964616,-0.300269740082869,0.2989644855883056
407,10.5165087999776,-0.018417661310206286,0.0813634520212269,-0.07098936738744686,-0.03498322561341675,0.12081873370497453,-0.15642922379986748,0.0137426514527398,-0.11625628748966967,-0.07066023132751445,0.12641635013473135,-0.2973982576390288,0.2998297470643215
408,10.520717600011269,-0.018564986050820194,0.08187164452451427,-0.07164931076353039,-0.03492418035934983,0.12032609667299012,-0.15672437836617176,0.014272273097143445,-0.11750367275443267,-0.06939471672983176,0.12488669320100165,-0.2944951644229849,0.3006692710129349
409,10.525109299982432,-0.018712057223851948,0.08237774958815541,-0.07231048691222636,-0.034862916451254576,0.1198282279653602,-0.15701419160222255,0.01479539289917582,-0.11873875585692867,-0.06812571788054873,0.12333138732046886,-0.2915608146167121,0.30148312981386516
410,10.529216299997644,-0.01885886553590514,0.08288174527102925,-0.07297287329002204,-0.034799461520840756,0.11932517971070294,-0.15729864905060434,0.015311903979752722,-0.11996140580698178,-0.06685334280102186,0.12175101693736108,-0.2885955654133634,0.30227139420237864
411,10.53270410001278,-0.019005401810994485,0.08338360985288917,-0.07363644729342922,-0.03473384364509587,0.11881700458656129,-0.1575777367085547,0.01582170193491435,-0.1211714931260571,-0.06557769921985213,0.1201461715993714,-0.28559977701786604,0.3030341321541083
412,10.537076999957208,-0.01915165699240058,0.08388332183666329,-0.07430118626089785,-0.034666091335810445,0.11830375581300209,-0.1578514410267642,0.01632468485521158,-0.12236888986035234,-0.0642988945853905,0.11851744592836319,-0.28257381311134716,0.30377140972329786
413,10.541485900001136,-0.019297622144480355,0.08438085995072742,-0.07496706747472483,-0.03459623352902508,0.11778548714616417,-0.1581197489082141,0.016820753349092776,-0.12355346959700905,-0.06301703606942892,0.11686544126472449,-0.2795180427500605,0.3044832930118439
414,10.54571609996492,-0.019443288454432855,0.08487620315115092,-0.07563406816295784,-0.03452429957435859,0.11726225287172075,-0.1583826477070073,0.017309810576151264,-0.12472510749321143,-0.061732230563107615,0.11519076730664311,-0.27643284265825635,0.3051698493016622
415,10.549864500004333,-0.019588647234019752,0.08536933062391465,-0.07630216550129428,-0.034450319224174825,0.11673410779818222,-0.15864012522717172,0.017791762284330544,-0.12588368031172545,-0.060444584671060744,0.11349404190259835,-0.2733185969510366,0.30583114675509576
416,10.553529099968728,-0.019733689921239805,0.08586022178710029,-0.07697133661497499,-0.03437432262259715,0.11620110725005901,-0.1588921697214418,0.018266516841422553,-0.12702906644766143,-0.059154204709849105,0.11177588948668982,-0.270175695351431,0.30646725256148927
417,10.558319700008724,-0.01987840808195676,0.08634885629305065,-0.07764155858067294,-0.03429634029440977,0.11566330706093877,-0.15913876989004858,0.018733985259083364,-0.12816114594898392,-0.0578611967177294,0.1100369397346604,-0.26700453342048397,0.30707823110680627
418,10.562389499973506,-0.020022793411480264,0.08683521403050072,-0.07831280842837676,-0.03421640313386975,0.11512076356647633,-0.1593799148795837,0.019194081213002298,-0.1292798005452138,-0.056565666468516275,0.10827782702573625,-0.26380551552310294,0.30766414485444493
419,10.567122999986168,-0.020166837736099442,0.0873192751266788,-0.07898506314326982,-0.03413454239343833,0.1145735335972289,-0.15961559428190625,0.01964672106238117,-0.13038491369293892,-0.05526771947392668,0.10649919018746432,-0.2605790578867051,0.30822505619788576
420,10.570921799982898,-0.02031053301456883,0.08780101994937715,-0.07965829966760457,-0.03405078967242876,0.11402167447126246,-0.15984579813302655,0.02009182386795248,-0.1314763706302994,-0.053967460981824894,0.10470167176616005,-0.2573255884391351,0.3087610272993711
421,10.575230699963868,-0.020453871339546265,0.08828042910899091,-0.0803324949025722,-0.033965176905585724,0.11346524398652769,-0.1600705169119982,0.020529311405308854,-0.13255405842113197,-0.05266499597992673,0.1028859172038956,-0.2540455442831752,0.30927211911612384
422,10.579140099987852,-0.020596844938982527,0.08875748346052435,-0.08100762571016766,-0.03387773635162079,0.11290430041309413,-0.16028974153983308,0.0209591081759836,-0.13361786598816633,-0.05136042920225312,0.10105257488557068,-0.25073937042181454,0.30975839084334017
423,10.583880399994086,-0.020739446177462602,0.08923216410556438,-0.08168366891505015,-0.033788500581698425,0.11233890248524636,-0.16050346337844784,0.021381141421176923,-0.13466768414642422,-0.05005386513752969,0.0992022966074449,-0.24740751938815597,0.310219899638815
424,10.58785650000209,-0.02088166755749827,0.0897044523942202,-0.08236060130639926,-0.0336975024678558,0.11176910939343665,-0.16071167422964966,0.021795341136786016,-0.135703405633296,-0.04874540803796159,0.09733573715430566,-0.2440504503179117,0.3106567006225519
425,10.591746699996293,-0.021023501720771737,0.09017432992702892,-0.08303839963976693,-0.03360477517136205,0.11119498077612752,-0.1609143663341567,0.022201640083566985,-0.1367249251341212,-0.04743516192763636,0.09545355278293957,-0.24066862860351085,0.3110688469658182
426,10.596170499979053,-0.02116494144933011,0.09064177855682651,-0.08371704063892534,-0.03351035213105243,0.11061657671152882,-0.16111153237065476,0.022599973789381247,-0.1377321393093495,-0.0461232306105481,0.09355639953539778,-0.23726252577675302,0.3114563898477919
427,10.600245899986476,-0.021305979666730687,0.09110678039058369,-0.08439650099771086,-0.03341426705166865,0.1100339577092113,-0.1613031654548853,0.022990280545139002,-0.13872494681913192,-0.04480971767936576,0.09164493220222855,-0.23383261892815066,0.3118193783180654
428,10.60411989997374,-0.02144660943913714,0.09156931779120625,-0.0850767573818643,-0.033316553892227214,0.10944718470163643,-0.16148925913877601,0.023372501398306128,-0.13970324834558723,-0.04349472652461633,0.08971980416672419,-0.23037939096589546,0.31215785938570284
429,10.60870270000305,-0.021586823976366756,0.09202937337929953,-0.08575778643086758,-0.033217246854414496,0.10885631903558227,-0.16166980740960635,0.02374658014753472,-0.14066694661957616,-0.04217836034270244,0.08778166765979135,-0.22690333042799654,0.3124718780903321
430,10.612937700003386,-0.02172661663288881,0.09248693003489644,-0.08643956475977682,-0.03311638037100034,0.10826142246344753,-0.16184480468920556,0.024112463338318433,-0.14161594644138406,-0.04086072214448628,0.08583117378289831,-0.22340493055379135,0.31276147773533836
431,10.616748799977358,-0.02186598090877413,0.09294197089914864,-0.08712206896105233,-0.03301398909426977,0.10766255713450318,-0.16201424583319063,0.024470100257816454,-0.14255015469966847,-0.039541914761341446,0.08386897223553053,-0.21988468910252748,0.3130267001866752
432,10.62084499996854,-0.02200491045059593,0.09339447937598083,-0.0878052756063853,-0.032910107884480205,0.10705978558603677,-0.16217812613021534,0.024819442928211415,-0.14346948039061247,-0.038222040851218025,0.081895711523773,-0.21634310779497004,0.3132675857107622
433,10.625339499965776,-0.022143399052282114,0.09384443913370728,-0.08848916124852141,-0.032804771798349154,0.10645317073444253,-0.16233644130125932,0.025160446103291625,-0.1443738346321652,-0.036901202906060915,0.07991204001494845,-0.2127806916173532,0.31348417304675197
434,10.629662099992856,-0.022281440655919044,0.094291834106611,-0.08917370242308152,-0.03269801607754026,0.10584277586624573,-0.16248918749893965,0.02549306727069913,-0.14526313067732782,-0.0355795032572657,0.07791860704977141,-0.20919794896336888,0.31367649949597376
435,10.63422000000719,-0.02241902935250678,0.09473664849648462,-0.08985887565037952,-0.03258987613713205,0.10522866462908072,-0.16263636130684586,0.025817266657886934,-0.14613728392959105,-0.034257044082343015,0.07591606361946134,-0.20559539285988615,0.313844600854358
436,10.638042400009,-0.022556159382665666,0.09517886677413351,-0.0905446574372374,-0.03248038755405374,0.10461090102258516,-0.1627779597389078,0.026133007240074824,-0.1469962119665533,-0.03293392741094405,0.07390506245275116,-0.20197354112904478,0.3139885111343319
437,10.641753499978222,-0.022692825137294065,0.09561847368083988,-0.09123102427879774,-0.03236958605548692,0.10398954938917905,-0.16291398023878134,0.02644025474694004,-0.14783983455672456,-0.03161025513386922,0.07188625790017265,-0.19833291488423174,0.31410826205272857
438,10.645361499977298,-0.02282902115817719,0.0960554542297882,-0.09191795266033366,-0.03225750750724498,0.10336467440481721,-0.16304442067929223,0.026738977669597683,-0.1486680736704664,-0.03028612901341036,0.06986030624702631,-0.19467403799496083,0.3142038827569713
439,10.650030499964489,-0.02296474213854689,0.09648979370745135,-0.09260541905905656,-0.03214418790211595,0.10273634106967613,-0.16316927936190898,0.027029147269929575,-0.14948085349228488,-0.02896165069466757,0.0678278662464636,-0.19099743768975566,0.31427539970516233
440,10.653997299959885,-0.02309998292359219,0.0969214776749375,-0.09329339994592166,-0.03202966334816327,0.10210461469880286,-0.16328855501628206,0.027310737592058328,-0.1502781004368527,-0.027636921716902192,0.06578959952962148,-0.18730364580941522,0.3143228381042912
