,time,x,y,z,vx,vy,vz,ax,ay,az,jx,jy,jz
0,15.595184999983758,0.009231390118583569,-0.06352554539988899,0.04337008701569356,0.002972601778636324,-0.005672768343315053,0.00015451641028375814,0.012842692840048412,0.02405787594248352,-0.008842101707413837,0.03388573868816428,0.1367745365166716,-0.03946895258936445
1,15.599471000023186,0.009244740843901979,-0.06355054274376006,0.043370686897158776,0.003030067939425172,-0.005564393251212438,0.00011479168256419797,0.01299384810412065,0.024668630329718666,-0.009018229272634471,0.03407090127046266,0.1378101511067107,-0.03971507194100968
2,15.603779199998826,0.0092583487037552,-0.0635750519365047,0.0433711083199723,0.003088208348464134,-0.005453290963564503,7.428101398114956e-05,0.013145822443785359,0.025283976073040434,-0.009195447629328134,0.03425394922053959,0.13883865530536535,-0.039959344706078315
3,15.607671299949288,0.009272216705649688,-0.0635990608007297,0.04337134777707371,0.0031470266284996983,-0.0053394411260228505,3.297957040623179e-05,0.013298606289741334,0.025903881086133847,-0.009373748495040328,0.03443480904448646,0.1398598439790564,-0.04020174020320622
4,15.611976300016975,0.009286347873113063,-0.06362255706881276,0.043371401739979866,0.0032065263589817414,-0.005222823529006318,-9.117445140175311e-06,0.013452189743480536,0.026528312368917555,-0.00955312345012887,0.034613406258215816,0.14087351148184352,-0.04044222737662575
5,15.615949800005184,0.009300745245498232,-0.06364552838355553,0.04337126665895152,0.003266711074589495,-0.0051034181117690005,-5.2014791876699826e-05,0.013606562573015095,0.027157236005439848,-0.009733563935835375,0.03478966540470391,0.14187945147811037,-0.04068077453014328
6,15.620323400013149,0.009315411877780937,-0.06366796229885478,0.04337093896316264,0.003327584263738601,-0.00498120496648075,-9.571719063548864e-05,0.013761714208494069,0.027790617159846584,-0.009915061250515885,0.034963510081027833,0.14287745676519814,-0.04091734918919991
7,15.6246515000239,0.009330350840350601,-0.06368984628039176,0.04337041506087262,0.0033891493670680805,-0.004856164342331069,-0.00014022932321644044,0.013917633738171002,0.028428420072699162,-0.010097606546485106,0.03513486300987397,0.14386731945074077,-0.04115191815013517
8,15.629485299927182,0.009345565218794412,-0.0637111677063398,0.04336969133960136,0.0034514097759115125,-0.004728276649642369,-0.0001855558317336396,0.01407430990465689,0.029070608058520207,-0.010281190826685337,0.03530364605672424,0.14484883114975422,-0.041384447430923704
9,15.634023600025102,0.009361058113674565,-0.06373191386809034,0.04336876416630726,0.0035143688307506652,-0.004597522463995702,-0.00023170131793995245,0.014231731101040644,0.029717143503865052,-0.010465804941092413,0.03546978025201871,0.14582178290579106,-0.04161490239926213
10,15.63746340002399,0.009376832640298594,-0.06375207197099719,0.043367629887568294,0.003578029819652159,-0.004463882530361172,-0.00027867034254148483,0.014389885367339242,0.030367987864165932,-0.010651439584524221,0.03563318586266921,0.1467859649150836,-0.041843247900652414
11,15.642024499946274,0.0093928919284827,-0.06377162913513934,0.043366284829766163,0.003642395976689514,-0.004327337767251751,-0.00032646742450268066,0.014548760387254452,0.031023101659349163,-0.010838085294186206,0.03579378244367936,0.1477411666841662,-0.04206944817957948
12,15.64586019993294,0.009409239122308042,-0.06379057239610218,0.04336472529927352,0.003707470480350958,-0.004187869270892682,-0.0003750970403389418,0.014708343485082239,0.031682444472081704,-0.011025732446778604,0.03595148890716149,0.14868717714810176,-0.042293466958336925
13,15.64948399993591,0.009425877379869907,-0.06380888870577736,0.0433629475826444,0.003773256451933976,-0.00404545831939089,-0.00042456362339598954,0.014868621623083542,0.0323459749444402,-0.011214371256743258,0.03610622361844343,0.14962378425667966,-0.042515267614370765
14,15.653879499994218,0.009442809873019712,-0.06382656493318116,0.043360947946807865,0.003839756953929727,-0.0039000863769340266,-0.00047487156312688646,0.015029581399248744,0.033013650772475936,-0.011403991774948687,0.03625790451671115,0.1505507749941323,-0.04273481298322573
15,15.659551899996586,0.009460039787099797,-0.06384358786529166,0.043358722639264886,0.0039069749883977045,-0.0037517350980082378,-0.0005260252043596989,0.015191209045741805,0.0336854287030593,-0.01159458388518371,0.03640644922583301,0.15146793571414263,-0.04295206527973168
16,15.663748499937356,0.009477570320670972,-0.0638599442079047,0.0433562678882885,0.0039749134953363085,-0.0036003863316252786,-0.0005780288465433225,0.015353490427650744,0.034361264531425316,-0.011786137302141304,0.03655177511349663,0.1523750519033275,-0.043166986383721975
17,15.667943299980834,0.009495404685232812,-0.06387562058650857,0.043353579903127375,0.0040435753510463905,-0.0034460221255621197,-0.0006308867429972069,0.015516411041957908,0.03504111309591379,-0.011978641570454274,0.036693799409516996,0.15327190776744745,-0.0433795377710639
18,15.671945699956268,0.009513546104936644,-0.06389060354717777,0.04335065487421266,0.004112963366492664,-0.003288624730634861,-0.0006846031001486019,0.01567995601734305,0.03572492827183336,-0.012172086062065492,0.03683243929688788,0.15415828652699334,-0.04358968044470589
19,15.67627659998834,0.00953199781629126,-0.0639048795574857,0.04334748897336835,0.004183080285665498,-0.0031281766049929293,-0.0007391820767588847,0.015844110113963677,0.03641266296883148,-0.012366459974650084,0.036967611892053144,0.1550339707915948,-0.04379737519082729
20,15.68032459996175,0.009550763067861335,-0.06391843500743657,0.04334407835402499,0.004253928783940371,-0.0029646604184163897,-0.0007946277831467687,0.01600885772308261,0.03710426912808959,-0.012561752331264645,0.03709923422773549,0.15589874220533342,-0.04400258256899315
21,15.684525199932978,0.009569845119958538,-0.06393125621041645,0.04334041915143697,0.004325511466436352,-0.002798059056635099,-0.0008509442804115095,0.016174182866695554,0.03779969771653745,-0.01275795197868183,0.03722722321842628,0.1567523810919843,-0.044205262734817834
22,15.688852699939162,0.009589247244325349,-0.06394332940416349,0.04333650748290316,0.004397830866372244,-0.0026283556256774926,-0.0009081355796412964,0.01634006919685162,0.03849889872089199,-0.012955047585461805,0.0373514955963392,0.15759466675065087,-0.0444053756074412
23,15.692796199931763,0.009608972723811544,-0.06395464075175766,0.04333233944799118,0.0044708894434190155,-0.0024555334562427742,-0.0009662056411193004,0.016506499994711078,0.03920182114450194,-0.013153027641776878,0.03747196785479352,0.15842537773167292,-0.044602880899098314
24,15.69752059993334,0.009629024852043352,-0.06396517634262998,0.04332791112876518,0.004544689582047561,-0.002279576108077776,-0.0010251583735305051,0.016673458169362148,0.03990841300384145,-0.013351880457746029,0.03758855614714143,0.15924429163948578,-0.044797737967327764
25,15.70115330000408,0.009649406933085245,-0.0639749221935911,0.04332321859001713,0.004619233589870609,-0.002100467374380344,-0.0010849976331529375,0.016840926255979518,0.040618621323600716,-0.013551594161944638,0.03770117621782345,0.16005118505383614,-0.04498990603172727
26,15.70543909992557,0.009670122281094335,-0.06398386424987974,0.04331825787950176,0.004694523695974096,-0.001918191286219878,-0.0011457272230512392,0.01700888641402773,0.04133239213247867,-0.013752156701667496,0.037809743476375404,0.1608458335298193,-0.0451793440852896
27,15.709718800033444,0.009691174219967322,-0.06399198838623062,0.0433130250281751,0.004770562049243089,-0.001732732116978149,-0.0012073508922702376,0.017177320426078137,0.04204967045827396,-0.013953555840649683,0.03791417303670014,0.16162801167666127,-0.04536601082541839
28,15.714351000031456,0.00971256608298,-0.06399928040796234,0.04330751605043654,0.004847350716682636,-0.0015440743868135156,-0.0012698723350082397,0.017346209696361695,0.04277040032437854,-0.014155779158715824,0.03801437974419985,0.16239749317742097,-0.04554986507759656
29,15.718754799920134,0.009734301212419262,-0.06400572605208511,0.04330172694437474,0.004924891681730815,-0.0013522028671329367,-0.0013332951898074828,0.017515535249827314,0.04349452474504395,-0.01435881405327036,0.038110278328563944,0.16315405061165064,-0.04573086557865016
30,15.723641499993391,0.009756382959207595,-0.06401131098842841,0.04329565369201689,0.005003186842571201,-0.0011571025850983048,-0.0013976230387406873,0.017685277732054003,0.04422198572029712,-0.014562647737018495,0.03820178346273388,0.1638974554751222,-0.04590897079937126
31,15.728510099928826,0.009778814682520075,-0.06401602082078875,0.04328929225958187,0.005082238010445135,-0.0009587588281436929,-0.00146285940658123,0.017855417408833844,0.044952724231382135,-0.014767267237878337,0.03828880973103793,0.1646274778842165,-0.0460841393090733
32,15.73288979998324,0.009801599749393848,-0.06401984108809755,0.043282638597736886,0.005162046907960486,-0.0007571571485222422,-0.001529007759988916,0.01802593416580062,0.045686680233046,-0.014972659399945307,0.03837127168584046,0.16534388651681142,-0.04625632983472854
33,15.737503799959086,0.009824741534330073,-0.0640227572656094,0.04327568864185785,0.005242615167400609,-0.000552283367892043,-0.0015960715066887321,0.018196807508516804,0.04642379264845448,-0.015178810883930421,0.03844908387694302,0.16604644900640728,-0.04642550138902604
34,15.741410100017674,0.009848243418888356,-0.06402475476611066,0.04326843831229337,0.005323944329033882,-0.00034412358190825585,-0.001664053994660518,0.01836801656236377,0.047163999364984416,-0.015385708169264036,0.038522160831990684,0.16673493184358326,-0.04659161322112275
35,15.745407299953513,0.00987210879127366,-0.06402581894114866,0.0432608835146323,0.005406035839421693,-0.00013266416484642907,-0.0017329585113364369,0.018539540072454456,0.0479072372282628,-0.01559333755409597,0.038590417105770596,0.16740910045482643,-0.04675462454076923
36,15.749814499984495,0.009896341045915684,-0.06402593508228137,0.04325302013997489,0.005488891049727193,8.210822575234639e-05,-0.0018027882827906475,0.01871135640396218,0.048653442038660455,-0.015801685154944775,0.03865376731956988,0.168068719458703,-0.0469144947350551
37,15.75350150000304,0.00992094358304072,-0.06402508842234793,0.04324484406520753,0.005572511214026211,0.0003002066444269231,-0.0018735464729336547,0.01888344354238348,0.04940254854761027,-0.01601073690862626,0.03871212611927564,0.16871355262644153,-0.04707118360489592
38,15.75880439998582,0.009945919808236007,-0.0640232641367598,0.04323635115328109,0.0056568974876183495,0.0005216438531181857,-0.0019452361827191392,0.019055779093494145,0.05015449045375016,-0.016220478574006783,0.038765408101521584,0.1693433629607596,-0.047224651256633374
39,15.7645575000206,0.009971273132006566,-0.06402044734481281,0.0432275372534927,0.0057420509253375005,0.0007464323164802212,-0.0020178604493539076,0.01922834028295496,0.05090920039994267,-0.016430895732967344,0.0388135277274844,0.1699579127549802,-0.04737485816116159
40,15.769572300021537,0.00999700696932452,-0.06401662311102012,0.04321839820177113,0.0058279724798594385,0.0009745841971758901,-0.0020914222455132993,0.019401103955500813,0.05166660996994387,-0.016641973792682927,0.03885639924402409,0.1705569636127409,-0.047521765390397784
41,15.77390050003305,0.010023124739170865,-0.06401177644646606,0.04320892982096556,0.005914663000005122,0.0012061113511583606,-0.002165924478571416,0.019574046573844803,0.0524266496855983,-0.016853697988690467,0.038893936604887214,0.17114027656621364,-0.047665334676376556
42,15.77845919993706,0.010049629864069704,-0.0640058923101811,0.04319912792113777,0.006002123229038535,0.0014410253229417227,-0.002241369989843825,0.019747144217166286,0.05318924900455968,-0.01706605338769397,0.038926053485500156,0.17170761213522215,-0.04780552835215987
43,15.783156199962832,0.010076525769614873,-0.06399895561053776,0.043188988299857685,0.006090353802956537,0.0016793373408622433,-0.002317761553842745,0.01992037258014662,0.05395433631801184,-0.01727902489010674,0.038952663440572244,0.1722587302681527,-0.04794230918432992
44,15.787321700016037,0.010103815883988952,-0.06399095120666771,0.0431785067425022,0.006179355248778123,0.001921058312328704,-0.0023951018775423675,0.020093706972859393,0.054721838947863685,-0.017492597231366196,0.038973680027265215,0.17279339044045675,-0.04807564038283048
45,15.792200300027616,0.010131503637474677,-0.06398186390990004,0.04316767902255722,0.006269127982833302,0.0021661988190586987,-0.0024733935996457423,0.020267122320902012,0.055491683145346526,-0.017706754984563658,0.03898901684956323,0.17331135185169447,-0.048205485886712515
46,15.799640199984424,0.010159592461958727,-0.06397167848522063,0.04315650090192304,0.006359672309053524,0.002414769112316493,-0.0025526392898734943,0.020440593165680695,0.05626379408996214,-0.017921482564301438,0.03899858756316988,0.17381237326790486,-0.04833181039369406
47,15.804695699946024,0.010188085790427922,-0.06396037965275281,0.0431449681312227,0.006450988417263095,0.0026667791081399625,-0.002632841448265026,0.02061409366458563,0.05703809588667765,-0.018136764229585628,0.03900230586814433,0.17429621284428526,-0.04845457932073721
48,15.813355699996464,0.010216987056457813,-0.06394795208925924,0.04313307645011358,0.006543076381471163,0.0029222383825534934,-0.0027140025044929727,0.020787597591210447,0.057814511563295985,-0.018352584087332445,0.039000085474385854,0.17476262834192083,-0.04857375894197553
49,15.817501000012273,0.010246299693693681,-0.06393438042966515,0.043120821587601874,0.006635936158165083,0.0031811561667715277,-0.002796124817195599,0.020961078335220294,0.058592963069578986,-0.01856892609648816,0.03899184005234621,0.17521137740362164,-0.04868931644785672
50,15.822033299948089,0.010276027135323943,-0.06391964926860287,0.0431081992623601,0.006729567584601233,0.0034435413424036615,-0.002879210673327911,0.021134508902132795,0.059373371277072005,-0.01878577407206164,0.03897748329468824,0.1756422173569464,-0.04880121992544518
51,15.826373999938369,0.010306172813545948,-0.06390374316197774,0.04309520518304736,0.00682397037709643,0.003709402436656629,-0.0029632622875299295,0.021307861913734707,0.060155655976474515,-0.01900311168906902,0.03895692906156009,0.1760549051353457,-0.0489094384766067
52,15.830624099937268,0.010336740159024176,-0.06388664662855532,0.043081835048632465,0.006919144129322449,0.0039787476175160074,-0.003048281801512898,0.02148110960915538,0.0609397358767631,-0.019220922487617746,0.03893009146191075,0.176449197869321,-0.04901394220818317
53,15.83475279994309,0.010367732600340865,-0.06386834415157021,0.043068084548719666,0.007015088310606992,0.004251584688940399,-0.0031342712834727896,0.021654223846006886,0.06172552860782164,-0.01943918987676383,0.038896884885474235,0.1768248528273216,-0.04911470202511429
54,15.83996719995048,0.01039915356343909,-0.06384882018035597,0.043053949363876985,0.007111802264238352,0.004527921086066535,-0.0032212327275108316,0.021827176101742042,0.06251295071903845,-0.019657897137755287,0.038857224108652,0.17718162680482302,-0.04921168987671075
55,15.844912100001238,0.01043100647105831,-0.06382805913199659,0.04303942516596711,0.007209285205778464,0.004807763870390978,-0.0033091680530758704,0.021999937475736572,0.06330191767650108,-0.01987702743008049,0.038811024339001035,0.1775192764396877,-0.04930487884533529
56,15.849430999951435,0.010463294742162437,-0.06380604539299935,0.04302450761848067,0.0073075362213860925,0.005091119724950267,-0.0033980791044387086,0.02217247869104295,0.06409234386439921,-0.020096563795500608,0.038758201202775185,0.1778375585668758,-0.049394242762178305
57,15.853719100006856,0.010496021791360463,-0.0637827633209891,0.04300919237687185,0.007406554266145486,0.005377994949515103,-0.0034879676501703458,0.022344770096361714,0.06488414258537538,-0.020316489160679504,0.03869867083606796,0.17813622976511684,-0.049479756364861696
58,15.857664300012402,0.01052919102831966,-0.06375819724642393,0.042993475088896255,0.007506338162407106,0.005668395455773613,-0.0035788353826397144,0.0225167816686062,0.06567722605789454,-0.02053678634261838,0.03863234991938451,0.1784150462978172,-0.049561395484674614
59,15.862188800005242,0.010562805857171443,-0.06373233147433224,0.04297735139495101,0.007606886598139099,0.0059623267625021304,-0.003670683917540273,0.02268848301518146,0.06647150541606905,-0.020757438052951514,0.03855915568741661,0.17867376468465623,-0.049639136770683566
60,15.86612239992246,0.010596869675909908,-0.06370515028607145,0.042960816928416884,0.0077081981252883,0.006259793990746906,-0.0037635147934259607,0.02285984337663595,0.0672668907121138,-0.020978426900926307,0.03847900599559644,0.17891214183938384,-0.049712957610879405
61,15.870312699931674,0.010631385875783108,-0.0636766379411079,0.042943867316002436,0.007810271158155296,0.006560801859016731,-0.003857329471264304,0.02303083162953258,0.06806329091739707,-0.021199735396997467,0.038391819280684185,0.1791299347151169,-0.04978283631944434
62,15.882525800028816,0.010666357840677132,-0.0636467786788183,0.04292649817809017,0.007913103971780976,0.006865354678473995,-0.00395212933400435,0.023201416288749766,0.06886061392173998,-0.021421345957473165,0.038297514464669946,0.1793269003438634,-0.04984875239287261
63,15.88702339993324,0.010701788946493032,-0.0636155567203125,0.04290870512908452,0.008016694700342067,0.007173456348121077,-0.004047915686171108,0.02337156550949747,0.06965876653481892,-0.02164324091038794,0.03819601093746092,0.17950279634871877,-0.04991068640159823
64,15.891103100031614,0.010737682560516625,-0.06358295627027769,0.0428904837777616,0.008121041335555617,0.007485110350003884,-0.004144689753485736,0.023541247089464225,0.07045765449002202,-0.02186540249918466,0.038087228663005936,0.17965738104248719,-0.04996861985206839
65,15.896263299975544,0.010774042040781221,-0.06354896151884387,0.042871829727620575,0.008226141725093635,0.0078003197444325495,-0.00424245268249274,0.023710428471777383,0.07125718244672906,-0.022087812887360298,0.03797108834424721,0.1797904131912998,-0.050022535403501954
66,15.899782899999993,0.010810870735423327,-0.0635135566434706,0.042852738577236725,0.008331993571013916,0.008119087165205256,-0.004341205540221495,0.023879076748617705,0.0720572539920648,-0.022310454164076385,0.03784751150418554,0.17990165229028374,-0.0500724167398019
67,15.90824459993746,0.010848171982031406,-0.0634767258108549,0.04283320592061583,0.008438594428206832,0.008441414814844537,-0.004440949313863359,0.024047158664900845,0.07285777164563155,-0.022533308347665194,0.037716420574821476,0.17999085907594098,-0.05011824842174321
68,15.912279299926013,0.010885949106987767,-0.06343845317886042,0.04281322734755011,0.008545941702858915,0.008767304459863201,-0.0045416849104643895,0.024214640622683265,0.07365863686582115,-0.022756357389925114,0.03757773899812891,0.18005779530962596,-0.05016001597570701
69,15.91695660003461,0.010924205424803655,-0.0633987228984675,0.04279279844397533,0.00865403265093885,0.009096757426056794,-0.004643413156640673,0.024381488685742074,0.07445975005262113,-0.022979583180416294,0.03743139124812311,0.1801022235803122,-0.05019770596258187
70,15.92157959996257,0.010962944237447668,-0.06335751911574415,0.04277191479232928,0.008762864376701804,0.009429774593794491,-0.0047461347983092615,0.024547668584177285,0.07526101055217188,-0.023202967551369035,0.03727730292198286,0.1801239080926246,-0.05023130617482295
71,15.9293064000085,0.011002168833667543,-0.06331482597383804,0.042750571971911296,0.00887243383121636,0.009766356393352098,-0.004849850500447171,0.02471314571980237,0.07606231666658397,-0.023426492283732673,0.03711540085582879,0.18012261482479489,-0.0502608055774002
72,15.9368321999209,0.011041882488305461,-0.06327062761498901,0.04272876555924285,0.008982737810916812,0.010106502800290294,-0.004954560846876133,0.0248778851717766,0.07686356565990066,-0.02365013911155859,0.03694561314207717,0.18009811127251368,-0.0502861939727654
73,15.943037700024432,0.011082088461606963,-0.06322490818256217,0.042706491128428996,0.00909377295618021,0.010450213330840681,-0.005060266340060593,0.025041851702149995,0.07766465376563625,-0.023873889725068296,0.03676786913923875,0.18005016715796712,-0.05030746219788829
74,15.947258500033058,0.011122789998523586,-0.06317765182310145,0.04268374425152077,0.009205535749927982,0.010797487037351094,-0.005166967400919757,0.02520500976158285,0.07846547619904691,-0.02409772577678948,0.03658209959746854,0.17997855468626242,-0.050324602478960104
75,15.951178999966942,0.011163990328009339,-0.06312884268840324,0.04266052049887831,0.009318022516253873,0.011148322503780823,-0.005274664368680181,0.025367323496007697,0.07926592716695048,-0.024321628887779896,0.0363882368064465,0.17988304842732894,-0.050337608106287686
76,15.955260599963369,0.011205692662311136,-0.06307846493761003,0.04263681543953453,0.009431229419084839,0.011502717841233292,-0.005383357500743192,0.025528756753664533,0.08006589987894652,-0.024545580650870934,0.03618621455095918,0.17976342555201005,-0.050346473099265224
77,15.959668199997395,0.011247900196253355,-0.06302650273932377,0.04261262464155946,0.009545152460871571,0.011860670683551107,-0.005493046972566337,0.025689273091367593,0.08086528655933667,-0.02476956263391076,0.03597596803949766,0.17961946569441029,-0.05035119223593952
78,15.9638756000204,0.011290616106516622,-0.06297294027373869,0.04258794367242498,0.00965978748130515,0.012222178182954787,-0.005603732877559659,0.025848835780905303,0.08166397845711997,-0.024993556383270922,0.03575743403739275,0.1794509509321759,-0.050351761082618185
79,15.969302500016056,0.011333843550910947,-0.0629177617347935,0.04256276809937004,0.009775130156064512,0.012587237005726745,-0.005715415226998342,0.026007407816491572,0.08246186585773778,-0.025217543427352922,0.03553055098482622,0.179257666160692,-0.05034817588542016
80,15.974475299939511,0.01137758566764337,-0.06286095133234262,0.042537093489766205,0.009891175995599395,0.012955843327954512,-0.005828093949950185,0.026164951922215688,0.08325883809639838,-0.025441505279129945,0.035295258945199054,0.17903939923125642,-0.05034043338305866
81,15.9789653000189,0.01142184557458027,-0.06280249329434619,0.04251091541148351,0.010007920343944088,0.013327992831333266,-0.005941768893210864,0.02632143055903424,0.08405478357105117,-0.025665423437987743,0.03505149968654722,0.1787959408918875,-0.05032853084633277
82,15.982807299937122,0.011466626368504452,-0.06274237186907866,0.04248422943325658,0.010125358377562585,0.01370368069902449,-0.006056439821247781,0.02647680593294537,0.08484958975518467,-0.025889279392617738,0.03479921686856106,0.17852708482663468,-0.050312466156952014
83,15.987444399972446,0.01151193112436718,-0.06268057132735572,0.042457031125051,0.010243485104235056,0.014082901611572362,-0.0061721064161610675,0.026631040003644618,0.08564314321115045,-0.026113054623559204,0.034538355941647475,0.17823262761623057,-0.050292237433022635
84,15.991045100032352,0.011557762894535362,-0.06261707596477914,0.04242931605842974,0.01036229536198002,0.01446564974288096,-0.0062887682776500515,0.026784094491801125,0.08643532960261105,-0.02633673060276031,0.03426886401644762,0.17791236870862884,-0.05026784296013851
85,15.99577889998909,0.011604124708033995,-0.06255187010399951,0.04240107980691988,0.010481783818005547,0.0148519187562414,-0.006406424922970355,0.02693593088655257,0.08722603370760182,-0.026560288795507217,0.03399068997457265,0.17756611063571845,-0.050239281723515786
86,16.00023330003023,0.011651019569784012,-0.06248493809699647,0.042372317946379384,0.010601944967698113,0.01524170180042525,-0.006525075786917523,0.0270865104537666,0.0880151394329069,-0.02678371066471954,0.033703784522821634,0.1771936590919854,-0.05020655320095278
87,16.00487039994914,0.011698450459835735,-0.06241626432737613,0.042343026055363955,0.010722773133647312,0.015634991505839576,-0.006644720221822342,0.027235794244018126,0.08880252982782094,-0.027006977671037397,0.03340810019578882,0.1767948227770237,-0.05016965699832027
88,16.008871200028807,0.011746420332598043,-0.062345833212685574,0.042313199715493896,0.010844262464705674,0.016031779980742792,-0.006765357497535241,0.027383743100873974,0.08958808709712392,-0.027230071273873828,0.03310359146162666,0.17636941331678146,-0.050128593135342216
89,16.012351999990642,0.011794932116063464,-0.062273629206743925,0.04228283451182106,0.010966406935087093,0.01643205880751514,-0.006886986801430969,0.027530317669811153,0.09037169261414214,-0.027452972934044438,0.032790214884544804,0.17591724559839092,-0.050083362104655395
90,16.01608590001706,0.011843988711029317,-0.06219963680199002,0.042251926033195705,0.01108920034350599,0.016835819038990753,-0.007009607238416399,0.027675478407947242,0.09115322693670208,-0.027675664115345264,0.03246792924821234,0.17543813805590028,-0.05003396467475259
91,16.02122699993197,0.011893592990315146,-0.06212384053184613,0.042220469872633344,0.011212636312362311,0.017243051194870067,-0.0071332178309492416,0.027819185594056592,0.09193256982273354,-0.02789812628542921,0.03213669558271319,0.17493191263100177,-0.04998040164371055
92,16.0246860999614,0.011943747797976615,-0.06204622497309754,0.042188461627681445,0.011336708286969806,0.017653745258190707,-0.007257817519053645,0.02796139933854053,0.09270960024587406,-0.02812034091519282,0.03179647723831402,0.1743983949404837,-0.04992267392785982
93,16.028861099970527,0.01199445594851607,-0.06196677474828766,0.04215589690078616,0.011461409534829731,0.01806789067187874,-0.007383405160333455,0.028102079594099875,0.09348419641256195,-0.028342289480441617,0.031447240053177665,0.17383741445347767,-0.04986078255184622
94,16.03270139999222,0.01204572022608998,-0.06188547452812832,0.04212277129965888,0.01158673314495408,0.01848547633537163,-0.007509979530002628,0.028241186167197292,0.09425623577921763,-0.028563953461188438,0.03108895248138958,0.17324880459007694,-0.04979472830387325
95,16.036958999931812,0.012097543383713466,-0.0618023090339249,0.0420890804376427,0.011712672027241269,0.018906490601322358,-0.007637539320892251,0.02837867872986886,0.09502559507021409,-0.02878531434025147,0.030721585642202624,0.17263240275088107,-0.04972451188355497
96,16.041509000002407,0.012149928142462197,-0.06171726304001592,0.04205481993407893,0.011839218911904455,0.019330921272382257,-0.007766083143468483,0.028514516831624565,0.0957921502953211,-0.029006353603868034,0.030345113342148334,0.17198805050418567,-0.0496501337834958
97,16.045192099991255,0.012202877190671835,-0.06163032137622688,0.04201998541467339,0.011966366348953102,0.019758755598060333,-0.007895609525845032,0.028648659911456584,0.09655577676934106,-0.02922705273923903,0.029959512079990556,0.1713155939307986,-0.0495715939740778
98,16.049406499951147,0.012256393183135306,-0.06154146893033771,0.04198457251186278,0.012094106707728133,0.02018998027168081,-0.008026116913779252,0.028781067309783855,0.0973163491326211,-0.029447393232338272,0.029564761086236936,0.170614883515732,-0.049488891834636596
99,16.053537699976005,0.012310478740298121,-0.06145069065056371,0.04194857686518105,0.01222243217648977,0.020624581427424935,-0.008157603670665127,0.0289116982808119,0.09807374136972531,-0.02966735656484459,0.029160842342730302,0.16988577408904137,-0.0494020260055234
100,16.058843299979344,0.012365136447451975,-0.06135797154804933,0.04191199412162584,0.012351334762062655,0.021062544637454658,-0.008290068077502075,0.029040512004651693,0.09882782682942041,-0.02988692421063497,0.028747740479212868,0.16912812516080392,-0.04931099434868125
101,16.062525099958293,0.012420368853926911,-0.06126329669937468,0.041874819936025084,0.0124808062895315,0.021503854909132248,-0.008423508332856733,0.02916746759875921,0.09957847824632837,-0.0301060776323659,0.028325442679747723,0.16834180085227093,-0.0492157936816077
102,16.066024699946865,0.012476178472282213,-0.061166651249074055,0.041837049971403806,0.012610838401988,0.021948496682336616,-0.00855792255280134,0.029292524129221738,0.10032556776029952,-0.03032479827559957,0.027893938579343854,0.16752666975771605,-0.04911641948193088
103,16.071626999997534,0.012532567777496314,-0.06106802041216632,0.04179867989935129,0.012741422560326891,0.022396453826855296,-0.008693308770823267,0.029415640621277685,0.10106896693683601,-0.03054306756275682,0.02745322014553044,0.1666826052597393,-0.049012865847994275
104,16.075612399959937,0.012589539206155879,-0.060967389476696665,0.04175970540038868,0.012872550043086458,0.022847709639882474,-0.008829664937709597,0.029536776069549256,0.1018085467892702,-0.03076086688689266,0.027003281614409916,0.16580948536202295,-0.04890512542956198
105,16.07947170000989,0.012647095155644295,-0.060864743806289194,0.04172012216433715,0.013004211946335635,0.023302246843608293,-0.008966988921401277,0.02965588944799333,0.10254417779770017,-0.030978177605032714,0.02654411943168106,0.16490719243305244,-0.04879318923106679
106,16.08317460003309,0.012705237983329743,-0.06076006884271017,0.04167992589068682,0.01313639918360304,0.023760047582885347,-0.009105278506818413,0.029772939719609412,0.10327572992888795,-0.03119498103019822,0.026075732277098175,0.16397561354097928,-0.04867704638507391
107,16.08697259996552,0.012763970005753062,-0.060653350108441376,0.04163911228896649,0.01326910248585046,0.024221093422995027,-0.009244531395643466,0.029887885846608123,0.10400307265817431,-0.031411258422726976,0.0255981210866284,0.16301464052255754,-0.048556684112528864
108,16.091427400009707,0.012823293497815585,-0.06054457320926319,0.04159767707911445,0.013402312401492342,0.024685365347508988,-0.00938474520606933,0.030000686800316288,0.10472607498999037,-0.03162699098194468,0.02511128905989947,0.16202416963851954,-0.048432087634330656
109,16.095305699971505,0.012883210691967172,-0.06043372383684699,0.0415556159918505,0.013536019296457409,0.025152843756237987,-0.009525917472508427,0.030111301571411692,0.10544460547670621,-0.03184215983669912,0.024615241771180792,0.16100410165242482,-0.0483032399644715
110,16.099389099981636,0.012943723777394599,-0.06032078777135651,0.04151292476904933,0.013670213354299212,0.025623508463261047,-0.009668045645256569,0.030219689180815565,0.10615853223984403,-0.03205674603519109,0.02410998718145686,0.15995434219487747,-0.0481701218014563
111,16.104420899995603,0.013004834899210574,-0.06020575088405773,0.04146959916411551,0.013804884576354653,0.026097338695063033,-0.009811127090111579,0.030325808690034758,0.1068677229921672,-0.032270730534542526,0.023595535574433536,0.15887480164541481,-0.04803271147914287
112,16.108012399985455,0.013066546157643534,-0.06008859913993684,0.04142563494236028,0.013940022781946556,0.026574313088760335,-0.00995515908794434,0.03042961921148487,0.10757204505784254,-0.03248409419019004,0.0230718995222239,0.1577653949949651,-0.04789098501600388
113,16.112316299928352,0.013128859607228463,-0.059969318600325894,0.04138102788138038,0.014075617608634029,0.027054409690417832,-0.010100138834223045,0.030531079918527135,0.10827136539330574,-0.03269681774589137,0.022539093769413543,0.156626041993159,-0.04774491611513469
114,16.116024899994954,0.013191777255998922,-0.059847895425535744,0.04133577377143903,0.014211658512504338,0.02753760595346022,-0.01024606343849534,0.030630150054760077,0.10896555060873424,-0.032908881823118956,0.021997135117351702,0.15545666737488753,-0.04759447591794311
115,16.12029679992702,0.013255301064680456,-0.05972431587749586,0.04128986841584938,0.014348134768505936,0.028023878737180014,-0.01039292992381821,0.030726788943026925,0.10965446699092826,-0.03312026690887496,0.021446042360072512,0.15425720104806764,-0.047439632846452015
116,16.124620800022967,0.013319432945885591,-0.05959856632240051,0.0412433076313606,0.014485035470820477,0.02851320430535245,-0.010540735226131701,0.030820955994137162,0.11033798052645435,-0.033330953343681816,0.02088583621048378,0.1530275781620653,-0.047280352662474386
117,16.1284161999356,0.013384174763310554,-0.0594706332333609,0.04119608724854685,0.014622349533273437,0.029005558324949395,-0.010689476193581966,0.030912610715217243,0.11101595692513515,-0.03354092130992375,0.02031653920917967,0.15176773921625922,-0.04711659851685071
118,16.132778299972415,0.013449528330933916,-0.059340503193062825,0.041148203112199404,0.01476006568978043,0.029500915864963246,-0.010839149585791264,0.031001712717620842,0.11168826164415877,-0.03375015082027536,0.019738175716923934,0.1504776301292456,-0.04694833109724225
119,16.136929800035432,0.013515495412217289,-0.05920816289642925,0.041099651081722144,0.014898172494828204,0.029999251395335335,-0.010989752073078046,0.031088221725212698,0.11235475991218433,-0.033958621707358076,0.01915077197647155,0.14915720223827494,-0.04677550864783712
120,16.141074399929494,0.013582077719308245,-0.05907359915328749,0.041050427031530605,0.015036658323994655,0.03050053878599429,-0.011141280235634932,0.03117209758282889,0.11301531675344634,-0.03416631361234407,0.018554356060696033,0.14780641226037056,-0.04659808679194914
121,16.145424799993634,0.01364927691224564,-0.05893679889104037,0.04100052685145477,0.015175511374505103,0.03100475130599891,-0.011293730562647408,0.031253300264099164,0.11366979701151426,-0.034373205973034344,0.017948957862684918,0.14642522240067202,-0.04641601876856281
122,16.14954549993854,0.013717094598167487,-0.05879774915734101,0.040949946447145974,0.015314719665821893,0.03151186162278791,-0.01144709945136573,0.0313317898798191,0.11431806537436086,-0.034579278014567234,0.01733460927820289,0.1450136004899386,-0.04622925569838615
123,16.15439029992558,0.013785532330521518,-0.058656437122770674,0.04089868174048795,0.015454271040275162,0.03202184180154581,-0.011601383206140955,0.031407526687395805,0.1149599863993451,-0.034784508739863544,0.0167113443262014,0.14357151992577183,-0.04603774655421803
124,16.158026300021447,0.013854591608278672,-0.05851285008351918,0.0408467286700123,0.015594153163736479,0.032534663304675,-0.011756578037411834,0.031480471100292264,0.11559542453775758,-0.0349888769200714,0.016079199176016155,0.14209895966274808,-0.045841438279158514
125,16.16205339995213,0.013924273875149653,-0.05836697546406747,0.04079408319131858,0.015734353526333636,0.03305029699137997,-0.011912680060655835,0.03155058369771501,0.11622424415971565,-0.03519236108606314,0.015438212243443687,0.1405959042026869,-0.045640276161029045
126,16.166195899946615,0.013994580518804776,-0.058218800819871706,0.04074074127749908,0.015874859443210484,0.03356871311736087,-0.012069685295300378,0.031617825234913265,0.11684630957862223,-0.03539493952221136,0.01478842432113206,0.139062343456555,-0.04543420424627394
127,16.170942199998535,0.014065512870097285,-0.05806831384004855,0.0406866989195686,0.01601565805533335,0.03408988133461538,-0.012227589663618487,0.031682156654026704,0.11746148507483231,-0.03559659026156829,0.01412987864279337,0.13749827284245766,-0.04522316532013427
128,16.174825299996883,0.014137072202290369,-0.05791550235006104,0.04063195212689907,0.016156736330347393,0.03461377069134279,-0.012386388989597137,0.03174353909495589,0.11806963492098359,-0.0357972910794655,0.013462620959580512,0.13590369360174626,-0.04500710090668764
129,16.17845679994207,0.014209259730288108,-0.05776035431440475,0.040576496927659356,0.016298081063479727,0.035140349631971275,-0.012546078997775956,0.03180193390688958,0.11867062340847538,-0.03599701948869357,0.01278669976409579,0.1342786127402878,-0.04478595137737369
130,16.183260899968445,0.01428207660987052,-0.05760285783929338,0.04052032936926027,0.01643967887849834,0.03566958599729754,-0.012706655312072693,0.03185730266116815,0.11926431487227675,-0.03619575273406737,0.01210216649483858,0.13262304309586645,-0.0445596558226994
131,16.188449800014496,0.014355523936933035,-0.057443001175343664,0.04046344551880479,0.016581516228729665,0.03620144702473481,-0.012868113454573563,0.031909607164629886,0.11985057371800507,-0.0363934677864643,0.01140907566699732,0.13093700348694864,-0.04432815216061247
132,16.196264400030486,0.0144296027467306,-0.05728077272025881,0.040405841463543826,0.016723579398136238,0.0367358993486934,-0.013030448844305674,0.031958809473638064,0.12042926444805775,-0.03659014133835377,0.010707485064376457,0.12922051839790136,-0.04409137716621915
133,16.200317499926314,0.014504314013126742,-0.057116161021509994,0.04034751331133738,0.016865854502459074,0.037272909001061214,-0.013193656795987597,0.03200487190913483,0.12100025168589015,-0.03678574979809982,0.009997456002725884,0.12747361812555136,-0.0438492664717795
134,16.204004899947904,0.01457965864784783,-0.0569491547790155,0.04028845719112142,0.01700832749042925,0.037812441411800284,-0.013357732518751103,0.032047757073011114,0.12156340020345124,-0.03698026928549057,0.009279053522288699,0.12569633890830922,-0.04360175474387144
135,16.208469399949536,0.014655637499742922,-0.056779742847816936,0.04022866925338041,0.01715098414505593,0.03835446140967138,-0.013522671114851963,0.032087427864873626,0.12211857494661038,-0.037173675627617093,0.00855234643461151,0.12388872248252886,-0.04334877567366051
136,16.21198939997703,0.01473225135404949,-0.05660791424075193,0.04016814567062566,0.017293810084987128,0.03889893322305679,-0.013688467578355012,0.03212384749883124,0.12266564105864584,-0.03736594435431625,0.007817407391137681,0.12205081615078406,-0.04309026230216058
137,16.216186399920844,0.014809500931665366,-0.056433658131123,0.04010688263787957,0.017436790765947077,0.03944582048089389,-0.013855116793804408,0.032156979520872236,0.1232044639062791,-0.03755705069694345,0.00707431297204866,0.12018267297972597,-0.04282614731562548
138,16.220239499933086,0.014887386888427263,-0.05625696385536197,0.040044876373165776,0.017579911482251596,0.03999508621372953,-0.014022613534897779,0.03218678782644116,0.12373490910492364,-0.037746969586443586,0.006323143824330198,0.118284351652374,-0.042556362897689375
139,16.224390499992296,0.014965909814396198,-0.05607782091568945,0.039982123118005204,0.017723157368401847,0.040546692854878295,-0.014190952463139311,0.03221323667904441,0.12425684254340515,-0.037935675650808284,0.005563984900559532,0.11635591646759016,-0.0422808407493099
140,16.228943999973126,0.01504507023315019,-0.05589621898276893,0.039918619137918214,0.01786651340076523,0.041100602241696794,-0.014360128126491284,0.032236290729951586,0.12477013040920559,-0.03812314321332426,0.004796925569790906,0.11439743745850246,-0.04199951198039709
141,16.23277479992248,0.01512486860108465,-0.05571214789835496,0.03985436072293264,0.01800996439934443,0.0416567756169665,-0.014530134958011568,0.03225591503778765,0.125274639214237,-0.0383093462890664,0.004022059615235335,0.11240899053048843,-0.04171230707010572
142,16.237144400016405,0.015205305306720807,-0.05552559767793491,0.03978934418809806,0.018153495029632614,0.042215173630397396,-0.014700967274473955,0.03227207508821362,0.1257702358213133,-0.03849425858279283,0.0032394853202544626,0.11039065753953912,-0.04141915598528516
143,16.241841699928045,0.015286380670022604,-0.05533655851336377,0.039723565874006106,0.01829708980455759,0.0427757563402463,-0.014872619274986934,0.03228473681428382,0.12625678747062116,-0.03867785348649187,0.002449305569214085,0.10834252644110687,-0.04111998808198827
144,16.245760399964638,0.015368094941722428,-0.05514502077549153,0.03965702214731701,0.018440733086518116,0.043338483215056046,-0.015045085039592199,0.032293866617023874,0.1267341618075162,-0.03886010407640081,0.001651627860193592,0.10626469132893862,-0.04081473212505103
145,16.251250899978913,0.01545044830265612,-0.0549509750167825,0.039589709401292424,0.018584409089511138,0.04390331313552109,-0.015218358527856893,0.03229943138590102,0.12720222690933938,-0.03904098311072703,0.0008465643960632941,0.10415725241464695,-0.04050331612067749
146,16.258180300006643,0.015533440863107628,-0.054754411973926095,0.03952162405633445,0.018728101881350233,0.04447020439646528,-0.015392433577451844,0.032301398520212445,0.12766085131303137,-0.03922046302517735,3.423231091232833e-05,0.10202031632453827,-0.04018566695181848
147,16.26258500001859,0.015617072662163759,-0.054555322570438554,0.03945276256053112,0.01887179538598313,0.045039114708953165,-0.015567303902704036,0.03229973595157011,0.12810990404458986,-0.03939851592743506,-0.000785246162520646,0.09985399610862547,-0.03986171015161811
148,16.266415199963376,0.01570134366707945,-0.054353697919254935,0.03938312139020832,0.019015473385910215,0.04561000120252985,-0.015742963093125704,0.032294412166778724,0.12854925464676412,-0.039575113590673616,-0.0016117437444822906,0.09765841105365812,-0.039531369824605284
149,16.27056780003477,0.015786253772654035,-0.05414952932531091,0.039312697050488336,0.01915911952470558,0.04618282042757868,-0.015919404611909098,0.032285396229861194,0.12897877320684883,-0.03975022744733254,-0.0024451283566283497,0.09543368686090492,-0.039194568794489335
150,16.274347999948077,0.015871802800618947,-0.0539428082881138,0.039241486075855196,0.019302717309631498,0.04675752835780838,-0.0160966217944002,0.03227265780272633,0.1293983303859604,-0.03992382858394602,-0.0032852632653956235,0.09317995585223134,-0.03885122865337943
151,16.27861179993488,0.015957990499037247,-0.05373352650430221,0.039169485030726765,0.01944625011434336,0.04733408039287123,-0.01627460784654748,0.03225616716591875,0.12980779744866425,-0.040095887735356744,-0.0041320071288115,0.09089735691135672,-0.03850126952510321
152,16.286367199965753,0.016044816541715395,-0.05352167587019379,0.0390966905100339,0.01958970118168875,0.04791243136111379,-0.016453355843324136,0.0322358952388701,0.13020704629172844,-0.04026637527743874,-0.004985213983647243,0.08858603537597058,-0.03814460962228704
153,16.291470299940556,0.016132280527627673,-0.05330724848432041,0.039023099139806595,0.01973305362659256,0.0484925355224509,-0.016632858727112093,0.03221181360076323,0.1305959494727912,-0.04043526121737052,-0.0058447330512573815,0.08624614318490201,-0.037781164950696104
154,16.29516490001697,0.016220381980353634,-0.05309023664995033,0.0389487075777675,0.019876290439041704,0.04907434657137145,-0.016813109306037716,0.03218389451251092,0.13097438024042396,-0.040602515183727435,-0.006710408806520797,0.08387783882866696,-0.037410849377763705
155,16.299528499948792,0.01630912034752908,-0.05287063287759662,0.038873512513932874,0.02001939448716577,0.04965781764007986,-0.01699410025226766,0.032152110937006664,0.13134221256235873,-0.04076810641736455,-0.007582081359601331,0.08148128717293998,-0.03703357489890696
156,16.30360430001747,0.016398495000310907,-0.052648429887511415,0.03879751067122127,0.0201623485204019,0.05024290130175299,-0.017175824100263457,0.03211643655770684,0.13169932115398067,-0.04093200376387839,-0.008459586766262232,0.07905665957636449,-0.036649252002271336
157,16.307747500017285,0.01648850523285626,-0.05242362061216534,0.03872069880607003,0.02030513517274078,0.05082954957393512,-0.017358273245010308,0.032076845796120634,0.13204558150760368,-0.04109417566773496,-0.009342757264020344,0.07660413366359534,-0.036257789904979174
158,16.312428499921225,0.016579150261816247,-0.05219619819871156,0.038643073709059686,0.020447736966047122,0.05141771392205533,-0.017541439940219422,0.03203331382829116,0.1323808699189436,-0.0412545901668334,-0.010231421445190604,0.07412389321729976,-0.03585909670074985
159,16.316008299938403,0.01667042922584463,-0.05196615601143391,0.03856463220554649,0.02059013631345229,0.05200734526305799,-0.017725316296508444,0.03198581660074578,0.132705063515433,-0.04141321488794739,-0.011125404379871123,0.07161612822743528,-0.035453079517902886
160,16.320751099963672,0.016762341185121744,-0.051733487634178635,0.03848537115630301,0.02073231552281669,0.05259839396917207,-0.017909894279563233,0.03193433084588302,0.13301804028313285,-0.04157001704269457,-0.01202452777315938,0.06908103468453569,-0.03503964458821563
161,16.32609109999612,0.01685488512089397,-0.05149818687276902,0.038405287458166966,0.02087425680025929,0.05319080987178108,-0.01809516570828243,0.03187883409652416,0.13331967909320805,-0.04172496342359055,-0.01292861012329338,0.06651881491405609,-0.034618697226983984
162,16.330163699924015,0.01694805993502906,-0.051260247757402656,0.038324378044698376,0.021015942253749482,0.053784542265427934,-0.01828112225290413,0.03181930469989313,0.13360985973181383,-0.04187802039984094,-0.013837466873959085,0.0639296775076346,-0.034190141833238444
163,16.333800100022927,0.017041864449587586,-0.051019664545030464,0.03824263988684505,0.02115735389676098,0.05437953991195075,-0.01846775543311301,0.031755721830813044,0.1338884629259598,-0.0420291539133973,-0.01475091062642643,0.06131383706757139,-0.03375388215587734
164,16.337313399999402,0.01713629740641076,-0.05077643172171716,0.03816006999361657,0.021298473651981096,0.05497575104471785,-0.018655056616131916,0.03168806550379871,0.13415537037112285,-0.04217832947711695,-0.015668751386007717,0.058671514738226314,-0.03330982167758078
165,16.340891400002874,0.01723135746672488,-0.050530544004982594,0.03807666541276676,0.02143928335507221,0.055573123373009264,-0.018843017014812613,0.03161631658406042,0.13441046476183913,-0.042325512174234595,-0.016590796793039406,0.056002938196017316,-0.03285786373331902
166,16.345307199982926,0.01732704321076262,-0.05028199634612324,0.03799242323148467,0.021579764758478965,0.056171604086523864,-0.01903162768572267,0.03154045679754138,0.13465362981922793,-0.042470666657576525,-0.01751685235482871,0.053308341393550056,-0.03239791146113301
167,16.349485300015658,0.01742335313740135,-0.050030783932513416,0.03790734057709405,0.021719899535279034,0.05677113986000576,-0.01922087952722922,0.031460468739857916,0.1348847503193072,-0.04261375714859434,-0.018446721839732883,0.05058796482618555,-0.03192986772302638
168,16.354064199957065,0.01752028566381869,-0.049776902189885654,0.03782141461776139,0.021859669283069847,0.057371676858003366,-0.01941076327757725,0.03137633588283075,0.13510371212288905,-0.04275474743587531,-0.019380207666322764,0.04784205553107308,-0.031453635075638434
169,16.357760399929248,0.01761783912516541,-0.049520346784589546,0.03773464256321249,0.021999055527877485,0.057973160739761775,-0.019601269512960116,0.03128804257996278,0.1353104022038867,-0.04289360087391518,-0.020317111085536656,0.0450708669495332,-0.030969115858781263
170,16.362099000019953,0.017716011774255747,-0.04926111362582858,0.037647021665457664,0.022138039728092127,0.05857553666423367,-0.019792388645586897,0.031195574071349777,0.13550470867798567,-0.04303028038241625,-0.02125723241727983,0.04227465907520041,-0.030476212431988597
171,16.36618070001714,0.017814801781275334,-0.048999198867874426,0.03755854921952552,0.02227660327842064,0.05917874929522679,-0.01998411092174667,0.031098916487053097,0.13568652083226856,-0.04316474844716475,-0.022200371153861125,0.03945369838458292,-0.029974827617947935
172,16.370270999963395,0.017914207233506688,-0.04873459891225797,0.03746922256420536,0.022414727513852036,0.059782742806678404,-0.020176426419883684,0.030998056851090118,0.1358557291532686,-0.043296967123274174,-0.02314632597949541,0.03660825784734505,-0.029464864948734317
173,16.374669199925847,0.0180142261350724,-0.04846731040993666,0.037379039082798104,0.022552393713645563,0.06038746088805238,-0.020369325048690472,0.030892983084633438,0.1360122253566859,-0.04342689803825337,-0.024094895085882067,0.033738617073645005,-0.028946228665719845
174,16.378775399993174,0.018114856406696116,-0.04819733026343754,0.037287996203875656,0.022689583105324623,0.060992846749878045,-0.020562796545210333,0.030783684007193595,0.13615590241675174,-0.04355450239524908,-0.025045876329771333,0.03084506200907084,-0.02841882400548236
175,16.38273259997368,0.01821609588548127,-0.047924655628975306,0.0371960914020487,0.022826276868675388,0.061598843129408505,-0.020756830472959294,0.030670149338416396,0.13628665459323083,-0.043679740978657774,-0.025999067095075514,0.02792788476732437,-0.02788255758396895
176,16.38696000003256,0.018317942324707626,-0.04764928391854499,0.03710332219874278,0.02296245613975671,0.06220539229639975,-0.02095141622007851,0.03055236970049244,0.1364043774592969,-0.0438025741607861,-0.026954264420679375,0.024987383658859573,-0.027337337465398827
177,16.391308599966578,0.01842039339364569,-0.047371212801988624,0.03700968616298254,0.023098102014920168,0.06281243605901697,-0.0211465429975155,0.030430336618817316,0.1365089679287897,-0.043922961908075736,-0.027911265448729575,0.02202386283701784,-0.02678307312312579
178,16.39587270002812,0.018523446677389026,-0.04709044020903535,0.036915180912183966,0.023233195554825864,0.06341991576985619,-0.02134219983723192,0.030304042520412675,0.13660032428094232,-0.044040863787415646,-0.028869867730700917,0.019037631844818086,-0.02621967563630079
179,16.39953199995216,0.01862709967670439,-0.04680696433131452,0.0368198041129546,0.023367717788448414,0.06402777233207055,-0.021538375590440945,0.030173480731863357,0.136678346183606,-0.04415623897411665,-0.02982986923177947,0.016029005368189533,-0.02564705799553968
180,16.403838300029747,0.018731349807899696,-0.0465207836243413,0.036723553481901455,0.023501649717074385,0.06463594620559861,-0.021735058925886022,0.030038645477699473,0.1367429347157819,-0.044269046260943176,-0.03079106817298578,0.012998303433223883,-0.025065135359155423
181,16.407705300021917,0.0188361944027097,-0.04623189680947436,0.036626426786446516,0.023634972318293906,0.06524437741349108,-0.021932238328158597,0.02989953187973815,0.13679399239260082,-0.04437924406836758,-0.03175326285449833,0.009945851623028258,-0.024473825496237736
182,16.41201720002573,0.018941630708199486,-0.04594030287584518,0.03652842184564965,0.023767666549992236,0.06585300554836136,-0.022129902096068084,0.029756135957037518,0.13683142318978445,-0.044486790457543966,-0.032716251596217626,0.0068719807033363,-0.023873049200926654
183,16.41896529996302,0.019047655886685676,-0.04564600108225837,0.03642953653103862,0.02389971335434097,0.06646176977892992,-0.022328038341075038,0.029608454625767257,0.13685513256529405,-0.0445916431442483,-0.03367983277695168,0.003777026542910387,-0.023262730429957006
184,16.4234804000007,0.01915426701567541,-0.045348990959062724,0.036329768767445904,0.024031093661788457,0.06707060885666744,-0.022526634985785145,0.029456485698813945,0.13686502748308352,-0.044693759513075984,-0.034643804878993094,0.0006613303321696292,-0.02264279658829567
185,16.42956860002596,0.019261461087823065,-0.04504927230999243,0.036229116533852114,0.024161788395047495,0.0676794611225505,-0.02272567976250871,0.02930022788525501,0.13686101643669324,-0.04479309663392328,-0.03560796669017152,-0.002474761812503081,-0.02201317908148606
186,16.433218499994837,0.01936923501090471,-0.04474684521397806,0.036127577864235656,0.024291778473081064,0.06828826451391466,-0.022925160211901288,0.029139680788166405,0.13684300946948263,-0.044889611281099105,-0.036572117697884696,-0.005630899342473347,-0.02137381380781618
187,16.43758040003013,0.019477585607810287,-0.044441710026926776,0.03602515084842822,0.024421044815070517,0.06889695657139021,-0.0231250636816932,0.02897484490059086,0.13681091819383148,-0.0449832599541853,-0.037536058113646915,-0.008806726987745065,-0.02072464130597777
188,16.441246400005184,0.01958650961655338,-0.04413386738347162,0.035921833632975755,0.02454956834436545,0.06950547444592597,-0.02332537732551576,0.028805721603127145,0.13676465581394465,-0.04507399889846213,-0.03849958844447288,-0.012001884216799718,-0.020065606706200147
189,16.445483300019987,0.019696003690298527,-0.04382331819868924,0.03581762442200439,0.024677329992430434,0.07011375490592801,-0.023526088101812535,0.028632313163711738,0.13670413714985924,-0.0451617841253338,-0.03946250921714456,-0.01521600506163407,-0.0193966599665791
190,16.44960179994814,0.019806064397406106,-0.04351006366978563,0.0357125214780911,0.02480431070279295,0.07072173434449705,-0.02372718277284727,0.02845462273766129,0.136629278661806,-0.0452465714348566,-0.040424620889588224,-0.018448717897197982,-0.01871775601096843
191,16.45378179999534,0.019916688221494776,-0.04319410527774951,0.035606523123138466,0.02493049143499049,0.07132934878678386,-0.023928647903815603,0.028272654368242757,0.13653999847617876,-0.04532831643739121,-0.04138572369786082,-0.021699645146690677,-0.018028854738704643
192,16.45796829997562,0.020027871561521474,-0.0428754447889726,0.035499627739253234,0.02505585316852358,0.07193653389745779,-0.024130469862045624,0.028086412988077257,0.13643621641251788,-0.04540697457621736,-0.04234561756770485,-0.024968402958964242,-0.01732992129083535
193,16.461776899988763,0.020139610731879032,-0.04255408425683656,0.035391833769628185,0.02518037690681536,0.07254322498830218,-0.024332634816310785,0.027895904420497088,0.13631785401234983,-0.04548250115155483,-0.043304102035828754,-0.02825460107739237,-0.016620926119238943
194,16.466253499966115,0.0202519019625114,-0.042230026023265685,0.03528313971942681,0.025304043681176672,0.07314935702593951,-0.024535128736244194,0.027701135381649946,0.13618483456733727,-0.045554851343793036,-0.044260976131432844,-0.03155784276255927,-0.01590184519310079
195,16.47021409997251,0.020364741399046538,-0.041903272720245105,0.035173544156670386,0.025426834554784384,0.07375486463967727,-0.02473793739185818,0.027502113482910026,0.1360370831488065,-0.04562398023934902,-0.04521603854373004,-0.034877724477016155,-0.015172660284736116
196,16.47914489998948,0.02047812510294704,-0.0415738272713037,0.03506304571312694,0.02554873062666791,0.07435968212949577,-0.024941046353188653,0.027298847231491796,0.13587452663870228,-0.045689842856440066,-0.04616908799142957,-0.038213835893707436,-0.014433358989618918
197,16.48270860000048,0.02059204905167849,-0.04124169289296121,0.03495164308520148,0.025669713035693004,0.07496374347416945,-0.025144440990043974,0.02709134602957379,0.13569709375904032,-0.04575239417111986,-0.047119923415064706,-0.04156575994769133,-0.013683935140086983
198,16.488432699930854,0.02070650913889553,-0.04090687309613889,0.03483933503482719,0.025789762964540483,0.07556698233951674,-0.025348106471880953,0.026879620173201245,0.1355047151024019,-0.045811589146731856,-0.04806834396717492,-0.04493307252880783,-0.012924389041503878
199,16.49229419999756,0.020821501174645613,-0.040569371687533246,0.03472612039035676,0.025908861643680253,0.07616933208679265,-0.025552027767815764,0.02666368085149724,0.1352973231641207,-0.04586738276204656,-0.04901414890347265,-0.04831534202846877,-0.01215472720642833
200,16.49581989995204,0.02093702088559044,-0.04022919277095201,0.0346119980474535,0.026026990355343022,0.07677072578122501,-0.025756189646750288,0.02644354014653362,0.13507485237680966,-0.045919730038349815,-0.04995713740077835,-0.0517121287498823,-0.011374962206993298
201,16.50089869997464,0.02105306391524503,-0.0398863407486119,0.034496966969981536,0.02614413043749317,0.07737109620071428,-0.02596057667762403,0.02621921103416198,0.13483723914779513,-0.04596858606626669,-0.05089710839480467,-0.055122984561456874,-0.01058511253680074
202,16.50433239992708,0.021169625824234515,-0.03954082032239725,0.034381026190894684,0.026260263287807863,0.07797037584470277,-0.026165173229779112,0.025990707385327827,0.13458442189672729,-0.04601390603162103,-0.051833860555128335,-0.05854745278984108,-0.009785202630554336
203,16.50814139994327,0.02128670209056862,-0.03919263649507882,0.0342641748131234,0.026375370367661605,0.07856849694320914,-0.02636996347344227,0.025758043967124226,0.1343163410939659,-0.046055645242434044,-0.05276719221620104,-0.061985068051628,-0.008975262795118394
204,16.512184599996544,0.02140428810993389,-0.03884179457149204,0.034146412010459364,0.02648943320611473,0.0791653914660391,-0.02657493138033005,0.02552123644471977,0.13403293929968818,-0.046093759154170445,-0.05369690120036684,-0.06543535607627776,-0.008155329012719587
205,16.516157199977897,0.021522379196003666,-0.038488300159673895,0.03402773702843704,0.026602433403915115,0.07976099113216785,-0.026780060724355417,0.025280301383986854,0.13373416120384998,-0.046128203394986154,-0.05462278465985468,-0.06889783338177721,-0.007325443098338608
206,16.52087270002812,0.02164097058076592,-0.03813215917195769,0.033908149185211976,0.02671435263751005,0.08035522741930637,-0.02698533508245758,0.025035256254835422,0.13341995366817927,-0.04615893379237475,-0.05554463891425458,-0.07237200701656704,-0.006485652581416269
207,16.524585700011812,0.02176005741486892,-0.037773377826024815,0.033787647872435,0.026825172663077605,0.0809480315736574,-0.027190737835545688,0.02478611943528723,0.1330902657684334,-0.04618590639736269,-0.0564622593522097,-0.07585737449152098,-0.005636010361218256
208,16.529109700000845,0.021879634767984924,-0.03741196264591271,0.033666232556122104,0.026934875320574758,0.08153933461985775,-0.027396252169543906,0.024532910215684236,0.13274504883699786,-0.04620907750808956,-0.05737544024408621,-0.07935342361339415,-0.004776574696838995
209,16.533828199957497,0.021999697629191874,-0.03704792046297819,0.033543902777519334,0.027043442537806207,0.08212906737111327,-0.027601861076544908,0.02427564880442955,0.13238425650662525,-0.04622840369391434,-0.058283974559641585,-0.08285963221797453,-0.003907409364950523
210,16.537361299968325,0.022120240907373287,-0.03668125841681521,0.033420658153962425,0.02715085633452356,0.08271716043953026,-0.027807547356069436,0.024014356333818036,0.1320078447554082,-0.046243841820399145,-0.059187653933528754,-0.08637546774599825,-0.0030285836498032373
211,16.541428399970755,0.022241259431636413,-0.03631198395612629,0.0332964983797305,0.027257098826546033,0.08330354424665064,-0.028013293616442062,0.023749054866084154,0.13161577195429153,-0.04625534907332656,-0.06008626851772113,-0.08990038703662252,-0.0021401721266669964
212,16.545185199938715,0.022362747951748797,-0.03594010483954656,0.033171423226893426,0.027362152229913454,0.08388814903420605,-0.028219082276264438,0.023479767400545557,0.13120799891388257,-0.04626288298175662,-0.060979606892497006,-0.09343383649519109,-0.0012422547012338235
213,16.552328099962324,0.02248470113859338,-0.035565629136419474,0.03304543254615244,0.027465998865070503,0.08447090487506946,-0.02842489556599619,0.023206517880442906,0.13078448893047073,-0.0462664014423947,-0.0618674561061012,-0.09697525178802027,-0.00033491669784309396
214,16.55728690000251,0.022607113584642288,-0.03518856522752345,0.032918526267673436,0.027568621161080577,0.08505174168441874,-0.028630715529644975,0.022929331199730587,0.13034520783555328,-0.046265862743433486,-0.06274960172418793,-0.10052405750594816,0.0005817512090189004
215,16.561850299942307,0.02272997980444943,-0.03480892180574824,0.03279070440191252,0.027670001659870453,0.0856305892311289,-0.028836524026559496,0.02264823320947664,0.12989012404484837,-0.046261225588311375,-0.06362582794250682,-0.10407966724481532,0.001507652974778166
216,16.56606159999501,0.022853294235162053,-0.03442670787672021,0.032661967040433386,0.02777012302050108,0.08620737714937171,-0.02904230273333094,0.022363250723650908,0.12941920860710476,-0.04625244911973186,-0.06449591747903749,-0.1076414834182235,0.002442687284051106
217,16.570468300022185,0.02297705123705132,-0.03404193275937554,0.03253231435671594,0.027868968023463753,0.08678203495044222,-0.029248033145799688,0.022074411526484632,0.12893243525478074,-0.04623949294253867,-0.06535965113064993,-0.1112088970485442,0.0033867477867526924
218,16.57490579993464,0.023101245094062108,-0.03365460608648024,0.032401746606955814,0.027966519575016374,0.08735449203480927,-0.029453696581160278,0.021781744382203018,0.12842978045471323,-0.046222317145634496,-0.0662168075804717,-0.11478128771029718,0.004339723324301321
219,16.58110139996279,0.02322587001438216,-0.03326473780509617,0.03227026413085427,0.028062760711566218,0.08792467770439281,-0.029659274180163127,0.02148527904409869,0.1279112234593005,-0.04620088232284356,-0.0670671635069379,-0.118358023381652,0.005301498225871442
220,16.586198000004515,0.02335092013103087,-0.03287233817699182,0.032137867352398125,0.02815767460408693,0.0884925211750698,-0.029864746909405108,0.021185046263294025,0.12737674635849247,-0.046175149592194584,-0.06791049358825856,-0.12193846013780726,0.006271952396749776
221,16.591555999941193,0.023476389502467745,-0.03247741777899702,0.03200455678062927,0.02825124456257924,0.08905795158941403,-0.030070095563702832,0.020881077797774872,0.12682633413370137,-0.04614508061599726,-0.06874657047283808,-0.1255219418367954,0.007250961308298628
222,16.59605209995061,0.02360227211322086,-0.03207998750330045,0.03187033301040349,0.028343454040568327,0.08962089802968173,-0.030275300768561848,0.02057340642141606,0.1262599747125875,-0.046110637620214494,-0.06957516462205447,-0.1291077999673187,0.008238396215045908
223,16.600029399967752,0.023728561874535353,-0.03168005855768876,0.03173519672313801,0.028434286639644854,0.09018128953103884,-0.030480342982722276,0.020262065934413917,0.12567765902432376,-0.04607178341260746,-0.07039604422102132,-0.13269535355881296,0.009234124174411447
224,16.603720400016755,0.02385525262504227,-0.03127764246572641,0.031599148687547644,0.02852372611405514,0.0907390550950382,-0.030685202500789446,0.019947091173105724,0.12507938105518143,-0.0460284814019323,-0.07120897517407411,-0.13628390901873608,0.010238008135109215
225,16.607876599999145,0.023982338131447893,-0.030872751066874902,0.031462189760368985,0.028611756375329547,0.09129412370334146,-0.03088985945595033,0.0196285180204424,0.12446513790524241,-0.04598069561529868,-0.0720137208535813,-0.13987275981858804,0.01124990717356435
226,16.612043699948117,0.024109812089243784,-0.0304653965165505,0.03132432088707235,0.02869836149696585,0.09184642433170084,-0.031094293822758617,0.019306383418042784,0.12383492984677857,-0.04592839071526308,-0.0728100420551064,-0.14346118644901917,0.01226967639560526
227,16.616017999942414,0.024237668123437764,-0.030055591286119097,0.031185543102561185,0.028783525719164853,0.0923958859642004,-0.031298485420003214,0.01898072537706525,0.12318876038136328,-0.045871532018061975,-0.07359769715050424,-0.14704845651345075,0.013297166798794372
228,16.620309500023723,0.02436589978930609,-0.02964334816282722,0.03104585753185852,0.028867233453610495,0.09294243760774593,-0.031502413913655554,0.01865158298889989,0.12252663629741786,-0.04581008551193002,-0.07437644196993246,-0.15063382452575957,0.014332225301486859
229,16.62541209999472,0.02449450057316697,-0.02922868024966798,0.030905265390780125,0.028949469288300594,0.09348600830681822,-0.03170605881990108,0.018318996437089854,0.12184856772912311,-0.04574401787507466,-0.07514602961899175,-0.15421653193446946,0.01537469488571284
230,16.62883940001484,0.024623463893175723,-0.028811600965180813,0.030763767986594005,0.029030217992433004,0.09402652715848712,-0.03190939950824646,0.01798300700965047,0.12115456821375055,-0.045673296492723094,-0.07590621046417668,-0.15779580746865907,0.016424414681204293
231,16.632965500000864,0.024752783100141753,-0.028392124043183854,0.030621366718665916,0.029109464521345982,0.09456392332767485,-0.03211241520470273,0.017643657111120016,0.12044465474749635,-0.04559788947434929,-0.0766567321873973,-0.1613708672662934,0.017481220009573167
232,16.636843199958093,0.02488245147836767,-0.027970263532437877,0.030478063079090522,0.02918719402151155,0.09509812606266681,-0.03231508499504582,0.01730099027439375,0.11971884784167086,-0.045517765670327906,-0.07739733973610186,-0.16494091488790508,0.01854494242397614
233,16.641306899953634,0.025012462246510693,-0.027546033796240675,0.03033385865330792,0.029263391835581146,0.0956290647108748,-0.032517387828147816,0.016955051173218456,0.11897717157841078,-0.045432894688808415,-0.07812777521045908,-0.16850514164688526,0.019615409664367953
234,16.645415699924342,0.02514280855846666,-0.02711944951195075,0.030188755120705152,0.029338043507490162,0.09615666873484358,-0.032719302519387636,0.01660588563503021,0.11821965366393009,-0.04534324691276711,-0.07884777793734249,-0.17206272700378697,0.020692445697208278
235,16.6497970999917,0.025273483504276852,-0.026690525670439277,0.03004275425520238,0.029411134787617806,0.09668086772848777,-0.03292080775413403,0.016253540652790686,0.11744632548072409,-0.04524879351652798,-0.07955708449426167,-0.1756128386501281,0.021775870710378262
236,16.65348169999197,0.025404480111057892,-0.026259277575469343,0.029895857925823423,0.029482651637996946,0.09720159143356293,-0.03312188209130319,0.015898064397612006,0.11665722214007475,-0.045149506482859945,-0.0802554285869011,-0.17915463281922847,0.02286550112782025
237,16.661953300004825,0.02553579134395494,-0.025825720843001367,0.029748068097250262,0.029552580237586296,0.09771876975636958,-0.03332250396699392,0.015539506231682583,0.11585238253148923,-0.04504535861936746,-0.08094254134944363,-0.1826872550634012,0.02396114973813355
238,16.66767669992987,0.025667410107118493,-0.025389871400423713,0.029599386830361247,0.02962090698759527,0.0982323327846641,-0.033522651698191026,0.015177916718219987,0.1150318493682905,-0.04493632357444364,-0.0816181517581928,-0.18620984092490944,0.02506262577320825
239,16.671309099998325,0.025799329244704954,-0.024951745485707662,0.029449816282752655,0.029687618516844705,0.09874221080476848,-0.03372230348654245,0.014813347630716785,0.11419566923108639,-0.04482237585296127,-0.08228198671059858,-0.1897215164382514,0.026169734962043056
240,16.674955099937506,0.025931541541901127,-0.024511359646485802,0.02929935870924328,0.029752701687173987,0.09924833431886786,-0.03392143742220226,0.01444585196219031,0.11334389260889131,-0.04470349083174709,-0.08293377116801126,-0.1932213986468223,0.027282279520932443
241,16.683115800027736,0.026064039725972894,-0.024068730739053093,0.02914801646236181,0.02981614359888407,0.09975063406248613,-0.03412003148774544,0.014075483933158411,0.11247657393799863,-0.044579644775360146,-0.08357322831837874,-0.1967085961560638,0.02840005822298173
242,16.68792349996511,0.026196816467338135,-0.023623875927289782,0.028995791992816586,0.02987793159621555,0.10024904102212942,-0.03431806356215131,0.01370229899944171,0.11159377163818096,-0.04445081485094755,-0.08420007964987997,-0.200182209693244,0.029522866501188058
243,16.691495699924417,0.026329864380664144,-0.023176812681505496,0.02884268784994753,0.029938053272861108,0.10074348645308372,-0.03451551142485041,0.01332635385948423,0.11069554814658213,-0.04431697914310573,-0.08481404500054043,-0.20364133250263425,0.030650496551796635
244,16.69572600000538,0.026463176025989597,-0.022727558777203807,0.02868870668215991,0.02999649647750872,0.10123390189735985,-0.0347123527598402,0.012947706461714214,0.10978196995040163,-0.044178116667816666,-0.08541484246443724,-0.2070850505036534,0.03178273752680325
245,16.700318399933167,0.02659674390987128,-0.022276132293766668,0.028533851237339643,0.030053249319419592,0.101720219201782,-0.03490856515985594,0.012566416012699262,0.10885310761937955,-0.04403420738559641,-0.08600218835220727,-0.21051244239797617,0.03291937558768711
246,16.70520339999348,0.026730560486555692,-0.021822551613058048,0.028378124363249952,0.03010830017404391,0.1022023705362216,-0.03510412613060331,0.012182542984858503,0.1079090358375281,-0.04388523221495324,-0.08657579736855861,-0.21392258008908213,0.03406019399902906
247,16.708861300023273,0.026864618159175725,-0.021366835417946137,0.02822152900790902,0.0301616376886674,0.10268028841196822,-0.03529901309504911,0.011796149123038406,0.10694983343188377,-0.04373117304470329,-0.08713538287814294,-0.2173145295297499,0.035204973449351806
248,16.712180899921805,0.02699890928097251,-0.020909002690743535,0.028064068219948456,0.03021325078808559,0.1031539057002193,-0.0354932033977634,0.011407297449859483,0.10597558339669869,-0.04357201274457417,-0.08768065730480254,-0.22068735153413263,0.03635349235126577
249,16.716059800004587,0.027133426156542594,-0.020449072711564955,0.027905745148952336,0.030263128680297936,0.10362315565066621,-0.03568667430930453,0.01101605226873999,0.10498637291496773,-0.0434077351748502,-0.08821133229895707,-0.22404010202917676,0.037505526786678796
250,16.721569899935275,0.027268161043110424,-0.01998706505660205,0.02774656304577664,0.030311260862208977,0.10408797191017552,-0.035879403030647135,0.010622479167753385,0.10398229338038303,-0.04323832519746348,-0.08872711866852663,-0.2273718323018148,0.03866085040905914
251,16.72507859999314,0.02740310615182626,-0.019522999596314913,0.027586525262848906,0.030357637125356787,0.1045482885415704,-0.03607136669766583,0.010226645023266607,0.10296344041666178,-0.043063768686508686,-0.08922772685190207,-0.23068159004772545,0.03981923481782901
252,16.729563999921083,0.027538253649089628,-0.019056896493539796,0.027425635254447772,0.030402247561646504,0.10500404004248388,-0.03626254238565674,0.009828617999589508,0.10192991389016985,-0.042884052536003206,-0.08971286743535524,-0.23396842067151533,0.04098044995186832
253,16.733370100031607,0.027673595657898235,-0.018588776201512877,0.027263896576962397,0.030445082569075656,0.10545516136425252,-0.03645290711389024,0.009428467548009722,0.10088181791768194,-0.04269916466690087,-0.09018225136973623,-0.23723136805496314,0.04214426419348243
254,16.737287299940363,0.027809124259222367,-0.018118659461809888,0.02710131288913151,0.03048613285745911,0.10590158793083872,-0.0366424378501949,0.009026264404514133,0.09981926087217007,-0.0425090940339271,-0.09063559033000929,-0.2404694748343722,0.04331044445711239
255,16.741141099948436,0.027944831493404737,-0.01764656730220152,0.026937887952262037,0.03052538945413412,0.10634325565777589,-0.03683111151557104,0.008622080585624947,0.09874235538809606,-0.042313830631803384,-0.09107259682373146,-0.24368178264619708,0.044478756316965976
256,16.745289999991655,0.028080709361585642,-0.017172521034424498,0.026773625630427105,0.03056284370964823,0.10678010097113787,-0.03701890498883002,0.008215989385156022,0.09765121836501477,-0.04211336550094688,-0.09149298428954007,-0.2468673327908129,0.0456489641105471
257,16.750552500016056,0.028216749827153415,-0.01669654225186822,0.026608529890643395,0.030598487303435465,0.10721206082651615,-0.03720579511125855,0.0078080653691726945,0.09654597096696096,-0.04190769073277381,-0.09189646755030856,-0.2500251671555595,0.04682083116586906
258,16.753942899988033,0.02835294481722008,-0.016218652827176983,0.026442604803027646,0.030632312249459396,0.1076390727279838,-0.03739175869130514,0.007398384368716374,0.09542673861784019,-0.041696799473377524,-0.09228276328620381,-0.25315432911816327,0.04799412009169331
259,16.759173600003123,0.028489286224122022,-0.015738874909767907,0.026275854540932314,0.030664310901824594,0.10806107474703174,-0.03757677250927712,0.006987023470555565,0.09429365099277792,-0.04148068592624963,-0.09265159062086778,-0.2562538644351005,0.04916859301859861
260,16.762813100009225,0.028625765906945554,-0.01525723092326468,0.026108283381060287,0.030694475960337406,0.10847800554145565,-0.03776081332205134,0.006574061004695189,0.09314684200560659,-0.041259345353813266,-0.09300267163869796,-0.2593228221144965,0.0503440118163776
261,16.76641959999688,0.028762375693077064,-0.014773743562847443,0.02593989570355863,0.030722800476006284,0.10888980437418093,-0.03794385786778479,0.00615957653052535,0.09198644979244858,-0.04103277407821006,-0.09333573183813665,-0.2623602553623317,0.051520138157585535
262,16.770456500002183,0.02889910737977753,-0.014288435792519056,0.025770695992091388,0.030749277856479327,0.10929641113200358,-0.03812588287063234,0.005743650820297736,0.0908126166907848,-0.04080096948226798,-0.0936505006437363,-0.2653652225423186,0.05269673357671379
263,16.774298499920405,0.029035952735781027,-0.013801330842288238,0.025600688833891366,0.030773901871397596,0.1096977663442289,-0.038306865045465925,0.005326365840718524,0.08962548921449767,-0.040563930009761856,-0.09394671169206198,-0.26833678816768214,0.05387355957406629
264,16.77865480002947,0.029172903502916885,-0.013312452205270008,0.025429878919790937,0.030796666657668885,0.1100938112011903,-0.038486781102594646,0.0049078047338810965,0.08842521802411578,-0.04032165516545702,-0.09422410304873699,-0.27127402397167216,0.05505037773366193
265,16.78280809998978,0.029309951397755114,-0.012821823634704061,0.02525827104423183,0.030817566724651402,0.11048448757262332,-0.038665607752484336,0.004488051796927893,0.08721195789233246,-0.04007414551432084,-0.09448241755794273,-0.2741760098886344,0.056226949777234865
266,16.787019399926066,0.029447088113274674,-0.012329469140891737,0.025085870105253944,0.030836596959246586,0.11086973802587764,-0.03884332171047061,0.004067192459873617,0.08598586766552192,-0.03982140268108595,-0.09472140342842533,-0.27704183498830265,0.05740303755967362
267,16.79133209993597,0.029584305320554217,-0.011835412988052359,0.02491268110446321,0.030853752630885477,0.1112495058439487,-0.0390198997014746,0.0036453132600533697,0.08474711022094533,-0.03956342934950233,-0.09494081480525704,-0.2798705984356772,0.05857840320699915
268,16.795285500003956,0.02972159467048472,-0.01133967969109978,0.024738709146978455,0.030869029396394205,0.11162373504330898,-0.03919531846470929,0.0032225018148588835,0.0834958524197269,-0.03930022926067295,-0.09514041204079235,-0.2826614104242389,0.05975280910593045
269,16.79982509999536,0.029858947795503517,-0.010842294012340076,0.024563959441357367,0.03088242330473779,0.11199237039152123,-0.0393695547583805,0.0027988467937759545,0.08223226505575718,-0.0390318072123987,-0.09531996195563167,-0.2854133930678085,0.06092601786496925
270,16.803745199926198,0.029996356311349136,-0.010343280958091382,0.024388437299501558,0.030893930801636844,0.11235535742461515,-0.039542585364387366,0.0023744378887988757,0.08095652280073419,-0.03875816905786025,-0.09547923829212988,-0.2881256812261293,0.062097792319655065
271,16.807822600007057,0.0301338118188364,-0.009842665775226989,0.024212148136540705,0.030903548734048155,0.11271264246421167,-0.03971438709301158,0.0019493657824329919,0.07966880414572154,-0.03847932170491624,-0.09561802204399725,-0.29079742324979313,0.06326789531499323
272,16.812324299942702,0.030271305905651143,-0.009340473947642824,0.024035097470695883,0.030911274354496702,0.11306417263437966,-0.03988493678761167,0.0015237221151766672,0.07836929133956193,-0.03819527311672086,-0.09573610141711528,-0.2934277813547299,0.06443608961201285
273,16.815995799959637,0.030408830148163837,-0.00883673119265057,0.02385729092312195,0.030917105325266925,0.11340989587821225,-0.0400542113293177,0.001097599453872461,0.07705817032710337,-0.03790603231185339,-0.09583327165732913,-0.2960159311847865,0.06560213774558026
274,16.819935099920258,0.0305463761132616,-0.00833146345729767,0.023678734217729105,0.03092103972245316,0.11374976097413396,-0.04022218764172669,0.0006710912607212318,0.07573563069150449,-0.03761160936620087,-0.09590933493670893,-0.29856106121510206,0.06676580180726538
275,16.824410100001842,0.03068393536019788,-0.007824696914615358,0.023499433180983503,0.030923076039875232,0.1140837175519637,-0.040388842695614116,0.0002442918626452479,0.07440186559776894,-0.037312015415019446,-0.09596410065457371,-0.30106237388521384,0.06792684367650134
276,16.828798300004564,0.030821499442459273,-0.007316457959795756,0.02331939374168689,0.030923213192856305,0.11441171610871954,-0.04055415351364764,-0.00018270358237592552,0.0730570717249694,-0.037007262652760387,-0.0959973865750095,-0.30351908899761965,0.06908502545423807
277,16.832998599973507,0.030959059909648826,-0.0068067732062992835,0.023138621930735282,0.030921450521838968,0.1147337080240787,-0.04071809717509704,-0.0006097991260628408,0.07170144917954491,-0.036697364331273234,-0.09600902017183485,-0.305930447005203,0.07024010982795661
278,16.836805999977514,0.03109660830938504,-0.006295669481894207,0.0229571238808567,0.030917787795800466,0.1150496455754109,-0.04088065082053201,-0.0010368980754664697,0.07033520139827655,-0.036382334756384284,-0.09599883907741909,-0.30829571000704975,0.0713918601847533
279,16.841328599955887,0.03123413618921555,-0.005783173824630302,0.022774905826328042,0.030912225215462812,0.11535948195237515,-0.04104179165650158,-0.0014639030377187655,0.06895853505272502,-0.0360621892850936,-0.095966690786436,-0.31061416112833684,0.07254004027130356
280,16.845246299984865,0.03137163509854468,-0.005269313478748532,0.022591974102671195,0.030904763416309874,0.11566317127110287,-0.04120149696020704,-0.0018907159630272535,0.06757165995772345,-0.03573694432517883,-0.09591243243425966,-0.31288510405539105,0.07368441385882823
281,16.84956699993927,0.031509096590573986,-0.004754115890528522,0.02240833514632833,0.030895403471414954,0.11596066858798053,-0.041359744084177814,-0.0023172381874539756,0.06617478897995152,-0.03540661733537299,-0.09583593087143123,-0.31510786339053315,0.07482474475781904
282,16.85404320002999,0.03164651222425495,-0.004237608704075613,0.022223995494316404,0.03088414689407728,0.11625192991301937,-0.04151651046094593,-0.002743370476572615,0.06476813794327128,-0.035071226824837286,-0.09573706285028716,-0.31728178543365126,0.07596079688729092
283,16.85785669996403,0.03178387356625298,-0.0037198197570493872,0.022038961783860878,0.03087099564026116,0.1165369122227958,-0.04167177360771725,-0.0031690130699078742,0.06335192553034757,-0.034730792352722785,-0.09561571515807066,-0.31940623905985416,0.07709233418589692
284,16.862250500009395,0.03192117219292182,-0.0032007770763355895,0.021853240752008656,0.030855952110837095,0.11681557347294584,-0.04182551113104203,-0.0035940657257768974,0.061926373180175326,-0.034385334528434,-0.09547178472076451,-0.3214806166625165,0.07821912048420217
285,16.86616839992348,0.032058399692287486,-0.002680508873663489,0.021666839235220243,0.030839019153621992,0.1170878726101938,-0.04197770073148849,-0.0040184277666524505,0.0604917049813097,-0.03403487501232697,-0.09530517883403114,-0.3235043350752812,0.07934091953387899
286,16.87055909994524,0.03219554766604081,-0.0021590435411707833,0.021479764168941106,0.03082020006521666,0.11735376958389679,-0.042128320208319574,-0.0044419981260590225,0.05904814756119032,-0.0336794365157131,-0.09511581558227089,-0.3254768364363924,0.08045749508607485
287,16.875547399977222,0.03233260773153774,-0.0016364096469182457,0.021292022587152227,0.030799498592628795,0.11761322535708875,-0.04227734746416657,-0.004864675397664378,0.057595929971681406,-0.03331904280085997,-0.09490362402595055,-0.32739758901497024,0.08156861088746442
288,16.879135399940424,0.03246957152380633,-0.0011126359303563716,0.02110362162189988,0.03077691893467371,0.11786620191700659,-0.04242476050970588,-0.0052863578838423225,0.05613528357104463,-0.032953718681030336,-0.0946685442607303,-0.32926608791194295,0.08267403077852081
289,16.883184399921447,0.032606430697559474,-0.000587751297746375,0.020914568502804567,0.030752465743165255,0.11811266228508407,-0.04257053746833296,-0.0057069436452903115,0.05466644190324304,-0.03258349001960861,-0.09441052788999442,-0.33108185565473264,0.08377351883061236
290,16.887175199924968,0.03274317692921253,-6.178481753791775e-05,0.020724870556549226,0.030726144123875098,0.11835257052640422,-0.042714656580831345,-0.006126330553796332,0.05318964057462297,-0.03220838372892009,-0.09412953825153915,-0.33284444284400494,0.08486683950466635
291,16.891401799977757,0.03287980191890457,0.0004652342842939907,0.02053453520634662,0.030697959637254173,0.11858589175859595,-0.04285709621003608,-0.006544416343873356,0.05170511712746384,-0.03182842776794581,-0.09382555035910406,-0.3345534287855264,0.08595375791730772
292,16.895999199943617,0.033016297392522403,0.0009932766289504193,0.020343569971386043,0.030667918298932575,0.11881259216016148,-0.04299783484548241,-0.006961098665006028,0.050213110911038396,-0.03144365113877393,-0.09349855113813278,-0.33620842183939803,0.08703404005632565
293,16.899874299997464,0.0331526551037263,0.0015223126895457034,0.020151982466259367,0.03063602657997616,0.1190326389782258,-0.04313685110803764,-0.007376275135382688,0.048713862952055376,-0.0310540838823976,-0.0931485395835611,-0.33780905932205385,0.08810745278628036
294,16.904274699976668,0.0332888668359763,0.0020523127958778187,0.019959780400366528,0.030602291406908393,0.11924600053571138,-0.043274123754512415,-0.007789843395545901,0.04720761582659168,-0.03065975707511642,-0.09277552672067711,-0.33935500705463667,0.08917376366240604
295,16.90918529999908,0.03342492440455812,0.002583247139229402,0.01976697157730055,0.03056672016148961,0.11945264623794824,-0.04340963168226061,-0.00820170116177625,0.04569461353455313,-0.03026070282599004,-0.09237953545688737,-0.34084595880723056,0.09023274089466896
296,16.912874899921007,0.03356081965860748,0.003115085777196937,0.019573563894212102,0.03052932068026391,0.11965254657873169,-0.04354335393376794,-0.008611746278424034,0.04417510137655135,-0.029856954273559413,-0.09196060063146488,-0.3422816358351463,0.09128415343148127
297,16.917539899935946,0.033696544483132015,0.0036477986385456684,0.019379565341153704,0.030490101253872835,0.11984567314583701,-0.04367526970122263,-0.00901987677173566,0.042649325832490155,-0.029448545582555552,-0.09151876914348875,-0.3436617865689554,0.0923277710395601
298,16.921537999995053,0.03383209080102949,0.004181355528087853,0.019184984000403613,0.03044907062612335,0.12003199862599698,-0.04380535833107481,-0.009425990903323625,0.04111753444120024,-0.0290355119399103,-0.09105409988250372,-0.344986186346597,0.09336336455454672
299,16.92522460001055,0.03396745057510138,0.0047157261315819606,0.01898982804576946,0.0304062379928258,0.12021149680934563,-0.04393359932857167,-0.009829987223375993,0.03957997568140904,-0.028617889549235317,-0.09056666391620158,-0.34625463700225384,0.09439070605860499
300,16.92972589994315,0.03410261581006079,0.005250880020650458,0.018794105741871802,0.030361613000388497,0.12038414259333678,-0.0440599723622677,-0.010231764625796174,0.03803689885503313,-0.028195715625252755,-0.0900565446380403,-0.3474669662569477,0.09540956898351165
301,16.93339110002853,0.03423757855453353,0.005786786657713876,0.01859782544340761,0.03031520574416509,0.12054991198614944,-0.04418445726851035,-0.010631222402725774,0.03648855397357004,-0.027769028387357047,-0.08952383769816674,-0.34862302701900616,0.0964197283371677
302,16.937482899986207,0.034372330903051286,0.00632341540093889,0.01840099559439393,0.03026702676656405,0.12070878210959553,-0.04430703405589296,-0.01102826029906979,0.03493519164761439,-0.027337867052030295,-0.08896865112171498,-0.34972269673941375,0.09742096097560471
303,16.941135699977167,0.03450686499803592,0.006860735509198258,0.018203624727391746,0.03021708705491095,0.12086073120154238,-0.04442768290967293,-0.011422778568071966,0.03337706297898516,-0.02690227182398403,-0.08839110549617817,-0.35076587684255095,0.09841304590743238
304,16.945495099993423,0.03464117303177363,0.007398716147040453,0.018005721462710327,0.030165398039063485,0.12100573861786067,-0.04454638419614586,-0.011814678027507042,0.03181441945530657,-0.026462283885865908,-0.08779133422742029,-0.35175249220759636,0.09939576454971402
305,16.949779400019906,0.03477524724837797,0.007937326389666932,0.01780729450759219,0.03011197158877379,0.12114378483390897,-0.04466311846697212,-0.012203860117533848,0.03024751284674928,-0.02601794538712495,-0.08716948380550425,-0.3526824906918351,0.10036890098498644
306,16.9538695999654,0.034909079945740606,0.008476535227914979,0.01760835265537893,0.030056820010788774,0.12127485144556306,-0.04477786646345195,-0.01259022695925263,0.028676595104852463,-0.025569299431431526,-0.08652571386429993,-0.3535558426148643,0.10133224235038256
307,16.958405299927108,0.03504266347746851,0.009016311573244127,0.017408904784658164,0.029999956045691428,0.12139892116980024,-0.04489060912074008,-0.012973681413088484,0.02710191826385403,-0.025116390062080548,-0.08586019702339037,-0.35437254026068654,0.10228557916749435
308,16.962170399958268,0.035175990254806604,0.009556624262724203,0.017208959858391867,0.02994139286448172,0.12151597784485076,-0.04500132757199097,-0.013354127135942117,0.025523734343942558,-0.02465926224647667,-0.08517311865174061,-0.3551325975072615,0.10322870550945296
309,16.966768999933265,0.03530905274854456,0.0100974420640231,0.01700852692302642,0.029881144064909448,0.12162600642992143,-0.0451100031524354,-0.013731468637470632,0.023942295255883424,-0.024197961860050965,-0.08446467677924901,-0.35583604947340974,0.10416141921297854
310,16.970957499928772,0.035441843490906795,0.010638733680392354,0.01680761510758468,0.02981922366755439,0.12172899300449846,-0.045216617403382606,-0.014105611336451362,0.022357852707412237,-0.023732535668859505,-0.08373508189924939,-0.35648295217746484,0.10508352204633663
311,16.97462919994723,0.03557435507742441,0.011180467755648724,0.01660623362274043,0.029755646111657687,0.12182492476723827,-0.04532115207614207,-0.014476461615305514,0.02077065811089796,-0.02326303131200573,-0.08298455655519443,-0.35707338232776764,0.10599481968970072
312,16.979034999967553,0.03570658016878808,0.011722612879149894,0.01640439175987556,0.0296904262507169,0.12191379003444879,-0.04542358913586923,-0.014843926872784715,0.019180962491600295,-0.022789497284413745,-0.0822133351433339,-0.35760743708738757,0.10689512179336058
313,16.982697600033134,0.03583851149268083,0.012265137590762538,0.01620209889012028,0.029623579347848643,0.121995578238164,-0.045523910765334054,-0.015207915576739074,0.017589016397426112,-0.022311982918732803,-0.08142166403066123,-0.3580852337702914,0.10778424210868358
314,16.986993700033054,0.03597014184558964,0.012808010385820905,0.015999364463376794,0.029555121070914146,0.12207027992382241,-0.04562209936860571,-0.015568337317853108,0.015995069809890017,-0.02183053836694544,-0.08060980167377937,-0.3585069096590135,0.10866199848364644
315,16.991223799996078,0.036101464094594846,0.013351199720074211,0.01579619800732672,0.029485067487403812,0.1221378867475494,-0.04571813757465751,-0.015925102863471357,0.014399372055492963,-0.02134521458231171,-0.07977801844117095,-0.35887262174377743,0.10952821280322632
316,16.995537900016643,0.03623247117913628,0.013894674014621059,0.015592609126422687,0.029413435059083892,0.12219839147304716,-0.045812008240890975,-0.016278124209753036,0.012802171719003875,-0.020856063301507667,-0.07892659624853372,-0.3591825463125996,0.11038271094793511
317,17.000114399939775,0.036363156112754993,0.014438401660829155,0.015388607500864416,0.029340240636417013,0.12225178796810555,-0.04590369445658184,-0.016627314632253226,0.01120371655848511,-0.020363137026938514,-0.0780558283917431,-0.3594368786514939,0.11122532279566326
318,17.003777000005357,0.036493511984809775,0.014982351025238684,0.015184202885559644,0.029265501452758837,0.12229807120073605,-0.04599317954624674,-0.016972588736591392,0.009604253421241368,-0.01986648900886068,-0.077166019487289,-0.3596358326743689,0.11205588222448387
319,17.00794009992387,0.03662353196216725,0.015526490454447634,0.014979405109070256,0.029189235118327786,0.12233723723493473,-0.04608044707293018,-0.017313862508502635,0.008004028162137971,-0.019366173227670033,-0.07625748513723968,-0.35977964029485965,0.11287422707872737
320,17.01221740001347,0.03675320929086472,0.01607078827997747,0.014774224072543965,0.0291114596139564,0.12236928322608953,-0.04616548084141365,-0.017651053361525386,0.006403285565138596,-0.018862244376325776,-0.075330551427256,-0.35986855073065827,0.11368019914338667
321,17.016091199941002,0.03688253729774471,0.016615212823117603,0.014568669748631894,0.029032193284636774,0.12239420741604519,-0.04624826490134618,-0.01798408018258648,0.004802269267812942,-0.018354757842866387,-0.07438555462088002,-0.359902829807669,0.11447364414192418
322,17.020479499944486,0.03701150939206034,0.017159732399747146,0.0143627521803924,0.028951454832866354,0.12241200912783878,-0.04632878355029794,-0.01831286337696893,0.00320122168906541,-0.017843769692853027,-0.07342284101147574,-0.3598827591728244,0.11525441175389106
323,17.024382899980992,0.037140119067050684,0.017704315325132555,0.014156481480181492,0.028869263311793292,0.12242268876012169,-0.04640702133673456,-0.018637324912579713,0.0016003839606463682,-0.017329336651728713,-0.07244276660722193,-0.35980863550181424,0.11602235553340584
324,17.028719799942337,0.03726835990148517,0.018248929918699756,0.013949867828530188,0.028785638118168384,0.1224262477812858,-0.04648296306291379,-0.018957388362114917,-4.138070316144947e-09,-0.016811516087987033,-0.07144569662878181,-0.35968076975906105,0.11677733276162121
325,17.03271409997251,0.03739622556117622,0.01879354450877952,0.013742921473009165,0.02870059898511529,0.12242268872330518,-0.0465565937877101,-0.01927297894285828,-0.0015997042419920008,-0.016290365996843918,-0.07043200507551457,-0.35949948636688045,0.11751920435257694
326,17.036930299946107,0.037523709800459326,0.01933812743732481,0.013535652727080983,0.028614165974728375,0.12241201517531151,-0.04662789882936603,-0.01958402355498692,-0.003198479458137732,-0.01576594498424399,-0.06940207442002518,-0.35926512231275276,0.11824783476220956
327,17.041677900007926,0.03765080646363982,0.01988264706459898,0.013328071968940257,0.02852635947050213,0.12239423177692124,-0.0466968637681745,-0.019890450818652268,-0.004796094419600344,-0.015238312251341875,-0.06835629528325432,-0.35897802633408615,0.11896309197660644
328,17.045209000003524,0.03777750948640563,0.020427071773833766,0.013120189640342018,0.028437200169599105,0.12236934421133092,-0.04676347444909211,-0.020192191109395064,-0.0063923153361237425,-0.014707527578613058,-0.067295066020328,-0.35863855816819945,0.11966484752366434
329,17.049852899974212,0.03790381289720523,0.020971369975856063,0.012912016245418633,0.028346709074964224,0.12233735919819434,-0.046827716984280066,-0.020489176591541595,-0.007986910041392082,-0.014173651310231468,-0.06621879239573408,-0.35824708784858805,0.12035297640690473
330,17.053729299921542,0.038029710818590225,0.02151551011368252,0.01270356234948556,0.028254907487295606,0.1222982844862972,-0.04688957775557848,-0.020781341250728717,-0.009579648037345914,-0.013636744338769173,-0.06512788739616988,-0.35780399508464295,0.12102735710293358
331,17.058125299983658,0.038155197468521904,0.022059460667081157,0.01249483857783625,0.02816181699686951,0.12225212884603992,-0.04694904341691121,-0.021068620925635002,-0.011170300535952705,-0.013096868089596576,-0.06402277091479024,-0.3573096686154226,0.1216878716029918
332,17.062278699944727,0.03828026716164107,0.022603190157099082,0.012285855614526513,0.028067459475228828,0.12219890206174064,-0.047006100896621314,-0.021350953337696505,-0.012758640497773482,-0.01255408450521243,-0.06290386940679056,-0.35676450564757756,0.12233440542864527
333,17.066407899954356,0.03840491431050063,0.023146667150555623,0.012076624201148637,0.027971857066743655,0.12213861492377497,-0.0470607373997365,-0.021628278119773622,-0.014344442668732551,-0.012008456029504434,-0.061771615692263575,-0.35616891146280927,0.12296684765562947
334,17.071249799919315,0.03852913342676037,0.02368986026450011,0.011867155135595598,0.027875032180044734,0.12207127922055182,-0.04711294041016456,-0.021900536844112875,-0.015927483615191695,-0.011460045591867115,-0.060626448709782926,-0.35552329896484436,0.12358509093576389
335,17.07544289994985,0.03865291912234331,0.02423273817063362,0.01165745927081565,0.027777007479335244,0.1219969077303411,-0.047162697692817494,-0.022167673048821394,-0.017507541756689313,-0.010908916591267439,-0.059468813083016374,-0.3548280884259228,0.12418903142901541
336,17.078956799930893,0.038776266110553174,0.024775269599694047,0.011447547513557631,0.02767780587558871,0.12191551421295825,-0.04720999729566518,-0.022429632261972848,-0.019084397398759115,-0.010355132880967129,-0.058299158864319224,-0.3540837076801746,0.12477856881997884
337,17.084769899956882,0.03889916920715245,0.02531742334580387,0.011237430823107287,0.027577450517646308,0.12182711340129998,-0.04725482755172358,-0.022686362025800676,-0.02065783276738974,-0.009798758752441654,-0.05711794187003247,-0.3532905927945682,0.12535360677344565
338,17.091411600005813,0.03902162333140065,0.02585916827077991,0.011027120210014885,0.027475964783199535,0.1217317209927222,-0.047297177080965334,-0.02293781192378717,-0.02222763204781289,-0.009239858916049334,-0.05592562417304587,-0.3524491895798173,0.12591405372842557
339,17.09543400001712,0.03914362350705212,0.026400473308404386,0.01081662673481454,0.027373372269646506,0.12162935364023063,-0.04733703479213596,-0.023183933609239055,-0.02379358143240553,-0.008678498477885906,-0.05472267418125085,-0.3515599551084736,0.126459823596709
340,17.09949329996016,0.03926516486331297,0.0269413074686563,0.01060596150673567,0.027269696784820375,0.1215200289434326,-0.04737438988445856,-0.023424680833074564,-0.02535546917298452,-0.0081147429142385,-0.05350956612574048,-0.3506233573255407,0.12699083580985365
341,17.10433459992055,0.0393862426357564,0.027481639841901984,0.010395135682407151,0.027164962337598415,0.12140376543926236,-0.0474092318492227,-0.023660009467845522,-0.026913085625244446,-0.007548658048022165,-0.052286778917680646,-0.34963987288064713,0.12750701455899588
342,17.108078200020827,0.039506852167196065,0.02802143960304398,0.010184160464554646,0.027059193128416717,0.12128058259253752,-0.0474415504712795,-0.023889877525353983,-0.028466223281765037,-0.006980310029997259,-0.05105479488683924,-0.3486099847642102,0.12800828789695234
343,17.11220009997487,0.03962698890851701,0.028560676015627562,0.009973047100691449,0.026952413539722532,0.12115050078639068,-0.04747133583046339,-0.024114245169450974,-0.03001467679541789,-0.0064097653231946,-0.0498140990334109,-0.3475341805973669,0.12849458727081778
344,17.116729100001976,0.03974664841946408,0.02909931843590447,0.009761806881803165,0.026844648126375097,0.12101354131261766,-0.04749857830294861,-0.024333074726996598,-0.03155824299715937,-0.0058370906882913446,-0.048565178505344656,-0.34641295188721555,0.12896584746814072
345,17.120651499950327,0.03986582636938748,0.029637336316853585,0.009550451141026492,0.026735921606000468,0.12086972636195077,-0.0475232685625409,-0.024546330696008554,-0.0330967209128112,-0.005262353168515014,-0.04730852212546349,-0.34524679368354116,0.12942200672465834
346,17.124613899970427,0.03998451853794536,0.030174699212158113,0.009338991252322404,0.026626258849319847,0.12071907901425778,-0.04754539758189967,-0.02475397975241501,-0.034629911777799234,-0.004685620074060851,-0.04604462001733009,-0.34403620403216667,0.129863006793635
347,17.128718000021763,0.040102720815763306,0.030711376780139053,0.009127438629144058,0.026515684870444336,0.12056162322868408,-0.04756495663369103,-0.02495599075487444,-0.03615761904907051,-0.004106958966378944,-0.044773963171331976,-0.34278168353945976,0.1302887929996856
348,17.132936000009067,0.0402204292050506,0.03124733878764469,0.00891580472309972,0.026404224817160378,0.12039738383374554,-0.04758193729167018,-0.02515233474766795,-0.03767964841595741,-0.0035264376421127136,-0.04349704325783412,-0.34148373513232044,0.13069931423667186
349,17.137050300021656,0.040337639820173264,0.031782555113895904,0.008704101022611046,0.026291903961198782,0.1202263865173741,-0.047596331431691556,-0.025342984963856723,-0.03919580780995934,-0.0029441241174047524,-0.04221435218375188,-0.3401428638611203,0.13109452293842358
350,17.141186599968933,0.040454348888183764,0.03231699575428711,0.008492339051567013,0.02617874768849207,0.12004865781692359,-0.04760813123265157,-0.02552791682422917,-0.04070590741385364,-0.002360086612095808,-0.040926381392674877,-0.33875957673700813,0.13147437517665483
351,17.146311299991794,0.04057055274930736,0.032850630824142656,0.008280530367973818,0.026064781489452873,0.11986422510913418,-0.04761732917735817,-0.02570710793423156,-0.04220975967002972,-0.0017743935331594573,-0.03963362158935103,-0.33733438250013476,0.1318388307358255
352,17.149923100019805,0.04068624785738531,0.03338343056242844,0.008068686562601072,0.025950030949258577,0.11967311660006413,-0.047623918053326206,-0.0258805380804639,-0.043707179287537916,-0.0011871134582350472,-0.03833656234569968,-0.33586779159984276,0.13218785309096354
353,17.1541159999324,0.040801430780274796,0.03391536533541877,0.00785681925762462,0.025834521738160903,0.11947536131499155,-0.047627890953500486,-0.026048189224105255,-0.04519798325024736,-0.0005983151192596833,-0.03703569171602882,-0.3343603163978645,0.13252140939451573
354,17.157843100023456,0.0409160982002059,0.03444640564031813,0.007644940105266306,0.025718279601829052,0.11927098908827347,-0.04762924127690551,-0.026210045493986193,-0.04668199082570268,-8.067386118159988e-06,-0.035731496128863255,-0.3328124711218574,0.13283947051290187
355,17.16220030002296,0.041030246914095625,0.03497652210883779,0.007433060786431007,0.025601330351720908,0.11906003055316886,-0.04762796272922305,-0.026366093179051718,-0.04815902357286847,0.000583560750050274,-0.03442446011142905,-0.3312247718469981,0.13314201117772823
356,17.16668739996385,0.0411438738338192,0.03550568551072705,0.007221193009341262,0.025483699855493248,0.11884251713162881,-0.047624049323293394,-0.02651632071898244,-0.04962890535082225,0.001176500194547335,-0.03311506594453669,-0.32959773670882486,0.13342901017232742
357,17.170315099996515,0.04125697598643877,0.036033866757259024,0.0070093485081698485,0.025365414027456387,0.11861848102404221,-0.047617495379535454,-0.026660718693586983,-0.05109146232839259,0.0017706817674685907,-0.031803793366772234,-0.32793188585150945,0.1337004504060943
358,17.174647399922833,0.04136955051438979,0.03656103690467062,0.006797539041670671,0.025246498819078766,0.11838795519894013,-0.04760829552628473,-0.026799279810791356,-0.05254652299239184,0.002366036222060244,-0.030491119348161785,-0.3262277411340273,0.133956318894324
359,17.17873599997256,0.04148159467562523,0.037087167157556736,0.006585776391808332,0.02512698020954845,0.11815097338266828,-0.04759644470005014,-0.02693199889401764,-0.053993918154640066,0.00296249426289264,-0.029177517922782954,-0.32448582609088544,0.13419660674103057
360,17.182997899944894,0.04159310584371798,0.03761222887221837,0.006374072362386734,0.02500688419639002,0.11790757004902892,-0.04758193814569022,-0.02705887286868409,-0.05543348095984834,0.0035599865640641875,-0.027863459863371184,-0.3227066660981475,0.1344213091480639
361,17.18747969996184,0.0417040815079216,0.03813619355996464,0.0061624387776770834,0.02488623678614616,0.11765778040888317,-0.047564771416508056,-0.027179900746688804,-0.05686504689411982,0.0041584437874559775,-0.026549412267522703,-0.3208907882468558,0.1346304254480694
362,17.191131499945186,0.041814519273189785,0.03865903289036841,0.00595088748104565,0.024765063985132618,0.11740164039971726,-0.04754494037426506,-0.027295083609228252,-0.05828845379170689,0.00475779660122895,-0.02523583840021278,-0.3190387211452704,0.13482395919170964
363,17.195804100017995,0.0419244168601549,0.03918071869447543,0.005739430333581644,0.024643391790272653,0.11713918667518475,-0.04752244118911129,-0.027404424589879826,-0.059703541841752736,0.005357975698854524,-0.023923197772514955,-0.31715099477089737,0.13500191827687552
364,17.19988710002508,0.04203377210506588,0.039701222967966986,0.005528079212725601,0.024521246180002496,0.1168704565946128,-0.047497270339429964,-0.027507928858120742,-0.061110153593731974,0.005958911818761358,-0.022611945865735696,-0.3152281400967084,0.1351643150441473
365,17.203905600006692,0.04214258295968583,0.04022051787427564,0.005316846010898638,0.02439865310525245,0.11659548821249596,-0.04746942461159297,-0.027605603599956206,-0.06250813396086671,0.006560535764215302,-0.02130253372747581,-0.31327068890337123,0.1353111663087903
366,17.208466399926692,0.042250847491149726,0.040738575747654396,0.005105742634133013,0.024275638480524685,0.11631432026797209,-0.04743890109962847,-0.027697457997844465,-0.06389733022389658,0.007162778423250824,-0.019995408099571108,-0.3112791737107057,0.13544249339687134
367,17.21253949997481,0.04235856388178261,0.041255369096198834,0.0048947810007043445,0.024152228175052963,0.11602699217428254,-0.047405697204799126,-0.027783503212463263,-0.06527759203388496,0.007765570788872286,-0.018691011566238966,-0.3092541276491668,0.13555832219846825
368,17.21643279993441,0.04246573042887862,0.04177087060482248,0.004683973039765916,0.024028448004042646,0.11573354400822318,-0.04736981063508996,-0.02786375236395296,-0.06664877141484557,0.008368843979458784,-0.017389782307445662,-0.30719608439147444,0.13565868326839015
369,17.221774799982086,0.04257234554444129,0.042285053138185105,0.004473330689985457,0.023904323719997296,0.11543401649958117,-0.047331239404605006,-0.027938220511488684,-0.06801072276594043,0.00897252925986153,-0.016092153753965,-0.3051055780532066,0.13574361201017673
370,17.22554230003152,0.042678407754885385,0.042797889743574104,0.004262865898184814,0.023779881004140444,0.11512845102056642,-0.04728998183286752,-0.028006924631454506,-0.06936330286322204,0.009576558063445737,-0.014798554371034275,-0.30298314299609086,0.1358131488595698
371,17.229453600011766,0.04278391570070088,0.043309353653738766,0.0040525906179829565,0.02365514545793637,0.1148168895752329,-0.04724603654402049,-0.02806988359509077,-0.07070637086008116,0.010180862014820357,-0.013509407510295808,-0.3008293135832554,0.13586733938979234
372,17.232919799978845,0.04288886813607937,0.04381941828967753,0.003842516808442764,0.023530142594710732,0.11449937478890608,-0.047199402465924606,-0.028127118145350984,-0.07203978828681153,0.010785372952816633,-0.01222513124223679,-0.2986446240882385,0.1359062342964717
373,17.237165599945,0.04299326392850347,0.044328057263378205,0.0036326564327220537,0.023404897831377273,0.11417594989760815,-0.047150078829154375,-0.02817865087305838,-0.07336341905024804,0.011390022953083693,-0.0109461380607302,-0.29642960837959825,0.13592988930498273
374,17.241541299968958,0.04309710205829967,0.044835244380511126,0.003423021456729302,0.023279436480270574,0.11384665873748866,-0.04709806516589503,-0.028224506191134077,-0.07467712943052544,0.011994744350242743,-0.009672834538181576,-0.29418479956832694,0.1359383650871712
375,17.24543100001756,0.04320038161815501,0.045340953643075346,0.003213623847784485,0.02315378374110204,0.11351154573427853,-0.04704336130874152,-0.028264710307685487,-0.07598078807757959,0.012599469759741739,-0.008405621217093977,-0.29191072998769957,0.1359317271736936
376,17.249912000028417,0.04330310181259839,0.04584515925199797,0.003004475573285486,0.023027964693032116,0.11317065589275191,-0.04698596738940101,-0.02829929119926973,-0.07727426600772679,0.013204132099229665,-0.0071448922654319515,-0.2896079308172163,0.1359100458967755
377,17.253609300008975,0.043405261957446734,0.04634783560968657,0.0027955885993804787,0.022902004286864123,0.11282403478621057,-0.046925883837301695,-0.028328278580915793,-0.0785574365968193,0.013808664609901931,-0.005891035092147223,-0.2872769316695451,0.1358733964321128
378,17.258336100028828,0.04350686147921682,0.04684895732253498,0.002586974889646714,0.022775927337383196,0.11247172854600665,-0.046863111378105386,-0.028351703875967284,-0.0798301755731497,0.014413000878247442,-0.00464443045534935,-0.28491826049321556,0.13582185890073278
379,17.26216379995458,0.0436078999145033,0.0473484992033825,0.002378646403776136,0.02264975851581844,0.1121137838510902,-0.046797651032122835,-0.028369600187066975,-0.08109236100974064,0.015017074858300257,-0.00340545223605719,-0.2825324431771006,0.13575551851319403
380,17.266930599929765,0.04370837690932344,0.047846436273926665,0.0021706150962682667,0.02252352234244,0.11175024791760053,-0.04672950411262835,-0.028382002263986624,-0.08234387331373028,0.01562082089466961,-0.0021744669752654638,-0.28012000315630187,0.1356744657200113
381,17.270899399998598,0.04380829221842932,0.048342743767089864,0.001962892915130818,0.022397243179307455,0.11138116848850818,-0.046658672224070226,-0.02838894647049279,-0.08358459521515557,0.0162241737461299,-0.0009518338144246071,-0.27768146136393274,0.13557879630773115
382,17.27485429996159,0.04390764570458802,0.04883739712933996,0.0017554918005884975,0.02227094522316167,0.11100659382330604,-0.04658515726017548,-0.028390470751647093,-0.08481441175590874,0.0168270686095055,0.00026209541584698576,-0.27521733610208016,0.1354686114498601
383,17.27979099994991,0.04400643733783058,0.049330372022965176,0.0015484236838004843,0.02214465249846412,0.11062657268774961,-0.046508961401947775,-0.028386614601461316,-0.08603321027737253,0.017429441143713857,0.0014669762447656013,-0.27272814266803036,0.13534401772457483
384,17.283378700027242,0.04410466719467027,0.04982164432830344,0.0013417004855870455,0.022018388850576533,0.11024115434365815,-0.04643008711555824,-0.028377419029761684,-0.08724088040605112,0.018031227493807873,0.0026624718572339683,-0.2702143929799534,0.13520512710849716
385,17.28704939992167,0.04420233545729088,0.050311190145926526,0.001135334115165778,0.021892177939095,0.10985038853878273,-0.04634853715012949,-0.028362926527211757,-0.08843731403787515,0.018632364314963613,0.003848253162567089,-0.2676765952502869,0.13505205696529726
386,17.291581099969335,0.04429944241270566,0.05079898579877927,0.0009293364688979407,0.021766043231340817,0.10945432549674702,-0.04626431453541303,-0.028343181031565266,-0.08962240532092675,0.019232788796421287,0.005023998784804955,-0.26511525373099953,0.13488492997995002
387,17.295225200010464,0.0443959884518877,0.0512850078342742,0.0007237194290453605,0.021640007995994862,0.10905301590706909,-0.04617742257936027,-0.02831822789277519,-0.09079605063747807,0.019832438684888046,0.006189395092254048,-0.262530868379251,0.1347038738649861
388,17.299505800008774,0.044491974068872245,0.05176923302634197,0.0005184948625383758,0.021514095296898843,0.10864651091526194,-0.04608786486559172,-0.02828811383898375,-0.09195814858374177,0.02043125230586547,0.007344135576636952,-0.25992393402795383,0.13450902065141304
389,17.302941899979487,0.04458739985983192,0.05225163837743793,0.000313674619755258,0.02138832798699226,0.1082348621130355,-0.04599564525077825,-0.028252886947155227,-0.09310859994452997,0.02102916858074366,0.00848792034098352,-0.2572949394998842,0.13430050573769026
390,17.306752000004053,0.04468226652212512,0.05273220112050539,0.00010927053331345483,0.02126272870237495,0.10781812152862262,-0.04590076786195817,-0.028212596613622187,-0.09424730766512296,0.02162612703966745,0.009620456197940322,-0.2546443673615386,0.1340784675241894
391,17.31216480000876,0.04477657485331837,0.0532108987208961,-9.470558312711855e-05,0.021137319856506093,0.10739634161723134,-0.04580323709380406,-0.02816729352384363,-0.09537417682373826,0.02222206783537828,0.01074145698517206,-0.25197269462230304,0.13384304838911298
392,17.316153099993244,0.044870325750183127,0.05368770887824857,-0.00029824193604851895,0.02101212363453581,0.10696957525161582,-0.0457030576058167,-0.028117029620145104,-0.0964891146096198,0.02281693176476317,0.011850644274703878,-0.24928039400586818,0.13359439640320614
393,17.320853299926966,0.04496352020766772,0.05416260952832469,-0.0005013267532465183,0.020887161987791197,0.10653787571272356,-0.04560023431940015,-0.028061858065165795,-0.0975920303068188,0.023410660297952444,0.012947747983780686,-0.24656793450144332,0.13333266621827783
394,17.325427199946716,0.04505615931784509,0.0546355788448048,-0.0007039482849890202,0.020762456628433137,0.10610129668041064,-0.0454947724147968,-0.028001833204163825,-0.09868283527718713,0.02400319560777387,0.014032505941563342,-0.24383578112777202,0.13305801852265867
395,17.329237599973567,0.04514824426883715,0.055106595241041716,-0.0009060948051605339,0.020638029024277697,0.10565989222424023,-0.0453866773279004,-0.02793701053231846,-0.09976144294205863,0.024594480594005597,0.01510466305123192,-0.2410843945390114,0.1327706188950478
396,17.33337719994597,0.0452397763437165,0.05557563737177395,-0.0011077546123922368,0.02051390039374385,0.10521371679436081,-0.045275954746975364,-0.027867446664490175,-0.10082776876173595,0.025184458902632947,0.016163971260664538,-0.23831423034484578,0.13247063697130587
397,17.3372023999691,0.04533075691938584,0.05604268413479856,-0.0013089160311772594,0.020390091700943934,0.10476282521248723,-0.04516261060929842,-0.027793199302783757,-0.10188173021112293,0.025773074942688278,0.017210189592283806,-0.23552573880402627,0.13215824607374152
398,17.341370099922642,0.04542118746543595,0.056507714672604126,-0.0015095674129708685,0.020266623650919947,0.10430727266299566,-0.04504665109772812,-0.027714327206042815,-0.10292324675648483,0.02636027390220954,0.01824308376809313,-0.23271936517079853,0.13183362302728796
399,17.34535950003192,0.04551106954298277,0.056970708373964396,-0.0017096971372752314,0.02014351668500542,0.10384711468411148,-0.04492808263720449,-0.027630890160748933,-0.10395223983416291,0.026946001763444645,0.01926242617044796,-0.22989554968491654,0.1314969479258903
400,17.350659899995662,0.04560040480348412,0.05743164487549284,-0.0019092936127084565,0.020020790976320636,0.10338240715919357,-0.044806911891183285,-0.027542948950865218,-0.10496863282724579,0.027530205316731577,0.020267996069008542,-0.2270547272937617,0.13114840375697043
401,17.35421719995793,0.045689194987536645,0.05789050406315875,-0.0021083452780576322,0.019898466425402783,0.10291320630812974,-0.04468314575801215,-0.027450565326716237,-0.10597235104181174,0.028112832172361612,0.02125957965001744,-0.22419732786201277,0.13078817594454384
402,17.358743699966,0.04577744192365371,0.05834726607376525,-0.002306840603315627,0.019776562655978065,0.10243956867883244,-0.04455679136725928,-0.027353801974571088,-0.10696332168546546,0.028693830770394526,0.02223696985855417,-0.22132377630840963,0.1304164519128492
403,17.36239070002921,0.045865147527024724,0.05880191129638973,-0.0025047680907014642,0.019655099010862473,0.10196155113882513,-0.04442785607600232,-0.027252722486926798,-0.10794147384479716,0.02927315038863942,0.02319996633954306,-0.21843449218059524,0.1300334206711895
404,17.36622119997628,0.045952313798256525,0.059254420373786997,-0.0027021162756641036,0.01953409454799828,0.10147921086693852,-0.04429634746508598,-0.027147391332616247,-0.10890673846013671,0.029850741148776252,0.024148375477242908,-0.21552988951942031,0.12963927239316772
405,17.370258199982345,0.04603894282209748,0.05970477420375583,-0.0028988737278695205,0.019413568036620768,0.10099260534512156,-0.044162273335356494,-0.027037873826740232,-0.10985904830180543,0.030426554020593105,0.02508201065134314,-0.21261037702567295,0.1292341979936373
406,17.374720599967986,0.04612503676614475,0.060152953940469274,-0.003095029052170986,0.019293537953562232,0.10050179235034898,-0.044025641703881506,-0.026924236098496892,-0.11079833794635364,0.031000540824343843,0.026000692365038196,-0.20967635798082865,0.12881838874904847
407,17.37851079995744,0.04621059787953552,0.06059894099576921,-0.003290570889562513,0.019174022479704934,0.10000682994664369,-0.04388646080016356,-0.02680654505997429,-0.11172454375210737,0.03157265423160759,0.026904248107004574,-0.20672823028720788,0.12839203601176727
408,17.382935300003737,0.04629562849162268,0.061042717040425645,-0.0034854879181154493,0.019055039496562762,0.09950777647720188,-0.043744739062352385,-0.026684868375207837,-0.11263760383576317,0.03214284776510468,0.027792512696430724,-0.2037663865656259,0.12795533098233
409,17.387034900020808,0.04638013101063565,0.061484264005361236,-0.003679768853898223,0.018936606583009476,0.09900469055662366,-0.04360048513345996,-0.026559274425903133,-0.11353745804880361,0.032711075797529875,0.028665328588558033,-0.20079121437260736,0.1275084644529544
410,17.39114940003492,0.04646410792232698,0.06192356408284146,-0.0038734024518792603,0.01881874101216533,0.09849763106324798,-0.04345370785758321,-0.02642983227777498,-0.11442404795602469,0.03327729354908631,0.02952254579525578,-0.1978030963287272,0.12705162648766863
411,17.395596000016667,0.04654756178860545,0.06236059972763093,-0.0040663775068131265,0.018701459748424812,0.09798665713157431,-0.04330441627614101,-0.02629661164697688,-0.11529731681309317,0.033841457083472845,0.030364022151598894,-0.19480240979321575,0.12658500609165577
412,17.39934100001119,0.04663049524615622,0.06279535365811614,-0.004258682854109963,0.01858477944464193,0.09747182814479728,-0.04315261962413259,-0.02615968286406829,-0.11615720954217894,0.03440352330247615,0.031189623582003147,-0.19178952697195314,0.12610879090637553
413,17.40373909997288,0.046712911005048895,0.06322780885739537,-0.004450307370688338,0.01846871643947854,0.09695320372744509,-0.042998327326422635,-0.02601911683807631,-0.11700367271047314,0.034963449939245515,0.03199922401098487,-0.18876481543011314,0.1256231669670069
414,17.407715699984692,0.04679481184733409,0.06365794857433595,-0.004641239975811635,0.018353286754909385,0.09643084373810532,-0.04284154899405952,-0.025874985021256926,-0.1178366545103816,0.03552119555072695,0.032792705491584806,-0.18572863847767676,0.12512831857043635
415,17.41198540001642,0.0468762006256293,0.06408575632459938,-0.004831469631908143,0.01823850609388393,0.09590480826223953,-0.042682294420627764,-0.025727359372014084,-0.11865610474147284,0.03607671950976345,0.033569958717826656,-0.1826813556107219,0.12462442819188847
416,17.416300599928945,0.04695708026169464,0.06451121589163476,-0.005020985345374995,0.01812438983816132,0.09537515760506972,-0.0425205735786365,-0.025576312315101588,-0.11946197479459768,0.03662998199678734,0.034330883300408586,-0.17962332305333892,0.1241116764447807
417,17.42155740002636,0.047037453744999486,0.06493431132764058,-0.005209776167366127,0.018010953046326293,0.0948419522845342,-0.04235639661594586,-0.025421916702089348,-0.12025421763865869,0.037180943991563416,0.03507538796371711,-0.17655489461703572,0.12359024213498496
418,17.430352499941364,0.04711732413128053,0.06535502695449541,-0.0053978311945644215,0.017898210451975878,0.09430525302429171,-0.04218977385222893,-0.02526424576981243,-0.12103278781237593,0.03772956726536402,0.03580339122576206,-0.17347642314801398,0.1230603024050247
419,17.435099499998614,0.04719669454109229,0.06577334736465756,-0.005585139569938186,0.017786176462104984,0.09376512074675065,-0.04202071577546773,-0.025103373094787915,-0.12179764142393287,0.03827581437399511,0.036514821920322044,-0.1703882622205792,0.12252203288774811
420,17.43913389998488,0.04727556815835085,0.06618925742203371,-0.005771690483482124,0.017674865155698646,0.09322161656607629,-0.04184923303847721,-0.0249393725470184,-0.12254873615780841,0.03881964865133858,0.03720961938422947,-0.16729076694571285,0.12197560769668199
421,17.44287099991925,0.047353948228871776,0.06660274226281632,-0.005957473172942885,0.01756429028252864,0.09267480178115918,-0.041675336455458685,-0.024772318242742584,-0.1232860312816167,0.03936103420229249,0.037887733358753686,-0.1641842938739467,0.12142119931137153
422,17.449476499925368,0.047431838058903185,0.0670137872962897,-0.006142476924529375,0.017454465262166093,0.09212473786856158,-0.041499036998586675,-0.024602284499116164,-0.12400948765207506,0.03989993589529328,0.03854912339855464,-0.1610692012309946,0.12085897854459988
423,17.453572800033726,0.04750924101365489,0.06742237820560475,-0.006326691073607937,0.017345403183181313,0.09157148647543276,-0.04132034579462884,-0.02442934579222097,-0.12471906772394017,0.040436319354964334,0.039193758733618154,-0.15794584986254384,0.12028911457972713
424,17.458030699985102,0.04758616051582432,0.0678285009485219,-0.006510105005382587,0.01723711680252999,0.09101510941237587,-0.04113927412159823,-0.024253576712974238,-0.12541473556438185,0.040970150954970384,0.039821618485906075,-0.1548146036879907,0.11971177493624086
425,17.461812200024724,0.04766260004412023,0.06823214175812241,-0.006692708155560415,0.0171296185451453,0.0904556686462354,-0.040955833405436785,-0.02407505192321019,-0.12609645686595614,0.04150139781035961,0.04043269097014037,-0.15167582840114172,0.11912712529645426
426,17.466232299921103,0.047738563131784956,0.0686332871434872,-0.006874490011002307,0.01702292050371485,0.08989322629284865,-0.04077003521673574,-0.023893846117810248,-0.12676419894941918,0.04203002776887615,0.04102697248177096,-0.14852989010990691,0.11853532934736656
427,17.470442999969237,0.047814053365116176,0.06903192389034356,-0.0070554401103591746,0.016917034438609715,0.08932784460980811,-0.04058189126749641,-0.023710033991568107,-0.12741793076459765,0.04255600940189523,0.04160446683378218,-0.14537715535453583,0.11793654871895164
428,17.47454560000915,0.047889074381988535,0.06942803906167967,-0.007235548044693853,0.01681197177795618,0.08875958598920518,-0.04039141340793123,-0.02352369020544098,-0.12805762289336484,0.04307931199518665,0.04216518533701523,-0.14221799099085838,0.11733094296478201
429,17.479153399937786,0.04796362987037601,0.06982161999832673,-0.00741480345808887,0.016707743617865038,0.0881885129503661,-0.040198613623306755,-0.023334889353589742,-0.1286832475494723,0.04359990553967749,0.04270914636681753,-0.139052763914845,0.11671866960042768
430,17.482855699956417,0.0480377235668756,0.07021265431950881,-0.007593196048240257,0.016604360722796585,0.0876146881325972,-0.04000350403082683,-0.02314370593348571,-0.12929477857907534,0.04411776072255725,0.043236375096909946,-0.1358818411991879,0.11609988420890964
431,17.487163899932057,0.04811135925523294,0.07060112992336047,-0.007770715567037587,0.016501833526055873,0.08703817428791606,-0.039806096876554765,-0.022950214315318577,-0.12989219146177983,0.04463284891897878,0.043746903558469344,-0.13270558993657622,0.11547474057998901
432,17.49183690000791,0.04818454076487039,0.07098703498741196,-0.007947351821130403,0.016400172130429887,0.08645903427378754,-0.03960640453237035,-0.022754488711577533,-0.13047546330977328,0.045145142184402666,0.04424077021651287,-0.12952437725913768,0.11484339085954273
433,17.496182100032456,0.04825727196941831,0.07137035796904218,-0.008123094672481181,0.016299386308953428,0.08587733104586263,-0.0394044394929601,-0.022556603150228116,-0.13104457286904467,0.045654613247627186,0.044718019368856166,-0.12633857077131155,0.1142059857335612
434,17.500629000016488,0.04832955678524998,0.07175108760589925,-0.008297934038904982,0.016199485505784945,0.08529312765070361,-0.039200214372836335,-0.022356631449640816,-0.1315995005223668,0.0461612355047697,0.045178701126478656,-0.12314853843308639,0.11356267459268388
435,17.504216099972837,0.04840139917002066,0.07212921291628882,-0.00847185989459589,0.016100478837195474,0.08470648721849641,-0.03899374190338094,-0.022154647191942618,-0.13214022828947725,0.046664983013760486,0.045622871521697,-0.11995464824337145,0.1129136056367785
436,17.508519100025296,0.048472803121211314,0.07250472319952976,-0.008644862270640371,0.016002375092681563,0.08411747295577411,-0.03878503492991341,-0.02195072369698318,-0.1326667398272437,0.04716583048925459,0.0460505920847653,-0.11675726851647861,0.11225892600257598
437,17.51225099992007,0.04854377267467755,0.0728776080362777,-0.008816931255517616,0.015905182736185835,0.08352614813812788,-0.03857410640877996,-0.021744933999453386,-0.13317902043230476,0.04766375329826121,0.04646192943976579,-0.11355676809899086,0.11159878189314039
438,17.516180599923246,0.04861431190320422,0.07324785728881593,-0.008988056995587003,0.015808909907413488,0.08293257610290694,-0.03836096940446037,-0.021537350826446876,-0.13367705704316477,0.04815872745620747,0.046856955215917616,-0.1103535162110908,0.11093331869033704
439,17.52138589997776,0.04868442491506609,0.07361546110131395,-0.009158229695562707,0.015713564423252495,0.0823368202419109,-0.03814563708669215,-0.021328046575367698,-0.13416083824142291,0.04865072962356843,0.04723574582119573,-0.1071478823892465,0.1102626811332224
440,17.524840999976732,0.048754115852595044,0.07398040990005338,-0.009327439618975567,0.015619153779286661,0.08173894399407876,-0.03792812272760739,-0.02111709329350596,-0.13463035425335812,0.04913973710351796,0.04759838219556642,-0.10394023664258066,0.1095870135564796
