,time,x,y,z,vx,vy,vz,ax,ay,az,jx,jy,jz
0,8.297175100000459,0.02010351141384423,-0.031589274470308834,-0.003386502671338807,-0.0018059153810642127,-0.005524374312234982,0.00014920017815665124,0.028226678248475832,0.028881207988339434,-0.007468834007710958,0.06800694081735341,0.10374039347742799,-0.05517898722033919
1,8.301323900013813,0.02009585754967241,-0.031613241394083065,-0.0033859197965634756,-0.0016813807788764337,-0.005396623002144184,0.00011588996753474339,0.028525659789679945,0.029337003372138258,-0.007711479737452892,0.06824163915385782,0.10396745187638638,-0.05539545874986305
2,8.306619100010721,0.020088753115315435,-0.031636643260480345,-0.0033854854486139742,-0.0015555317629118279,-0.005266869136045432,8.151276225783316e-05,0.028825668373365913,0.029793780982718038,-0.007955066946519962,0.06847494277579136,0.10418796252405271,-0.05560802865546164
3,8.311014200007776,0.020082203889290128,-0.03165947127133538,-0.003385204319323328,-0.0014283638391737708,-0.005135108466252835,4.606446798802599e-05,0.029126697734161877,0.030251511895938825,-0.008199578505920754,0.06870678531653242,0.10440183929158058,-0.05581669400704643
4,8.316501300010714,0.020076215669775972,-0.03168171661011941,-0.003385081118328605,-0.0012998725418007096,-0.005001336872850406,9.541065589848783e-06,0.029428741312818002,0.030710166807141524,-0.00844499727247319,0.06893709910635418,0.1046089949419895,-0.05602145116397069
5,8.321074300009059,0.020070794274488834,-0.03170337044250464,-0.0033851205727407413,-0.0011700534343697525,-0.004865550365373527,-2.8061388800529052e-05,0.029731792249992256,0.031169716026464695,-0.00869130608523013,0.0691658152237306,0.10480934119170478,-0.05622229560059711
6,8.329339500007336,0.020065945540548843,-0.03172442391693605,-0.00338532742681402,-0.0010389021112271345,-0.004727745084508596,-6.674676368858402e-05,0.03003584338147698,0.03163012947434128,-0.008938487761285767,0.06939286370052125,0.10500278875154348,-0.05641922177867937
7,8.333320400008233,0.020061675324342436,-0.031744868165210764,-0.0033857064416151347,-0.0009064141988337058,-0.004587917303814013,-0.0001065188521154083,0.03034088723378568,0.03209137667717517,-0.009186525091081074,0.06961817349120497,0.10518924741914393,-0.05661222308836286
8,8.337401100012357,0.020057989501378427,-0.03176469430306498,-0.003386262394691739,-0.0007725853571341349,-0.004446063431457782,-0.00014738137152979158,0.030646916019109526,0.03255342676364921,-0.009435400833692332,0.06984167249854492,0.10536862612002483,-0.056801291919368876
9,8.342030200001318,0.02005489396613803,-0.03178389343076855,-0.0033870000797403864,-0.0006374112809466654,-0.004302180011970899,-0.00018933796364083608,0.03095392163112944,0.03301624846076218,-0.009685097712761387,0.07006328781469993,0.10554083293825205,-0.0569864198302969
10,8.345893700010492,0.020052394631918744,-0.03180245663372735,-0.003387924306273786,-0.000500887701369079,-0.004156263728019739,-0.0002323921942543162,0.03126189564208894,0.033479810090405994,-0.009935598413270233,0.07028294587000172,0.10570577515756718,-0.057167597724981485
11,8.350010200010729,0.020050497430672016,-0.03182037498309337,-0.003389039899287306,-0.0003630103871941453,-0.004008311402189494,-0.0002765475530969826,0.03157082929991212,0.03394407956576363,-0.010186885579019238,0.07050057238166543,0.10586335919984666,-0.05734481595381824
12,8.355085000002873,0.02004920831283471,-0.03183763953638276,-0.0033903516989246883,-0.00022377514634088172,-0.003858319998788168,-0.00032180745363078676,0.031880713524826285,0.03440902438734621,-0.010438941810291119,0.07071609237943571,0.10601349076868538,-0.057518064312478016
13,8.358992300010868,0.02004853324715421,-0.031854241338101774,-0.0033918645601429204,-8.317782729964777e-05,-0.003706286625664805,-0.00036817523285668087,0.03219153890670506,0.034874611640651206,-0.010691749661317872,0.07092943024149634,0.10615607502385872,-0.057687331961748044
14,8.363188400006038,0.020048478220507208,-0.03187017142038074,-0.0033935833523762275,5.878567941327389e-05,-0.0035522085360340403,-0.0004156541511066084,0.03250329570200622,0.03534080799373086,-0.01094529163724116,0.07114050954569504,0.10629101657106611,-0.05785260731081764
15,8.366806800011545,0.02004904923771203,-0.03188542080361604,-0.0033955129591991197,0.000202119439783705,-0.003396083130315668,-0.0004642473918206236,0.03281597382980891,0.0358075796947604,-0.011199550190554786,0.07134925297718903,0.1064182195953035,-0.05801387795698958
16,8.370879699999932,0.0200502523213345,-0.031899980497120214,-0.003397658277988427,0.0003468274748102075,-0.0032379079579805373,-0.0005139580613076562,0.03312956286794085,0.03627489257077707,-0.011454507717535894,0.07155558237975461,0.1065375879942776,-0.058171130745964965
17,8.374846200007596,0.020052093511487217,-0.03191384149978016,-0.003400024219584247,0.0004929137589981178,-0.0030776807194011916,-0.0005647891884913057,0.033444052049465926,0.03674271202641942,-0.011710146555216596,0.07175941883274316,0.10664902528605509,-0.058324351890488395
18,8.37915220001014,0.02005457886562217,-0.03192699480072347,-0.0034026157079497478,0.0006403822188393521,-0.002915399267708828,-0.0006167437246440244,0.03375943025948686,0.037211003041855754,-0.011966448978856575,0.07196068268698955,0.10675243445512446,-0.05847352704088683
19,8.383795200003078,0.02005771445831669,-0.031939431379992916,-0.003405437679829784,0.0007892367312783766,-0.00275106161066212,-0.0006698245431107277,0.034075686031947994,0.037679730170172204,-0.012223397199533869,0.07215929357507794,0.10684771808580239,-0.058618641315205944
20,8.38734870000917,0.020061506381052602,-0.031951142209229226,-0.0034084950844082726,0.0009394811221639489,-0.0025846659125271024,-0.0007240344390218304,0.03439280754652808,0.03814885753647214,-0.012480973361881996,0.07235517043698599,0.10693477850590763,-0.058759679317810114
21,8.391789300003438,0.020065960741988572,-0.031962118252362046,-0.0034117928829642897,0.0010911191646878148,-0.0024162104959539,-0.0007793761289969944,0.034710782625668124,0.03861834883652535,-0.012739159541843997,0.07254823156627084,0.10701351748917434,-0.058896625113096845
22,8.395884300000034,0.02007108366572557,-0.031972350466309175,-0.003415336048526847,0.001244154577810362,-0.0022456938438684708,-0.0008358522508384511,0.03502959873186962,0.03908816733325541,-0.01299793774417884,0.07273839466649193,0.10708383621419096,-0.05902946220497234
23,8.399916700000176,0.020076881293065386,-0.03198182980168417,-0.003419129565528297,0.0013985910246756014,-0.0020731146013801623,-0.0008934653632128618,0.03534924296521762,0.03955827585502841,-0.01325728990003531,0.07292557687172764,0.10714563555174318,-0.05915817355479582
24,8.404522300013923,0.020083359780762193,-0.031990547203512285,-0.003423178429456315,0.0015544321110150805,-0.001898471577688479,-0.0009522179453233447,0.03566970206085902,0.0400286367946625,-0.013517197864615924,0.0731096947825145,0.10719881599297032,-0.05928274157305205
25,8.4081867000059,0.020090525301267047,-0.031998493611954844,-0.003427487646504427,0.0017116813835407298,-0.0017217637479993322,-0.0010121123965708306,0.03599096238684113,0.04049921210708601,-0.013777643414677718,0.07329066453764663,0.10724327746464621,-0.059403148086655456
26,8.412610200000927,0.020098384042465337,-0.03200565996304199,-0.003432062233221021,0.0018703423283298044,-0.001542990255452362,-0.001073151036204153,0.03631300994222019,0.04096996330672561,-0.01403860824590918,0.07346840180391692,0.1072789193805195,-0.05951937432803569
27,8.416546899999958,0.02010694220740712,-0.032012037189413964,-0.0034369072161568,0.002030418369201128,-0.0013621504130601127,-0.00113533610295838,0.03663583035480985,0.041440851465615075,-0.014300073970335234,0.07364282173508763,0.10730564080548856,-0.05963140095051797
28,8.420755600003758,0.020116206014030306,-0.03201761622107088,-0.0034420276315106197,0.0021919128660802716,-0.0011792437056519557,-0.0011986697546821261,0.03695940887892956,0.041911837212224495,-0.014562022113829174,0.07381383893083161,0.10732334056844117,-0.05973920804950211
29,8.425113000004785,0.02012618169487666,-0.03202238798613108,-0.0034474285247736726,0.0023548291133560343,-0.0009942697918235417,-0.0012631540679540459,0.03728373039279268,0.0423828807305595,-0.014824434113703551,0.07398136738032077,0.10733191723148006,-0.059842775175940305
30,8.429028300000937,0.02013687549680055,-0.032026343411598004,-0.003453114950371958,0.002519170338222696,-0.0008072285058886291,-0.0013287910376889997,0.03760877939575971,0.04285394175872031,-0.015087291316340398,0.07414532050837885,0.10733126902837026,-0.05994208134208724
31,8.433342700009234,0.020148293680670396,-0.03202947342413568,-0.0034590919713070076,0.002684939699012389,-0.0006181198598411849,-0.0013955825767337459,0.037934540006131494,0.04332497958746071,-0.015350574974832595,0.07430561104721277,0.10732129413130934,-0.06003710502342548
32,8.437519000013708,0.020160442521062787,-0.032031768950852836,-0.003465364658794809,0.0028521402835179795,-0.0004269440453198612,-0.0014635305154524047,0.038260995957276576,0.04379595306108868,-0.015614266246630999,0.07446215077479992,0.10730189085614814,-0.060127824141999416
33,8.44184430000314,0.020173328305949204,-0.0320332209200956,-0.003471938091902892,0.0030207751072914473,-0.00023370143556219184,-0.0015326366013014977,0.038588130593128114,0.044266820577826674,-0.015878346191039512,0.07461485058156174,0.10727295737508658,-0.06021421606128472
34,8.446271700013313,0.020186957336375207,-0.03203382026224878,-0.0034788173571855215,0.0031908471119272428,-3.839258736590509e-05,-0.0016029024983934246,0.038915926864896457,0.04473754008819043,-0.016142795766817184,0.07476362057808013,0.1072343916653673,-0.06029625761890199
35,8.449917400008417,0.020201335926132085,-0.0320335579105458,-0.003486007548316953,0.0033623591633318104,0.0001589817569426488,-0.0016743297870504552,0.03924436732751153,0.04520806909489895,-0.016407595829960427,0.0749083701156561,0.10718609181710442,-0.06037392512980418
36,8.45424480001384,0.020216470401420855,-0.032032424801887234,-0.0034935137657227107,0.0035353140499757183,0.0003584206675463947,-0.0017469199633487397,0.039573434136515866,0.04567836465395524,-0.01667272713133309,0.07504900783247684,0.10712795606406221,-0.06044719431638201
37,8.461017900001025,0.02023236710050857,-0.03203041187766795,-0.003501341116208839,0.0037097144811359113,0.0005599230251785918,-0.0018206744386514988,0.03990310904491224,0.04614838337482645,-0.016938170313835172,0.07518544147401302,0.10705988265026449,-0.0605160401680285
38,8.466208700003335,0.020249032373376896,-0.03202751008461287,-0.0035094947125890842,0.00388556308512017,0.0007634875191623114,-0.0018955945391281822,0.040233373398480224,0.046618081420353785,-0.01720390590880024,0.0753175776622218,0.10698176979921203,-0.06058043679812886
39,8.470799200003967,0.02026647258136282,-0.032023710375621316,-0.0035179796733099274,0.004062862407468255,0.0009691126454507057,-0.001971681505256037,0.040564208130597995,0.04708741450666246,-0.017469914331908858,0.07544532181340256,0.10689351572414924,-0.06064035743186525
40,8.475121500014211,0.02028469409679145,-0.03201900371061997,-0.0035268011220733883,0.004241614909130915,0.001176796704665695,-0.0020489364913033967,0.04089559375683789,0.04755633790316174,-0.017736175879478965,0.07556857813304975,0.10679501868962135,-0.060695774566545624
41,8.478995700002997,0.02030370330260074,-0.03201338105742442,-0.003535964187457523,0.004421822964623593,0.0013865378001382367,-0.0021273605647986883,0.04122751036974303,0.04802480643299515,-0.0180026707257866,0.07568724970316808,0.1066861770319999,-0.060746660183879995
42,8.483275300008245,0.020323506591958074,-0.03200683339260933,-0.0035454740025345688,0.004603488860159588,0.0015983338359509647,-0.002206954705990204,0.04155993763418927,0.04849277447322074,-0.01826937892121951,0.07580123865660315,0.10656688910817623,-0.06079298590259805
43,8.487622500004363,0.02034411036786862,-0.031999351702387185,-0.0035553357044866988,0.004786614791763046,0.00181218251498004,-0.002287719807298901,0.041892854783692014,0.04896019595481096,-0.018536280390937493,0.07591044639253694,0.10643705345974268,-0.06083472308491729
44,8.491608000011183,0.020365521042775333,-0.03199092698349562,-0.003565554434219364,0.004971202863369711,0.00202808133693779,-0.002369656672766416,0.04222624061765969,0.049427024364273944,-0.018803354933960525,0.07601477362274574,0.10629656886427831,-0.06087184290450793
45,8.495890300007886,0.020387745038150648,-0.03198155024409336,-0.0035761353359722026,0.005157255084915805,0.0022460275964287886,-0.002452766017499859,0.04256007349810658,0.049893212744103625,-0.019070582222425657,0.07611412030481123,0.10614533410962253,-0.060904316378558934
46,8.499891300001764,0.020410788784079714,-0.03197121250466462,-0.0035870835569275093,0.005344773370409924,0.0024660183809964474,-0.002537048467113307,0.04289433134632004,0.05035871369241969,-0.019337941800956607,0.07620838571905988,0.10598324811702113,-0.06093211440050051
47,8.50585190000129,0.02043465871883515,-0.031959904798932175,-0.0035984042468162423,0.0055337595359926705,0.0026880505691759355,-0.0026225045571670632,0.043228991640248696,0.050823479364498575,-0.01960541308620788,0.07629746852507502,0.1058102099923924,-0.0609552077361483
48,8.510059600012028,0.020459361288443254,-0.031947618174778855,-0.0036101025575215697,0.005724215297985619,0.002912120828554208,-0.0027091347326051495,0.04356403141166568,0.05128746147286344,-0.01987297536620051,0.07638126668470757,0.10562611896479755,-0.06097356698263521
49,8.514461500002653,0.02048490294624164,-0.03193434369517765,-0.0036221836426799403,0.005916142270926052,0.003138225613823717,-0.002796939347188736,0.04389942724288104,0.051750611288275086,-0.020140607799505703,0.0764596773902799,0.10543087457112027,-0.06098716255241136
50,8.518507300002966,0.020511290152428186,-0.03192007243913028,-0.0036346526572796564,0.006109541965587065,0.003366361164851136,-0.0028859186629264667,0.04423515526327483,0.05221287964144294,-0.020408289414440152,0.0765325971158439,0.10522437658423893,-0.06099596467517107
51,8.52204100000381,0.020538529373601296,-0.03190479550261426,-0.0036475147572569444,0.006304415786981875,0.0035965235047460903,-0.0029760728495008266,0.0445711911464594,0.052674216923385496,-0.020675999108266584,0.07659992176080276,0.10500652499250829,-0.060999943429889174
52,8.525485200007097,0.020566627082291334,-0.03188850399953842,-0.0036607750990894925,0.00650076503235902,0.0038287084379330467,-0.00306740198369145,0.04490751010807313,0.05313457308696124,-0.020943715646670268,0.0766615467013216,0.10477722015365969,-0.06099906880191057
53,8.529387800008408,0.020595589756483287,-0.03187118906270688,-0.003674438839387459,0.006698590889187296,0.004062911548233478,-0.003159906048796893,0.04524408690339398,0.05359389764857992,-0.021211417663460675,0.0767173667697049,0.10453636284612321,-0.06099331071436954
54,8.53330980001192,0.020625423879130512,-0.031852841844791424,-0.0036885111344819362,0.00689789443313001,0.004299128196952776,-0.003253584934055322,0.04558089582495221,0.05405213969018394,-0.021479083660323767,0.07676727627497647,0.10428385432033174,-0.060982639030762946
55,8.537566900005913,0.020656135937659616,-0.03183345351931225,-0.0037029971400108714,0.0070986766260089686,0.004537353520979807,-0.0033484384340641145,0.04591791070032457,0.05450924786140996,-0.02174669200654624,0.07681116900802099,0.10401959628847247,-0.06096702356779246
56,8.541579600001569,0.020687732423466335,-0.03181301528162704,-0.0037179020105024374,0.007300938313759366,0.004777582430892797,-0.003444466248198124,0.046255104889792155,0.05496517038148036,-0.022014220938880537,0.0768489381953205,0.10374349091416095,-0.060946434145362195
57,8.54578530001163,0.020720219831402462,-0.031791518349928334,-0.0037332308989558487,0.007504680224373211,0.0050198096090754915,-0.0035416679800280974,0.04659245128372852,0.05541985504127418,-0.02228164856170794,0.07688047648364808,0.1034554407919663,-0.060920840642983226
58,8.555533400009153,0.020753604659253674,-0.03176895396624912,-0.0037489889564196253,0.0077099029658312945,0.005264029507841218,-0.003640043136740372,0.04692992230012316,0.055873249205038854,-0.022548952847398687,0.0769056759041674,0.10315534900901425,-0.0608902130216224
59,8.55941800000437,0.020787893407208307,-0.03174531339747668,-0.003765181331567316,0.007916607024024878,0.005510236347564069,-0.0037395911285584525,0.04726748988165454,0.05632529981300189,-0.022816111636666823,0.07692442781076714,0.10284311922699477,-0.06085452130385554
60,8.563516000009258,0.020823092577316942,-0.031720587936374604,-0.003781813170270685,0.008124792760661968,0.005758424114825889,-0.0038403112681658245,0.047605125492672276,0.056775953383802424,-0.023083102638756122,0.07693662288528957,0.10251865561041157,-0.06081373554171059
61,8.567711900002905,0.020859208672942803,-0.03169476890261288,-0.003798889615170369,0.008334460411162514,0.006008586560568803,-0.0039422027701291615,0.04794280011631609,0.057225156016473114,-0.02334990343151269,0.07694215129659539,0.10218186290861661,-0.060767825819282265
62,8.572470400002203,0.020896248198202867,-0.03166784764380611,-0.003816415805244001,0.008545610082539398,0.006260717198259596,-0.004045264750321777,0.04828048425289417,0.05767285339359173,-0.02361649146159381,0.07694090300311325,0.10183264657891342,-0.06071676229765373
63,8.576654800010147,0.02093421765739966,-0.03163981553655976,-0.003834396875371807,0.008758241751279398,0.006514809302069905,-0.004149496225348663,0.048618147919657725,0.05811899078434361,-0.023882844044934882,0.07693276790169166,0.10147091284822901,-0.060660515246902885
64,8.581228900002316,0.020973123554443775,-0.031610663987524296,-0.003852837955899683,0.008972355261222198,0.006770855905067483,-0.004254896111974044,0.04895576065048593,0.05856351304821457,-0.024148938367239175,0.07691763588411024,0.1010965688258905,-0.06059905502047645
65,8.58545560001221,0.021012972392267043,-0.03158038443445734,-0.003871744172199767,0.009187950321438586,0.007028849797428799,-0.004361463226550711,0.04929329149615648,0.05900636463904323,-0.024414751484219833,0.07689539690888697,0.10070952249336954,-0.060532351964133625
66,8.589294700010214,0.021053770672226427,-0.03154896834729351,-0.0038911206442285057,0.009405026504111838,0.007288783524665878,-0.004469196284449699,0.04963070902466083,0.05944748960862393,-0.024680260321290406,0.07686594110888087,0.10030968283770846,-0.06046037628895482
67,8.593843600014225,0.021095524893498602,-0.03151640722922209,-0.003910972486082223,0.009623583242418684,0.007550649385870521,-0.0045780938994869095,0.04996798132241924,0.059886831611930216,-0.024945441672692175,0.07682915899148254,0.09989696004645467,-0.06038309798286286
68,8.597779700008687,0.02113824155246525,-0.03148269261777232,-0.003931304805550152,0.009843619828421357,0.007814439431986994,-0.004688154583345124,0.050305075996353164,0.060324333912428765,-0.02521027220040806,0.0767849414899681,0.0994712654871827,-0.06030048675545245
69,8.601846000005025,0.02118192714208913,-0.03144781608590622,-0.003952122703664931,0.010065135410966751,0.008080145464102897,-0.004799376744991093,0.05064196017555107,0.060759939387123124,-0.025474728432805693,0.07673317989663182,0.09903251169712321,-0.06021251195267349
70,8.606256099999882,0.021226588151280933,-0.03141176924311889,-0.003973431274250519,0.010288128993593089,0.008347759031766116,-0.004911758690085643,0.050978600512753915,0.061193590531776615,-0.025738786762802456,0.0766737657808957,0.0985806123319514,-0.06011914248314944
71,8.609983600006672,0.021272231064256995,-0.031374543736546086,-0.003995235603467514,0.010512599432442118,0.008617271431321539,-0.005025298620384654,0.051314963185302126,0.06162522946550657,-0.026002423445861816,0.0766065908917869,0.0981154821863449,-0.0600203467886248
72,8.614196300011827,0.021318862359887805,-0.03133613125207912,-0.004017540769355811,0.010738545434174095,0.008888673704268336,-0.005139994633131584,0.05165101389576511,0.062054797936187664,-0.02626561459789897,0.07653154706024914,0.09763703732720991,-0.05991609278818118
73,8.618556000001263,0.02136648851103742,-0.031296523515486875,-0.004040351841374584,0.010965965553885505,0.009161956635644104,-0.005255844720440061,0.05198671787203078,0.062482237326215564,-0.026528336192787525,0.07644852616356411,0.09714519511954266,-0.05980634777052281
74,8.623586900008377,0.02141511598389371,-0.03125571229354489,-0.004063673879939531,0.011194858193024829,0.009437110752432731,-0.005372846768664521,0.05232203986762275,0.06290748865813725,-0.026790564059319694,0.07635742013541401,0.0966398741853091,-0.059691078176538424
75,8.628831000009086,0.02146475123728947,-0.031213689395171322,-0.004087511935957331,0.011425221597313052,0.009714126321997965,-0.005490998557756122,0.052656944161878196,0.06333049260005372,-0.027052273876804412,0.07625812079649573,0.09612099440836197,-0.05957024920042165
76,8.63334750001377,0.021515400722014404,-0.0311704466725698,-0.00411187105035723,0.01165705385466099,0.0099929933505387,-0.005610297760594742,0.05299139455877826,0.06375118947129348,-0.027313441168526364,0.07615051979325763,0.09558847701684443,-0.05944382435493271
77,8.637350800010609,0.021567070880117965,-0.03112597602237895,-0.004136756253619639,0.011890352893079529,0.010273701581572347,-0.00573074194228748,0.053325354386588183,0.06416951924853855,-0.0275740412935282,0.07603450874123191,0.09504224469085745,-0.05931176523788608
78,8.642171100000269,0.021619768144203005,-0.03108026938682854,-0.004162172565301564,0.012125116478593795,0.010556240494443885,-0.005852328559428521,0.05365878649794582,0.064585421572443,-0.027834049438019905,0.07590997916361412,0.09448222170594318,-0.059174031548812504
79,8.645670400001109,0.02167349893671029,-0.031033318754902114,-0.004188124993558702,0.012361342213154174,0.010840599302867326,-0.005975054959322238,0.053991653268962644,0.06499883575501839,-0.02809344060730727,0.07577682237847945,0.09390833395885315,-0.05903058116092997
80,8.649929600011092,0.021728269669193816,-0.03098511616350593,-0.004214618534664057,0.012599027532542587,0.0111267669534996,-0.0060989183791722015,0.054323916598322274,0.06540970078647845,-0.02835218961783299,0.0756349294985787,0.09332050892141432,-0.0588813700145209
81,8.654480400000466,0.021784086741586963,-0.030935653698644115,-0.004241658172522916,0.012838169704275596,0.011414732124542092,-0.006223915945234429,0.054655537906379725,0.06581795534221963,-0.028610271088169235,0.07548419142123292,0.09271867563536063,-0.05872635182450691
82,8.65820900000108,0.02184095654145939,-0.030884923496599867,-0.0042692488781840305,0.013078765825502776,0.011704483224375799,-0.006350044671927331,0.05498647813417124,0.06622353778962037,-0.02886765942849201,0.07532449865898702,0.09210276464043395,-0.05856547784590986
83,8.662556700001005,0.021898885443264737,-0.0308329177451226,-0.004297395609346784,0.01332081282090113,0.01199600839022255,-0.006477301460892566,0.055316697741027085,0.06662638619439057,-0.02912432882951506,0.07515574106257535,0.09147270795391094,-0.058398696835226444
84,8.66655590001028,0.02195787980757906,-0.0307796286846209,-0.004326103309864126,0.013564307440552502,0.012289295486835891,-0.006605683100007862,0.05564615670114971,0.0670264383271912,-0.02938025325162518,0.07497780776958526,0.09082843900400844,-0.05822595510682086
85,8.671177600001101,0.02201794598032988,-0.030725048609361157,-0.004355376909241078,0.013809246257807963,0.012584332105220418,-0.0067351862623525015,0.05597481450077595,0.06742363166939916,-0.029635406414311134,0.07479058724037106,0.09016989242460269,-0.058047196611289924
86,8.675560000003316,0.022079090292015886,-0.030669169868671752,-0.004385221322128584,0.014055625667140316,0.012881105561373252,-0.006865807505127357,0.05630263013507044,0.0678179034179251,-0.029889761785986787,0.07459396727356424,0.08949700390115753,-0.05786236285844623
87,8.683674200001406,0.022141319056917134,-0.03061198486815275,-0.00441564144781254,0.014303441881981205,0.013179602895045665,-0.006997543268531051,0.056629562105423914,0.06820919048962588,-0.030143292572744017,0.0743878350059201,0.08880971002731383,-0.05767139254279122
88,8.687498800005415,0.02220463857229575,-0.030553486070890954,-0.00444664216969778,0.014552690932549916,0.013479810868523288,-0.007130389874581264,0.0569555684163453,0.06859742952486365,-0.030395971704888457,0.07417207674299667,0.08810794819703865,-0.05747422120369151
89,8.691659900010563,0.022269055117587096,-0.030493665998680298,-0.0044782283547867546,0.014803368663663202,0.013781715965418972,-0.007264343525872719,0.057280606571273804,0.06898255689097162,-0.03064777182270959,0.07394657800548864,0.08739165672775075,-0.057270781206027424
90,8.69605510000838,0.022334574953581227,-0.030432517233247504,-0.0045104048531526214,0.015055470732527321,0.014085304389483421,-0.007399400304273584,0.0576046335698777,0.06936450868689382,-0.030898665262846636,0.0737112237138634,0.08666077492709055,-0.057061001913418605
91,8.703979300000356,0.022401204321594686,-0.030370032417482908,-0.004543176497406479,0.015308992606524161,0.014390562063438774,-0.007535556169563782,0.05792760590548707,0.06974322074723707,-0.031148624045579144,0.07346589808050875,0.08591524289778825,-0.056844809898600586
92,8.708265600012965,0.022468949442632533,-0.03030620425667636,-0.0045765481021585045,0.015563929560980735,0.014697474627824808,-0.007672806958019839,0.05824947956144586,0.07011862864519788,-0.031397619863039454,0.07321048449708104,0.08515500151222903,-0.05662212911648559
93,8.712685100006638,0.022537816516540552,-0.03024102551975818,-0.004610524463472766,0.015820276676923286,0.015006027439858209,-0.007811148380949726,0.0585702100075559,0.07049066769639116,-0.031645624068022314,0.07294486552397211,0.08437999246881822,-0.05639288109531813
94,8.717128700009198,0.022607811721147574,-0.03017448904054506,-0.0046451103583155,0.016078028838815577,0.015316205572312381,-0.007950576023179489,0.058889752196336465,0.07085927296227192,-0.03189260766387522,0.07266892285448873,0.0835901580404589,-0.05615698526116709
95,8.720719200005988,0.022678941211397827,-0.03010658771899086,-0.004680310543996641,0.01633718073228016,0.015627993812406753,-0.008091085341499347,0.05920806055915387,0.07122437925175619,-0.032138541296156266,0.07238253753063799,0.08278544094643178,-0.05591435930740034
96,8.725044700011495,0.022751211118473263,-0.03003731452244227,-0.00471612975760446,0.01659772684180269,0.015941376660700814,-0.008232671663077104,0.05952508900437512,0.0715859211235182,-0.03238339524576752,0.07208559030181122,0.08196578450120046,-0.05566491954468099
97,8.728951700002654,0.02282462754890575,-0.029966662486899286,-0.004752572715433167,0.016859661448436994,0.016256338330003582,-0.008375330183843973,0.05984079091664582,0.07194383288891743,-0.032627139423684975,0.07177796166094369,0.08113113269128278,-0.05540858125491984
98,8.733327700014343,0.022899196583679265,-0.029894624718280468,-0.004789644112403377,0.017122978627503043,0.016572862744293336,-0.008519055966861729,0.060155119155361224,0.07229804861497044,-0.03286974336719875,0.07145953192647156,0.08028143032908705,-0.05514525896348126
99,8.737418300006539,0.02297492427732187,-0.029821194393692893,-0.004827348621475389,0.0173876722462786,0.016890933537653165,-0.008663843940675535,0.06046802605466352,0.07264850212862832,-0.0331111762370323,0.07113018144754478,0.07941662309921985,-0.05487486668519466
100,8.741559300004155,0.02305181665698765,-0.029746364762706746,-0.004865690893055188,0.017653735961697177,0.017210534053228248,-0.008809688897655805,0.06077946342371414,0.07299512702015498,-0.033351406815742,0.0707897906351401,0.07853665739967587,-0.05459731820393916
101,8.745894400010002,0.023129879721528485,-0.029670129148634438,-0.0049046755543931675,0.017921163218042057,0.017531647342191054,-0.008956585492336987,0.06108938254696413,0.07333785664601057,-0.033590403507290395,0.07043824013088654,0.0776414804336662,-0.054312527285808494
102,8.749867500009714,0.023209119440555735,-0.029592480949814273,-0.004944307208975558,0.018189947244646634,0.017854256162723934,-0.009104528239755674,0.06139773418590834,0.07367662413303586,-0.03382813433731683,0.07007541109982028,0.07673104039439123,-0.05402040783654245
103,8.754053300013766,0.02328954175349184,-0.0295134136408985,-0.004984590435908557,0.01846008105360384,0.01817834297902105,-0.009253511513791769,0.061704468581925416,0.07401136238295745,-0.03406456695409257,0.06970118552777299,0.07580528650663373,-0.05372087403891288
104,8.75842470000498,0.023371152568611893,-0.029432920774145735,-0.005025529789295196,0.018731557437491397,0.0185038899603105,-0.009403529545514974,0.062009535460642334,0.07434200407693731,-0.03429966862999734,0.06931544639060117,0.07486416896466253,-0.05341384052348985
105,8.762780900011421,0.02345395776207528,-0.029350995980717602,-0.005067129797604959,0.019004368967119562,0.0188308789798962,-0.009554576421538919,0.06231288403625981,0.07466848167953286,-0.0345334062639733,0.06891807759307718,0.07390763902973996,-0.05309922264151156
106,8.766899700000067,0.023537963176947473,-0.029267632971979565,-0.0051093949630362035,0.019278507989294348,0.01915929161421476,-0.00970664608238919,0.06261446301538041,0.07499072744410239,-0.03476574638539673,0.06850896401460027,0.07293564926652761,-0.05277693682160286
107,8.7706637000083,0.023623174622212043,-0.02918282554080584,-0.005152329760871454,0.019553966624598865,0.0194891091419248,-0.00985973232089144,0.06291422060173525,0.07530867341884026,-0.03499665515966312,0.0680879916323545,0.07194815351692453,-0.05244690095849067
108,8.774864500010153,0.023709597871772983,-0.02909656756288823,-0.005195938638825674,0.019830736765198028,0.01982031254301681,-0.010013828780588442,0.06321210450109307,0.07562225145195262,-0.035226098395470744,0.0676550474702434,0.07094510693105122,-0.05210903475652931
109,8.779563200005214,0.02379723866344744,-0.029008852998048843,-0.005240226016387665,0.020108810072662995,0.02015288249794791,-0.010168928954192129,0.06350806192553872,0.07593139319796456,-0.03545404155342108,0.06721001971169913,0.06992646620866115,-0.05176326000948278
110,8.783272400003625,0.02388610269794896,-0.028919675891556525,-0.005285196284154752,0.020388177975813424,0.020486799386807045,-0.010325026182076142,0.06380203959937243,0.07623603012501487,-0.035680449755758153,0.06675279807398163,0.06889218974734831,-0.051409500824965045
111,8.787606200014125,0.023976195637861256,-0.028829030375446908,-0.005330853803160948,0.02066883166859369,0.020822043288513784,-0.01048211365081335,0.06409398376667369,0.07653609352246406,-0.03590528779693898,0.06628327391098672,0.06784223762754439,-0.051047683810242134
112,8.791636400012067,0.02406752310660283,-0.028736910669845867,-0.00537720290419881,0.020950762107981538,0.02115859398005031,-0.010640184391761188,0.06438384019810293,0.07683151450805739,-0.0361285201550038,0.06580134016196097,0.06677657166921751,-0.05067773821738906
113,8.795768400013912,0.024160090687382393,-0.028643311084296318,-0.005424247887135179,0.021233960011924003,0.021496430935723072,-0.010799231279698972,0.06467155419801524,0.07712222403603064,-0.0363501110034206,0.06530689145912025,0.06569515554917928,-0.050299596022682226
114,8.800018700014334,0.024253903922145336,-0.02854822601908815,-0.005471993020221075,0.021518415857308498,0.021835533326465928,-0.010959247031517202,0.06495707061220664,0.07740815290530274,-0.03657002422315225,0.06479982423041412,0.06459795477573257,-0.04991319202024684
115,8.804060500013293,0.02434896831051137,-0.028451649966591146,-0.005520442539395941,0.021804119877966727,0.02217588001917371,-0.011120224204960805,0.06524033383592985,0.07768923176735903,-0.03678822341532301,0.06428003676595609,0.06348493687370353,-0.0495184639593977
116,8.80842160001339,0.024445289308703468,-0.02835357751259076,-0.005569600647586495,0.02209106206271614,0.02251744957607457,-0.01128215519742961,0.06552128782222368,0.07796539113606803,-0.037004671914491125,0.06374742932595176,0.06235607168152243,-0.04911535266879645
117,8.81234140000015,0.024542872328468312,-0.02825400333762654,-0.0056194715140004525,0.022379232153436946,0.022860220254149695,-0.01144503224483809,0.06579987609087604,0.07823656139817226,-0.037219332802405185,0.06320190433587368,0.06121133139764843,-0.04870380217342276
118,8.816651800007094,0.024641722735988362,-0.02815292221833302,-0.005670059273415371,0.022668619643192247,0.023204170004597752,-0.01160884742053659,0.06607604173846655,0.07850267282351256,-0.037432168922303416,0.06264336645261777,0.060050690657575456,-0.04828375982022955
119,8.821001500007696,0.02474184585078579,-0.02805032902878282,-0.0057213680254628975,0.0229592137743932,0.02354927647234434,-0.011773592634296578,0.06634972744791026,0.07876365557619484,-0.03764314289377294,0.06207172252378463,0.05887412677470605,-0.04785517636521946
120,8.824895700003253,0.02484324694461846,-0.02794621874183185,-0.005773401833908711,0.02325100353700292,0.023895516995604448,-0.011939259631362296,0.06662087549814277,0.07901943972692863,-0.03785221712781343,0.061486881839233454,0.057681619827667265,-0.04741800607109222
121,8.829243800006225,0.02494593124036808,-0.027840586430466274,-0.005826164725928445,0.02354397766678665,0.02424286860550021,-0.012105839991568237,0.066889427775872,0.07926995526496021,-0.03805935384255342,0.06088875645387405,0.056473152783703455,-0.04697220686483432
122,8.835089700005483,0.025049903910920837,-0.027733427269151033,-0.005879660691379881,0.023838124643618817,0.024591308025728106,-0.012273325128528745,0.06715532578809666,0.07951513211149432,-0.03826451507969724,0.06027726127528798,0.05524871177543078,-0.0465177404289093
123,8.839086400010274,0.025155170078040686,-0.027624736535179745,-0.005933893682071762,0.024133432689843085,0.024940811672294536,-0.01244170628889985,0.06741851067462702,0.07975490013405646,-0.03846766272104175,0.05965231409426682,0.0540082859725116,-0.04605457223205777
124,8.843765700003132,0.02526173481123558,-0.02751450961002556,-0.005988867611029503,0.02442988976868931,0.02529135565330907,-0.012610974551713852,0.0676789232208715,0.07998918915878822,-0.038668758505193565,0.05901383555910089,0.052751867345945946,-0.04558267153038041
125,8.84772890000022,0.025369603126616878,-0.027402741980692865,-0.006044586351758165,0.02472748358274583,0.025642915768827955,-0.012781120827787885,0.06793650387013177,0.08021792898274066,-0.038867764044095365,0.05836174921173662,0.05147945079614578,-0.0451020113252998
126,8.851666600006865,0.025478779985752157,-0.02728942924106951,-0.0061010537375029775,0.02502620157248433,0.025995467510755262,-0.012952135859203559,0.06819119273670662,0.08044104938729378,-0.0390646408393741,0.05769598162620683,0.050191034378682796,-0.044612568305716305
127,8.856062700011535,0.025589270294511676,-0.027174567093279377,-0.006158273560507738,0.025326030914847163,0.026348986062804187,-0.013124010218859027,0.06844292961940224,0.08065848015243146,-0.039259350298359565,0.05701646245478519,0.04888661930432636,-0.044114322754183706
128,8.860009800002445,0.025701078901908786,-0.027058151349034967,-0.006216249571271409,0.0256269585218908,0.0267034463005235,-0.013296734310089223,0.06869165401504114,0.08087015107016121,-0.03945185374960907,0.056323124525389394,0.04756620993396196,-0.0436072585125771
129,8.864299100008793,0.025814210598934486,-0.026940177930989715,-0.006274985477803182,0.025928971039491717,0.02705882279137663,-0.0134702983663542,0.06893730513282739,0.08107599195874453,-0.03964211245862467,0.05561590384667532,0.04622981411695515,-0.04309136296918429
130,8.868432600007509,0.025928670117386476,-0.026820642874089886,-0.006334484944876338,0.026232054846115942,0.027415089794893027,-0.01364469245099733,0.06917982190790031,0.08127593267908663,-0.039830087643264546,0.054894739459427945,0.044877443371015235,-0.042566626973982793
131,8.872047100012423,0.026044462128692915,-0.026699542326925573,-0.006394751593281192,0.02653619605164391,0.027772221262891097,-0.013819906457068903,0.06941914301439522,0.08146990315054556,-0.040015740488716534,0.0541595735033882,0.04350911280527639,-0.04203304477197023
132,8.877221200003987,0.026161591242731153,-0.026576872553080624,-0.006455788999077401,0.026841380496254643,0.028130190839768345,-0.013995930107215768,0.06965520687958375,0.08165783336664677,-0.04019903216232435,0.05341035142714903,0.042124841150598814,-0.04149061393255073
133,8.881377000012435,0.026280062006641697,-0.0264526299324811,-0.006517600692845942,0.027147593749374734,0.02848897186286223,-0.014172752953635067,0.06988795169877693,0.08183965341115819,-0.04037992382794132,0.05264702201909051,0.040724650806233866,-0.04093933530612838
134,8.885106300003827,0.026399878903637725,-0.026326810962742034,-0.006580190158941015,0.02745482110869333,0.028848537362881416,-0.01435036437808986,0.07011731544973704,0.08201529347421442,-0.04055837666037556,0.05186953743340894,0.03930856784495147,-0.04037921305218455
135,8.889491900001303,0.026521046351810396,-0.0261994122605121,-0.006643560834742157,0.027763047599237613,0.029208860064408152,-0.014528753591989662,0.07034323590780918,0.0821846838684368,-0.04073435185999019,0.05107785338474294,0.037876622074099336,-0.03981025460459961
136,8.893622800009325,0.02664356870293025,-0.026070430562815963,-0.006707716109906851,0.028072257972520612,0.02956991238647101,-0.014707909636534209,0.07056565066204143,0.08234775504559355,-0.04090781066684413,0.05027192909161551,0.03642884709248492,-0.0392324705987033
137,8.90071300001,0.02676745024124505,-0.025939862728393926,-0.006772659325623902,0.028382436705758168,0.029931666443193523,-0.014887821382918122,0.07078449712981999,0.08250443761321911,-0.041078714374651965,0.04945172714835981,0.0349652802493911,-0.03864587485571785
138,8.904867600009311,0.02689269518227429,-0.025807705739038584,-0.0068383937738678464,0.028693568001145205,0.03029409404451277,-0.015068477532597206,0.07099971257186517,0.08265466235091457,-0.04124702434478821,0.048617213694490874,0.03348596263922104,-0.03805048435717791
139,8.908565600009752,0.027019307671600698,-0.02567395670092816,-0.00690492269665466,0.02900563578520433,0.030657166696971102,-0.015249866617616037,0.0712112341083532,0.08279836022691996,-0.04141270202002267,0.047768358388987936,0.03199093919890454,-0.03744631911544123
140,8.913040500003262,0.027147291783659027,-0.025538612845956214,-0.006972249285299045,0.029318623708203612,0.031020855604580205,-0.01543197700099482,0.07141899873368646,0.0829354624152697,-0.041575708937388066,0.046905134317841636,0.030480258897923218,-0.0368334019632796
141,8.916740000000573,0.027276651520522437,-0.02540167153305739,-0.007040376679673534,0.02963251514363482,0.03138513166976339,-0.01561479687716992,0.07162294333180379,0.08306590031403284,-0.04173600674006857,0.04602751814802298,0.0289539748871062,-0.036211758389646374
142,8.92086840000411,0.027407390810686716,-0.02526313024952886,-0.007109307967469643,0.029947293187765595,0.03174996549437975,-0.015798314272485077,0.07182300469230221,0.08318960556377453,-0.041893557188825876,0.04513549021484036,0.02741214442130178,-0.0355814164283323
143,8.925107700008084,0.027539513507852727,-0.025122986612347083,-0.00717904618346129,0.03026294065925919,0.03211532738082853,-0.015982517045732225,0.07201911952651399,0.08330651006511752,-0.04204832217291039,0.04422903455260913,0.025854828783053018,-0.03494240653838787
144,8.929270400010864,0.027673023389707292,-0.02498123836947954,-0.00724959430877069,0.030579440098867768,0.0324811873332274,-0.01616739288873848,0.07221122448389755,0.08341654599653371,-0.04220026372043775,0.04330813884832003,0.02428209354905482,-0.03429476151561369
145,8.934265000003506,0.027807924156702947,-0.02483788340119117,-0.007320955270136929,0.030896773769196004,0.03284751505867299,-0.016352929326998045,0.07239925616770787,0.08351964583424447,-0.04234934400852308,0.04237279442135881,0.022694008902618443,-0.033638516389184026
146,8.937888300002669,0.02794421943083675,-0.02469291972134503,-0.007393131939187405,0.03121492365453193,0.03321427996859387,-0.01653911372034814,0.07258315115120939,0.0836157423727548,-0.04249552537275015,0.041422996264585545,0.02109064962418354,-0.032973708269624945
147,8.945982400007779,0.028081912754428555,-0.024546345478696857,-0.007466127131712334,0.03153387146075286,0.033581451180191284,-0.016725933263684028,0.07276284599370698,0.08370476874467046,-0.042638770315971256,0.04045874293122355,0.01947209514777959,-0.03230037620158069
148,8.949935300013749,0.028221007588898988,-0.024398158958183088,-0.007539943606942471,0.031853598615296914,0.03394899751796609,-0.01691337498771219,0.07293827725576603,0.08378665844172764,-0.04277904151648404,0.039480036380874634,0.017838429919205354,-0.03161856099741832
149,8.954318000003695,0.028361507313547474,-0.024248358582202006,-0.007614584066830221,0.03217408626720258,0.034316887515344084,-0.017101425759737124,0.07310938151389178,0.08386134533775401,-0.04291630183537084,0.038486881877312626,0.016189743545640446,-0.030928305132806207
150,8.958143700001528,0.028503415224330565,-0.024096942911887506,-0.00769005115533427,0.03249531528720905,0.03468508941640449,-0.017290072284478927,0.07327609537485232,0.08392876371101166,-0.043050514323758934,0.037479288116910245,0.014526130718805493,-0.030229652748236618
151,8.962885000000824,0.02864673453264084,-0.023943910648375064,-0.007766347457707872,0.03281726626792152,0.03505357117770138,-0.01747930110492383,0.0734383554914852,0.08398884826648363,-0.043181642230173276,0.036457267494458996,0.012847691290889685,-0.029522649618183038
152,8.971161600013147,0.028791468364086692,-0.023789260634059516,-0.007843475499790946,0.03313991952405028,0.03542230047018779,-0.017669098603206326,0.07359609857935363,0.08404153415888335,-0.043309649007526006,0.03542083621665493,0.011154530373449623,-0.028807343075493607
153,8.975525300003937,0.028937619757273315,-0.02363299185384414,-0.007921437747306102,0.03346325509272216,0.03579124468123911,-0.017859451001521046,0.07374926143354925,0.08408675701580923,-0.04343449831980555,0.0343700143332978,0.009446758403229092,-0.028083782003910308
154,8.979157500012661,0.029085191662585233,-0.023475103436380672,-0.008000236605158747,0.03378725273386717,0.03616037091678043,-0.0180503443630636,0.07389778094562212,0.0841244529613318,-0.043556154049000484,0.03330482575684257,0.007724491213417724,-0.027352016888959513
155,8.983313300006557,0.029234186940970686,-0.023315594655299716,-0.008079874416741368,0.03411189193067853,0.03652964600351698,-0.018241764593003227,0.07404159412055514,0.08415455863977382,-0.0436745803022353,0.03222529847873191,0.005987850086684687,-0.026612099834614864
156,8.987809400001424,0.029384608362728184,-0.023154464930431183,-0.00816035346324217,0.03443715189014828,0.036899036491270194,-0.01843369743948628,0.07418063809559292,0.08417701123976294,-0.04378974141884053,0.031131464784642553,0.004236961630538507,-0.02586408461624795
157,8.993752400012454,0.029536458606295602,-0.022991713829014198,-0.008241675962958179,0.034763011543692594,0.03726850865541928,-0.01862612849467092,0.07431485015910547,0.08419174851691773,-0.04390160197795333,0.030023361177033605,0.002471957715899486,-0.025108026820323412
158,8.99783470001421,0.029689740257042223,-0.022827341066896104,-0.008323844070612948,0.03508944954785297,0.0376380284994364,-0.018819043195797327,0.07444416776873727,0.08419870881736115,-0.04401012680681372,0.028901028627146344,0.0006929757861080033,-0.024343983932842192
159,9.001983500013012,0.029844455806063985,-0.02266134650972012,-0.008406859876679062,0.03541644428508086,0.03800756175753463,-0.019012426826295205,0.0745685285724829,0.08419783110311896,-0.044115280989141484,0.027764512831415216,-0.0010998410162581674,-0.02357201534815994
160,9.005751200005761,0.03000060764898241,-0.022493730174101098,-0.008490725406705566,0.035743973864623815,0.03837707389742608,-0.019206264516927522,0.07468787042908671,0.0841890549767463,-0.04421702987350987,0.026613864077723846,-0.002906344023038677,-0.02279218239988815
161,9.010057000006782,0.030158198084747637,-0.02232449222878898,-0.008575442620650504,0.036072016123489196,0.03874653012318603,-0.019400541246971527,0.07480213142794453,0.08417232070520181,-0.04431533908199365,0.02544913749703963,-0.004726379071194902,-0.022004548394483132
162,9.014251700005843,0.030317229314445797,-0.022153632995819406,-0.008661013412218718,0.03640054862750502,0.03911589537822058,-0.019595241845438382,0.0749112499117121,0.08414756924420476,-0.04441017451883769,0.024270393248404794,-0.006559786272790125,-0.02120917858517026
163,9.018457400001353,0.030477703440111366,-0.021981152951651126,-0.008747439608205088,0.03672954867248208,0.03948513434834456,-0.019790350992330275,0.07501516449783045,0.08411474226412814,-0.04450150237887614,0.023077696328547576,-0.008406399788021168,-0.020406140136420604
164,9.02270350001345,0.030639622463544746,-0.0218070527282896,-0.00883472296784337,0.037058993285463755,0.039854211464976516,-0.019985853219933954,0.0751138140994633,0.08407378217634799,-0.04458928915588914,0.021871116679859547,-0.010266047851619034,-0.019595502131377167
165,9.02688110001327,0.030802988285135575,-0.021631333114396346,-0.008922865182160785,0.037388859226071915,0.04022309090844787,-0.020181732914151186,0.07520713794797015,0.08402463215890478,-0.04467350165108726,0.020650729344595407,-0.0121385528757858,-0.01877733557180748
166,9.031302300005336,0.03096780270269213,-0.021453995056383512,-0.00901186787333854,0.03771912298795396,0.040591736611423124,-0.020377974315866763,0.07529507561519715,0.08396723618194919,-0.04475410698146776,0.01941661438227811,-0.014023731367153862,-0.01795171330155311
167,9.035749800008489,0.031134067410277334,-0.021275039659493202,-0.009101732594078423,0.038049760800324406,0.04096011226243241,-0.020574561522352312,0.07537756703522525,0.08390153903413242,-0.04483107258762711,0.018168856864830742,-0.015921393763144005,-0.017118709854773408
168,9.041310400003567,0.0313017839970517,-0.02109446818886103,-0.009192460826975642,0.03838074862960281,0.041328181309523315,-0.020771478488702873,0.07545455252661831,0.08382748634948828,-0.04490436624078522,0.016907546892077296,-0.017831344457722564,-0.01627840128680068
169,9.045875100011472,0.031470953946123696,-0.020912282070563396,-0.009284053983898035,0.03871206218115062,0.04169590696402939,-0.02096870902930236,0.07552597281430738,0.08374502463359745,-0.04497395604911326,0.0156327795349081,-0.019753381898937376,-0.015430865066339929
170,9.049948300002145,0.031641578633407955,-0.020728482892647972,-0.009376513405371769,0.03904367690110124,0.04206325220445163,-0.021166236819315693,0.07559176905133985,0.08365410128961348,-0.04503981046381172,0.014344654784755247,-0.0216872984603123,-0.01457618009099969
171,9.054119200009154,0.031813659326491696,-0.0205430724061469,-0.009469840359973648,0.03937556797828774,0.042430179780455435,-0.021364045396207596,0.07565188284032029,0.0835546646455558,-0.04510189828557454,0.013043277593844988,-0.023632880297193112,-0.01371442679491913
172,9.060146400006488,0.03198719718350984,-0.02035605252607219,-0.009564036043730146,0.03970771034626112,0.042796652216991644,-0.02156211816129147,0.07570625625551293,0.08344666398159671,-0.045160188671611846,0.01172875802885361,-0.025589907434104588,-0.012845687233298975
173,9.064424800002598,0.032162193252029174,-0.02016742533239275,-0.009659101579523304,0.040040078685412026,0.043162631818533005,-0.02176043838130985,0.0757548318656312,0.0833300495565876,-0.04521465114285607,0.010401211226237597,-0.027558153739270022,-0.011970045059651536
174,9.07100700000592,0.032338648467942065,-0.019977193070992612,-0.00975503801650364,0.04037264742518907,0.04352808067342806,-0.021958989190046498,0.07579755275554813,0.08320477263556957,-0.04526525559078498,0.009060757319095085,-0.02953738670404304,-0.011087585371661789
175,9.078905800008217,0.032516563654370105,-0.019785358154609724,-0.009851846329510194,0.0407053907464111,0.04389296065837907,-0.022157753589966776,0.07583436254844389,0.08307078551823571,-0.04531197228327486,0.007707521529391028,-0.03152736735518055,-0.010198394510974602
176,9.083195200000771,0.03269593952057813,-0.019591923163754875,-0.00994952741849784,0.0410382825836799,0.04425723344304573,-0.022356714453881113,0.07586520542832573,0.08292804156721176,-0.04535477186966618,0.006341634210023043,-0.033527850275744446,-0.009302560014649682
177,9.087382700003218,0.032876776660899026,-0.019396890847610097,-0.01004808210797193,0.041371296627890145,0.04462086049477135,-0.022555854526629823,0.07589002616254473,0.08277649523633487,-0.045393625386190656,0.004963230823562402,-0.03553858351791844,-0.008400170723105699
178,9.09195980000368,0.03305907555366979,-0.019200264124906084,-0.010147511146430388,0.04170440632883974,0.04498380308343475,-0.022755156426794227,0.07590877012412914,0.08261610209969955,-0.04542850426198441,0.0035724520964427516,-0.037559308566796935,-0.007491316897649627
179,9.097583100010525,0.03324283656017925,-0.019002046084778016,-0.010247815205813386,0.04203758489793581,0.045346022286431406,-0.02295460264843424,0.07592138331565454,0.08244681888025428,-0.04545938032554663,0.0021694442751955994,-0.03958976037155098,-0.006576090400246332
180,9.101073500001805,0.03342805992362786,-0.018802239987599258,-0.01034899488096068,0.04237080531101455,0.04570747899377638,-0.023154175562856195,0.07592781239382626,0.08226860347857384,-0.04548622581233069,0.0007543589009238779,-0.041629667232581255,-0.005654584896340897
181,9.104716600006212,0.03361474576810019,-0.018600849265792387,-0.010451050689076804,0.04270404031126299,0.04606813391333798,-0.023353857420417047,0.07592800469137,0.08208141500244653,-0.04550901337298303,-0.000672647231312479,-0.04367875068785682,-0.00472689595203885
182,9.108330800008844,0.03380289409755037,-0.018397877524616957,-0.01055398306920425,0.04303726241223099,0.04642794757620038,-0.023553630352364522,0.07592190824125773,0.0818852137966441,-0.045527716081787295,-0.0021114116427090133,-0.04573672534457902,-0.003793121049730254
183,9.112489100007224,0.033992504794801,-0.018193328542933457,-0.010657792381704802,0.04337044390096565,0.04678688034215863,-0.023753476372715444,0.07590947180237081,0.0816799614739865,-0.04554230744504039,-0.00356176631329412,-0.047803298730403114,-0.0028533595828223956
184,9.116624400005094,0.03418357762055612,-0.017987206273942836,-0.010762478907749213,0.043703556841248554,0.047144892405353925,-0.023953377380169394,0.0758906448824744,0.0814656209464178,-0.04555276140945033,-0.005023537866741449,-0.049878171415384386,-0.0019077129097316021
185,9.121041600010358,0.03437611221242852,-0.017779514845901005,-0.010868042848815334,0.04403657307693185,0.04750194380004136,-0.024153315160060754,0.07586537776225837,0.0812421564550005,-0.04555905237098624,-0.00649654733502663,-0.05196103706439202,-0.0009562844384109928
186,9.12502150000364,0.034570108083982004,-0.017570258562807736,-0.010974484326194916,0.04436946423538651,0.04785799440648851,-0.02435327138635005,0.07583362152037743,0.08100953360053142,-0.045561155184018126,-0.007980610116543253,-0.054051582350110955,8.20322270405977e-07
187,9.130011300003387,0.03476556462378898,-0.017359441905069384,-0.011081803380509233,0.0447022017310582,0.048213003957011905,-0.02455322762365621,0.07579532805785971,0.08076771937429962,-0.04555904517061788,-0.009475536141205696,-0.05614948712614334,0.0009634937292517541
188,9.1340487000125,0.0349624810945039,-0.0171470695301348,-0.011189999971233712,0.045034756769129755,0.04856693204214558,-0.02475316532932956,0.07575045012169773,0.08051668218718284,-0.045552698129991125,-0.010981129849093663,-0.05825442457695839,0.0019316259719072536
189,9.140122200013138,0.035160856631953036,-0.01693314627310392,-0.011299073976231753,0.04536710034928417,0.04891973811693293,-0.024953065855566867,0.07569894132944434,0.08025639189908935,-0.04554209034807112,-0.012497189882794113,-0.060366060956175395,0.002905105025709054
190,9.145498000012594,0.035360690244240926,-0.01671767714730844,-0.011409025191297927,0.045699203269582954,0.04927138150735373,-0.02515291045156853,0.07564075619550419,0.07998681985035154,-0.04552719860735737,-0.014023509119014677,-0.062484055329072835,0.0038838165550493945
191,9.149935200010075,0.03556198081087419,-0.016500667344863988,-0.011519853329710726,0.04603103613045985,0.049621821416891504,-0.02535268026574,0.0755758501554522,0.07970793889342787,-0.04550800019736249,-0.015559874923644405,-0.06460805956366486,0.004867643787288926
192,9.15466890000971,0.03576472708190304,-0.01628212223719317,-0.011631558021795088,0.046362569338812686,0.04997101693323881,-0.025552356347940657,0.07550417959008628,0.07941972342437482,-0.04548447292555634,-0.017106068988562442,-0.06673771832737158,0.005856467364193414
193,9.158605400007218,0.03596892767708103,-0.01606204737551888,-0.011744138814494888,0.046693773112208216,0.0503189270351409,-0.025751919651781304,0.0754257018511781,0.07912214941457811,-0.04545659512911693,-0.018661867260210213,-0.06887266908395809,0.006850165200623583
194,9.163888800001589,0.036174581085043435,-0.015840448491327264,-0.011857595170955621,0.047024617483199985,0.05066551059937946,-0.025951351036976177,0.07534037528615282,0.07881519444225144,-0.04542434568711489,-0.020227040030652916,-0.07101254209722627,0.007848612420411821
195,9.167779600000358,0.036381685662504916,-0.015617331496799744,-0.011971926470117546,0.047355072303749794,0.051010726407892795,-0.026150631271747382,0.07524815926304065,0.0784988377241353,-0.045387704032827214,-0.021801351784554467,-0.07315696034338579,0.00885168127210637
196,9.171427799999949,0.03659023963347674,-0.015392702485213485,-0.012087132006319473,0.04768510724976459,0.05135453315503781,-0.026349741035285007,0.07514901419649962,0.07817306014776496,-0.045346650166661284,-0.02338456123016322,-0.07530553946700402,0.009859241051516485
197,9.174980200012214,0.036800241088504215,-0.015166567731309668,-0.012203210988913494,0.04801469182574633,0.05169688945499338,-0.026548660920264987,0.07504290157249523,0.07783784430355586,-0.04530116466914847,-0.02497642154455747,-0.07745788770455357,0.010871158130129724
198,9.179133400000865,0.03701168798392476,-0.01493893369162898,-0.012320162541890877,0.048343795369545514,0.052037753849304,-0.02674737143542327,0.07492978397217058,0.0774931745177427,-0.04525122871361874,-0.026576680200085502,-0.07961360582253413,0.011887295957764178
199,9.18384120000701,0.03722457814114706,-0.014709807004813669,-0.01243798570351939,0.04867238705722056,0.052377084814572275,-0.02694585300818493,0.07480962509804945,0.0771390368850079,-0.04519682407917095,-0.028185078728408846,-0.08177228725868534,0.012907514980344351
200,9.187830700000632,0.03743890924595177,-0.014479194491875519,-0.012556679425992276,0.04900043590802132,0.05271484077028895,-0.027144085987352188,0.07468238979997752,0.07677541930018124,-0.04513793316406921,-0.029801352832715306,-0.08393351816090319,0.013931672627202822
201,9.191783000002031,0.037654678847814434,-0.014247103156429172,-0.01267624257508916,0.04932791078947618,0.053050980086803645,-0.027342050645851105,0.07454804410034048,0.07640231149052679,-0.045074538998824604,-0.031425232398342134,-0.08609687742209464,0.014959623357007045
202,9.195896600009291,0.03787188435925083,-0.014013540184890143,-0.01279667392984914,0.04965478042259692,0.0533854610934383,-0.027539727183534424,0.07440655521991206,0.0760197050471365,-0.04500662525918844,-0.03305644150314307,-0.08826193687597048,0.015991218665780904
203,9.19986880000215,0.03809052305518558,-0.013778512946636923,-0.012917972182256304,0.04998101338719267,0.05371824208673345,-0.02773709573004232,0.0742578916029811,0.07562759345549862,-0.044934176279163594,-0.034694698232943154,-0.09042826144610036,0.017026307017645303
204,9.204207600007068,0.038310592072344135,-0.013542028994136614,-0.013040135936937916,0.05030657812729536,0.054049281338829996,-0.02793413634771945,0.07410202294481943,0.07522597212558298,-0.044857177064605624,-0.036339714568059296,-0.09259540927552543,0.018064733777626036
205,9.208233800003654,0.038532088408669,-0.013304096063033465,-0.013163163710875544,0.050631442956714755,0.054378537105979535,-0.02813082903459507,0.07393892021780503,0.07481483842127169,-0.04477561330682393,-0.03799119675282861,-0.09476293174331522,0.01910634126596656
206,9.212370000008375,0.0387550089227605,-0.0130647220721998,-0.01328705393312941,0.05095557606469319,0.05470596763718447,-0.028327153727419483,0.07376855569564633,0.07439419169029914,-0.04468947139570616,-0.03964884522454899,-0.09693037334109912,0.020150968745426504
207,9.216914300006463,0.03897935033334261,-0.012823915123748723,-0.013411804944576161,0.051278945521673266,0.05503153118297116,-0.028523090304759365,0.07359090298012914,0.07396403329476639,-0.04459873843343079,-0.04131235432555274,-0.09909727158264513,0.02119845239259796
208,9.220692900009452,0.03920510921875438,-0.012581683503008034,-0.013537414997660391,0.051601519285187324,0.05535518600429783,-0.028718618590154548,0.07340593702786823,0.07352436664187488,-0.04450340224784336,-0.042981412354082114,-0.10126315697908139,0.022248625328978977
209,9.225169600002118,0.03943228201646742,-0.012338035678454748,-0.013663882256160123,0.051923265205859964,0.05567689038159749,-0.028913718355330777,0.07321363417660762,0.07307519721465833,-0.044403451405896306,-0.04465570163706736,-0.10342755299792608,0.02330131760313676
210,9.229024200001732,0.03966086502263003,-0.012092980301609638,-0.01379120479496653,0.05224415103352838,0.05599660262395564,-0.029108369323474454,0.07301397217133343,0.07261653260307599,-0.044298875227181705,-0.04633489867350734,-0.10558997600832869,0.02435635624411766
211,9.233244100003503,0.039890854391638454,-0.011846526206891193,-0.01391938059987816,0.05256414442347406,0.05631428107842606,-0.029302551172564178,0.07280693018931565,0.07214838253522526,-0.044189663796902354,-0.048018674205434,-0.10774993528124403,0.025413565379925153
212,9.237674400006654,0.040122246135735624,-0.011598682411428396,-0.0140484075674099,0.05288321294276296,0.05662988413948249,-0.029496243538759345,0.07259248886559805,0.0716707589084334,-0.04407580797836456,-0.0497066931983784,-0.10990693303158652,0.02647276635294005
213,9.241703100007726,0.0403550361246381,-0.011349458114831715,-0.014178283504616944,0.053201324076700904,0.05694337025860737,-0.02968942601984134,0.07237063031821142,0.07118367582010009,-0.043957299424936105,-0.05139861487225518,-0.11206046449154589,0.027533777652639004
214,9.2461226000014,0.040589220085191516,-0.011098862698921722,-0.014309006128933963,0.05351844523539508,0.05725469795401418,-0.029882078178707097,0.07214133817339242,0.07068714959814565,-0.04383413059312963,-0.05309409271082215,-0.11421001787445974,0.028596414798194827
215,9.249828200001502,0.04082479360105505,-0.010846905727414742,-0.01444057306802974,0.053834543760430835,0.05756382582050346,-0.03007417954692514,0.0719045975907138,0.07018119883217074,-0.04370629475559104,-0.0547927746978235,-0.11635507430664756,0.029660490510324933
216,9.254128200002016,0.041061752112415514,-0.01059359694556496,-0.014572981859677545,0.05414958693165368,0.05787071253945869,-0.03026570962834314,0.07166039528623043,0.06966584440450284,-0.04357378601267451,-0.056494303461368106,-0.11849510797537784,0.030725814903300747
217,9.259032900008606,0.04130009091573135,-0.010338946279762336,-0.014706229951641442,0.05446354197404929,0.058175316888974773,-0.03045664790274555,0.07140871955634231,0.06914110952005721,-0.043436599303745535,-0.05819831604778007,-0.12062958624694534,0.03179219556479156
218,9.262521000011477,0.04153980516350709,-0.010082963837085807,-0.014840314701578771,0.05477637606473499,0.05847759775411603,-0.030646973829560383,0.07114956030292564,0.06860701973634696,-0.04329473041805508,-0.05990444387997722,-0.12275796962091977,0.03285943757621994
219,9.267001700005494,0.04178088986409874,-0.00982565990481116,-0.014975233376958984,0.0550880563400603,0.058777514137308126,-0.0308366668516123,0.07088290905756109,0.06806360299374555,-0.04314817600586399,-0.06161231280945177,-0.12487971174229463,0.033927343494746284
220,9.270894500004944,0.042023339881550555,-0.009567044949873022,-0.015110983154999074,0.0553985499028111,0.05907502516886165,-0.031025706398927023,0.07060875900620864,0.06751088964539023,-0.04299693358947527,-0.06332154311617552,-0.12699425945860493,0.03499571334331998
221,9.275797100010095,0.04226714993546366,-0.009307129618280363,-0.015247561122615804,0.05570782382952676,0.05937009011762654,-0.031214071892581255,0.07032710501343671,0.06694891248694325,-0.042841001574445786,-0.06503174962153532,-0.12910105286080234,0.03606434451570394
222,9.27943550000782,0.04251231460089706,-0.009045924734484964,-0.015384964276394929,0.056015845177916974,0.059662668401776905,-0.031401742748605514,0.0700379436461057,0.06637770678613646,-0.042680379261452225,-0.06674254187305861,-0.13119952540330884,0.03713303186834248
223,9.2831290000031,0.04275882830830133,-0.00878344130070226,-0.015523189522577679,0.05632258099438677,0.05995271959972475,-0.0315886983819382,0.06974127319597567,0.06579731031147873,-0.04251506685669643,-0.06845352434868075,-0.13328910406866573,0.0382015681106514
224,9.287787900000694,0.04300668534348571,-0.008519690496184007,-0.01566223367706469,0.05662799832165179,0.06024020346115679,-0.03177491821041977,0.06943709370159694,0.06520776336035543,-0.04234506548034557,-0.07016429623211985,-0.13536920949973916,0.03926974419765051
225,9.295595000003232,0.04325587984761864,-0.008254683676442257,-0.01580209346543755,0.056932064206455434,0.06052507991819483,-0.031960381658820876,0.06912540697288941,0.06460910878657534,-0.042170377173491154,-0.07187445153644181,-0.1374392562892719,0.04033734979140326
226,9.300113200006308,0.04350640581726256,-0.007988432372424062,-0.015942765522998077,0.05723474570739989,0.06080730909667434,-0.032145068162897625,0.06880621661194858,0.06400139202592864,-0.041991004902538924,-0.07358357992337985,-0.13949865341993836,0.04140417379987176
227,9.30419960001018,0.04375825710444321,-0.007720948289636448,-0.016084246394825467,0.05753600990284592,0.061086851327529196,-0.03232895717345826,0.0684795280304333,0.0633846611198712,-0.04180695256143809,-0.07529126685760702,-0.141546804551651,0.042470004648635665
228,9.3092949000129,0.04401142741675376,-0.007452243307221193,-0.01622653253585127,0.05783582389889647,0.06136366715827815,-0.03251202816043798,0.06814534846901768,0.06275896673856078,-0.041618224973686196,-0.07699709349515092,-0.1435831082113225,0.04353463031953022
229,9.31314700000803,0.04426591031749418,-0.0071823294769789775,-0.0163696203109523,0.05813415483746723,0.061637717364611745,-0.03269426061698322,0.06780368701575823,0.062124362202875684,-0.04142482789421921,-0.07870063684658338,-0.14560695801882834,0.04459783833804203
230,9.31709320000664,0.04452169922584622,-0.006911219022342462,-0.016513505995061455,0.05843096990443144,0.061908962962072066,-0.03287563406354305,0.0674545546241134,0.061480903505467525,-0.041226768011527026,-0.0804014695817636,-0.14761774282373435,0.04565941567026544
231,9.32112190000771,0.04477878741708427,-0.006638924337297912,-0.016658185773296547,0.05872623633784863,0.062177365217824444,-0.033056128051972035,0.06709796413302463,0.06082864933157983,-0.04102405295044803,-0.08209915977388564,-0.1496148468280491,0.046719148450831104
232,9.324879500010866,0.04503716802282256,-0.006365457985254955,-0.01680365574110714,0.059019921436285705,0.06244288566251995,-0.03323572216964618,0.06673393028718244,0.0601676610790233,-0.040816691276672694,-0.08379327094036004,-0.15159764992368985,0.04777682166551723
233,9.329441600013524,0.04529683403129906,-0.00609083269786408,-0.0169499119044395,0.05931199256722352,0.06270548610224243,-0.03341439604360529,0.06636246975674868,0.05949800287603231,-0.040604692502324014,-0.08548336233047146,-0.1535655283984063,0.04883221928435955
234,9.333279000013135,0.045557778287696485,-0.005815061373781531,-0.017096950179919787,0.059602417175551106,0.06296512863052771,-0.033592129344717905,0.06598360115509772,0.05881974159504395,-0.04038806708929274,-0.08716898955025232,-0.15551785596664602,0.04988512486166432
235,9.33754150000459,0.04581999349450073,-0.005538157077381307,-0.01724476639505557,0.059891162792127986,0.0632217756404316,-0.03376890179185294,0.06559734505305381,0.05813294686150613,-0.04016682644955121,-0.08884970508665364,-0.15745400461949074,0.05093532213663713
236,9.342000000004193,0.04608347221189703,-0.005260133037414129,-0.01739335628845564,0.06017819704240334,0.06347538983662644,-0.03394469315604738,0.06520372399203146,0.057437691060196264,-0.03994098294321657,-0.09052505864679922,-0.15937334490781072,0.0519825954382189
237,9.3459603000083,0.04634820685820407,-0.004981002645613264,-0.0175427155100681,0.06046348765509367,0.0637259342475245,-0.03411948326466092,0.06480276249529497,0.05673404934154404,-0.03971054987531114,-0.09219459764885123,-0.16127524605142415,0.05302672979829961
238,9.351143100007905,0.04661418971034632,-0.004700779455247076,-0.017692839621436644,0.0607470024709008,0.06397337223743005,-0.034293252005515196,0.06439448707679019,0.05602209962699195,-0.03947554149283194,-0.09385786757126933,-0.16315907633069632,0.05406751075672788
239,9.35487050001393,0.046881412904364615,-0.004419477179618187,-0.017843724095974983,0.06102870945126705,0.06421766751870985,-0.034465979331022745,0.06397892624933849,0.055301922611880786,-0.03923597298322256,-0.09551441233377811,-0.16502420368050907,0.05510472417118691
240,9.358430500011307,0.047149868435965386,-0.004137109690509204,-0.01799536431925937,0.06130857668716518,0.0644587841639705,-0.034637645262312805,0.06355611053012457,0.05457360176559663,-0.03899186047311149,-0.09716377489170078,-0.16686999629620666,0.05613815625898604
241,9.362913100005244,0.0474195481611084,-0.003853691016574992,-0.018147755589339225,0.06158657240790172,0.06469668661823023,-0.03480822989334918,0.06312607244367369,0.05383722332913764,-0.038743221026417196,-0.09880549735799385,-0.16869582314047535,0.057167593873373404
242,9.366875700012317,0.047690443796633224,-0.0035692353416815585,-0.01830089311706582,0.06186266498993302,0.06493133971107494,-0.034977713395039446,0.06268884652626827,0.05309287631081194,-0.03849007264066108,-0.10043912104576275,-0.17050105434503135,0.058192824913865245
243,9.371081200006302,0.047962546920924366,-0.003283757003191634,-0.018454772026438974,0.062136822965707404,0.06516270866879215,-0.03514607601932042,0.062244469328551995,0.0523406524802786,-0.03823243424147092,-0.10206418709410396,-0.17228506168236835,0.0592136385168245
244,9.374866000012844,0.04823584897461535,-0.0029972704901970485,-0.018609387354971578,0.06240901503250404,0.06539075912647475,-0.03531329810321913,0.06179297941445307,0.05158064636010474,-0.037970325677221035,-0.10368023704163905,-0.17404721921386185,0.060229825054920035
245,9.379045700014103,0.04851034126133146,-0.0027097904416980697,-0.018764734054071953,0.06267921006126563,0.06561545714008093,-0.03547936007289125,0.06133441735875411,0.05081295521411777,-0.03770376771354045,-0.10528681324837008,-0.1757869039769509,0.061241176095963634
246,9.383249400008935,0.04878601494847131,-0.002421331644729926,-0.018920806989443824,0.062947377105416,0.0658367691984356,-0.03564424244763386,0.060868825742312636,0.050037679032930826,-0.03743278202831437,-0.10688345923368932,-0.17750349655686287,0.06224748435220833
247,9.387722800005577,0.049062861068027,-0.0021319090324367997,-0.019077600941503885,0.06321348540965077,0.06605466223516328,-0.03580792584388,0.06039624914666403,0.04925492051727666,-0.037157391206637407,-0.10846972000412325,-0.17919638160664575,0.063248543849215
248,9.39207560000068,0.04934087051744285,-0.0018415376820936126,-0.019235110605816848,0.06347750441870764,0.06626910364054325,-0.03597039097916712,0.05991673414636525,0.048464785058968486,-0.036877618734332804,-0.11004514226983897,-0.18086494844302456,0.06424415011039354
249,9.396197600013693,0.049620034060512526,-0.0015502328130759587,-0.019393330593547836,0.06373940378608983,0.06648006127327535,-0.036131618676074784,0.059430329301697477,0.04766738071900379,-0.03659348899128585,-0.11160927435251707,-0.18250859169594208,0.06523410013683174
250,9.399928800005,0.04990034232831436,-0.0012580097847786147,-0.019552255431931995,0.06399915338277228,0.06668750347214292,-0.03629158986613458,0.058937085151818405,0.04686281820282381,-0.03630502724514018,-0.11316166671825392,-0.18412671188064625,0.06621819243782161
251,9.404448600005708,0.05018178582018489,-0.0009648840944831042,-0.019711879564761208,0.06425672330586502,0.06689139906756138,-0.03645028559371249,0.05843705420278736,0.046051210833395854,-0.03601225964436323,-0.11470187262349914,-0.18571871582711,0.06719622713902886
252,9.408164800013765,0.0504643549047302,-0.0006708713751748383,-0.019872197352887783,0.06451208388721426,0.06709171739300498,-0.03660768701985794,0.05793029091504791,0.04523267452270358,-0.03571521321099306,-0.1162294482897815,-0.18728401704136835,0.06816800604887156
253,9.41265860000567,0.05074803982087499,-0.00037598739331038246,-0.020033203074744953,0.0647652057019559,0.06728842829630514,-0.03676377542612252,0.05741685168991929,0.04440732774165767,-0.035413915833121215,-0.11774395327422715,-0.18882203609981937,0.06913333258115073
254,9.416560000012396,0.05103283067894896,-8.024804653542656e-05,-0.02019489092688408,0.06501605957699802,0.06748150215081303,-0.03691853221834302,0.05689679485382684,0.043575291488125105,-0.035108396258318644,-0.1192449508689044,-0.19033220107504278,0.0700920115350291
255,9.420773700010614,0.05131871746181037,0.0002163306386459286,-0.020357255024528367,0.06526461659943597,0.06767090986641729,-0.03707193893040247,0.056370180641288146,0.04273668925310227,-0.034798684088049765,-0.1207320084281163,-0.19181394790326078,0.07104384919770086
256,9.425257400012924,0.05160569002600627,0.0005137325092499084,-0.020520289402143066,0.06551084812488554,0.06785662290040975,-0.037223977227964146,0.05583707117627067,0.04189164698551883,-0.03448480977019723,-0.12220469774000259,-0.19326672073954843,0.07198865365205127
257,9.429014100009226,0.05189373810296919,0.0008119412882391521,-0.02068398801402197,0.06575472578573444,0.06803861326819421,-0.037374628912166974,0.05529753045191618,0.04104029305529297,-0.03416680459077551,-0.12366259538408984,-0.1946899724294094,0.07292623493552937
258,9.433354000007968,0.052182851300249834,0.0011109405769954455,-0.020848344734890063,0.06599622149929743,0.06821685355382784,-0.037523875923286834,0.05475162430876001,0.04018275821399603,-0.033844700665061137,-0.1251052829052989,-0.19608316495819345,0.07385640523477
259,9.437400100010564,0.05247301910278531,0.0014107138578383362,-0.021013353360522135,0.06623530747587669,0.06839131692038468,-0.03767170034435408,0.05419942041292809,0.03931917555396298,-0.033518530927598024,-0.12653234695966617,-0.1974457696512133,0.07477897889668031
260,9.441616500000237,0.0527642308742026,0.0017112444965888321,-0.021179007608377192,0.06647195622672557,0.06856197712013819,-0.03781808440472714,0.05364098823307716,0.03844968046720054,-0.03318832912323039,-0.12794337956904234,-0.1987772672340933,0.07569377219751161
261,9.445894100004807,0.05305647585815669,0.0020125157451773928,-0.021345301118248446,0.06670614057190648,0.06872880850456405,-0.037963010483631314,0.05307639901635621,0.03757441060396796,-0.03285412979913501,-0.1293379785831202,-0.20007714804640142,0.07660060330629245
262,9.449853400001302,0.053349743179703,0.002314510744295428,-0.021512227452928776,0.06693783364804372,0.06889178603415912,-0.03810646111366243,0.05250572576129121,0.03669350582980996,-0.03251596829617517,-0.13071574827511948,-0.20134491249898456,0.07749929244397477
263,9.454406600008952,0.053644021846703575,0.002617212526089475,-0.021679780098891474,0.06716700891594335,0.06905088528806713,-0.038248418984249764,0.05192904318851795,0.03580710818012325,-0.03217388073953596,-0.13207629955685213,-0.20258007163831573,0.07838966207886874
264,9.458183300012024,0.0539393007512664,0.002920604016897187,-0.021847952466986103,0.0673936401680891,0.06920608247349885,-0.03838886694507751,0.051346427711779066,0.03491536181223595,-0.03182790402836283,-0.13341925026657128,-0.20378214763067276,0.07927153717287876
265,9.462424100012868,0.05423556867121737,0.0032246680400241944,-0.022016737893149275,0.0676177015360077,0.06935735443493714,-0.03852778800945673,0.050757957406130254,0.03401841295572424,-0.03147807582423555,-0.13474422575312295,-0.20495067406529346,0.0801447453450584
266,9.466863100009505,0.05453281427160428,0.003529387318560891,-0.022186129639130105,0.06783916749748568,0.069504678663121,-0.038665165357645644,0.0501637119738099,0.03311640986183081,-0.03112443453937113,-0.13605085908110995,-0.20608519614621343,0.0810091168001917
267,9.470799100003203,0.05483102610623212,0.0038347444782381537,-0.022356120893230136,0.06805801288363517,0.06964803330380671,-0.03880098234011807,0.04956377271064452,0.03220950275209765,-0.030767019325724714,-0.13733879106241748,-0.20718527095056488,0.08186448420594394
268,9.475225500005765,0.05513019261922908,0.004140722050321028,-0.022526704771057476,0.06827421288581578,0.06978739716630097,-0.038935222480788026,0.04895822247164164,0.03129784376551733,-0.030405870064270764,-0.1386076707481351,-0.2082504678234175,0.08271068285155364
269,9.479146600002425,0.05543030214664263,0.004447302474539349,-0.02269787431629503,0.06848774306239842,0.06992274973175813,-0.03906786948018407,0.04834714563307739,0.03038158690370005,-0.030041027352711046,-0.13985715577747027,-0.20928036882053297,0.08354755078599437
270,9.483309700008247,0.05573134291806487,0.0047544681020542535,-0.022869622501482507,0.06869857934535442,0.07005407116123208,-0.03919890721856604,0.04773062805502683,0.029460887974138646,-0.02967253249354311,-0.14108691235811147,-0.21027456910842895,0.08437492877762086
271,9.487638000005973,0.05603330305828645,0.005062201198459478,-0.023041942228811993,0.06890669804669039,0.07018134230347546,-0.03932831975899464,0.04710875704362388,0.028535904531864092,-0.029300427482122478,-0.14229661581903702,-0.21123267734786508,0.08519266050915912
272,9.4916011000023,0.05633617058897841,0.005370483946816327,-0.02321482633093691,0.06911207586470615,0.07030454470247946,-0.039456091350343406,0.046481621308739396,0.027606795819344453,-0.028924754993019594,-0.14348595102084988,-0.21215431610327776,0.08600059275153157
273,9.495999300008409,0.056639933430401024,0.005679298450721154,-0.023388267571794037,0.06931468989005808,0.07042366060474547,-0.039582206430248554,0.04584931092263937,0.026673722704546595,-0.02854555836655627,-0.1446546121210691,-0.21303912225310795,0.0867985753688979
274,9.50056170001335,0.05694457940313885,0.005988626737404155,-0.02356225864743834,0.06951451761165418,0.07053867296628123,-0.039706649628002744,0.04521191727972316,0.025736847617233476,-0.028162881595118393,-0.14580230256386098,-0.21388674735492036,0.08758646155029866
275,9.504677200005972,0.05725009622986134,0.006298450760858254,-0.023736792186890412,0.06971153692236402,0.07064956545931332,-0.0398294057673848,0.044569533055271844,0.02479633448382103,-0.027776769307659113,-0.14692873509895557,-0.2146968579415332,0.08836410803022345
276,9.508418299999905,0.057556471537107995,0.006608752404996823,-0.02391186075299613,0.0699057261245517,0.07075632247871151,-0.039950459869417455,0.04392225216502039,0.023852348661076193,-0.027387266754075525,-0.14803363194628086,-0.21546913581516433,0.08913137501079477
277,9.512445300002582,0.05786369285709754,0.006919513486838955,-0.0240874568432983,0.07009706393543097,0.07085892914811932,-0.040069797155059934,0.04327016972246095,0.022905056868391904,-0.02699441979039488,-0.14911672471580809,-0.21620327837166378,0.08988812605459157
278,9.516823300000397,0.058171747629560094,0.00723071575972099,-0.024263572890919956,0.0702855294922234,0.07095737132578389,-0.04018740304783567,0.04261338199911857,0.021954627118639197,-0.02659827486409201,-0.150177753933636,-0.21689899890240408,0.09063422816156413
279,9.520736600010425,0.058480623203591604,0.007542340916532962,-0.024440201265459066,0.07047110235716483,0.07105163561007959,-0.04030326317639601,0.0419519863860143,0.02100122864779237,-0.026198878998600426,-0.1512164694519589,-0.2175560269022991,0.09136955191790999
280,9.52494880001177,0.058790306839529974,0.007854370592978614,-0.024617334273894335,0.0706537625223253,0.07114170934472017,-0.040417363377011975,0.04128608135034238,0.020045031843077425,-0.02579627977732297,-0.15223263066630194,-0.2181741083587306,0.09209397132144087
281,9.529375900005109,0.0591007857108518,0.008166786370857586,-0.024794964161501776,0.0708334904142352,0.07122758062365173,-0.040529689695997635,0.0406157663950266,0.01908620817006121,-0.02539052532967577,-0.15322600596072736,-0.21875300591726285,0.09280736360712667
282,9.533175200005644,0.059412046906089096,0.008479569781368384,-0.024973083112781794,0.07101026689835022,0.07130923829562487,-0.040640228392079356,0.03994114202026716,0.018124930099345283,-0.024981664316630167,-0.15419637273827885,-0.21929249904429834,0.09350960943758187
283,9.537562700003036,0.05972407743076524,0.008792702308430699,-0.025151683252396546,0.07118407328333998,0.07138667196844421,-0.04074896593869226,0.03926230968282982,0.017161371032227354,-0.02456974591508468,-0.15514351762632553,-0.21979238427871636,0.09420059282507198
284,9.541508700000122,0.060036864209349346,0.00910616539202567,-0.025330756646117183,0.07135489132519565,0.07145987201288806,-0.04085588902621232,0.03857937175579036,0.016195705225186402,-0.024154819804091524,-0.15606723646629372,-0.22025247548711235,0.09488020092130209
285,9.54580540000461,0.06035039408722822,0.009419940431552618,-0.025510295301780807,0.07152270323116525,0.07152882956629507,-0.04096098456413192,0.03789243148791383,0.015228107713303737,-0.0237369361510737,-0.15696733449883596,-0.2206726041575878,0.09554832395698494
286,9.549977500006207,0.060664653832695314,0.009734008789200785,-0.025690291170256806,0.07168749166350466,0.07159353653581176,-0.041064239683170946,0.03720159296177372,0.014258754232169397,-0.023316145598581955,-0.15784362646614808,-0.22105261972379778,0.09620485506126505
287,9.554054700012784,0.06097963013895562,0.010048351793334572,-0.025870736146422334,0.07184923974304537,0.0716539856012937,-0.041165641737336126,0.03650696105223312,0.013287821138458882,-0.02289249925209687,-0.15869593676525592,-0.22139238989080165,0.09684969024604397
288,9.559146800005692,0.06129530962614589,0.010362950741890746,-0.026051622070146736,0.07200793105258106,0.0717101702178559,-0.04126517830592506,0.0358086413832184,0.012315485328979399,-0.022466048666923418,-0.15952409964345166,-0.22169180095442895,0.09748272847380207
289,9.563047300005564,0.0616116788433693,0.010677786905786062,-0.026232940727284607,0.07216354964005589,0.07176208461806344,-0.04136283719547052,0.03510674028448494,0.011341924158443366,-0.022036845835397726,-0.16032795921991186,-0.2219507580741734,0.09810387159040887
290,9.566807700000936,0.06192872427074364,0.010992841532333701,-0.026414683850677287,0.07231608002157162,0.07180972381376005,-0.04145860644163218,0.03440136474820108,0.010367315356119336,-0.021604943174371404,-0.16110736973030645,-0.22216918550231368,0.0987130243552043
291,9.570958200012685,0.062246432321462354,0.01130809584866694,-0.026596843121162526,0.07246550718419482,0.07185308359752722,-0.04155247431103105,0.03369262238356677,0.009391836941594392,-0.021170393512154273,-0.16186219549582176,-0.22234702661003264,0.09931009436462615
292,9.57487100000435,0.0625647893438674,0.011623531065168394,-0.026779410168592078,0.07261181658856565,0.07189216054377337,-0.04164442930302663,0.0329806213736694,0.008415667141195814,-0.02073325007666904,-0.16259231063783733,-0.22248424368639516,0.09989499179120288
293,9.579409300000409,0.06288378162353318,0.011939128378903256,-0.026962376572856966,0.07275499417132635,0.07192695200945931,-0.041734460151447356,0.032265470432606934,0.007438984305517941,-0.020293566484685024,-0.1632975991281778,-0.22258081758980086,0.10046762932609574
294,9.58315120000043,0.06320339538536071,0.0122548689770549,-0.027145733864920266,0.07289502634735369,0.07195745613446355,-0.04182255582627324,0.03154727876190261,0.006461966828903209,-0.019851396730477158,-0.16397795475705465,-0.2226367472792936,0.10102792225610224
295,9.587489400000775,0.06352361679568114,0.01257073404036132,-0.02732947352785714,0.07303190001180491,0.071983671841601,-0.04190870553526679,0.030826156007909448,0.0054847930710829355,-0.019406795174383824,-0.16463328085746923,-0.2226520492947131,0.10157578841348966
296,9.59258180001052,0.06384443196436788,0.012886704746550915,-0.027513586997901934,0.07316560254197628,0.07200559883630044,-0.041992898725555186,0.03010221222064406,0.004507641281221323,-0.018959816531906194,-0.16526348999845614,-0.22262675718316938,0.10211114808232918
297,9.596546200002194,0.06416582694695648,0.013202762273776087,-0.027698065665502106,0.07329612179898765,0.07202323760595655,-0.04207512508516556,0.029375557813883655,0.003530689524590355,-0.018510515863088203,-0.16586850373614748,-0.22256092103611505,0.10263392388078511
298,9.600054700000328,0.06448778774677148,0.01351888780404333,-0.027882900876378788,0.0734234461292908,0.07203658941896382,-0.04215537454451394,0.028646303526184903,0.0025541156106771417,-0.01805894856264911,-0.16644825227639246,-0.22245460713035198,0.1031440405104633
299,9.604156500005049,0.06481030031705955,0.013835062526638365,-0.02806808393259379,0.0735475643660119,0.07204565632343744,-0.042233637277853904,0.027914560383942293,0.0015780970230098766,-0.017605170351563552,-0.16700267428076324,-0.2223078974562772,0.10364142442732137
300,9.608499700014365,0.06513335056312813,0.014151267641544993,-0.028253606093622884,0.07366846583013549,0.07205044114563132,-0.04230990370469163,0.027180439664109764,0.000602810851405996,-0.01714923727008269,-0.16753171721401802,-0.22212088907338692,0.10412600364704103
301,9.612871700010146,0.06545692434448898,0.01446748436285634,-0.028439458577435215,0.07378614033151978,0.07205094748806429,-0.04238416449117328,0.02644405285420923,-0.00037156627254480735,-0.016691205671022606,-0.16803533757088315,-0.2218936933240207,0.10459770793469984
302,9.616551600003731,0.0657810074770057,0.01478369392217727,-0.028625632561578768,0.07390057816972966,0.07204717972737179,-0.04245641055144117,0.02570551161306162,-0.0013448582363310745,-0.016231132211120602,-0.1685134999716323,-0.2216264350631362,0.10505646904065061
303,9.620990600000368,0.06610558573504459,0.015099877572016775,-0.02881211918427169,0.0740117701347072,0.07203914301189801,-0.042526633048945266,0.024964927738733943,-0.0023168895042759256,-0.01576907384225318,-0.16896617624037452,-0.22131925199075742,0.10550222048040496
304,9.625256900006208,0.0664306448536281,0.015416016589169244,-0.028998909545499257,0.0741197075073234,0.07202684325904057,-0.042594823397722255,0.02422241313736066,-0.003287485172528121,-0.015305087804724391,-0.16939334597948177,-0.22097229393434667,0.10593489738557774
305,9.629062800013344,0.06675617053059046,0.01573209227808355,-0.029185994708116433,0.07422438205977504,0.07201028715236,-0.04266097326364814,0.0234780797860487,-0.004256471020519437,-0.014839231619792172,-0.16979499699829007,-0.2205857222259243,0.10635443671913815
306,9.633226400008423,0.06708214842873471,0.01604808597421895,-0.02937336569895583,0.07432578605581075,0.07198948213847277,-0.042725074565651736,0.022732039697935923,-0.005223673560488403,-0.014371563081067318,-0.170171124679414,-0.2201597093830628,0.10676077750120166
307,9.637406100009684,0.06740856417799022,0.016363979047386897,-0.029561013509940906,0.0744239122508212,0.07196443642372602,-0.042787119476891726,0.021984404890658303,-0.006188920086137607,-0.013902140245057926,-0.1705217317732189,-0.21969443871386773,0.10715386091188117
308,9.643873500011978,0.06773540337757056,0.016679752905077762,-0.029748929099204274,0.07451875389178843,0.07193515897066356,-0.042847100425887186,0.0212352873532124,-0.007152038718690156,-0.013431021421665608,-0.17084682878671667,-0.21919010388737312,0.10753363017870808
309,9.647943500007386,0.06806265159813057,0.01699538899577161,-0.029937103392210816,0.07461030471708509,0.07190165949429635,-0.04290501009761123,0.02048479901100902,-0.008112858451776138,-0.012958265165718087,-0.1711464343739029,-0.21864690868550712,0.10790003049890697
310,9.651596000010612,0.06839029438392247,0.017310868812232198,-0.030125527282885586,0.07469855895611709,0.07186394845817443,-0.042960841434547196,0.01973305168930952,-0.009071209195311956,-0.012483930268147644,-0.17142057568448194,-0.21806506670335862,0.10825300909082172
311,9.65599190001376,0.06871831725494978,0.01762617389478327,-0.030314191634746204,0.07478351132880191,0.07182203707027231,-0.04301458763770486,0.01898015707521852,-0.01002692181775589,-0.012008075747072319,-0.17166928904168802,-0.21744480105629121,0.10859251530739653
312,9.660043200012296,0.06904670570911886,0.017941285834566435,-0.030503087282039675,0.07486515704487762,0.07177593727869001,-0.04306624216759834,0.01822622667517064,-0.010979828187416628,-0.011530760837978287,-0.1718926206804453,-0.21678634420233753,0.10891850061032744
313,9.664604700010386,0.06937544522438678,0.018256186276779735,-0.030692205030883362,0.07494349180300801,0.07172566176717585,-0.043115798745176154,0.01747137177044404,-0.01192976121314989,-0.011052044985027936,-0.17209062687111773,-0.21608993799713677,0.10923091822601869
314,9.6685179000051,0.06970452126090496,0.01857085692389622,-0.030881535660409975,0.07501851178970115,0.07167122395047024,-0.043163251352722795,0.016715703373560938,-0.012876554886149182,-0.010571987834262088,-0.17226337406234865,-0.21535583389639984,0.10952972296572502
315,9.67252060001192,0.07003391926315759,0.018885279538861648,-0.031071069923916457,0.07509021367803186,0.07161263796946168,-0.04320859423472915,0.015959332182547362,-0.013820044322419546,-0.01009064922648677,-0.17241093922978798,-0.21458429300616313,0.10981487119042786
316,9.676946700012197,0.07036362466209406,0.019199435948270536,-0.03126079855001661,0.07515859462615872,0.0715499186861578,-0.043251821898731634,0.015202368534272735,-0.01476006580500942,-0.009608089190783738,-0.1725334100828779,-0.21377558607126157,0.11008632087748209
317,9.681389100005616,0.07069362287725434,0.019513308045519727,-0.03145071224379734,0.07522365227563703,0.07148308167847056,-0.04329292911612564,0.014444922356894568,-0.015696456826383213,-0.009124367936812256,-0.17263088514555003,-0.21292999347749014,0.11034403197888921
318,9.685474300000353,0.07102389931888657,0.019826877793938665,-0.03164080168797845,0.07528538474951839,0.07141214323481541,-0.0433319109229371,0.013687103122489719,-0.016629056130672133,-0.008639545845174878,-0.17270347424887567,-0.2120478052816836,0.11058796655549258
319,9.690403600005084,0.07135443939005585,0.02014012722989555,-0.03183105754407562,0.07534379065024786,0.07133712034852568,-0.04336876262055139,0.01292901979517486,-0.01755770375631079,-0.008153683458541339,-0.17275130011150144,-0.21112932172868434,0.11081808888991677
320,9.695854600009625,0.07168522848874331,0.0204530384658786,-0.03202147045356662,0.07539886905730821,0.07125803071207744,-0.04340347977640697,0.012170780769865478,-0.018482241082825698,-0.0076668414710230025,-0.17277450028916866,-0.2101748545916697,0.11103436613205493
321,9.700548700013314,0.07201625200993421,0.020765593693551496,-0.03221203103906038,0.07545061952457949,0.0711748927110932,-0.04343605822463099,0.011412493803284466,-0.01940251088523659,-0.007179080713631001,-0.17277322857052188,-0.2091847283415375,0.11123676878190004
322,9.7049357000069,0.07234749534769386,0.021077775186782024,-0.032402729905468775,0.07549904207737773,0.07108772541808932,-0.04346649406660534,0.010654265940469428,-0.020318357391109185,-0.006690462139412637,-0.17274765458605168,-0.20815927951646282,0.11142527040818541
323,9.709183900005884,0.07267894389722973,0.02138956530464264,-0.032593557641180666,0.07554413720916947,0.07099654858597888,-0.04349478367147179,0.00989620344921377,-0.021229626329422793,-0.006201046811379152,-0.17269796163395612,-0.20709885438096085,0.11159984693922376
324,9.712695400012308,0.07301058305693854,0.021700946494382072,-0.03278450481923811,0.07558590587803495,0.07090138264139018,-0.043520923676592035,0.00913841176565748,-0.022136164967075534,-0.005710895893866781,-0.17262434454599193,-0.20600380655630934,0.11176047600616197
325,9.717265000013867,0.0733423982304373,0.02201190129436725,-0.03297556199851445,0.07562434950290507,0.07080224867784916,-0.043544910987977026,0.008380995447460682,-0.023037822136953014,-0.005220070646229088,-0.17252700792150555,-0.204874495349509,0.11190713657471124
326,9.720796100009466,0.07367437482857736,0.022322412336995057,-0.0331667197248943,0.07565946995961363,0.07069916844885156,-0.04356674278069166,0.007624058134895188,-0.02393444825976601,-0.004728632417430513,-0.17240616506143783,-0.2037112846323497,0.11203980894424631
327,9.725138800000424,0.07400649827144085,0.022632462351573457,-0.03335796853245518,0.07569126957679272,0.07059216436085365,-0.043586416499236655,0.006867702513374812,-0.024825895362280165,-0.00423664263974661,-0.17226203763905235,-0.2025145421607079,0.11215847484021016
328,9.729220700013684,0.07433875399031865,0.02294203416717172,-0.03354929894465082,0.07571975113159603,0.07048125946618435,-0.043603929857897926,0.006112030277437096,-0.02571201709317881,-0.0037441628225465123,-0.17209485498230728,-0.2012846388153111,0.11226311716815082
329,9.733370200003264,0.07467112742966933,0.023251110715439338,-0.033740701475495925,0.07574491784527818,0.07036647745589676,-0.043619280841073894,0.0053571420995726,-0.02659266873462848,-0.0032512545481521095,-0.17190485329426364,-0.20002194781061752,0.1123537198494451
330,9.73772820000886,0.0750036040490583,0.0235596750333935,-0.03393216663075231,0.07576677337864438,0.07024784265257876,-0.043632467703588536,0.004603137601049485,-0.0274677072111977,-0.002757979467062446,-0.17169227520042596,-0.1987268441418243,0.11243026805744495
331,9.7415566000127,0.07533616932507678,0.0238677102661749,-0.034123684909116415,0.07578532182737366,0.07012538000312625,-0.043643488970976745,0.0038501153247160118,-0.028336991096568606,-0.0022643992917401276,-0.17145736901148015,-0.19739970406556193,0.11249274825818699
332,9.745881900002132,0.07566880875323996,0.02417519966977179,-0.03431524680340796,0.07580056771722984,0.06999911507149481,-0.043652343439742856,0.0030981727122964364,-0.02920038061789754,-0.0017705757914783914,-0.17120038781977412,-0.1960409047417996,0.11254114789228724
333,9.749854700014112,0.0760015078498639,0.02448212661371217,-0.03450684280175971,0.07581251599918547,0.06986907403143472,-0.043659030177600956,0.0023474060851241354,-0.0300577376593835,-0.0012765707889796775,-0.17092158902630386,-0.19465082422375785,0.11257545525236431
334,9.756184900004882,0.07633425215392088,0.024788474583724053,-0.03469846338880826,0.07582117204446363,0.06973528365921125,-0.04366354852370337,0.0015979106255893762,-0.03090892576654019,-0.0007824461562986147,-0.17062123378790217,-0.19322984163065102,0.11259565974944793
335,9.76008880000154,0.07666702722887281,0.02509422718436376,-0.0348900990468858,0.0758265416394991,0.06959777132630221,-0.043665898088845356,0.0008497803627247379,-0.03175381015128072,-0.000288263809082196,-0.17029958650423552,-0.19177833726729432,0.11260175212814118
336,9.764204100007191,0.07699981866448233,0.02539936814161211,-0.03508174025721268,0.07582863098085363,0.0694565649920736,-0.04366607875564305,0.00010310815815575792,-0.032592257697239495,0.00020591429937582051,-0.16995691467316199,-0.19029669295247092,0.112593724590368
337,9.76861570001347,0.07733261207860158,0.025703881305438405,-0.035273377501090754,0.07582744667005371,0.06931169319643045,-0.04366409067868597,-0.0006420143070440519,-0.033424136967739174,0.0007000261849809278,-0.169593487988473,-0.1887852925359016,0.11257157095901893
338,9.772696800006088,0.07766539311893803,0.02600775065233212,-0.03546500126109728,0.07582299570839057,0.06916318505242253,-0.04365993428465485,-0.0013854965384829984,-0.034249318215650235,0.0011940098402198674,-0.1692095777452927,-0.18724452218626936,0.11253528677062666
339,9.77670100000978,0.07799814746479755,0.02631096028780198,-0.03565660202227929,0.07581528549170409,0.06901107023880865,-0.043653610272409375,-0.002127249236377092,-0.03506767339388606,0.0016878032418201046,-0.16880545749484102,-0.18567477101769805,0.11248486965516476
340,9.78294960000494,0.07833086082880451,0.026613494448842395,-0.03584817027334829,0.0758043238051132,0.06885537899257027,-0.04364511961303877,-0.002867184307427014,-0.03587907617076144,0.002181344361465504,-0.16838140374368857,-0.18407643240738752,0.1124203201975069
341,9.787555800008704,0.07866351895859858,0.026915337506366814,-0.03603969650787502,0.07579011881769562,0.06869614210134098,-0.04363446354985547,-0.0036052148788817025,-0.036683401952053156,0.0026745711810172517,-0.16793769636570777,-0.1824499051495112,0.11234164254283527
342,9.791341800009832,0.07899610763850808,0.027216473967607704,-0.03623117122548415,0.07577267907709476,0.06853339089572645,-0.043621643598312144,-0.0043412553140312156,-0.0374805279064868,0.0031674217085434966,-0.16747461802386385,-0.18079559337469558,0.11224884414049924
343,9.795034700000542,0.07932861269119951,0.027516888478482514,-0.0364225849330483,0.07575201350406345,0.06836715724151023,-0.04360666154585462,-0.005075221221195095,-0.03827033298709063,0.0036598339912919955,-0.16699245211982475,-0.17911390532821822,0.11214193503584458
344,9.80071210001188,0.079661019979303,0.027816565825925222,-0.0366139281458814,0.07572813138699203,0.06819747353178625,-0.04358951945172507,-0.005807029451217955,-0.039052697945958,0.004151746125503792,-0.16649148092784077,-0.17740525280999175,0.1120209274389882
345,9.804526200008697,0.07999331540701378,0.02811549094018325,-0.036805191388931055,0.07570104237647399,0.06802437267903505,-0.043570219646728775,-0.006536598090078003,-0.03982750535068568,0.00464309626560079,-0.16597198514082384,-0.1756700520121541,0.11188583617702816
346,9.809762300006696,0.08032548492166994,0.02841364889707946,-0.03699636519796981,0.07567075647989895,0.06784788810711201,-0.043548764732956685,-0.007263846452398337,-0.04059463960648827,0.005133822637968698,-0.16543424362609427,-0.17390872434405552,0.11173667955514299
347,9.81404470000416,0.08065751451530644,0.028711024920238738,-0.037187440120785085,0.07563728405607528,0.06766805374312942,-0.043525157583431215,-0.007988695071911541,-0.041353986979877785,0.005623863557702895,-0.16487853274684086,-0.17212169642234906,0.1115734795515793
348,9.818253800011007,0.08098939022618568,0.029007604383278745,-0.03737840671836735,0.07560063580990677,0.06748490400923693,-0.04349940134168177,-0.008711065689015113,-0.04210543562069109,0.00611315744410287,-0.16430512582912488,-0.1703093995633911,0.11139626154142651
349,9.821856200011098,0.08132109814030478,0.029303372811964355,-0.037569255566096305,0.07556082278712445,0.06729847381431021,-0.0434714994212546,-0.009430881236557682,-0.042848875581314075,0.006601642834993528,-0.16371429267013074,-0.16847226931094822,0.11120505399823567
350,9.82534690000466,0.0816526243928799,0.02959831588632544,-0.03775997725492478,0.07551785636908805,0.0671087985455627,-0.04344145550516256,-0.010148065823078119,-0.043584198834563506,0.007089258399600593,-0.16310629935119425,-0.166610745298043,0.11099988845331082
351,9.829412800012506,0.08198395516980791,0.029892419442737694,-0.03795056239256009,0.07547174826766495,0.06691591406007733,-0.043409273545282,-0.010862544716950617,-0.044311299291698567,0.007575942952514593,-0.16248140836299182,-0.1647252711685916,0.11078079967025259
352,9.833247900009155,0.08231507670910575,0.03018566947596608,-0.038141001604642594,0.07542251052017078,0.06671985667626008,-0.04337495776167994,-0.01157424433072264,-0.045030072819614894,0.008061635468098316,-0.16183987844126344,-0.16281629438935485,0.11054782562397276
353,9.837908200002856,0.08264597530232765,0.030478052141170643,-0.03833128553592119,0.07537015548438586,0.06652066316522091,-0.04333851264188448,-0.012283092203818066,-0.045740417257205505,0.008546275094266599,-0.16118196460698153,-0.16088426598281094,0.11030100772693531
354,9.841937300006975,0.0829766372959608,0.0307695537558743,-0.03852140485142547,0.0753146958336476,0.06631837074208365,-0.043299942940091055,-0.01298901698722772,-0.04644223243021014,0.009029801168879609,-0.1605079183927711,-0.15892964039763832,0.11004039122930859
355,9.84566900000209,0.08330704909279953,0.03106016080189237,-0.03871135023763421,0.07525614455200134,0.06611301705723652,-0.043259253676288925,-0.013691948428199919,-0.04713542016643934,0.009512153237034962,-0.15981798771880182,-0.15695287565408375,0.10976602520815756
356,9.849874400009869,0.0836371971532983,0.031349859927223576,-0.0389011124036399,0.07519451492942715,0.06590464018750851,-0.04321645013531567,-0.014391817353841641,-0.04781988431189977,0.009993271067366144,-0.1591124170163549,-0.15495443329118383,0.10947796246504199
357,9.854104500001997,0.08396706799690407,0.03163863794790213,-0.03909068208230892,0.07512982055713456,0.06569327862727832,-0.04317153786584061,-0.015088555656893682,-0.048495530745555036,0.010473094668435793,-0.15839144749639397,-0.15293477811134235,0.10917625933192943
358,9.857866300008029,0.08429664820336798,0.03192648184981067,-0.03928005003143712,0.07506207532291423,0.06547897127952114,-0.043124522679275405,-0.015782096281689206,-0.04916226739320902,0.01095156430333053,-0.15765531702401683,-0.1508943779697629,0.10886097509577726
359,9.86261110000487,0.08462592441403688,0.03221337879045379,-0.03946920703490048,0.07499129340655597,0.06526175744679576,-0.043075410648629374,-0.016472373208826895,-0.04982000424041847,0.01142862050100351,-0.15690425997453147,-0.14883370416280164,0.10853217204914856
360,9.866491700013285,0.08495488333312486,0.03249931610069183,-0.03965814390380061,0.0749174892753349,0.065041676822178,-0.04302420810732054,-0.017159321439866218,-0.05046865334978507,0.011904204071313538,-0.1561385075438164,-0.14675323293401718,0.10818991647641077
361,9.87117080000462,0.08528351172896508,0.03278428128643485,-0.039846851477604986,0.07484067767956382,0.06481876948009606,-0.042970921647898945,-0.017842876984724757,-0.05110812888708738,0.01237825612502397,-0.1553582885884374,-0.14465344739144254,0.10783427941342197
362,9.883365700006834,0.0856117964352423,0.033068262030296,-0.04003532062528125,0.07476087364818998,0.06459307586703456,-0.04291555812068214,-0.018522976853747593,-0.05173834715540174,0.012850718095509953,-0.1545638303427317,-0.14253483953780133,0.10746533765156142
363,9.888395200003288,0.0859397243522061,0.033351246193203836,-0.040223542246425444,0.07467809248441709,0.06436463679207037,-0.04285812463228796,-0.01919955905139883,-0.05235922663905439,0.013321531767570205,-0.15375535934358256,-0.14039791259163137,0.10708317557502957
364,9.893044700002063,0.08626728244786493,0.033633221815972655,-0.04041150727238346,0.07459234976135744,0.06413349341719092,-0.04279862854401717,-0.01987256257644818,-0.05297068805811603,0.013790639315261127,-0.15293310280587336,-0.1382431826183386,0.10668788648523415
365,9.897206100009498,0.08659445775916112,0.03391417712082984,-0.04059920666736507,0.07450366131765225,0.06389968724735166,-0.04273707747005409,-0.02054192742773551,-0.053572654426670474,0.014257983342333361,-0.15209728800555086,-0.1360711778727321,0.10627957199430185
366,9.901176700004726,0.08692123739312661,0.03419410051289892,-0.04078663142954957,0.07441204325307324,0.06366326012028292,-0.04267347927549433,-0.021207594598942284,-0.05416505110153833,0.014723506914742468,-0.15124814026832237,-0.13388243587483195,0.10585834015841797
367,9.905173800012562,0.0872476085280193,0.034472980581637426,-0.04097377259218251,0.07431751192418885,0.06342425419611972,-0.04260784207426007,-0.021869506066701915,-0.0547478058148786,0.01518715358470089,-0.15038588200651407,-0.13167750026052633,0.10542430397934537
368,9.908651800011285,0.08757355841444067,0.03475080610222893,-0.04116062122466303,0.07422008394007017,0.06318271194692243,-0.04254017422691666,-0.022527604776917245,-0.055320848695269015,0.01564886741003573,-0.1495107320212572,-0.129456918892754,0.10497758017325484
369,9.913558800006284,0.08789907437643454,0.035027566036928935,-0.04134716843362144,0.07411977615807724,0.06293867614612161,-0.042470484338418,-0.023181834626745855,-0.055884112283728596,0.016108592967434148,-0.14862290543926485,-0.12722124285648234,0.10451828826792606
370,9.918438300010166,0.08822414381256767,0.03530324953636427,-0.04153340536398676,0.07401660567972315,0.062692189857898,-0.04239878125580686,-0.02383214045036259,-0.056437531545976416,0.01656627536387682,-0.14772261371409198,-0.12497102535083279,0.10404655036597005
371,9.922515500002191,0.08854875419699218,0.03557784594078573,-0.041719323200044095,0.07391058984658529,0.06244329642651971,-0.042325074065859926,-0.024478468000955933,-0.056981043878729785,0.017021860247805026,-0.14681006380565348,-0.12270682058994684,0.1035624910333295
372,9.926792400001432,0.0888728930804903,0.035851344781273914,-0.04190491316648154,0.07380174623632742,0.06219203946566701,-0.04224937209269009,-0.02512076392928877,-0.0575145891123154,0.017475293819575435,-0.14588545838449113,-0.12042918341426728,0.10306623718562004
373,9.931371100014076,0.08919654809150189,0.03612373578089815,-0.04209016652942648,0.0736900926587992,0.06193846284774657,-0.04217168489529973,-0.0257589757674877,-0.058038109513555536,0.017926522841629537,-0.14494899655030144,-0.11813866926973628,0.10255791778983878
374,9.935086400000728,0.0895197069371349,0.03639500885582852,-0.042275074597471034,0.07357564715220048,0.06168261069319088,-0.04209202226509373,-0.026393051913910674,-0.05855154978819663,0.018375494646330186,-0.14400087409888238,-0.11583583420770514,0.1020376636504615
375,9.939150800011705,0.08984235740415926,0.036665154116400894,-0.04245962872268652,0.07345842797931369,0.06142452735975123,-0.04201039422336399,-0.02702294161927944,-0.05905485708379466,0.018822157144253508,-0.14304128387140272,-0.11352123499742013,0.10150560755219519
376,9.943250500000431,0.09016448735998427,0.03693416186813496,-0.04264382030162682,0.07333845362378984,0.06116425743177177,-0.041926811018729644,-0.027648594974612865,-0.059547980993131085,0.01926645883327844,-0.14207041604062376,-0.11119542882890691,0.10096188418774611
377,9.947826800009352,0.09048608475361986,0.0372020226127051,-0.042827640776320376,0.07321574278648678,0.060901845709452514,-0.041841283124541814,-0.028269962899871704,-0.06003087355449029,0.019708348806244634,-0.14108845827553593,-0.10885897258489431,0.10040662980972492
378,9.951677800010655,0.09080713761662187,0.0374687270488642,-0.043011081635250775,0.07309031438185495,0.060637337198120964,-0.0417538212362566,-0.02888699713333702,-0.060503489248684844,0.020147776756986598,-0.14009559592670895,-0.10651242238815439,0.09983998207672624
379,9.955982700004824,0.0911276340640216,0.037734266073320324,-0.043194134414325694,0.07296218753436885,0.06037077709752122,-0.041664436268786846,-0.029499650221881845,-0.060965784995359734,0.020584692986640556,-0.13909201231305596,-0.10415633367418002,0.09926208016572827
380,9.960083900004976,0.09144756229523973,0.03799863078156654,-0.043376790697834226,0.07283138157499813,0.06010221079111806,-0.0415731393538198,-0.030107875512866686,-0.06141772015065554,0.02101904841066518,-0.1380778891116285,-0.10179126136573302,0.09867306466951158
381,9.964148300001398,0.09176691059498487,0.03826181246866371,-0.043559042119392294,0.07269791603771024,0.05983168383540655,-0.04147994183710725,-0.0307116271478326,-0.06185925650504478,0.021450794564248053,-0.1370534062754784,-0.09941775990292395,0.09807307717660035
382,9.968345600005703,0.09208566733413687,0.038523802629976456,-0.04374088036287618,0.07256181065599687,0.05955924194923511,-0.041384855275735724,-0.031310860053675726,-0.06229035828125909,0.021879883605639326,-0.1360187418702844,-0.09703638349007584,0.09746226013688795
383,9.972408900008304,0.09240382097061481,0.038784592961862256,-0.043922297163344,0.07242308535945408,0.059284931003133326,-0.04128789143538736,-0.03190552993490637,-0.06271099213429243,0.022306268320378717,-0.13497407285285634,-0.09464768636222709,0.0968407573446498
384,9.976931000011971,0.09272136005023031,0.03904417536231372,-0.04410328430794515,0.07228176027037665,0.05900879700863498,-0.04118906228757301,-0.03249559327165683,-0.06312112715166748,0.022729902128868815,-0.13391957548237568,-0.09225222281592349,0.09620871414397726
385,9.981105000013486,0.09303827320752565,0.03930254193155399,-0.044283833636817524,0.07213785570035573,0.05873088610760355,-0.04108838000682665,-0.03308100731555015,-0.06352073485370913,0.02315073909240526,-0.1328554252180755,-0.08985054731216861,0.095566277191549
386,9.9849463999999,0.09335454916659719,0.039559684972585295,-0.044463937043972356,0.07199139214690946,0.0584512445615528,-0.04098585696788553,-0.03366173008680983,-0.06390978919471449,0.023568733918667786,-0.131781796882798,-0.08744321465007147,0.09491359440664784
387,9.98863770000753,0.09367017674190391,0.03981559699169063,-0.04464358647816663,0.07184239029010592,0.05816991874096202,-0.04088150574283638,-0.034237720371564195,-0.06428826656475062,0.023983841967311667,-0.13069886439658865,-0.08503078009094207,0.09425081503222284
388,9.992232200005674,0.09398514483906119,0.040070270698888515,-0.04482277394376291,0.07169087098921749,0.05788695511458089,-0.04077533909824652,-0.03480893771661775,-0.06465614579191377,0.024396019255994734,-0.12960680077615241,-0.08261379958354424,0.0935780900241449
389,9.99670660000993,0.09429944245562003,0.04032369900834081,-0.04500149150157657,0.07153685527938967,0.05760240023872481,-0.04066736999225714,-0.03537534242675076,-0.06501340814610423,0.02480522246938551,-0.12850577825896503,-0.08019283012255977,0.09289557228861378
390,10.000202900002478,0.09461305868183152,0.040575875038713516,-0.04517973126971009,0.07138036436831914,0.05731630074654666,-0.04055761157163532,-0.03593689556057999,-0.06536003734443205,0.025211408967274064,-0.12739596852770693,-0.07776842995536175,0.0922034167427722
391,10.008563000010328,0.09492598270139696,0.04082679211349039,-0.04535748542437442,0.07122141963295889,0.05702870333728471,-0.04044607716879616,-0.036493558929828265,-0.06569601955680676,0.02561453679411218,-0.12627754400430338,-0.07534115894011187,0.0915017809402883
392,10.012468000000808,0.09523820379220338,0.04107644376123941,-0.045534746200697154,0.0710600426162027,0.05673965476548528,-0.04033278029877104,-0.03704529510654363,-0.06602134341448634,0.02601456469261525,-0.12515067867076346,-0.07291157899671045,0.09079082590345203
393,10.016759900012405,0.09554971132704454,0.04132482371583177,-0.04571150589351726,0.07089625502352696,0.056449201830175634,-0.040217734656110345,-0.03759206742957378,-0.06633600001962517,0.02641145212060618,-0.12401554751348584,-0.07048025381057905,0.09007071638931774
394,10.020756800004165,0.09586049477432702,0.04157192591661332,-0.04588775685816607,0.07073007871961826,0.05615739136400282,-0.040100954111703904,-0.038133840006907664,-0.06663998295122286,0.026805159266953323,-0.12287232615561992,-0.06804774781610762,0.08934162024331245
395,10.025102200001127,0.0961705436987616,0.04181774450852823,-0.04606349151123411,0.07056153572499463,0.05586427022235435,-0.03998245270954381,-0.03867057771892296,-0.06693328826574953,0.027195647062740694,-0.12172119073403821,-0.06561462505743944,0.08860370753777942
396,10.029461700003594,0.09647984776203967,0.04206227384219491,-0.046238702331323676,0.07039064821260471,0.055569885272491557,-0.0398622446634468,-0.03920224621964778,-0.06721591449309512,0.027582877189644493,-0.12056231744631511,-0.06318144849129059,0.0878571500684303
397,10.033181800012244,0.09678839672349479,0.04230550847393432,-0.0464133818597869,0.07021743850443789,0.05527428338270582,-0.03974034435374358,-0.03972881193603179,-0.0674878626310752,0.02796681208668342,-0.119395882551451,-0.06074877957625533,0.08710212135506644
398,10.03750000000582,0.09709618044074933,0.042547443165750716,-0.04658752270144924,0.07004192906812981,0.05497751141150016,-0.03961676632394193,-0.040250242069214244,-0.06774913613777545,0.02834741495860154,-0.11822206228845214,-0.05831717772927514,0.08633879688781343
399,10.041560800003936,0.09740318887034623,0.042788072885264976,-0.04676111752531828,0.06986414251356145,0.05467961619681266,-0.039491525277342426,-0.040766504593080455,-0.06799974092128654,0.02872464978477991,-0.11704103275257974,-0.05588720013019833,0.08556735410550431
400,10.045758400010529,0.09770941206836581,0.04302739280560076,-0.04693415906527752,0.06968410158947727,0.05438064454528814,-0.039364636073623394,-0.04127756825444361,-0.06823968533033323,0.029098481327429704,-0.11585297051103144,-0.05345940211166469,0.08478797248952849
401,10.050238200012243,0.09801484019102782,0.043265398305223676,-0.04710664012076519,0.0695018291800827,0.05408064322158386,-0.03923611372538466,-0.04178340257700537,-0.06846898014743143,0.02946887514132761,-0.1146580529109566,-0.05103433741660104,0.0840008334608862
402,10.054091200014229,0.09831946349527843,0.04350208496773358,-0.04727855355743768,0.06931734830162753,0.05377965893770125,-0.039105973394647046,-0.04228397786424128,-0.06868763858177743,0.02983579758110534,-0.11345645807927458,-0.048612558022691266,0.08320612000948735
403,10.058353700005682,0.0986232723393622,0.04373744858161008,-0.04744989230781767,0.06913068209897805,0.05347773834235401,-0.03897423038933218,-0.042779265203359784,-0.06889567626086428,0.030199215807731203,-0.11224836481928556,-0.04619461386523601,0.08240401676746359
404,10.062423000010313,0.09892625718337908,0.04397148513991152,-0.04762064937192664,0.06894185384216571,0.05317492801037345,-0.03884090015970508,-0.043269236467280134,-0.06909311122093842,0.030559097796443106,-0.11103395224320557,-0.043781052489695986,0.08159470990649627
405,10.06656400000793,0.09922840858982605,0.04420419083992751,-0.04779081781790178,0.0687508869229419,0.05287127443216034,-0.038705998294784306,-0.04375386431536598,-0.06927996389556626,0.03091541234232894,-0.10981339999714977,-0.04137241885562871,0.08077838691085518
406,10.07081500001368,0.09952971722412385,0.04443556208278529,-0.047960390782596986,0.06855780485132017,0.05256682400319062,-0.038569540518735596,-0.044233122197378086,-0.06945625710436987,0.03126812906626742,-0.10858688819808748,-0.03896925533613829,0.07995523672231153
407,10.074394500014025,0.09983017385512831,0.04466559547301018,-0.0481293614721681,0.06836263125209628,0.05226162301356612,-0.03843154268722987,-0.04470698435365452,-0.06962201604158871,0.031617218421780446,-0.10735459657319037,-0.036572101647269775,0.07912544950371686
408,10.079119800007902,0.10012976935562651,0.04489428781804021,-0.04829772316264198,0.0681653898613889,0.05195571763762066,-0.0382920207837767,-0.045175425811509025,-0.06977726826419563,0.03196265169889876,-0.10611670470624955,-0.034181495083886786,0.07828921648464189
409,10.083293900010176,0.10042849470281777,0.04512163612769532,-0.04846546920046951,0.06796610452319123,0.051649153923575095,-0.0381509909160484,-0.045638422387574124,-0.06992204368252895,0.032304401029659396,-0.1048733934949039,-0.03179797123729377,0.07744673088569391
410,10.087406800012104,0.10072634097877951,0.045347637613601215,-0.048632593003062455,0.06776479918589112,0.05134197778322562,-0.038008469312165234,-0.046095950696990295,-0.07005637455470742,0.03264243940008454,-0.10362484636074065,-0.029422064703325885,0.07659818901567308
411,10.09608700001263,0.10102329937091774,0.04557228968856805,-0.048799088059313815,0.0675614978987421,0.05103423498164786,-0.037864472316914366,-0.04654798816637073,-0.07018029548347757,0.03297674066530923,-0.10237125011047987,-0.027054309400538587,0.07574379087743541
412,10.100051500005064,0.10131936117240188,0.04579558996592391,-0.048964947930101504,0.06735622480826965,0.05072597112691284,-0.03771901638790228,-0.046994513050549525,-0.07029384341342149,0.03330727956687819,-0.10111279545095946,-0.024695238539852733,0.07488374058821438
413,10.10411360001308,0.10161451778258376,0.046017536258803206,-0.04913016624877497,0.0671490041545952,0.05041723165981559,-0.03757211809162191,-0.04743550445006673,-0.07039705762753783,0.03363403175156291,-0.09984967659862197,-0.022345384480372422,0.07401824619508612
414,10.108280800006469,0.10190876070740018,0.046238126579390026,-0.0492947367216243,0.06693986026768896,0.05010806184362111,-0.037423794099439904,-0.04787094232448882,-0.070489979743184,0.033956973787038686,-0.09858209035383682,-0.020005278452339525,0.07314751914187806
415,10.11289580000448,0.10220208155975896,0.04645735913811653,-0.049458653128331656,0.06672881756357703,0.049798506753828596,-0.03727406118352612,-0.048300807501768586,-0.07057265370622537,0.03427608317602252,-0.09731023548810676,-0.0176754497575506,0.0722717738681166
416,10.116857100001653,0.10249447205990826,0.04667523234281642,-0.049621909322404636,0.06651590054051203,0.049488611267968774,-0.037122936212716826,-0.04872508168618686,-0.07064512577995918,0.03459133836842995,-0.09603431241551755,-0.015356424865301707,0.0713912272658526
417,10.121036500000628,0.10278592403578901,0.04689174479783381,-0.049784499231591395,0.06630113377511049,0.04917842005546533,-0.03697043614833748,-0.049143747464828545,-0.0707074445313284,0.03490271877074522,-0.0947545225950744,-0.013048727227933345,0.07050609841253391
418,10.12498880000203,0.10307642942337031,0.04710689530308772,-0.04994641685827735,0.06608454191846667,0.04886797756755326,-0.03681657803998366,-0.049556788310278335,-0.07075966081822657,0.03521020475583338,-0.09347106836894632,-0.01075287694345464,0.06961660861207282
419,10.12911380000878,0.10336598026696775,0.047320682853092405,-0.05010765627986327,0.0658661496922663,0.04855732802725174,-0.03666137902125776,-0.049964188585676965,-0.07080182777275035,0.035513777672670964,-0.09218415335244316,-0.008469389769071944,0.06872298159055351
420,10.133482600009302,0.10365456871954472,0.047533106635933874,-0.05026821164912455,0.06564598188485596,0.04824651541942946,-0.03650485630546449,-0.05036593355083994,-0.07083400077984563,0.035813419857875915,-0.0908939821652644,-0.0061987767005066575,0.06782544388486215
421,10.137359300002572,0.10394218704299621,0.04774416603220302,-0.05042807719455152,0.06542406334730315,0.047935583480964924,-0.03634702718124635,-0.05076200936495481,-0.07085623745686756,0.036109114648849416,-0.08960076020724388,-0.0039415440041414744,0.06692422494598263
422,10.14201990001311,0.10422882760841554,0.04795386061388575,-0.05058724722067042,0.06520041898944202,0.047624575690991225,-0.03618790900816379,-0.05115240309073154,-0.07086859763250881,0.036400846396212515,-0.08830469339139714,-0.0016981929797956366,0.06601955697526532
423,10.14588170000934,0.10451448289634345,0.04816219014321049,-0.0507457161083449,0.06497507377589698,0.04731353526124127,-0.036027519212221554,-0.051537102694756566,-0.07087114332427737,0.03668860047551081,-0.0870059877332299,0.0005307802753266536,0.0651116751286012
424,10.151756700011902,0.10479914549699994,0.04836915457145359,-0.05090347831505773,0.0647480527221253,0.047002505126490256,-0.03586587528134605,-0.05191609704803834,-0.07086393871535282,0.03697236330144322,-0.08570484990517536,0.002744885091264622,0.06420081791756366
425,10.156043500013766,0.10508280811049861,0.04857475403770293,-0.05106052837517262,0.06451938089043598,0.046691527935104046,-0.03570299476078682,-0.052289375931227976,-0.07084705013009253,0.037252122343087654,-0.08440148744121573,0.004943636554570587,0.06328722659328592
426,10.16001910000341,0.10536546354704356,0.048778988867580336,-0.051216860900175555,0.06428908338598649,0.04638064603969663,-0.03553889524846029,-0.05265693003696083,-0.07082054600799775,0.0375278661327218,-0.08309610842994589,0.007126556093449879,0.06237114433543432
427,10.164597900002263,0.10564710472710859,0.048981859571923234,-0.05137247057889572,0.0640571853527811,0.04606990148790702,-0.03537359439027379,-0.053018750972383025,-0.07078449687408372,0.03779958427393002,-0.08178892221130499,0.009293171815229918,0.0614528163456959
428,10.168389100013885,0.10592772468159897,0.04918336684542607,-0.05152735217770583,0.06382371196964547,0.04575933601331676,-0.03520710987539815,-0.053374831267608586,-0.07073897530988367,0.03806726745124471,-0.08048013997189764,0.011443018260765304,0.06053248973411554
429,10.17236430000048,0.10620731655199535,0.04938351156524225,-0.051681500540701544,0.06358868844615068,0.04544899102648138,-0.0350394594315071,-0.05372516438347139,-0.07068405592597458,0.03833090743725553,-0.07916997458179942,0.013575636497374474,0.05961041323161628
430,10.176057200005744,0.10648587359047967,0.049582294789546844,-0.05183491058986001,0.06335214001851984,0.04513890760608904,-0.03487066081998747,-0.05406974471854986,-0.0706198153321655,0.038590497099727394,-0.07785864104505796,0.015690574466664747,0.05868683719062937
431,10.1794518000097,0.10676338916004321,0.04977971775606093,-0.051987577325177246,0.06311409194549045,0.04482912649025362,-0.034700731831116084,-0.054408567620873184,-0.07054633210697026,0.038846030408715274,-0.07654635674610369,0.017787387323180887,0.0577620134613442
432,10.1834349000128,0.10703985673457618,0.04997578188053786,-0.05213949582478432,0.06287456950411822,0.044519688067941376,-0.034529690279207534,-0.05474162939710887,-0.07046368676482323,0.03909750244259594,-0.07523334120387422,0.01986563804061904,0.05683619495129841
433,10.18735320000269,0.10731526989893887,0.05017048875521235,-0.05229066124504216,0.06263359798555884,0.04421063237055176,-0.034357553997738134,-0.0550689273221108,-0.07037196172023111,0.039344909391317066,-0.07391981635849257,0.021924897965622032,0.05590963521423507
434,10.19201390001399,0.1075896223490143,0.05036384014721285,-0.052441068820614965,0.06239120269078796,0.04390199906365874,-0.034184340834465164,-0.055390459650623114,-0.07027124125012771,0.039588248558820205,-0.07260600636627791,0.023964747125176555,0.05498258812155479
435,10.19603300000017,0.10786290789174176,0.050555837996938156,-0.052590713864522125,0.06214740892628021,0.043593827438922046,-0.034010068646529557,-0.05570622562502896,-0.07016161145532752,0.03982751836340604,-0.07129213714889036,0.02598477458596579,0.054055307073354215
436,10.199884700006804,0.10813512044513152,0.050746484416398764,-0.052739591768168656,0.06190224199966123,0.04328615640616683,-0.033834755295571936,-0.056016225483096975,-0.07004316021972637,0.040062718333232265,-0.06997843635189761,0.02798457863917546,0.05312804459709929
437,10.204152500009512,0.10840625403826024,0.05093578168752396,-0.05288769800135428,0.06165572721531864,0.042979024485653036,-0.033658418642874825,-0.05632046046536641,-0.06991597717013277,0.040293849103156205,-0.06866513342628273,0.029963766738712115,0.05220105244048839
438,10.2085025000124,0.10867630281124713,0.051123732260435345,-0.0530350281122612,0.06140788986998925,0.042672469800507644,-0.0334810765445064,-0.056618932823609004,-0.06978015363601092,0.04052091241104779,-0.06735245956711709,0.031921955860649026,0.05127458122290074
439,10.212496800013469,0.10894526101521064,0.051310338751687466,-0.05318157772742054,0.06115875524829578,0.04236653006934738,-0.03330274684649504,-0.05691164582767582,-0.06963578260615702,0.040743911091572785,-0.06604064730421358,0.033858772493047244,0.05034888015764107
440,10.216925000000629,0.10921312301220544,0.051495603942476605,-0.053327342551657796,0.06090834861827398,0.04206124259909124,-0.03312344738002769,-0.0571986037703661,-0.06948295868853158,0.040962849070067746,-0.06472993074737134,0.03577385214249702,0.049424196836776284
441,10.220691600014106,0.10947988327513984,0.05167953077681832,-0.053472318368017115,0.06065669522686658,0.041756644277935774,-0.03294319595667814,-0.057479811976426695,-0.06932177807126709,0.04117773135443467,-0.063420545565214,0.03766683962232555,0.04850077682080529
