,time,x,y,z,vx,vy,vz,ax,ay,az,jx,jy,jz
0,7.195361799967941,0.021546030516651077,-0.07609974139471204,0.04121239376223371,0.028758487531940564,-0.018589394297598257,0.021837872610862237,-0.028605237721467267,-0.014123894443736169,-0.021358412790908776,0.026615336023442755,0.14531568797068734,-0.1380335954822178
1,7.20019649999449,0.021667051762652784,-0.07617825915497843,0.041304294959188956,0.02863809483723495,-0.018647663167252197,0.021746576043702833,-0.028491544694920976,-0.0135079278444814,-0.02193961391025397,0.027307444834227805,0.14681441929039232,-0.1376107392336225
2,7.204039099975489,0.021787566319111846,-0.07625701716018175,0.04139580598729068,0.028518187744180693,-0.018703321156561547,0.021652832290212042,-0.028374924719199647,-0.012885650811341643,-0.022519031907401017,0.028003500721617787,0.1483084646078491,-0.13718798520416028
3,7.207490199944004,0.021907576259853682,-0.07633600434403193,0.04148691654252015,0.028398778630945108,-0.01875634169585669,0.02155664886896208,-0.028255361106000375,-0.012257083323769558,-0.02309666748810511,0.028703520097466375,0.14979771948325896,-0.1367654614741819
4,7.211778399941977,0.022027083711051363,-0.07641520952837123,0.04157761635255842,0.02827987994621631,-0.018806698300650963,0.021458033294412374,-0.0281328371152723,-0.011622245805253763,-0.023672521888973876,0.02940751162470904,0.15128207764956597,-0.136343291890921
5,7.215339499991387,0.022146090851523463,-0.07649462142353748,0.04166789517676425,0.028161504209348442,-0.018854364573527953,0.0213569930747055,-0.02800733598564868,-0.010981159131511094,-0.024246596860299202,0.03011547786513439,0.152761430734691,-0.1359215959529506
6,7.218949399946723,0.02226459991303221,-0.0765742286287352,0.04175774280614293,0.028043664010396218,-0.01889931420606833,0.021253535709538793,-0.02787884095547234,-0.010333844640048275,-0.02481889464654849,0.03082741722252694,0.15423566814574366,-0.1355004886365496
7,7.223195599974133,0.02238261318058162,-0.07665401963241504,0.04184714906330623,0.027926372010082832,-0.018941520980817788,0.021147668688124826,-0.027747335276839136,-0.00968032413933073,-0.025389417967732034,0.03154332472372681,0.1557046769304066,-0.13508008070785152
8,7.227216199971735,0.022500132992715402,-0.0767339828126616,0.04193610380242399,0.02780964093971606,-0.0189809587732912,0.021039399487220167,-0.027612802230035895,-0.00902061991951335,-0.02595817000252697,0.03226319087893874,0.15716834122194065,-0.1346604784918565
9,7.231839799962472,0.02261716174181436,-0.0768141064375897,0.04202459690916751,0.027693483601034383,-0.019017601554031073,0.020928735569228193,-0.027475225147196105,-0.008354754766290178,-0.026525154367696483,0.032986999206807165,0.15862654166077825,-0.13424178298182002
10,7.236181499960367,0.022733701874393,-0.07689437866574955,0.04211261830064509,0.027577912865923596,-0.0190514233907285,0.020815684380401423,-0.027334587447611556,-0.007682751976503494,-0.027090375093702265,0.033714724366432455,0.1600791549546318,-0.1338240891912971
11,7.241315399995074,0.02284975589139457,-0.076974787546541,0.042200157925330266,0.027462941675965098,-0.01908239845041327,0.020700253349150023,-0.027190872677142753,-0.007004635375703582,-0.027653836598658825,0.034446331561944245,0.16152605383269653,-0.13340748561065702
12,7.245515399961732,0.02296532634848382,-0.07705532102063707,0.0422872057629831,0.027348583041820102,-0.019110501001722926,0.02058244988446381,-0.027044064548552422,-0.006320429334144069,-0.028215543659362154,0.03518177636311114,0.16296710760084201,-0.13299205355936752
13,7.249754399992526,0.023080415856336873,-0.0771359669204174,0.0423737518245651,0.02723485004243777,-0.019135705417227773,0.0204622813744651,-0.026894146982428913,-0.005630158779659166,-0.028775501379781146,0.03592100509850455,0.1644021823726025,-0.1325778670706952
14,7.253986999974586,0.023195027080927307,-0.07721671297041138,0.042459786152148286,0.02712175582409426,-0.019157986175808543,0.02033975518509646,-0.026741104144203737,-0.00493384921171082,-0.029333715161113817,0.03666395579829513,0.16583114118501532,-0.13216499358521816
15,7.258231899992097,0.023309162743807902,-0.07729754678775165,0.04254529881881907,0.027009313599288647,-0.019177317865099883,0.020214878658926103,-0.026584920477123353,-0.004231526713288963,-0.029890190676127866,0.037410558743393496,0.16725384434559704,-0.13175349459844218
16,7.262174499977846,0.023422825622387428,-0.07737845588263785,0.04263027992857724,0.026897536645503897,-0.019193675183968386,0.020087659114052057,-0.026425580734635207,-0.003523217962032243,-0.03044493384467894,0.03816073623436176,0.16867014894645946,-0.13134342583487518
17,7.266553499968722,0.023536018550201935,-0.07745942765881098,0.042714719616230586,0.026786438303829634,-0.019207032945049867,0.019958103843114035,-0.026263070015308546,-0.002808950246226253,-0.03099795080951934,0.03891440193779869,0.170079908748814,-0.130934837617535
18,7.270640199945774,0.023648744417179925,-0.07754044941403859,0.04279860804728555,0.02667603197742859,-0.01921736607736233,0.01982622011240164,-0.026097373800733084,-0.0020887514768983617,-0.03154924791493276,0.039671460556677245,0.17148297466875745,-0.1305277748798019
19,7.275222999975085,0.023761006169900713,-0.07762150834061118,0.042881935417834346,0.026566331129839728,-0.019224649628945257,0.019692015161046426,-0.025928477993220216,-0.0013626501997187897,-0.032098831682642937,0.040431808351100204,0.17287919410629235,-0.13012227637889695
20,7.279429299989715,0.02387280681184528,-0.07770259152584964,0.04296469195443879,0.026457349283126725,-0.019228858769572935,0.0195554962003333,-0.025756368949309598,-0.0006306756127545294,-0.03264670878381482,0.04119533418473975,0.1742684106215675,-0.1297183744181598
21,7.283247699961066,0.023984149403639018,-0.0777836859526245,0.0430468679140116,0.026349100015898498,-0.01922996879354349,0.019416670413128723,-0.0255810335086446,0.00010714241889896353,-0.03319288601262091,0.04196192073915801,0.1756504644436362,-0.12931609519441786
22,7.28686159994686,0.0240950370632859,-0.07786477849988693,0.043128453583695416,0.02624159696121414,-0.019227955122515634,0.019275544953415043,-0.025402459017237235,0.0008507733496547565,-0.033737370261172114,0.042731446358766634,0.17702519235495995,-0.12891545901732188
23,7.290375599986874,0.024205472966393547,-0.07794585594321193,0.04320943928074017,0.02613485380440723,-0.019222793308411222,0.019132126945930153,-0.025220633340783068,0.001600185937828646,-0.034280168494934024,0.04350378706908033,0.17839242736779531,-0.12851648050600048
24,7.294415099953767,0.02431546034638904,-0.07802690495535379,0.04328981535237907,0.026028884280878486,-0.01921445903638363,0.018986423485909152,-0.025035544870904054,0.0023553482294467643,-0.034821287729316364,0.04427881739216589,0.17975199851549142,-0.12811916880917454
25,7.298583699972369,0.02442500249472538,-0.07810791210681428,0.04336957217570379,0.025923702173867403,-0.019202928127856882,0.018838441638921448,-0.0248471825315859,0.0031162275408795743,-0.035360735006945705,0.04505640964669138,0.18110373064451887,-0.12772352702655845
26,7.303790499980096,0.024534102761078508,-0.0781888638664238,0.04344870015753906,0.025819321312190613,-0.0191881765436405,0.01868818844080411,-0.02465553579132432,0.0038827904408954323,-0.035898517369374994,0.045836432033655464,0.18244744446095107,-0.12732955026561577
27,7.308231999981217,0.024642764553534684,-0.07826974660193584,0.043527189734317316,0.0257157555679111,-0.019170180387119977,0.01853567089773757,-0.024460594685707517,0.004655002733686611,-0.03643464181796679,0.046618746161759206,0.18378295636824316,-0.12693722376835967
28,7.312306199979503,0.02475099133876785,-0.07835054658063496,0.04360503137195395,0.025613018853886078,-0.019148915907514795,0.018380895986508886,-0.02426234985043362,0.005432829439554676,-0.036969115269804086,0.04740320548591475,0.18511007786594996,-0.12654652239059583
29,7.316447099961806,0.02485878664220633,-0.07843124996995883,0.043682215565724124,0.025511125121157743,-0.019124359503231807,0.018223870654959305,-0.024060792557062893,0.006216234772865253,-0.03750194451418146,0.048189655613301845,0.18642861587348544,-0.12615741129592167
30,7.3209317999426275,0.024966154048188183,-0.07851184283813445,0.04375873284014183,0.025410088356199612,-0.01909648772530917,0.018064601822614476,-0.023855914743453898,0.0070051821254640155,-0.03803313617436911,0.04897793565688625,0.18773837388683984,-0.12576984777176983
31,7.325032099965028,0.025073097200104682,-0.07859231115482919,0.04383457374884203,0.025309922578050578,-0.019065277280909607,0.017903096381454493,-0.023647709038100005,0.007799634054387289,-0.03856269667942068,0.04976787948465858,0.1890391520942703,-0.12538378311416273
32,7.328458799980581,0.025179619800531492,-0.07867264079181656,0.04390972887446618,0.025210641835355988,-0.01903070503686799,0.017739361196781895,-0.02343616878002938,0.008599552266253781,-0.039090632241833435,0.05055931658687905,0.19033074700581576,-0.12499916384247564
33,7.332846999983303,0.025285725611347197,-0.0787528175236571,0.04398418882855171,0.02511226020333386,-0.018992748023316245,0.017573403108180116,-0.023221288035827112,0.009404897601850488,-0.03961694883960148,0.05135207239998503,0.1916129518007127,-0.12461593248595777
34,7.337049799971282,0.02539141845383889,-0.07883282702839478,0.04405794425142562,0.025014791780672403,-0.01895138343736093,0.01740522893053285,-0.023003061616803315,0.010215630023454558,-0.04014165220050953,0.052145968017459896,0.19288555660491677,-0.12423402749120646
35,7.341919099970255,0.025496702208794526,-0.07891265488826885,0.04413098581210257,0.024918250686351427,-0.01890658864681508,0.017234845455114976,-0.022781485098453822,0.011031708601759827,-0.040664747783405765,0.05294081980222717,0.19414834842140496,-0.12385338279403853
36,7.345493999950122,0.025601580816581718,-0.07899228659044172,0.04420330420818769,0.02482265105637573,-0.018858341193986033,0.01706225945076986,-0.02255655484089739,0.011853091502610854,-0.04118624075888471,0.05373643952560818,0.195401111176755,-0.12347392788874367
37,7.349598999950103,0.025706058277212528,-0.07907170752774283,0.04427489016578455,0.024728007040424157,-0.018806618799519174,0.0168874776651632,-0.022328268007164396,0.012679735974322308,-0.04170613599114418,0.05453263495143622,0.19664362590594894,-0.12309558777072603
38,7.354004299966618,0.025810138650394,-0.07915090299942887,0.04434573443940859,0.024634332798428714,-0.01875139936629271,0.016710506826113365,-0.022096622578707596,0.013511598335971648,-0.042224438018184415,0.05532921046621147,0.19787567079885351,-0.12271828241584973
39,7.358203699986916,0.025913826055564106,-0.07922985821196052,0.044415827811906304,0.024541642497092817,-0.018692660983360143,0.016531353643012225,-0.02186161736837604,0.014348633965110533,-0.04274115102927377,0.056125967640192134,0.19909702150095926,-0.12234192619051801
40,7.361969799967483,0.026017124671912913,-0.07930855827979594,0.04448516109438063,0.024449950306360997,-0.0186303819299487,0.016350024808345548,-0.021623252031193554,0.015190797288593953,-0.04325627884017242,0.056922705817314956,0.20030745146006443,-0.12196642773593268
41,7.366607499949168,0.02612003873838875,-0.0793869882262012,0.04455372512612298,0.024359270395846223,-0.018564540679479144,0.016166526999322802,-0.02138152707235721,0.016038041773215602,-0.04376982486962188,0.057719222670139424,0.20150673174142159,-0.1215916906852153
42,7.370250099978875,0.026222572553689243,-0.07946513298407772,0.04462151077455238,0.024269616931232155,-0.018495115903643194,0.015980866879595837,-0.02113644385333538,0.016890319914977938,-0.044281792120616975,0.05851531413044337,0.20269463165233398,-0.12121761428819833
43,7.376023299992084,0.02632473047623714,-0.07954297739680703,0.04468850893516196,0.024181004070649038,-0.018422086476513833,0.015793051101046642,-0.02088800460045156,0.017747583234995448,-0.04479218316216488,0.05931077403668887,0.20387091962105636,-0.12084409371194382
44,7.379757099959534,0.026426516924140782,-0.07962050621911293,0.0447547105314732,0.024093445961003556,-0.01834543147865727,0.015603086305659871,-0.02063621241395573,0.018609782276177423,-0.04530100011309169,0.06010539431901898,0.20503536328946645,-0.12047102065365382
45,7.383283199975267,0.02652793637513897,-0.07969770411794092,0.044820106514998244,0.024006956734278218,-0.018265130201271233,0.015410979127447178,-0.02038107127504789,0.019476866599912823,-0.045808244628970804,0.0608989653000435,0.20618773016058264,-0.12009828362995233
46,7.38777749997098,0.026628993366530226,-0.0797745556733552,0.044884687865210306,0.023921550503801972,-0.0181811621503249,0.015216736194429988,-0.020122586052412583,0.020348784788214263,-0.04631391788836931,0.06169127590266666,0.2073277886625136,-0.11972576850890883
47,7.391468499961775,0.02672969249508621,-0.07985104537945313,0.04494844558952274,0.023837241360494484,-0.01809350705067909,0.015020364130679833,-0.019860762507489596,0.021225484449376303,-0.046818020584263494,0.06248211402608277,0.20845530847275545,-0.11935335913455478
48,7.39570139994612,0.0268300384169493,-0.0799271576452969,0.04501137072327668,0.023754043369092294,-0.018002144850178488,0.014821869558373526,-0.01959560729783729,0.022106912222854585,-0.04732055291555244,0.06327126687021645,0.2095700602865625,-0.11898093710718807
49,7.399732299963944,0.026930035847514175,-0.08000287679586249,0.045073454329737396,0.02367197056436473,-0.017907055723730678,0.01462125909990507,-0.01932712797966698,0.022993013782970546,-0.04782151457662062,0.06405852102176161,0.21067181577056784,-0.11860838211859179
50,7.404320299974643,0.027029689561293493,-0.0800781870730058,0.04513468750009979,0.023591036947318688,-0.017808220077367116,0.01441853938002886,-0.019055333010480572,0.023883733843399382,-0.04832090475167876,0.06484366252943873,0.21176034784059444,-0.1182355723455666
51,7.408214899944141,0.027129004391767464,-0.08015307263644586,0.0451950613535028,0.023511256481392302,-0.01770561855228433,0.014213717028019327,-0.018780231750970242,0.024779016163217846,-0.04881872210764548,0.06562647690438508,0.21283543063848895,-0.11786238417228688
52,7.412450699950568,0.027227985231217406,-0.08022751756476498,0.045254567037053106,0.023432643088643703,-0.017599232028853863,0.014006798679874173,-0.018501834467652776,0.025678803551196824,-0.04931496478614652,0.06640674894051986,0.21389683918505012,-0.11748869240967943
53,7.416509499948006,0.027326637030543194,-0.08030150585642583,0.04531319572585815,0.023355210645922463,-0.017489041630627287,0.013797790980541494,-0.018220152336284292,0.026583037868921904,-0.04980963039824664,0.0671842627725866,0.21494434968081247,-0.11711437053873765
54,7.420029799977783,0.02742496479906452,-0.08037502143080537,0.045370938623068596,0.02327897298102956,-0.01737502872831982,0.013586700586167448,-0.01793519744400506,0.027491660037622784,-0.05030271601850095,0.06795880206695684,0.2159777396680261,-0.1167392905486164
55,7.424463999981526,0.027522973604305948,-0.0804480481292455,0.04542778695993031,0.02320394386887074,-0.01725717494375773,0.013373534166373548,-0.01764698279114496,0.028404610042659997,-0.050794218178321304,0.06873015004455019,0.21699678756774557,-0.11636332301729671
56,7.428021999949124,0.027620668571765743,-0.08052056971612032,0.04548373199584602,0.02313013702760124,-0.017135462153824128,0.01315829840656028,-0.017355522293175007,0.029321826936450086,-0.05128413286070797,0.0694980892960816,0.2180012731428373,-0.11598633757426205
57,7.43284299998777,0.027718054884668403,-0.08059256987992001,0.045538765018446774,0.02305756611476269,-0.017009872494381698,0.012941000010228831,-0.017060830784071015,0.030243248846857366,-0.051772455497518265,0.070262401348172,0.21899097793733385,-0.11560820329392706
58,7.437354899942875,0.027815137783700903,-0.08066403223435124,0.04559287734367312,0.02298624472339949,-0.0168803883641477,0.012721645701307738,-0.016762924021924575,0.03116881298382465,-0.05225918096751641,0.07102286659394143,0.21996568442040712,-0.11522878869565896
59,7.441674999950919,0.02791192256673248,-0.08073494031945368,0.0456460603158662,0.02291618637814836,-0.01674699242856079,0.012500242226491065,-0.016461818692892115,0.03209845564054522,-0.05274430359364237,0.07177926489463325,0.2209251758015643,-0.11484796184764615
60,7.4452340999851,0.02800841458851789,-0.080805277602733,0.0456983053078687,0.02284740453132143,-0.01660966762364613,0.012276796357588096,-0.01615753241173172,0.03303211219853489,-0.05322781714193776,0.0725313762674204,0.221869236469904,-0.11446559077169445
61,7.449507199984509,0.028104619260384163,-0.08087502748031006,0.04574960372113568,0.022779912558991252,-0.01646839715983943,0.012051314893870558,-0.015850083719951197,0.033969717132508716,-0.053709714822228714,0.07327898155648187,0.22279765141600097,-0.11408154348977835
62,7.453134299954399,0.02820054204990084,-0.08094417327808612,0.045799946985855385,0.022713723757089507,-0.016323164525810938,0.01182380466441656,-0.015539492080684976,0.03491120401057717,-0.05418998928744446,0.07402186308656997,0.22371020616250237,-0.11369568764226691
63,7.457576599961612,0.028296188480533814,-0.08101269825292426,0.04584932656107984,0.022648851337535244,-0.016173953492287816,0.011594272530463568,-0.015225777871329945,0.03585650549853751,-0.05466863263108025,0.07475980472071049,0.22460668738872452,-0.11330789063800224
64,7.46226519998163,0.028391564131282927,-0.08108058559384686,0.04589773393486546,0.022585308424395673,-0.01602074811584194,0.011362725387773734,-0.014908962377935705,0.036805553365337834,-0.055145636387781714,0.07549259111386762,0.2254868829304069,-0.1129180204757194
65,7.467292799963616,0.028486674636303423,-0.08114781842324895,0.04594516062442364,0.022523108050061733,-0.015863532742666196,0.011129170168981945,-0.014589067794135045,0.03775827848736639,-0.05562099153773571,0.07622000699065383,0.22635058177975892,-0.1125259459986195
66,7.470910099975299,0.028581525684511288,-0.08121437979812754,0.045991598176281144,0.0224622631514179,-0.01570229201232609,0.010893613845924124,-0.014266117221626051,0.03871461085391603,-0.056094688509401754,0.07694183706431712,0.22719757385464476,-0.11213153670908046
67,7.474639599968214,0.028676123019172405,-0.08128025271132663,0.04603703816645035,0.022402786566013685,-0.015537010861489974,0.010656063431962235,-0.013940134669785845,0.03967447956952678,-0.056566717182340145,0.07765786622105762,0.2280276492114921,-0.11173466282650259
68,7.478893499996047,0.028770472437475596,-0.081345420092798,0.046081472200609236,0.02234469102823671,-0.01536767452766089,0.010416525984288735,-0.013611145054598154,0.04063781285281193,-0.057037066890431254,0.07836787968863695,0.22884059725891778,-0.11133519488255919
69,7.483083099999931,0.02886457979008951,-0.08140986481087763,0.046124891914291054,0.02228798916549325,-0.015194268552916692,0.010175008606224428,-0.013279174196844988,0.04160453803216825,-0.057505726421289975,0.07907166307081297,0.22963620638797438,-0.11093300314301008
70,7.487234999949578,0.028958450980703442,-0.08147356967357812,0.04616728897308372,0.02223269349439654,-0.015016778787678084,0.009931518449527851,-0.01294424882074378,0.04257458154148359,-0.05797268401460853,0.07976900223706328,0.23041426399494958,-0.11052795770010149
71,7.491605199989863,0.02905209196555208,-0.08153651742989688,0.04620865507283894,0.022178816416958833,-0.014835191394484928,0.009686062716707113,-0.012606396553069148,0.04354786891603933,-0.058437927362350255,0.0804596832246947,0.23117455631951211,-0.11011992855345848
72,7.496113099972717,0.02914550875292421,-0.08159869077114035,0.04624898193989111,0.02212637021678712,-0.014649492851798855,0.009438648663327638,-0.01226564592261565,0.044524324786852934,-0.05890144360777462,0.0811434921403705,0.23191686819033294,-0.10970878532112621
73,7.499725799949374,0.02923870740265536,-0.08166007233226427,0.04628826133128592,0.022075367055279693,-0.01445966995782728,0.009189283600332233,-0.011922026360150065,0.04550387287443494,-0.05936321934319394,0.08182021511387326,0.23264098284006407,-0.10929439714694798
74,7.503498399979435,0.029331694025604444,-0.08172064469323019,0.046326485035018794,0.022025818967822287,-0.01426570983437867,0.008937974896367749,-0.011575568198264129,0.04648643598157102,-0.059823240608217226,0.08248963832727053,0.23334668211335233,-0.10887663280462385
75,7.5080812999513,0.029424474783114326,-0.08178039038037825,0.046363644870283126,0.021977737859985882,-0.014067599930747434,0.008684729980119956,-0.011226302671080823,0.04747193598883338,-0.060281492888384504,0.0831515480722725,0.23403374658256246,-0.10845536135698292
76,7.512564999982715,0.02951705588645638,-0.08183929186781641,0.04639973268772843,0.021931135503725316,-0.01386532802760705,0.008429556342651733,-0.010874261913623348,0.04846029384833885,-0.060737961118971034,0.08380573093537813,0.2347019552241103,-0.1080304533357462
77,7.520588699961081,0.029609443596259007,-0.08189733157882612,0.04643474036972827,0.021886023533582415,-0.013658882240947601,0.008172461539705848,-0.010519478959959883,0.049451429576530447,-0.06119262969357184,0.08445197396029099,0.23535108590400416,-0.10760178163207576
78,7.526581799960695,0.029701644221920162,-0.08195449188728471,0.04646865983065786,0.021842413442900253,-0.013448251026029779,0.00791345319397075,-0.010161987741202725,0.050445262252030526,-0.06164548247541687,0.0850900647687798,0.23598091623377968,-0.10716922210960766
79,7.530871799972374,0.029793664121003947,-0.08201075511910445,0.04650148301718107,0.021800316580043153,-0.013233423181340529,0.007652538997287915,-0.009801823082633708,0.05144171001564141,-0.0620965028111259,0.08571979188468194,0.2365912237556368,-0.10673265391660222
80,7.535355599946342,0.029885509698621263,-0.0820661035536883,0.04653320190854668,0.021759744144635194,-0.013014387852547049,0.007389726712801627,-0.009439020698970672,0.05244069006975999,-0.06254567354465641,0.0863409448673985,0.2371817859655147,-0.1062919593356296
81,7.539047699945513,0.029977187406794663,-0.08212051942540229,0.04656380851689349,0.02172070718382014,-0.012791134536457372,0.00712502417704869,-0.009073617190366971,0.053442118678572924,-0.0629929770297907,0.086953314120261,0.23775238100701945,-0.10584702317077062
82,7.543280499987304,0.030068703743807473,-0.08217398492506466,0.0465932948875642,0.021683216588533675,-0.012563653084972717,0.006858439302002888,-0.008705650039294193,0.054445911173323924,-0.06343839513891537,0.08755669075772055,0.2383027882728006,-0.10539773225004212
83,7.547484299982898,0.0301600652535372,-0.08222648220145162,0.0466216530994278,0.021647283089789637,-0.012331933709003647,0.006589980077090653,-0.008335157607661807,0.05545198195758101,-0.06388190927131188,0.08815086629953806,0.23883278833532,-0.10494397525195173
84,7.551757199980784,0.030251278524773335,-0.08227799336281955,0.04664887526521038,0.021612917254976542,-0.012095966982377996,0.0063196545711656,-0.007962179136279102,0.05646024451191986,-0.06432350036047314,0.088735632155441,0.23934216290051363,-0.10448564226613408
85,7.555924399988726,0.030342350190519517,-0.0823285004784436,0.04667495353183424,0.021580129484148346,-0.01185574384571753,0.006047470934462487,-0.0075867547463212785,0.05747061139880027,-0.0647631488786885,0.08931077937632916,0.23983069455322012,-0.10402262455034021
86,7.560167999996338,0.030433286927280055,-0.08237798558017269,0.046699880080765165,0.021548930006308618,-0.011611255610304738,0.005773437400533079,-0.007208925440889736,0.058482994265102416,-0.06520083484231075,0.08987609846971413,0.24029816691925365,-0.10355481459987209
87,7.564417399989907,0.03052409545433076,-0.0824264306640007,0.04672364712836782,0.021519328875688134,-0.011362493961938112,0.005497562288155688,-0.006828733108034761,0.05949730384837027,-0.06563653781692666,0.09043137900060551,0.24074436510488212,-0.10308210597407715
88,7.568328799970914,0.030614782532974068,-0.08247381769165393,0.04674624692626919,0.02149133596800356,-0.011109450964746276,0.0052198540032274265,-0.006446220525681972,0.06051344998305444,-0.06607023692116072,0.09097640925584999,0.24116907523418105,-0.10260439322694022
89,7.572351099981461,0.03070535496577831,-0.08252012859219457,0.0467676717617299,0.021464960976693495,-0.010852119064990607,0.0049403210406416655,-0.006061431367485993,0.06153134160285358,-0.06650191083126025,0.09151097618067663,0.24157208410203282,-0.10212157236981997
90,7.576972999959253,0.03079581959580109,-0.08256534526364012,0.046787913958023473,0.021440213409127783,-0.010590491094859628,0.00465897198614162,-0.005674410208292083,0.06255088674403063,-0.06693153778880187,0.0920348653208031,0.24195317912777284,-0.10163354165782258
91,7.580878999957349,0.030886183305796608,-0.08260944957459891,0.04680696587482334,0.021417102582797495,-0.010324560276243651,0.004375815518132807,-0.005285202530478088,0.06357199254736325,-0.06735909561190896,0.09254786038298386,0.2423121478696193,-0.10114020237627577
92,7.59090109996032,0.030976453017406872,-0.08265242336592138,0.04682481990859733,0.021395637621470745,-0.010054320224512725,0.0040908604094420245,-0.00489385473312244,0.06459456525736472,-0.06778456170959132,0.0930497428129725,0.24264877756207415,-0.10064145973135617
93,7.5952849999885075,0.03106663569033661,-0.0826942484523674,0.04684146849300955,0.021375827451305358,-0.009779764952297846,0.0038041155290088648,-0.004500414141905607,0.06561851022033283,-0.06820791310047425,0.09354029166797864,0.24296285527749745,-0.10013722383318716
94,7.598997199966107,0.031156738321511706,-0.08273490662428952,0.04685690409932911,0.021357680796921172,-0.009500888873285363,0.0035155898434867335,-0.004104929019353799,0.06664373188493344,-0.06862912643542969,0.0940192835880368,0.24325416831960583,-0.09962741006591384
95,7.604285699955653,0.031246767944220974,-0.08277437964933222,0.04687111923684553,0.021341206177426308,-0.009217686805993268,0.0032252924187434907,-0.003707448574981894,0.06767013380356822,-0.06904817801942659,0.09448649276128032,0.24352250332142525,-0.09911193849782819
96,7.608334699994884,0.031336731627241085,-0.08281264927414704,0.046884106453290136,0.02132641190240393,-0.00893015397755406,0.00293323242127818,-0.0033080229758300265,0.06869761862535025,-0.06946504382918697,0.09494169073874786,0.24376764543543827,-0.0985907332684415
97,7.612458099960349,0.03142663647394449,-0.08284969722612376,0.04689585833526336,0.021313306067849643,-0.008638286027550287,0.002639419119572758,-0.0029067033581684516,0.06972608809064137,-0.06987969952986683,0.09538464666000972,0.2439893790045777,-0.09806372232244256
98,7.616702199971769,0.03151648962139008,-0.08288550521513782,0.046906367508667585,0.02130189655205954,-0.008342079011843478,0.0023438618853681365,-0.0025035418361311823,0.0707554430296871,-0.0702921204904684,0.09581512826522218,0.2441874874695882,-0.09753083669256264
99,7.620428099995479,0.03160629823939644,-0.08292005493531386,0.046915626639145204,0.021292191011494783,-0.0080415294064212,0.0020465701948859227,-0.002098591504885113,0.07178558335637256,-0.07070228179447263,0.09623290294746796,0.24436175288329479,-0.09699200997916617
100,7.624607099976856,0.031696069529597616,-0.08295332806680554,0.046923628432521756,0.02128419687664291,-0.007736634111278649,0.001747553630014786,-0.0016919064403881395,0.0728164080627607,-0.07111015825086234,0.09663773825019902,0.2445119562807879,-0.09644717838497792
101,7.628813299990725,0.03178581072448147,-0.08298530627759182,0.04693036563525398,0.021277921347884466,-0.007427390454311777,0.0014468218794392292,-0.0012835416983628146,0.07384781521597047,-0.07151572440504755,0.09702940176900643,0.24463787804948692,-0.09589628054151669
102,7.632982299954165,0.0318755290864106,-0.08301597122528964,0.046935831034882504,0.021273371391362973,-0.007113796195225215,0.0011443847397338096,-0.0008735533148829473,0.07487970195583615,-0.0719189545484248,0.09740766089121766,0.24473929783654955,-0.0953392576132206
103,7.637465799984056,0.03196523190662583,-0.08304530455898315,0.04694001746048909,0.021270553734846598,-0.006795849529445131,0.0008402521164112863,-0.0004619983075435133,0.07591196449100457,-0.07231982273018064,0.09777228295797151,0.2448159945488782,-0.09477605334374326
104,7.640917799959425,0.03205492650423224,-0.08307328792106938,0.04694291778315819,0.021269474863588263,-0.006473549092060076,0.0005344340249172897,-4.8934674680304066e-05,0.07694449809659451,-0.07271830276724144,0.09812303558778263,0.24486774704718936,-0.09420661389397963
105,7.645479299942963,0.03214462022516776,-0.08309990294912072,0.04694452491644258,0.0212701410161939,-0.006146893961753587,0.0002269405915945518,0.0003655786061891309,0.0779771971161478,-0.07311436825471077,0.09845968682739852,0.24489433446974793,-0.0936308880618529
106,7.650209899991751,0.03223432044115434,-0.08312513127776373,0.04694483181683303,0.0212725581804957,-0.00581588366472857,-8.22179454104549e-05,0.0007814815804181741,0.07900995496201907,-0.07350799257767289,0.09878200529021927,0.24489553620925528,-0.09304882743266005
107,7.65429369994672,0.032324034548631725,-0.08314895454057478,0.0469438314842316,0.021276732089437683,-0.005480518178636617,-0.00039303123528283717,0.0011987133189576393,0.08004266411713193,-0.07389914892289823,0.09908976022545855,0.24487113251429166,-0.09246038673760755
108,7.658394399972167,0.032413769967673936,-0.08317135437199194,0.046941516962428584,0.021282668216971952,-0.005140797936487581,-0.0007054888137313684,0.0016172119209917708,0.08107521614044134,-0.0742878102936707,0.09938272165758757,0.24482090479005536,-0.0918655239579167
109,7.661888899980113,0.03250353414088843,-0.0831923124092436,0.046937881339582654,0.021290371773966487,-0.00479672383053282,-0.0010195801022488621,0.0020369145178408235,0.08210750167122625,-0.07467394952237123,0.09966066079071766,0.24474463539014854,-0.09126419980433884
110,7.666687099961564,0.03259333453229808,-0.08321181029429317,0.04693291774870402,0.02129984770413431,-0.0044482972161385675,-0.0013352944074103905,0.0024577572790076547,0.08313941043279587,-0.07505753928091534,0.09992335051755345,0.24464210810226403,-0.09065637770562075
111,7.670554599957541,0.03268317862620598,-0.08322982967580028,0.04692661936814048,0.021311100679992284,-0.004095519915637919,-0.0016526209202216882,0.002879675420372853,0.08417083124087858,-0.07543855209323931,0.10017056561609715,0.2445131084490153,-0.09004202416702699
112,7.674091599998064,0.03277307392604335,-0.08324635221109804,0.0469189794220661,0.021324135098859394,-0.0037383942221334504,-0.001971548715522681,0.0033026032119003465,0.08520165200986553,-0.07581696034876158,0.10040208281880962,0.24435742306338717,-0.08942110907103304
113,7.679008699953556,0.032863027953200605,-0.08326135956818627,0.04690999118097228,0.021338955078880534,-0.003376922903296542,-0.002292066751449424,0.003726473986415845,0.08623175975593197,-0.07619273631740502,0.10061768131015066,0.24417483996622807,-0.08879360595495106
114,7.683238699974026,0.03295304824584169,-0.08327483342774082,0.04689964796216098,0.021355564455098827,-0.003011109205143673,-0.002614163868964329,0.004151220151508737,0.08726104060562126,-0.0765658521653998,0.10081714310837926,0.24396514916769096,-0.08815949217281842
115,7.687515199999325,0.03304314235770207,-0.08328675548513867,0.04688794313023975,0.021373966775579796,-0.002640956855763351,-0.0029378287914513844,0.004576773201530662,0.08828937980403881,-0.07693627997167107,0.10100025315788211,0.24372814215839145,-0.0875187489648042
116,7.692038599983789,0.03313331785687033,-0.08329710745249863,0.046874870097618364,0.021394165297584877,-0.0022664700690232936,-0.0032630501243845994,0.005003063730276118,0.08931666171914444,-0.07730399174422722,0.10116679938692191,0.24346361181685164,-0.08687136120276766
117,7.695869799994398,0.033223582324553906,-0.08330587106073775,0.04686042232500664,0.02141616298380254,-0.0018876535482611567,-0.003589816355061442,0.005430021443468082,0.09034276984916578,-0.07766895943440155,0.10131657249961738,0.24317135275645502,-0.08621731689289355
118,7.700020999996923,0.03331394335382894,-0.08331302806164315,0.046844593321913326,0.021439962498627105,-0.0015045124899291922,-0.0039181158523913994,0.005857575169684164,0.09136758682981679,-0.07803115494904571,0.10144936582557376,0.24285116088597322,-0.08555660665525487
119,7.703569199948106,0.03340440854837455,-0.08331856022995912,0.04682737664714572,0.021465566204482023,-0.0011170525872240943,-0.004247936866732256,0.0062856528715740006,0.09239099443800461,-0.078390550160382,0.10156497551639267,0.24250283322449492,-0.08488922331904546
120,7.707936499966308,0.033494985521191734,-0.08332244936548963,0.04680876590930993,0.021492976158193296,-0.0007252800337003928,-0.004579267529761749,0.006714181658442786,0.09341287359748725,-0.07874711691478298,0.10166320064994988,0.24212616817901364,-0.08421516159869089
121,7.71220699994592,0.03358568189330704,-0.08332467729521588,0.04678875476731154,0.021522194107418877,-0.00032920152685258266,-0.004912095854387894,0.007143087798348154,0.09443310438492158,-0.07910082703989202,0.1017438430335443,0.2417209655675594,-0.08353441774678519
122,7.716649399953894,0.03367650529246133,-0.08332522587542898,0.04676733693085668,0.021553221487124134,7.117572832249186e-05,-0.005246409734680695,0.007572296729023451,0.09545156603571613,-0.07945165235047577,0.10180670713473772,0.2412870269199133,-0.08284698958893462
123,7.720696299977135,0.03376746335178376,-0.08332407699387762,0.046744506160953256,0.021586059416103368,0.00047584401579287125,-0.005582196945831834,0.008001733069391316,0.0964681369526153,-0.07979956465583862,0.10185160038194635,0.2408241555469959,-0.08215287657004568
124,7.724257399968337,0.03385856370845119,-0.08332121257193048,0.04672025627041231,0.021620708693552385,0.0008847951050014958,-0.00591944514414891,0.008431320633022165,0.09748269471213743,-0.08014453576606552,0.10187833351122176,0.24033215624015758,-0.08145207956913213
125,7.728674099955242,0.033949814002333246,-0.08331661456675338,0.04669458112434937,0.021657169795703524,0.0012980202473877394,-0.006258141867067784,0.008860982442572548,0.09849511607062279,-0.08048653749787452,0.1018867208211427,0.23981083552563298,-0.080744601119059
126,7.732966599985957,0.03404122187462337,-0.08331026497350101,0.046667474640685665,0.021695442872520003,0.001715510172948433,-0.006598274533196178,0.009290640745393408,0.09950527697281772,-0.08082554168271293,0.10187658055422422,0.23926000184957624,-0.08003044560329639
127,7.737208499980625,0.03413279496645599,-0.08330214582752307,0.046638930790649104,0.02173552774446259,0.0021372550868317985,-0.006939830442394302,0.009720217031185271,0.10051305255948324,-0.08116152017426932,0.10184773494305785,0.2386794655549588,-0.07930961912865107
128,7.741766699997242,0.0342245409175103,-0.08329223920658477,0.04660894359927484,0.02177742389933285,0.0025632446659626432,-0.007282796775881815,0.010149632047995657,0.10151831717578433,-0.08149444485549627,0.10180001012954325,0.23806903902034451,-0.0785821295136184
129,7.745614799961913,0.03431646736460081,-0.08328052723310136,0.04657750714590531,0.02182113048917474,0.0029934680557070496,-0.007627160596377676,0.010578805819193059,0.10252094438006899,-0.0818242876460241,0.10173323648879345,0.23742853693745614,-0.07784798624223747
130,7.749128299998119,0.034408581940254986,-0.08326699207638685,0.04654461556468966,0.021866646327261024,0.003427913866571614,-0.007972908848269638,0.0110076576621962,0.10352080695459853,-0.08215102050879448,0.10164724860582065,0.2367577763343447,-0.0771072001979638
131,7.753364299947862,0.034500892271278394,-0.08325161595491633,0.04651026304508232,0.021913969885152824,0.003866570170958634,-0.008320028357810042,0.011436106205251375,0.10451777691452206,-0.0824746154552296,0.10154188511370618,0.23605657602016786,-0.0763597832820614
132,7.758275799977127,0.034593405977307534,-0.08323438113860201,0.04647444383234079,0.021963099289827533,0.004309424499941042,-0.008668505833328913,0.01186406940479682,0.10551172551392396,-0.08279504454864726,0.10141698886703847,0.23532475683969697,-0.07560574805509043
133,7.762481499987189,0.034686130669350765,-0.08321526995108286,0.04643715222802243,0.02201403232088483,0.004756463840068594,-0.009018327865458557,0.012291464563702852,0.10650252325694494,-0.08311227990640635,0.10127240710384276,0.23456214236727457,-0.07484510733198337
134,7.765990099986084,0.034779073948317564,-0.08319426477202749,0.046398382590480326,0.022066766407828415,0.005207674630236602,-0.009369480927364747,0.012718208350001951,0.10749003990968238,-0.08342629369990674,0.10110799146879745,0.23376855867540583,-0.0740778737311574
135,7.770503399951849,0.034872243403536535,-0.0831713480394502,0.04635812933535816,0.022121298627430015,0.00566304275859249,-0.009721951374971326,0.013144216815324716,0.10847414450935969,-0.08373705815293199,0.10092359838337613,0.2329438340572891,-0.07330405921170075
136,7.775122399965767,0.03496564661126243,-0.08314650225204002,0.04631638693608417,0.0221776257011666,0.006122553559481859,-0.01007572544717741,0.013569405416751756,0.10945470537388642,-0.0840445455377458,0.10071908980896163,0.23208779939688431,-0.07252367446038745
137,7.779153499985114,0.035059291133172556,-0.08311970997150248,0.04627314992436417,0.02223574399276868,0.006586191810435677,-0.010430789266049071,0.013993689041685799,0.11043159011414884,-0.08434872816826477,0.10049433328152381,0.23120028856209654,-0.07173672845242474
138,7.783073599974159,0.035153184514853095,-0.08309095382491401,0.046228412890673906,0.022295649505867304,0.007053941729220003,-0.010787128836978957,0.014416982029996061,0.11140466564688617,-0.08464957839245017,0.10024920175022745,0.23028113817353033,-0.0709432287056197
139,7.786526799958665,0.03524733428427568,-0.08306021650708866,0.046182170484750755,0.02235733788172913,0.007525786970931777,-0.011144730048813806,0.014839198197529163,0.11237379820503081,-0.08494706858762432,0.0999835737620409,0.22933018755825768,-0.0701431819628317
140,7.790258899971377,0.03534174795026462,-0.08302748078295699,0.04613441741608497,0.022420804397101705,0.008001710625135751,-0.011503578673974568,0.0152602508598105,0.11333885335019467,-0.08524117115861828,0.09969733338052732,0.2283472790966397,-0.06933659431926056
141,7.795394199958537,0.03543643300095528,-0.08299272948995691,0.04608514845441037,0.022486043962148438,0.00848169521306559,-0.011863660368568292,0.01568005285487024,0.1142996959859345,-0.08553185853416172,0.09939037084565558,0.22733225847690613,-0.06852347071355709
142,7.79890129994601,0.035531396902243925,-0.08295594554043619,0.04603435843019466,0.022553051118486402,0.008965722684872689,-0.012224960672477803,0.01609851657250959,0.11525619037238535,-0.08581910316073864,0.09906258385752227,0.22628497550482032,-0.06770381440731353
143,7.804158699989784,0.035626647096229515,-0.08291711192406646,0.04598204223512936,0.02262182003736813,0.009453774416950687,-0.012587465009421765,0.016515553987953787,0.11620820014635473,-0.08610287749458724,0.09871387801541413,0.22520528500559098,-0.06687762704283835
144,7.808235199947376,0.03572219099964822,-0.08287621171026839,0.0459281948226196,0.022692344518003258,0.009945831209353764,-0.012951158686976884,0.016931076694821467,0.11715558834356281,-0.08638315399604286,0.09834416657540135,0.22409304744866337,-0.06604490945293963
145,7.812291999987792,0.03581803600230108,-0.08283322805064737,0.045872811208273884,0.022764617986018382,0.01044187328330873,-0.013316026896590265,0.017344995936733176,0.11809821742400609,-0.08665990512836767,0.09795337021885768,0.2229481299654324,-0.06520566211172546
146,7.816424499964341,0.03591418946547552,-0.08278814418143968,0.045815886470393766,0.022838633492045294,0.010941880278847236,-0.013682054713591739,0.017757222638328404,0.11903594930278114,-0.08693310335589567,0.09754141702905031,0.2217704071124698,-0.06435988485728918
147,7.821009999956004,0.03601065872036109,-0.08274094342596819,0.04575741575046351,0.022914383710442434,0.011445831252577842,-0.01404922709719057,0.018167667436676672,0.11996864538188534,-0.08720272114052349,0.09710824238769007,0.22055976140374933,-0.06350757684545434
148,7.824839499953669,0.03610745106646022,-0.08269160919710729,0.04569739425363983,0.02299186093814805,0.011953704675586431,-0.014417528890458199,0.01857624071142206,0.12089616658552947,-0.08746873093946529,0.09665378869672683,0.2193160838426004,-0.06264873663033065
149,7.828933599987067,0.03620457376999427,-0.0826401249997563,0.04563581724924162,0.0230710570936559,0.012465478431506105,-0.014786944820306005,0.01898285261384789,0.12181837339642496,-0.08773110520242296,0.09617800492738673,0.2180392733665306,-0.06178336207226132
150,7.833519299980253,0.03630203406230564,-0.08258647443332068,0.045572680071239956,0.023151963716113534,0.012981129814723654,-0.015157459497444181,0.0193874130932178,0.12273512588641405,-0.08798981636856462,0.09568084629690181,0.21672923631513552,-0.06091145026831135
151,7.837236799998209,0.03639983913825624,-0.08253064119420056,0.04550797811874815,0.023234571964520157,0.013500635528707785,-0.015529057416334022,0.019789831923113947,0.12364628374826944,-0.0882448368631086,0.09516227458007628,0.21538588649953155,-0.06003299720501809
152,7.845769399951678,0.03649799615462283,-0.08247260907828606,0.04544170685651211,0.023318872617047064,0.01402397168448379,-0.015901722955117978,0.02019001873040585,0.12455170632690998,-0.0884961390913732,0.09462225843324017,0.21400914506376187,-0.05914799749274441
153,7.849876199965365,0.03659651222848974,-0.08241236198345869,0.04537386181540106,0.023404856070479818,0.014551113799225059,-0.016275440375521765,0.020587883024320845,0.1254512526500314,-0.08874369543312013,0.09406077377639185,0.21259894076211433,-0.05825644444644853
154,7.854466999997385,0.03669539443563949,-0.08234988391209853,0.04530443859289868,0.023492512339783868,0.015082036794986079,-0.01665019382273671,0.020983334228635943,0.12634478146166098,-0.08898747823728556,0.09347780408193845,0.2111552101672883,-0.057358330085560606
155,7.858129399945028,0.0367946498089419,-0.08228515897359634,0.0452334328535948,0.023581831057818237,0.015616714997576954,-0.017025967325277416,0.02137628171318354,0.1272321512545439,-0.08922745981632249,0.09287333943775213,0.20967789780947066,-0.05645364526155725
156,7.862371699942741,0.036894285336742265,-0.0822181713868702,0.0451608403296778,0.02367280147516686,0.016155122135569557,-0.017402744794816398,0.021766634818141034,0.12811322030487096,-0.08946361244200776,0.09224737540264841,0.20816695626864856,-0.05554238003948049
157,7.865764299989678,0.036994307961249036,-0.08214890548288602,0.04508665682142765,0.023765412460057138,0.01669723133946494,-0.017780510026006384,0.022154302875883543,0.12898784670544347,-0.08969590834300221,0.09159991304082048,0.2066223452724293,-0.05462452414872009
158,7.870024699950591,0.03709472457692132,-0.08207734570718123,0.04501087819770981,0.023859652498375572,0.0172430151409792,-0.018159246696294366,0.02253919523556395,0.12985588839279188,-0.0899243197044596,0.09093095944205784,0.205044031395474,-0.053700066994854134
159,7.874398699961603,0.03719554202885668,-0.08200347662239127,0.04493350039646988,0.023955509693793637,0.017792445472439623,-0.01853893836574061,0.022921221289353175,0.13071720317780575,-0.09014881866568664,0.09024052825401467,0.20343198893845368,-0.05276899683859107
160,7.878540299949236,0.03729676711117971,-0.08192728291077839,0.04485451942522897,0.02405297176800473,0.018345493666328868,-0.018919568476812965,0.023300290501509426,0.13157164878026548,-0.09036937731282702,0.08952864041083954,0.20178619995117109,-0.051831300460319814
161,7.883414699987043,0.03739840656543184,-0.08184874937676198,0.04477393136158014,0.024152026061095202,0.018902130454972358,-0.019301120354144177,0.023676312440763778,0.13241908285966733,-0.09058596767369227,0.08879532453814362,0.20010665379295745,-0.050886963437322456
162,7.887476599949878,0.03750046707896302,-0.08176786094945002,0.044691732353685766,0.024252659532054466,0.019462325970342458,-0.0196835772042826,0.024049196812804947,0.13325936304604755,-0.09079856171278385,0.0880406169066153,0.19839334743355833,-0.04993596987791512
163,7.891542099998333,0.03760295528332582,-0.08168460268517104,0.044607918620776114,0.02435485875942,0.020026049744005823,-0.02006692211540751,0.02441885349227367,0.134092346973345,-0.09100713132388163,0.08726456128131066,0.19664628533747527,-0.048978302421938305
164,7.895793199946638,0.0377058777526726,-0.08159895977000603,0.04452248645364912,0.02445860994205729,0.020593270707208965,-0.020451138057017336,0.024785192553976373,0.13491789230924983,-0.09121164832507021,0.08646720871387771,0.19486547895490872,-0.04801394248306315
165,7.899839099962264,0.03780924100215614,-0.08151091752231969,0.04443543221517154,0.024563898900068104,0.02116395719107735,-0.020836207879603004,0.025148124303127153,0.13573585678427277,-0.09141208445337101,0.08564861736926363,0.1930509468143403,-0.04704287011002633
166,7.903804299945477,0.03791305148633448,-0.08142046139529062,0.04434675234078153,0.024670711075825497,0.02173807692694613,-0.021222114314290892,0.025507559305099885,0.13654609822237457,-0.09160841135859818,0.08480885247884311,0.19120271475387562,-0.046065064160464485
167,7.908559299947228,0.03801731559758033,-0.08132757697943982,0.04425644333899281,0.024779031535133007,0.022315597046817577,-0.021608839972464374,0.025863408415274892,0.1373484745719864,-0.0918006005994569,0.08394798624818632,0.18932081626824526,-0.04508050235861336
168,7.912416899984237,0.0381220396644956,-0.081232250005157,0.044164501791900415,0.024888844968511396,0.022896484083953447,-0.02199636734537385,0.026215582808013147,0.13814284393956605,-0.09198862363788587,0.08306609730216245,0.18740529301777306,-0.04408916085570796
169,7.9168046999839135,0.03822722995033172,-0.08113446634522412,0.044070924355688136,0.02500013569260222,0.023480703973615416,-0.022384678803710582,0.026563994001822914,0.13892906462491095,-0.09217245183144805,0.08216326992119174,0.18545619505957078,-0.043091014241345926
170,7.9209320999798365,0.038332892651416005,-0.08103421201733538,0.0439757077611379,0.02511288765166681,0.02406822205395529,-0.022773756597152545,0.026908553881892443,0.13970699515666424,-0.09235205642776893,0.08123959345167,0.18347358105553202,-0.042086035809939124
171,7.9256707999738865,0.0384390338955846,-0.08093147318661331,0.043878848814141024,0.025227084419179913,0.02465900306705489,-0.023163582853891355,0.027249174720284083,0.14047649432938208,-0.09252740855917456,0.08029516151920012,0.18145751845775063,-0.041074197722745315
172,7.929310699983034,0.038545659740622296,-0.08082623616812003,0.04378034439621158,0.02534270919949897,0.02525301116012891,-0.0235541395801329,0.02758576919183132,0.14123742124060357,-0.09269847923849643,0.07933007145033019,0.17940808299964428,-0.040055471539153766
173,7.933375199965667,0.03865277617270955,-0.08071848742936308,0.043680191465001884,0.025459744829591832,0.025850209886877428,-0.023945408659588874,0.027918250389455786,0.14198963532362607,-0.09286523935819038,0.07834442430777025,0.17732535807116678,-0.03902982851785888
174,7.937949399987701,0.03876038910487688,-0.08060821359279535,0.04357838705482011,0.02557817378083524,0.026450562208965203,-0.024337371852969997,0.028246531840361307,0.1427329963793057,-0.09302765968868162,0.07733832504027312,0.17520943467234387,-0.037997239073483964
175,7.941506999952253,0.03886850437546703,-0.08049540143830845,0.04347492827715008,0.025697978160879105,0.02705403049764241,-0.024730010797463578,0.02857052752261503,0.14346736460844076,-0.09318571087290074,0.07631188277161698,0.1730604106966697,-0.036957672625912846
176,7.945002999971621,0.03897712774660513,-0.08038003790571892,0.04336981232117328,0.02581913971558485,0.02766057653549703,-0.025123307006180644,0.02889015188377877,0.14419260063752828,-0.093339363423358,0.07526521124039945,0.17087838958939947,-0.03591109843314577
177,7.950011899985839,0.03908626490267718,-0.08026211009724682,0.04326303645429333,0.025941639831046817,0.028270161518292848,-0.025517241867608845,0.029205319861199393,0.1449085655398315,-0.09348858772370368,0.07419842912408907,0.16866348023131522,-0.03485748577605958
178,7.95385189994704,0.03919592144881724,-0.08014160527998648,0.04315459802266258,0.026065459535701743,0.028882746056899507,-0.025911796645072732,0.029515946903373228,0.145615120860156,-0.0936333540273607,0.07311166037410034,0.16641579735589837,-0.033796803484715886
179,7.958537599944975,0.039306102909403756,-0.08001851088836881,0.04304449445171114,0.026190579502530356,0.029498290179339474,-0.026306952476175132,0.0298219489930625,0.1463121286394356,-0.0937736324550898,0.07200503455116149,0.16413546099385448,-0.03272902026202474
180,7.962491099955514,0.03941681472656529,-0.07989281452661473,0.042932723246678225,0.026316980051361818,0.030116753332925465,-0.02670269037223689,0.030123242671488276,0.14699945143482374,-0.09390939299635191,0.070878686848678,0.1618225962414085,-0.0316541054004732
181,7.966039099963382,0.03952806225869626,-0.0797645039711795,0.04281928199314585,0.026444641151279365,0.030738094386476848,-0.02709899121774973,0.030419745061643924,0.14767695234232503,-0.09404060551291836,0.06973275788436942,0.15947733376956938,-0.03057202940715516
182,7.970153599977493,0.039639850778983014,-0.07963356717318745,0.04270416835757484,0.026573542423121377,0.03136227163264795,-0.02749583576984646,0.03071137389073072,0.1483444950211818,-0.09416723974550474,0.06856739357316702,0.15709980980120913,-0.02948276460496026
183,7.974354699952528,0.03975218547394062,-0.07949999226085668,0.04258738008784297,0.026703663142076242,0.03198924279035015,-0.027893204657809773,0.030998047512399315,0.14900194371631242,-0.09428926532245158,0.06738274509253576,0.15469016622650378,-0.028386285317674703
184,7.978789199958555,0.039865071441960824,-0.07936376754191332,0.04246891501378512,0.02683498224037101,0.0326189650072694,-0.028291078382615655,0.03127968492889287,0.14964916328367142,-0.09440665176791939,0.06617896894022111,0.15224855090319045,-0.027282567985613137
185,7.982907399942633,0.03997851369187155,-0.07922488150599505,0.04234877104773528,0.026967478310053025,0.03325139486250224,-0.028689437316511326,0.03155620581377555,0.15028601921522022,-0.09451936851154458,0.06495622671437785,0.1497751176573869,-0.026171591420074896
186,7.986679399968125,0.040092517141508306,-0.07908332282704311,0.04222694618507024,0.02710112960587025,0.03388648836928392,-0.029088261702640072,0.03182753053222127,0.15091237766429416,-0.0946273848987806,0.0637146844777081,0.14727002653760837,-0.025053336976982653
187,7.991417199955322,0.040207086616297946,-0.07893908036568278,0.042103438504754766,0.02723591404822404,0.03452420097783834,-0.029487531654706408,0.03209358015837926,0.15152810547271564,-0.09473067020201834,0.06245451253758928,0.14473344362923732,-0.023927788938340574
188,7.995977999991737,0.04032222684785501,-0.07879214317159142,0.041978246169888135,0.027371809226195917,0.035164487578334874,-0.0298872271566947,0.0323542764938084,0.15213307019459635,-0.0948291936341445,0.0611758855846867,0.1421655408476682,-0.022794934731950284
189,7.999828699976206,0.040437942472591026,-0.07864250048585392,0.04185136742825167,0.027508792400655815,0.03580730250393903,-0.030287328062648684,0.032609542086011876,0.1527271401217058,-0.09492292436151514,0.05987898261248356,0.13956649619174516,-0.02165476485065091
190,8.00399059994379,0.04055423803033703,-0.07849014174330508,0.041722800612857124,0.027646840507445196,0.036452599533983256,-0.030687814096499497,0.032859300246192796,0.15331018430941104,-0.09501183151683287,0.05856398685894016,0.13693649367390645,-0.02050727317622948
191,8.010398899961729,0.04067111796297974,-0.07833505657485834,0.04159254414249568,0.027785930160635026,0.03710033189723638,-0.03108866485195381,0.03310347506729681,0.15388207260145606,-0.09509588421485227,0.05723108603792705,0.13427572302071042,-0.019352457326089402
192,8.014201699988917,0.040788586613111535,-0.0781772348098205,0.041460596522287264,0.027926037655861078,0.037750452275283404,-0.03148985979245433,0.03334199144371963,0.1544426756533757,-0.09517505156818096,0.0558804727442953,0.13158437937133782,-0.01819031853766473
193,8.0183472999488,0.04090664822269478,-0.07801666647819198,0.041326956344229906,0.028067138973748115,0.038402912805992395,-0.03189137825120119,0.03357477509276609,0.15499186495473213,-0.09524930270201012,0.054512344557562445,0.12886266341677968,-0.017020861726565136
194,8.023095099953935,0.04102530693174069,-0.07785334181295235,0.04119162228774885,0.028209209783426184,0.03905766508708185,-0.03229319943123667,0.03380175257523211,0.15552951285370284,-0.09531860677040602,0.05312690379955845,0.1261107814459691,-0.015844095717604374
195,8.026762299996335,0.04114456677700326,-0.07768725125233043,0.04105459312024519,0.02835222544612839,0.039714660179794956,-0.03269530240560403,0.03402285131481974,0.15605549257970608,-0.09538293297298894,0.05172435744136852,0.12332894527574777,-0.014660033186818137
196,8.030813999997918,0.04126443169068853,-0.07751838544205887,0.04091586769764367,0.02849616101887093,0.04037384861265778,-0.03309766611757289,0.0342379996179343,0.15656967826739815,-0.09544225057073577,0.05030491701095298,0.12051737259901876,-0.013468690800609301
197,8.03814949997468,0.041384905499179545,-0.07734673523761255,0.04077544496493939,0.028640991258217854,0.04103518038535594,-0.0335002693809313,0.03444712669232024,0.1570719449822353,-0.09549652890383248,0.04886879825807092,0.11767628691470988,-0.012270089874923944
198,8.043474199948832,0.041505991921777334,-0.07717229170643046,0.040633323956743184,0.028786690624118257,0.04169860497270834,-0.03390309088036176,0.034650162664032244,0.1575621687438803,-0.0955457374130362,0.04741622080686873,0.11480591759662556,-0.011064256907137486
199,8.05033659999026,0.04162769456945827,-0.07699504613012058,0.04048950379782511,0.02893323328381418,0.04236407132874129,-0.03430610917191342,0.034847038593141005,0.15804022655234493,-0.09558984566201371,0.04594740797107302,0.1119065000795794,-0.009851223888484858
200,8.055271299963351,0.04175001694364801,-0.07681499000664739,0.04034398370365584,0.029080593115810276,0.043031527890882736,-0.0347093026835665,0.03503768648914564,0.1585059964129665,-0.0956288233613386,0.044462586649668685,0.10897827535019865,-0.008631028766638944
201,8.059494899993297,0.0418729624350123,-0.07663211505250142,0.04019676298094546,0.02922874371391169,0.043700922584247015,-0.03511264971590689,0.03522203932579959,0.15895935735825584,-0.09566264039473112,0.04296198726943757,0.10602149010816443,-0.007403715734650388
202,8.064112599997316,0.041996534322264994,-0.07644641320485057,0.0400478410281791,0.029377658391318777,0.044372202826013354,-0.03551612844291189,0.03540003105603844,0.1594001894742335,-0.09569126684549227,0.04144584410862371,0.10303639704431473,-0.006169335277266816
203,8.068245899979956,0.04212073577099342,-0.07625787662367275,0.039897217336149114,0.029527310184790868,0.045045315529932746,-0.035919716912847746,0.035571596629535615,0.15982837392462348,-0.09571467302313441,0.0399143958287627,0.10002325423957052,-0.004927944160115688
204,8.072493799962103,0.042245569832501474,-0.07606649769386921,0.03974489148848318,0.029677671858889067,0.04572020711091051,-0.03632339304927999,0.03573667201211567,0.16024379297211985,-0.09573282948972403,0.0383678858796475,0.09698232528003792,-0.0036796055213094096
205,8.07656869996572,0.042371039442670774,-0.07587226902735848,0.039590863162167936,0.029828715910303755,0.04639682348969252,-0.03672713465219318,0.03589519420672552,0.16064633000355122,-0.09574570708728497,0.03680656269598348,0.0939138791180866,-0.002424389079592222
206,8.080725499952678,0.04249714742084028,-0.07567518346515023,0.03943513212806762,0.029980414572274246,0.047075110097660015,-0.037130919399232326,0.03604710127450634,0.16103586954997579,-0.09575327696589675,0.03523067984795392,0.09081818951781256,-0.001162371377928304
207,8.084993899974506,0.0426238964687047,-0.07547523407939875,0.039277698251437246,0.03013273981909402,0.04775501188168531,-0.03753472484705962,0.036192332357034666,0.16141229730716872,-0.09575551061315221,0.03364049611013856,0.0876955358409675,0.00010636403193875748
208,8.088976899976842,0.042751289169232126,-0.07527241417543584,0.03911856149242983,0.030285663370717964,0.04843647330909938,-0.037938528432844336,0.03633082769797555,0.16177550016234582,-0.09575237988381244,0.03203627498752642,0.08454620367185194,0.0013817269128632423
209,8.093517599976622,0.04287932798560128,-0.07506671729378242,0.038957721906596965,0.030439156697450225,0.04911943837277298,-0.03834230747586965,0.036462528661326016,0.1621253662199213,-0.09574385702653701,0.030418284414928786,0.08137048470190396,0.0026636205398179224
210,8.09760609996738,0.0430080152601587,-0.07485813721213853,0.038795179645382497,0.030593191024705316,0.04980385059630148,-0.038746039179247974,0.036587377750533064,0.16246178482725804,-0.09572991471187302,0.028786796791607536,0.07816867698313686,0.003951941386781063
211,8.102020299993455,0.043137353213396123,-0.07464666794735127,0.03863093495660865,0.030747737337857222,0.050489653039303126,-0.03914970063176387,0.03670531862702917,0.1627846466025629,-0.09571052606162614,0.02714208873837894,0.07494108534536095,0.005246578941582947
212,8.10667949996423,0.043267343942948594,-0.07443230375736004,0.038464988184954155,0.030902766387156826,0.051176788302839185,-0.03955326880983709,0.03681629612730169,0.16309384346415584,-0.09568566467841125,0.025484441062790342,0.07168802172021747,0.006547415371512353
213,8.111040999996476,0.043397989422613324,-0.07421503914311882,0.038297339772423805,0.031058248692724978,0.05186519853495906,-0.03995672057961469,0.03692025628113464,0.16338926866109818,-0.09565530467784379,0.023814138851794807,0.06840980507103979,0.007854324955600874
214,8.116039999993518,0.04352929150138987,-0.07399486885049464,0.03812799025880895,0.031214154549623785,0.05255482543637872,-0.040360032699205614,0.03701714632945975,0.16367081680187015,-0.09561942072287856,0.022131471344494183,0.06510676093039845,0.009167173633745189
215,8.120581699942704,0.04366125190254182,-0.07377178787214192,0.0379569402821382,0.03137045403300023,0.05324561026626772,-0.04076318182106242,0.03710691474152495,0.16393838388109874,-0.09557798805980379,0.020436731955407333,0.061779221654983583,0.01048581849830302
216,8.124816399998963,0.0437938722226803,-0.0735457914493522,0.03778419057911785,0.03152711700330225,0.053937493848153065,-0.04116614449451942,0.03718951123294163,0.16419186731038501,-0.09553098255686786,0.01873021852853393,0.058427526980648986,0.011810107377169124
217,8.129266599949915,0.043927153930869704,-0.07331687507387862,0.03760974198556116,0.03168411311157459,0.054630416575966186,-0.0415688971685002,0.037264886784995975,0.1644311659497132,-0.09547838074378975,0.017012233441822806,0.0550520237676186,0.01313987906525129
218,8.133231999992859,0.04406109836775584,-0.07308503448973469,0.037433595436805925,0.03184141180483775,0.05532431842021173,-0.04197141619438899,0.03733299366357728,0.164656180136129,-0.09542015984843348,0.01528308368818948,0.05165306583874604,0.014474963833779374
219,8.13664429995697,0.044195706744717005,-0.07285026569496676,0.037255751968119574,0.03199898233154347,0.05601913893425644,-0.0423736778290475,0.03739378543917259,0.16486681171378473,-0.09535629783202298,0.013543081349106721,0.0482310142572555,0.01581518362587444
220,8.141663199989125,0.04433098014303819,-0.0726125649433997,0.03707621271509128,0.032156793747122304,0.0567148172607513,-0.04277565823798331,0.03744721700978936,0.16506296406495993,-0.09528677342416711,0.011792543953871415,0.044786237395870086,0.017160352208036467
221,8.149636499991175,0.04446691951310892,-0.0723719287463552,0.03689497891401035,0.032314814919632465,0.057411292138182086,-0.043177333498662075,0.037493244623980126,0.16524454214068957,-0.09521156615679686,0.010031794259438532,0.041319110983071845,0.018510275216399405
222,8.153318399970885,0.04460352567364508,-0.07212835387434227,0.03671205190223036,0.03247301453550158,0.058108501907549806,-0.04357867960396217,0.037531825901908275,0.16541145249217493,-0.09513065639880026,0.008261160100202858,0.03783001831175707,0.019864749866223264
223,8.158637699962128,0.04474079931093523,-0.07188183735871916,0.03652743311851846,0.032631361105353196,0.05880638451918617,-0.04397967246577901,0.037562919857105796,0.1655636033031715,-0.09504402539240976,0.0064809748507601225,0.03431935047001299,0.021223564675635753
224,8.16417259996524,0.04487874097811153,-0.07163237649332632,0.03634112410338907,0.03278982296993205,0.05950487753970722,-0.04438028791878657,0.03758648692144199,0.1657009044233463,-0.09495165529016707,0.004691577645288963,0.030787506572618438,0.022586499500370862
225,8.168010099965613,0.04501735109444604,-0.07137996883608978,0.03615312649942148,0.032948368306141146,0.060203918159110116,-0.0447805017243535,0.037602488968731494,0.16582326740261832,-0.0948535291910176,0.0028933129847351444,0.027234893969389835,0.023953325590628804
226,8.172922299942002,0.04515662994467259,-0.0711246122105942,0.03596344205156052,0.033106965133166175,0.060903443198016396,-0.045180289574609026,0.03761088933638998,0.16593060552627295,-0.09474963117679573,0.0010865308518107453,0.02366192861490569,0.02532380548739007
227,8.177270999993198,0.04529657767833468,-0.07086630470762512,0.03577207260739984,0.033265581318695205,0.061603389115064924,-0.04557962709666681,0.03761165285001208,0.1660228338524207,-0.09463994634919376,-0.0007284126636231302,0.02006903534668517,0.026697692826540227
228,8.182058799953666,0.04543719430915986,-0.07060504468667972,0.035579020117447006,0.03342418458525039,0.062303692014471085,-0.04597848985700266,0.03760474585030158,0.16609986924945794,-0.09452446086789916,-0.002551155202629949,0.016456647815065912,0.028074732233805105
229,8.18735399999423,0.045578479714461,-0.07034083077744531,0.035384286635369806,0.033582742516634824,0.06300428765373567,-0.046376853366000025,0.0375901362190151,0.16616163043293408,-0.09440316198844967,-0.004381328623960935,0.012825208599299894,0.029454659671633226
230,8.19159679999575,0.045720433634565065,-0.07007366188124504,0.03518787431822303,0.033741222564483024,0.06370511145151501,-0.04677469308264697,0.037567793401786856,0.16620803800399153,-0.09427603809744493,-0.006218559292693749,0.009175169393054117,0.03083720296107437
231,8.196202599967364,0.04586305567226961,-0.06980353717245004,0.03498978542665518,0.033899592054900306,0.0644060984956541,-0.04717198441937868,0.037537688431637926,0.16623901448779738,-0.09414307874600002,-0.008062468149102506,0.0055069907255474795,0.032222082636003124
232,8.201062699954491,0.04600634529232755,-0.06953045609985735,0.03479002232509437,0.03405781819521156,0.0651071835513808,-0.047568702747056546,0.037499793951220196,0.1662544843696314,-0.09400427467775246,-0.009912671298626441,0.0018211415226848117,0.03360901291517421
233,8.205010999983642,0.04615030182096061,-0.06925441838803297,0.034588587481913076,0.034215868080788206,0.06580830106964339,-0.04796482340004691,0.037454084231349764,0.1662543741296163,-0.09385961785411742,-0.011768780186479384,-0.001881900845156179,0.03499770202705927
234,8.209216699993704,0.04629492444540165,-0.06897542403861948,0.03438548346957119,0.034373708701953304,0.06650938519559768,-0.04836032168141315,0.03740053519177822,0.16623861227920883,-0.09370910147955501,-0.013630401284224127,-0.005601650565454849,0.03638785245117576
235,8.213134899968281,0.046440212213466336,-0.06869347333160748,0.03418071296473696,0.034531306950983685,0.0672103697772523,-0.048755172868207526,0.037339124422369495,0.1662071293959103,-0.09355272002479005,-0.015497136263021946,-0.009337613406771406,0.037779161045972454
236,8.216545599978417,0.046586164033154555,-0.06840856682657034,0.03397427874838545,0.03468862962919367,0.06791118837424859,-0.0491493522168591,0.03726983120240997,0.16615985815956186,-0.09339046925100085,-0.017368582029825764,-0.013089286461419361,0.0391713187717977
237,8.22074659995269,0.046732778672281816,-0.06812070536386154,0.033766183705874,0.03484564345410006,0.06861177426681199,-0.04954283496866959,0.03719263652148004,0.1660967333892253,-0.09322234623537543,-0.019244330425365656,-0.016856158564322925,0.040564010644165524
238,8.224759899952915,0.04688005475814108,-0.06782989006577393,0.033556430826994374,0.035002315066681895,0.06931206046484302,-0.049935596355416854,0.03710752310131145,0.16601769207594563,-0.09304834939569445,-0.02112396828189981,-0.020637710501001008,0.04195691603382526
239,8.229013299976941,0.047027990777195425,-0.06753612233766043,0.03334502320600092,0.035158611038729796,0.07001197971714494,-0.050327611605058054,0.03701447541617178,0.16592267341787792,-0.09286847851335668,-0.02300707759753684,-0.02443341491429693,0.04334970896836956
240,8.233225699979812,0.047176585074801825,-0.06723940386901545,0.03313196404161462,0.03531449788027763,0.07071146452081103,-0.05071885594752735,0.03691347971325153,0.1658116188538363,-0.09268273475541809,-0.024893235709765888,-0.028242736629027623,0.044742058433161265
241,8.23736479994841,0.04732583585496651,-0.06693973663451638,0.0329172566370024,0.0354699420471238,0.0714104471307352,-0.051109304620624935,0.03680452403158506,0.16568447209568274,-0.09249112069507928,-0.026782015606924982,-0.032065132280327396,0.04613362859024316
242,8.241594199964311,0.047475741180132196,-0.06663712289502487,0.03270090439973146,0.03562490994842252,0.07210885956927242,-0.05149893287598754,0.03668759821981068,0.1655411791650107,-0.09229364033187831,-0.028672985696824603,-0.03590004982942041,0.047524078581679535
243,8.245533799985424,0.04762629897099744,-0.06633156519854677,0.032482910841698236,0.03577936795435485,0.07280663363605873,-0.05188771598514775,0.036562693957043084,0.1653816884296179,-0.09209029911383673,-0.03056570964569501,-0.03974692858683785,0.048913062356885036
244,8.24977699998999,0.04777750700636858,-0.06602306638115062,0.03226327957903165,0.035933282403896045,0.07350370091797931,-0.05227562924569131,0.036429804771991765,0.16520595063999408,-0.09188110395910874,-0.032459747002581696,-0.04360519884114017,0.05030022908877698
245,8.253857299976517,0.04792936292304462,-0.06571162956784353,0.03204201433197012,0.036086619612647836,0.0741999927992962,-0.05266264798749904,0.03628892605856723,0.1650139189689252,-0.09166606327461736,-0.03435465334918353,-0.04747428148924198,0.051685223878648566
246,8.258130299975164,0.0480818642157352,-0.06539725817340422,0.03181911892471217,0.036239345880737364,0.07489544047195042,-0.053048747579061285,0.03614005509373566,0.16480554905109915,-0.09144518697175864,-0.03624998008017622,-0.051353588476321266,0.05306768869954089
247,8.262337299995124,0.04823500823701211,-0.06507995590317206,0.03159459728524019,0.0363914275008001,0.07558997494602368,-0.053433903433852306,0.035983191054977944,0.16458079901899958,-0.09121848647708136,-0.03814527480842083,-0.05524252321275159,0.05444726317048638
248,8.26644519995898,0.04838879219729458,-0.06475972675379181,0.03136845344511727,0.036542830766026,0.07628352706034328,-0.053818091016734806,0.035818335034726735,0.16433962953899525,-0.09098597474146121,-0.0400400815149919,-0.05914048027131426,0.055823584528213795
249,8.270733499957714,0.0485432131648687,-0.06443657501391327,0.031140691539256953,0.036693521978264185,0.0769760274932482,-0.05420128585041169,0.035645490056560133,0.1640820038497876,-0.09074766625101913,-0.04193393987864137,-0.06304684506469807,0.05719628754609367
250,8.276567499968223,0.048698268065941006,-0.0641105052648452,0.030911315805665664,0.036843467456205696,0.07766740677351822,-0.054583463521922664,0.035464661095294135,0.16380788780122008,-0.09050357703697912,-0.043826384708653826,-0.06696099377742404,0.058565004620163744
251,8.281064299982972,0.04885395368472693,-0.06378152238116279,0.030680330585157654,0.03699263354365762,0.0783575952914674,-0.05496459968917916,0.035275855097959614,0.16351724989329983,-0.09025372468586103,-0.04571694607243745,-0.07088229336271577,0.05992936576455461
252,8.285160699975677,0.04901026666357423,-0.06344963153126802,0.030447740321042308,0.03714098661790277,0.07904652331020225,-0.0553446700875469,0.03507908100281868,0.16321006131503346,-0.08999812834937695,-0.04760514920295635,-0.07481010146388019,0.06128899882443147
253,8.288577799976338,0.049167203503121835,-0.06311483817790219,0.030213549558783595,0.037288493098134194,0.07973412097704279,-0.055723650536464255,0.03487434976112238,0.16288629598411183,-0.08973680875282805,-0.04949051408200646,-0.07874376616067236,0.06264352945287069
254,8.29336869996041,0.049324760562494505,-0.06277714807860992,0.02997776294563154,0.037435119453998356,0.08042031833511541,-0.056101516946095664,0.03466167435964173,0.16254593058788494,-0.08946978820519595,-0.05137255611153407,-0.08268262569989042,0.06399258090387785
255,8.29775059997337,0.04948293405953371,-0.062436567286153925,0.02974038523022556,0.03758083221421969,0.08110504533511953,-0.0564782453240351,0.034441069836763476,0.1621889446253189,-0.0891970906092853,-0.05325078698063874,-0.08662600816194624,0.06533577446470167
256,8.301677399955224,0.049641720071064994,-0.062093102148879815,0.029501421262169397,0.03772559797527953,0.08178823184727431,-0.056853811782045016,0.03421255329770876,0.16181532045078306,-0.08891874146816897,-0.055124714966799535,-0.09057323121972911,0.06667272997099248
257,8.305208399950061,0.049801114533202094,-0.06174675931103004,0.029260875991577628,0.037869383410169,0.0824698076734546,-0.05722819254281418,0.03397614392808831,0.16142504331804067,-0.08863476789098576,-0.056993845143747224,-0.09452360214757992,0.0680030655817551
258,8.309133999980986,0.0499611132416881,-0.06139754571300636,0.029018754468593592,0.03801215527718229,0.08314970255950874,-0.05760136394674552,0.03373186300736789,0.1610181014239603,-0.08834519860128365,-0.05885767891831066,-0.09847641792527002,0.06932639758776653
259,8.312683299998753,0.05012171185227376,-0.06104546859157992,0.028775061842878646,0.03815388042878311,0.08382784620776308,-0.05797330245878432,0.03347973392632979,0.16059448595162967,-0.08805006394443328,-0.06071571352248749,-0.1024309650197168,0.0706423413373055
260,8.316462399961893,0.05028290588113339,-0.06069053548004825,0.02852980336307252,0.03829452582054522,0.08450416828970347,-0.058343984675268606,0.033219782204822156,0.16015419111590795,-0.0877493958881636,-0.06256744200144554,-0.10638651914264599,0.0719505127339845
261,8.319946999952663,0.050444690705318616,-0.060332754208338356,0.028282984376224778,0.03843405852016862,0.08517859845886398,-0.05871338733076185,0.03295203550932169,0.15969721420858352,-0.08744322801734251,-0.06441235331721705,-0.11034234583880811,0.07325052891870693
262,8.324994499969762,0.050607061563250316,-0.059972132903055045,0.028034610327197555,0.03857244571656817,0.08585106636388919,-0.05908148730485931,0.03267652366980842,0.15922355563896526,-0.08713159552876079,-0.06624993197957553,-0.11429770072810527,0.07454200817162987
263,8.32896209997125,0.050770013555248995,-0.05960867998747385,0.027784686758039617,0.03870965472903212,0.0865215016617653,-0.0594482616289768,0.03239327870044162,0.15873321897699816,-0.08681453522673961,-0.06807965743227079,-0.1182518293465789,0.07582456983705795
264,8.333211299963295,0.050933541644104005,-0.059242404181477734,0.027533219307331828,0.03884565301648512,0.08718983403124607,-0.059813687493119945,0.032102334821611095,0.15822621099519574,-0.08649208551854795,-0.06990100436489217,-0.12220396753835429,0.07709783428861584
265,8.337032799958251,0.05109764065568202,-0.058873314501436805,0.027280213709504127,0.038980408186832696,0.0878559931864376,-0.060177742252634274,0.03180372847798282,0.15770254170844994,-0.08616428641030381,-0.07171344314177469,-0.126153341476903,0.07836142301635474
266,8.341329299961217,0.051262305279575086,-0.05850142026003043,0.027025675794124064,0.039113888006376496,0.08851990889055997,-0.060540403434939966,0.03149749835693286,0.15716222441578426,-0.08583117950165697,-0.07351643981361168,-0.13009916786405584,0.07961495934870198
267,8.34579669998493,0.05142753006978849,-0.058126731066010906,0.026769611485156972,0.039246060409314235,0.08918151096988422,-0.06090164874623707,0.031183685406494972,0.15660527573848512,-0.08549280797560124,-0.07530945657944352,-0.13404065483171565,0.08085806960996117
268,8.349386699963361,0.05159330944546892,-0.057749256823907996,0.026512026800197954,0.03937689350730629,0.0898407293278156,-0.06126145607815431,0.03086233284989815,0.15603171565424992,-0.08514921658339476,-0.07709195238773901,-0.1379770024730885,0.08209038382567733
269,8.35376719996566,0.05175963769167308,-0.05736900773367384,0.026252927849675974,0.03950635559909828,0.09049749395911852,-0.061619803514327144,0.03053348619844466,0.15544156753083793,-0.08480045162842316,-0.07886338328454087,-0.14190740291295395,0.08331153565834785
270,8.357423399982508,0.051926508960176934,-0.056985994290267517,0.02599232083603037,0.03963441518019625,0.09115173496428362,-0.06197666933691047,0.030197193263111242,0.1548348581596257,-0.08444656095166207,-0.08062320253998861,-0.14583104087301962,0.0845211623798202
271,8.362393799994607,0.05209391727032595,-0.05660022728317878,0.02573021205286001,0.03976104095258713,0.09180338256403577,-0.06233203203303406,0.029853504166360102,0.1542116177844897,-0.0840875939157731,-0.0823708606711439,-0.14974709471450345,0.0857189058241317
272,8.366480099968612,0.05226185650992637,-0.05621171779589027,0.025466607884045367,0.03988620183451351,0.09245236711394468,-0.06268587030118113,0.029502471353547586,0.1535718801265685,-0.08372360138253,-0.08410580583637135,-0.15365473676124936,0.08690441383326333
273,8.370181599981152,0.052430320436177805,-0.05582047720527799,0.025201514802843872,0.040009866970290305,0.09309861911914179,-0.0630381630574534,0.029144149601408917,0.1529156824104203,-0.08335463568472107,-0.08582748407686965,-0.15755313313716734,0.0880773402297266
274,8.373691499989945,0.05259930267664738,-0.05542651718094942,0.02493493937095915,0.04013200574015113,0.09374206924915149,-0.06338888944171268,0.028778596027429798,0.15224306539015608,-0.08298075060380651,-0.08753533898188746,-0.16144144315502057,0.08923734249113131
275,8.377212499966845,0.052768796730285346,-0.0550298496845189,0.02466688823758457,0.040252587770144,0.09438264835282838,-0.0637380288236575,0.028405870101154737,0.15155407338075214,-0.0826020013614337,-0.08922881146953285,-0.16531881818060226,0.09038407936017956
276,8.381021299981512,0.05293879596848267,-0.05463048696881977,0.024397368138421246,0.040371582942073034,0.09502028747345263,-0.06408556080889312,0.028026033655407318,0.15084875429376288,-0.08221844461725204,-0.0909073400862459,-0.16918440240917423,0.09151721089236056
277,8.385401999985334,0.053109293636170535,-0.05422844157705244,0.024126385894670376,0.040488961403488836,0.09565491786396843,-0.0644314652449897,0.02763915089507275,0.15012715966208484,-0.08183013846002597,-0.0925703621525907,-0.17303733609294752,0.09263640123352593
278,8.389338499982841,0.05328028285296214,-0.05382372634186798,0.023853948412000146,0.04060469357770428,0.0962864710022882,-0.06477572222747743,0.02724528839865445,0.14938934464844866,-0.08143714238202354,-0.09421731511681927,-0.1768767591476038,0.093741322480025
279,8.39329319994431,0.053451756614336696,-0.053416354384387126,0.023580062679487524,0.04071875017379795,0.09691487860660264,-0.06511831210568866,0.026844515115640528,0.1486353680397654,-0.08103951723757273,-0.09584763710923429,-0.18070181372147714,0.09483165714762626
280,8.397537199954968,0.05362370779286563,-0.05300633911315476,0.023304735768535874,0.0408311021966078,0.09754007265063733,-0.06545921548840346,0.026436902363384838,0.14786529223394987,-0.080637325196627,-0.09746076673431758,-0.18451164476212256,0.09590709873554237
281,8.401608299987856,0.053796129139480814,-0.05259369422303024,0.023027974831769143,0.040941720956708234,0.09816198537885158,-0.06579841324930014,0.026022523826226666,0.14707918322948846,-0.08023062969856457,-0.09905614207623192,-0.18830539942518434,0.09696735144763283
282,8.405325699946843,0.05396901328478494,-0.052178433694013676,0.0227497871019035,0.04105057808039634,0.09878054932160707,-0.06613588653221115,0.025601455560759448,0.14627711061724813,-0.07981949540810533,-0.1006331997500778,-0.19208222691459367,0.09801212990737866
283,8.409803399990778,0.05414235274040399,-0.051760571790008314,0.0224701798905972,0.041157645519713446,0.09939569731029761,-0.06647161675620185,0.025173776002952234,0.14545914757139203,-0.0794039881715141,-0.10219137517980555,-0.19584127881697866,0.09904115927473858
284,8.41400779999094,0.0543161399003821,-0.05134012305751924,0.022189160587279384,0.04126289556249138,0.10000736249244116,-0.06680558562045692,0.024739565971074472,0.14462537083836802,-0.07898417497153196,-0.10373010396270672,-0.19958170997920224,0.10005417518313502
285,8.418332999979611,0.05449036704261878,-0.05091710232428847,0.021906736657958732,0.041366300842398715,0.10061547834671673,-0.06713777510897909,0.02429890866130925,0.1437758607204231,-0.07856012388411089,-0.10524882411349035,-0.20330267964399087,0.10105092332273254
286,8.42259859998012,0.05466502633034851,-0.05049152469786681,0.021622915644012634,0.04146783434895002,0.10121997869791735,-0.06746816749511064,0.02385188963175138,0.1429107010550139,-0.07813190403685988,-0.10674697843536833,-0.20700335201591769,0.10203115923695086
287,8.426592199946754,0.05484010981366238,-0.050063405564122844,0.021337705160957707,0.04156746943741713,0.10182079773181332,-0.06779674534588165,0.023398596778022727,0.1420299791935477,-0.07769958556749573,-0.10822401532901411,-0.21068289653862668,0.1029946486422287
288,8.430363499966916,0.05501560943107126,-0.049632760585689446,0.021051112897202295,0.041665179838632785,0.10241787000992587,-0.06812349152618108,0.02293912031044747,0.14113378597845466,-0.07726323957959225,-0.10967938792575686,-0.21434048823118101,0.10394116818460178
289,8.433943399984855,0.05519151701111016,-0.049199605700348155,0.020763146612781804,0.04176093966870934,0.10301113048419706,-0.06844838920273177,0.02247355273697815,0.14022221571909202,-0.07682293809465003,-0.11111255287282572,-0.2179753077442549,0.10487050630611254
290,8.437431899947114,0.055367824273983325,-0.048763957119351956,0.020473814138077678,0.041854723438698414,0.10360051451156019,-0.06877142184785735,0.02200198885061626,0.13929536616834257,-0.07637875400053828,-0.11252296977810823,-0.22158654145355852,0.10578246404002144
291,8.441395799978636,0.05554452283325009,-0.048325831325686776,0.020183123372520963,0.04194650606420353,0.10418595786841232,-0.06909257324302231,0.021524525717021247,0.13835333849773077,-0.07593076099685776,-0.11391010174276135,-0.2251733820275917,0.10667685549991325
292,8.445794899947941,0.055721604197551074,-0.0478852450722722,0.019891082283281427,0.04203626287493523,0.10476739676497486,-0.06941182748213814,0.021041262657439014,0.13739623726923278,-0.07547903353925739,-0.11527341607818192,-0.22873502905096396,0.10755350763678861
293,8.449211499944795,0.055899059772374554,-0.047442215380101856,0.01959769890394324,0.042123969624179754,0.10534476785952829,-0.06972916897463377,0.020552301230263942,0.13642417040513546,-0.07502364678684594,-0.1166123843169329,-0.23227068896644523,0.10841225921697725
294,8.453979399986565,0.05607688086186258,-0.046996759536324054,0.019302981333168195,0.04220960249819861,0.10591800827251852,-0.07004458244831814,0.02005774521387525,0.13543724916033514,-0.07456467655512898,-0.11792648286016713,-0.23577957530635146,0.10925296018457162
295,8.458400699950289,0.0562550586706566,-0.04654889509226321,0.019006937733347246,0.04229313812555255,0.10648705560055803,-0.07035805295205375,0.01955770058273858,0.13443558809024508,-0.07410219926879788,-0.11921519485267884,-0.23926091060251894,0.11007547231068417
296,8.462258299987298,0.056433584305782235,-0.046098639861382414,0.01870957632924118,0.04237455358629953,0.10705184793026154,-0.07066956585822101,0.019052275474428053,0.1334193050069854,-0.07363629190919084,-0.12047801209103008,-0.2427139280844179,0.11087967014064665
297,8.46699929999886,0.05661244877857245,-0.04564601191718813,0.018410905406611378,0.04245382642104057,0.10761232385187763,-0.07097910686494871,0.01854158014963456,0.13238852093296852,-0.07316703195909313,-0.12171443592420417,-0.246137871829365,0.1116654410509753
298,8.470719799981453,0.05679164300662863,-0.04519102959107782,0.01811093331084166,0.04253093463978043,0.10816842247273296,-0.07128666199811279,0.018025726951591645,0.13134336005582217,-0.07269449734971772,-0.12292397693082117,-0.2495319963721388,0.11243268447679262
299,8.47481099999277,0.05697115781581851,-0.04473371147013124,0.017809668445552197,0.04260585673063123,0.10872008343048373,-0.07159221761311961,0.017504830268806188,0.1302839496852674,-0.07221876641202148,-0.12410615460757408,-0.25289556573068317,0.11318131110140878
300,8.479728999955114,0.05715098394231062,-0.04427407639484631,0.01750711927120632,0.042678571668358825,0.10926724690619614,-0.07189576039649419,0.016979006497112037,0.12921042021625886,-0.0717399178305209,-0.12526049707863127,-0.25622785238811124,0.11391124265204976
301,8.483285199967213,0.057331112034644326,-0.04381214345682009,0.017203294303711026,0.042749058922766384,0.10980985363728707,-0.0721972773672739,0.016448374004851614,0.12812290509444862,-0.0712580305963312,-0.1263865402172265,-0.25952813712158596,0.11462241204052628
302,8.487353199976496,0.05751153265583496,-0.043347931996375474,0.016898202113012045,0.04281729846694709,0.11034784493031319,-0.07249675587820063,0.015913053102338117,0.12702154078076974,-0.07077318395979564,-0.12748382722971477,-0.26279570919781514,0.1153147633587467
303,8.491501799959224,0.05769223628551348,-0.04288146160013436,0.01659185132168428,0.04288327078541015,0.11088116267361292,-0.07279418361671501,0.015373166010545237,0.12590646671525127,-0.07028545738356236,-0.12855190894421487,-0.26602986688068864,0.11598825152247526
304,8.49590789998183,0.05787321332210014,-0.04241275209853769,0.016284250603518496,0.04294695688206945,0.11140974934979044,-0.07308954860575276,0.014828836828134922,0.12477782527732033,-0.06979493049821839,-0.12959034411154483,-0.2692299176519374,0.11664284134189537
305,8.49983779998729,0.058054454085011496,-0.0419418235633133,0.015975408682105036,0.043008338288091454,0.11193354804802273,-0.07338283920436472,0.014280191497608981,0.12363576174775609,-0.0693016830632054,-0.1305986992545092,-0.2723951771716608,0.11727850599929183
306,8.503765799978282,0.0582359488169003,-0.041468696304892215,0.015665334329415286,0.0430673970695984,0.11245250247622278,-0.07367404410818365,0.013727357773607977,0.12248042427775883,-0.068805794935293,-0.1315765479051773,-0.2755249675072493,0.11789522515896822
307,8.507660899951588,0.05841768768592747,-0.04099339086977388,0.01535403636438146,0.0431241158352488,0.11296655697308572,-0.07396315234977827,0.013170465195495678,0.12131196386584132,-0.06830734604543562,-0.13252347056976627,-0.27861861628786355,0.11849298403684266
308,8.512503799982369,0.058599660788065895,-0.04051592803784087,0.015041523651475068,0.04317847774370943,0.1134756565200571,-0.07425015329892487,0.012609645055954126,0.12013053433402905,-0.0678064163750929,-0.13343905646322765,-0.28167545889260054,0.1190717749733038
309,8.516623699979391,0.05878185814943545,-0.04003632881962317,0.01472780509928441,0.04323046651097096,0.11397974675317837,-0.07453503666276172,0.012045030358938462,0.11893629228629646,-0.067303085919821,-0.1343229056611418,-0.2846948427993534,0.11963160037679484
310,8.521189199993387,0.058964269728668486,-0.039554614453512986,0.014412889659091753,0.04328006641746533,0.11447877397470455,-0.07481779248575353,0.011476755770122759,0.11772939704808857,-0.06679743464076657,-0.13517462935392693,-0.2876761300580325,0.12017247405124012
311,8.525034099991899,0.059146885419304886,-0.03907080640293105,0.014096786323451117,0.043327262314963436,0.1149726851644396,-0.07509841114943676,0.010904957572710825,0.11651001060389791,-0.06628954241706246,-0.13599384764938888,-0.290618696273331,0.12069442007718013
312,8.529646699957084,0.05932969505221572,-0.0385849263534458,0.013779504124767595,0.04337203963331979,0.11546142799082772,-0.07537688337198262,0.010329773636415495,0.11527829754536555,-0.06577948900675827,-0.13678018805712938,-0.29352192920669246,0.12119747152706546
313,8.533221999998204,0.05951268839805519,-0.03809699620984617,0.013461052133878838,0.0434143843871086,0.1159449508218509,-0.07565320020761283,0.00975134338605205,0.11403442502064909,-0.06526735401005136,-0.13753328644909366,-0.29638522978122717,0.12168167080667808
314,8.537347299978137,0.05969585516974025,-0.03760703809316884,0.013141439458639293,0.043454283182103565,0.11642320273569319,-0.07592735304585255,0.009169807762416176,0.11277856267404825,-0.06475321682733784,-0.13825278888702291,-0.29920801393199337,0.12214707061890177
315,8.542618999956176,0.05987918502495721,-0.0371150743376811,0.012820675242507988,0.04349172322158395,0.11689613353112914,-0.07619933361059228,0.00858530917546451,0.1115108825797674,-0.06423715661431506,-0.13893835331002352,-0.3019897130120017,0.12259373380705305
316,8.54635129997041,0.06006266756869455,-0.03662112748782047,0.012498768663140689,0.043526692312419506,0.11736369373762931,-0.07646913395896215,0.007997991450959526,0.11023155917811689,-0.06371925224135397,-0.13958965027592599,-0.3047297727386894,0.1230217320594566
317,8.550424899964128,0.06024629235580081,-0.03612522029509231,0.012175728930987173,0.04355917887092659,0.11782583462521068,-0.07673674648005122,0.0074079997773974,0.10894076921816107,-0.0631995822595273,-0.14020636284588822,-0.30742765228068913,0.1234311448190647
318,8.554138799954671,0.06043004889356683,-0.03562737571492642,0.01185156528789419,0.043589171928505435,0.11828250821405845,-0.07700216389349512,0.006815480653626156,0.10763869170162187,-0.0626782248691783,-0.14078818623624742,-0.31008282406117277,0.12382205899997678
319,8.558277099975385,0.06061392664433118,-0.03512761690349346,0.011526287005714649,0.04361666113705447,0.1187336672839033,-0.07726537924793038,0.006220581838709846,0.10632550782718551,-0.06215525788833978,-0.14133482778408643,-0.3126947737459462,0.12419456895681459
320,8.562926599988714,0.06079791502810803,-0.03462596721448245,0.01119990338492361,0.04364163677418477,0.11917926538317353,-0.07752638591931567,0.005623452299837105,0.10500140093450644,-0.06163075872156114,-0.141846007607044,-0.3152630009617954,0.12454877641410055
321,8.567222099984065,0.06098200342523662,-0.034122450195840044,0.010872423753241631,0.04366408974819501,0.11961925683789996,-0.07778517760912317,0.005024242156620447,0.10366655644245543,-0.061104804328923075,-0.1423214585453717,-0.3177870202655195,0.1248847904178661
322,8.571758499951102,0.06116618117905104,-0.03361708958647287,0.010543857464266025,0.04368401160281613,0.12005359676034731,-0.07804174834239855,0.004423102629493515,0.10232116178495064,-0.06057747119527272,-0.14276092584939223,-0.32026636174735235,0.12520272751495068
323,8.575621299969498,0.06135043759856972,-0.033109909312914056,0.010214213896110555,0.043701394521751105,0.1204822410573779,-0.07829609246569283,0.003820185986646377,0.10096540634411647,-0.06004883529772615,-0.14316416778087865,-0.3227005717489168,0.1255027124654868
324,8.57913779997034,0.06153476196120355,-0.032600933485955004,0.009883502450054137,0.043716231332972005,0.12090514643851921,-0.07854820464484828,0.0032156454873506976,0.09959948138005925,-0.05951897206889434,-0.14353095579849215,-0.32508921331701873,0.12578487878272304
325,8.583157799963374,0.06171914351548153,-0.03209018639724387,0.009551732549199214,0.04372851551278179,0.12132227042373542,-0.07879807986262012,0.002609635327331038,0.09822357996019883,-0.058987956359832776,-0.14386107427977174,-0.3274318663737589,0.12604936801039474
326,8.58730909996666,0.061903571483793204,-0.03157769251585182,0.009218913637140514,0.043738241189650647,0.12173357135089885,-0.07904571341614994,0.002002310584434792,0.0968378968876095,-0.058455862409362146,-0.14415432071788759,-0.3297281277506845,0.1262963280267709
327,8.59163029998308,0.06208803506514667,-0.031063476484808453,0.008885055176644736,0.04374540314781952,0.12213900838295716,-0.07929110091432863,0.0013938271623440473,0.09544262863006356,-0.05792276382132172,-0.14441050628878122,-0.33197761107816764,0.12652591171488198
328,8.595758499985095,0.062272523437941374,-0.030547563117607653,0.008550166648341545,0.04374999683066175,0.12253854151480635,-0.079534238275078,0.0007843417314622227,0.09403797324930521,-0.05738873354510544,-0.14462945640562463,-0.33417994686187386,0.12673827681717698
329,8.59977189998608,0.062457025762754484,-0.030029977394685017,0.008214257549426188,0.043752018343788,0.12293213157986142,-0.0797751217225495,0.00017401166794958118,0.09262413032944919,-0.05685384385414113,-0.14481101062663784,-0.336334782290999,0.1269335863142042
330,8.6045367999468,0.06264153118513988,-0.029510744459868284,0.007877337392374114,0.04375146445789375,0.12331974025632551,-0.08001374778422435,-0.00043700500461266227,0.09120130090787204,-0.05631816632323277,-0.14495502134834487,-0.33844178035311806,0.12711200808904527
331,8.60798489995068,0.06282602883843853,-0.028989889616801916,0.007539415703668051,0.0437483326113722,0.12370133007317767,-0.08025011328792118,-0.0010485496651656502,0.08976968741107612,-0.055781771809869915,-0.14506135205898849,-0.34050061884075356,0.12727371379576702
332,8.613357399997767,0.06301050784659955,-0.028467438325347004,0.007200502022537859,0.04374262091274051,0.12407686441590107,-0.08048421535873851,-0.001660463138777946,0.08832949359395958,-0.05524473044111349,-0.14512987688727605,-0.3425109902241865,0.12741887774972238
333,8.617454299994279,0.063194957327011,-0.02794341619795754,0.006860605899713396,0.043734328142885005,0.1244463075319586,-0.08071605141595176,-0.0022725857427829334,0.08688092447675311,-0.054707111604264516,-0.1451604811573264,-0.3444726020135555,0.1275476759951946
334,8.621251399978064,0.06337936639333988,-0.027417848996034153,0.006519736896190545,0.04372345375709822,0.12480962453598915,-0.08094561916987704,-0.002884757335064343,0.0854241862812359,-0.05416898394161346,-0.14515306082289534,-0.3463851753438172,0.1276602849455867
335,8.624799399985932,0.06356372415838017,-0.02689076262625654,0.006177904582010526,0.04370999788691688,0.1251667814147453,-0.08117291661872393,-0.003496817355421866,0.08395948637960694,-0.05363041535257769,-0.145107520882231,-0.34824844246622855,0.1277568799572782
336,8.628829499997664,0.06374801973690826,-0.026362183136895558,0.00583511853505247,0.04369396134181009,0.12551774503185836,-0.08139794204547723,-0.004108604860487457,0.08248703325185809,-0.053091473000479054,-0.14502377560867613,-0.3500621479138524,0.12783763554481273
337,8.63233869994292,0.06393224224854524,-0.02583213671410549,0.005491388339839028,0.0436753456107228,0.12586248313241652,-0.08162069401480693,-0.0047199585670358625,0.08100703642481531,-0.0525522233128664,-0.1449017510733399,-0.35182605394390093,0.1279027274311539
338,8.636845099972561,0.06411638082062537,-0.025300649678197493,0.005146723586355012,0.04365415286339873,0.12620096434721578,-0.08184117136995266,-0.0053307169081773225,0.07951970638361064,-0.05201273197100115,-0.1447413870644392,-0.35353994482417117,0.12795233436771808
339,8.6406857999973,0.06430042459106954,-0.024767748479896025,0.004801133868879276,0.04363038595144988,0.12653315819659144,-0.082059373229545,-0.005940718092855966,0.07802525447457134,-0.05147306389482952,-0.14454263787372568,-0.3552036270242403,0.12798663870619945
340,8.644970199966338,0.06448436271126269,-0.024233459696579987,0.004454628784830164,0.04360404840917765,0.12685903509385002,-0.08227529898436321,-0.0065498001686753,0.0765238928150793,-0.050933283227645315,-0.14430547294429796,-0.3568169279980665,0.1280058268400705
341,8.649457999970764,0.06466818434893427,-0.023697810028510187,0.004107217933624744,0.0435751444541125,0.12717856634834043,-0.08248894829402714,-0.007157801086860294,0.07501583420672783,-0.05039345331733847,-0.14402987735580136,-0.358379696347487,0.12801009019273216
342,8.654166299966164,0.06485187869104021,-0.023160826295044592,0.003758910915552152,0.04354367898728714,0.12749172416815352,-0.08270032108359682,-0.007764558769175084,0.07350129204380207,-0.04985363669272371,-0.1437158530514766,-0.35989180211406996,0.12799962584943142
343,8.658138599945232,0.06503543494664561,-0.02262253543084302,0.0034097173306615047,0.04350965759321182,0.12779848166242133,-0.08290941754006471,-0.008369911183234076,0.07198048022397431,-0.04931389503945948,-0.14336341934657623,-0.36135313496474225,0.1279746361828696
344,8.662423099973239,0.06521884234980657,-0.022082964482063,0.0030596467776648293,0.043473086539512325,0.12809881284326344,-0.08311623810875225,-0.008973696413707669,0.07045361307208697,-0.04877428917953422,-0.14297261195611077,-0.362763601360186,0.1279353279596733
345,8.666687899967656,0.06540209016244981,-0.02154214060254805,0.002708708852855369,0.04343397277630472,0.1283926926274434,-0.08332078348962904,-0.009575752729433298,0.06892090527472985,-0.04823487905472141,-0.14254348368977537,-0.36412312274590597,0.12788191147514466
346,8.670527799986303,0.06558516767724923,-0.021000091050009564,0.002356913149041556,0.04339232393526735,0.12868009683776332,-0.08352305463356983,-0.010175918660482225,0.06738257181927977,-0.04769572371336341,-0.14207610540059798,-0.3654316348382043,0.1278146000228003
347,8.674858499958646,0.06576806422049768,-0.020456843182203328,0.0020042692544968857,0.04334814832836556,0.12896100220420614,-0.08372305273856231,-0.010774033073271546,0.06583882793449997,-0.04715688129830047,-0.14157056512759567,-0.3666890874758966,0.12773361008166537
348,8.679055099957623,0.06595076915497278,-0.019912424453101773,0.0016507867519258738,0.043301454946290195,0.1292353863648292,-0.08392077924586223,-0.011369935240400078,0.06428988903083038,-0.0466184090320749,-0.14102696763398564,-0.3678954448399819,0.1276391621432767
349,8.683208799979184,0.06613327188279554,-0.01936686240906296,0.0012964752174463585,0.04325225345659335,0.12950322786640298,-0.08411623583607641,-0.011963464911865613,0.06273597063913436,-0.04608036319788506,-0.14044543424632996,-0.3690506855913938,0.12753148145284768
350,8.68723289994523,0.06631556184828043,-0.018820184684997437,0.0009413442195884938,0.04320055420152621,0.129764506164788,-0.08430942442515725,-0.012554462383544135,0.061177288349827094,-0.04554279911853854,-0.13982610255184502,-0.37015480272038137,0.1274107980613599
351,8.692006299970672,0.06649762854077576,-0.018272419000534054,0.0005854033183108339,0.04314636819559721,0.13001920162506017,-0.0845003471603082,-0.013142768565854158,0.059614057752892684,-0.04500577113696678,-0.13916912697773648,-0.3712078035484586,0.12727734623442702
352,8.696127399976831,0.06667946149749318,-0.017723593156185755,0.00022866206403386095,0.04308970712283079,0.13026729552138186,-0.08468900641581395,-0.0137282250571221,0.05804649437699614,-0.0444693326001639,-0.13847467974023725,-0.37220971005811415,0.12713136366410846
353,8.700814799987711,0.06686105030632493,-0.017173735029516482,-0.00012887000330876302,0.04303058333370679,0.13050877003661362,-0.08487540478881044,-0.014310674220250877,0.056474813626719626,-0.043933535846348994,-0.13774295086606655,-0.37316055919755253,0.1269730908176861
354,8.704786899965256,0.0670423846086475,-0.01662287257131025,-0.0004871833552009918,0.04296900984177253,0.13074360826165593,-0.08505954509500674,-0.014889959256266261,0.054899230719104276,-0.043398432194397416,-0.13697414749984504,-0.37406040302467014,0.1268027705597675
355,8.708820099942386,0.06722345410211036,-0.01607103380174359,-0.0008462684754570613,0.04290500031996195,0.13097179419452573,-0.08524143036436597,-0.015465924275144163,0.05331996061967212,-0.042864071934190257,-0.13616849362637823,-0.3749093091230022,0.12662064798996303
356,8.712679099990055,0.06740424854340854,-0.015518246806562422,-0.0012061158611158574,0.04283856909661034,0.13119331273915855,-0.08542106383674579,-0.016038414367014715,0.05173721797545977,-0.04233050431741469,-0.13532623011601402,-0.375707361147593,0.12642697020526333
357,8.716921299987007,0.06758475775103773,-0.014964539733264599,-0.0015667160233168143,0.042769731151172885,0.13140814970392026,-0.08559844895750165,-0.016607275673372092,0.05015121704643645,-0.04179777754991758,-0.13444761530407495,-0.37645465897287755,0.12622198580020472
358,8.720681199978571,0.06776497160803079,-0.014409940787289327,-0.0019280594881571998,0.04269850210963885,0.13161629179983075,-0.08577358937306288,-0.017172355463165576,0.04856217163729043,-0.041265938786721454,-0.13353292566110617,-0.3771513182685507,0.1260059442716376
359,8.72472919995198,0.06794488006467415,-0.013854478228214697,-0.0022901367975307015,0.042624898239608376,0.13181772663850042,-0.08594648892649388,-0.017733502209662296,0.0469702950324242,-0.040735034129398356,-0.13258245500605878,-0.3777974692517374,0.12577909552864847
360,8.729204899980687,0.06812447314120283,-0.013298180365964507,-0.002652938509947276,0.04254893644505835,0.1320124427298055,-0.08611715165304802,-0.01829056565990222,0.045375799938265196,-0.040205108625219164,-0.13159651265640102,-0.37839325467517637,0.12554168934804832
361,8.732993399957195,0.06830374093047265,-0.012741075557025397,-0.003016455201334235,0.04247063426083344,0.13220042947933808,-0.08628558177572171,-0.018843396895958806,0.043778898435228794,-0.039676206269119885,-0.13057542222506666,-0.3789388280436641,0.12529397464042688
362,8.737498599977698,0.06848267360060876,-0.012183192200675184,-0.0033806774658185976,0.04239000984689531,0.13238167718567626,-0.08645178370082485,-0.01939184839424735,0.04217980193507167,-0.03914837000904114,-0.1295195219442173,-0.37943435384622176,0.12503619899538837
363,8.741570599959232,0.06866126139762947,-0.011624558735223015,-0.0037455959164908186,0.04230708198231342,0.13255617703747444,-0.08661576201357994,-0.019935774089516287,0.04057872113089666,-0.03862164175172996,-0.12842916644645327,-0.3798800099857989,0.12476860910178608
364,8.745818899944425,0.068839494648044,-0.011065203634262243,-0.004111201186150022,0.04222187005897453,0.1327239211103119,-0.08677752147374149,-0.020475029449178405,0.03897586593401386,-0.038096062364535006,-0.12730472845316468,-0.3802759898585954,0.12449145180357277
365,8.749704699963331,0.06901736376142321,-0.010505155402937165,-0.0044774839280307815,0.04213439407494658,0.13288490236325048,-0.08693706701121022,-0.02100947155154181,0.0373714454064083,-0.03757167167230322,-0.12614659854344357,-0.38062250189051655,0.12420497484974506
366,8.753934499982279,0.06919485923294154,-0.009944442574224926,-0.004844434816511368,0.04204467462752842,0.13303911463511367,-0.08709440372162633,-0.02153895915819214,0.03576566770151063,-0.03704850845284996,-0.12495518383592329,-0.3809197672323245,0.12390942682118293
367,8.758188999956474,0.06937197164588899,-0.00938309370523364,-0.005212044547803361,0.041952732906003196,0.1331865526405447,-0.0872495368619455,-0.022063352781106056,0.034158740016104056,-0.03652661043447271,-0.12373090662331244,-0.3811680177127029,0.12360505647630388
368,8.76248969999142,0.06954869167415194,-0.008821137373517538,-0.005580303840622581,0.04185859068412201,0.13332721196587993,-0.08740247184601117,-0.022582514743517024,0.03255086854835902,-0.036006014296939996,-0.12247420354012173,-0.38136749475353365,0.12329211194805137
369,8.766504699946381,0.06972501008466184,-0.0082586021734099,-0.0059492034368413636,0.04176227031234401,0.1334610890648532,-0.0875532142401389,-0.023096309240009348,0.030942258458888792,-0.035486755675777776,-0.12118552577073127,-0.38151844864999457,0.12297083994420133
370,8.770716699946206,0.06990091773981048,-0.007695516712374428,-0.006318734102122245,0.041663794709813184,0.13358818125414065,-0.08770176975872476,-0.023604602399138808,0.02933311383485583,-0.03496886917000301,-0.11986533921122133,-0.38162113745461695,0.12264148484504964
371,8.774369399994612,0.07007640559983107,-0.007131909607375752,-0.0066888866265331975,0.04156318735607031,0.13370848670876223,-0.08784814425989498,-0.024107262344891585,0.027723637660439338,-0.03445238835402023,-0.11851412345185695,-0.38167582536658956,0.12230428798722245
372,8.77951059996849,0.07025146472514357,-0.006567809481269591,-0.007059651825144626,0.04146047228251139,0.1338220044573776,-0.08799234374121465,-0.0246041592507231,0.026114031794526347,-0.033937345791395505,-0.1171323707817147,-0.38168278193459393,0.12195948781116378
373,8.783979399944656,0.07042608627866374,-0.00600324495921293,-0.00743102053860841,0.04135567406364384,0.13392873437749947,-0.08813437433545349,-0.025095165392621886,0.02450449694790261,-0.033423773045509086,-0.1157205872074661,-0.38164228299092245,0.12160732095405605
374,8.787376699969172,0.07060026152807478,-0.005438244665094556,-0.007802983633719184,0.04124881780809741,0.13402867719059705,-0.08827424230638446,-0.025580155211740924,0.022895232653065284,-0.03291170068411161,-0.11427929367896368,-0.38155461198943874,0.12124802340049075
375,8.7919591999962,0.07077398184806045,-0.004872837217986529,-0.008175532003957951,0.04113992914935207,0.13412183445705483,-0.08841195404458797,-0.0260590053777982,0.02128643723012934,-0.03240115828027189,-0.11280902544113632,-0.3814200601128761,0.12088183074564963
376,8.79555459995754,0.07094723872249863,-0.004307051228617237,-0.008548656570017974,0.041029034236214255,0.1342082085709885,-0.08854751606325842,-0.026531594846241867,0.019678307755735303,-0.03189217441471343,-0.11131033113235844,-0.3812389253371646,0.12050897746194807
377,8.799864099943079,0.07112002374661404,-0.003740915295866594,-0.008922348280313014,0.04091615972306262,0.13428780275494145,-0.08868093499402813,-0.026997804914046398,0.018071040036847192,-0.031384776682947424,-0.10978377271460554,-0.3810115115378995,0.12012969554136392
378,8.804011199972592,0.07129232862908953,-0.0031744580032838188,-0.009296598111468012,0.04080133275985365,0.13436062105447974,-0.08881221758283407,-0.027457519276288665,0.016464828587196362,-0.030878991709059934,-0.10822992552008474,-0.3807381281017104,0.11974421296765356
379,8.80816049996065,0.07146414519413459,-0.002607707915628222,-0.009671397068792458,0.040684580981890296,0.1344266683326899,-0.08894137068585808,-0.027910624082337375,0.014859866604357199,-0.03037484516573034,-0.10664937797409943,-0.380419089773697,0.11935275259183102
380,8.81232149997959,0.07163546538351023,-0.0020406935754333933,-0.010046736186736835,0.04056593249935367,0.13448595026458057,-0.08906840126556241,-0.028357007990091776,0.013256345947477691,-0.029872361797502838,-0.10504273073829218,-0.3800547164845767,0.11895553172168179
381,8.816578699974343,0.07180628125850928,-0.001473443499595202,-0.010422606529332554,0.0404454158866142,0.1345384733313925,-0.08919331638682619,-0.028796562214945136,0.011654457115812974,-0.029371565444266928,-0.1034105950911643,-0.37964533326991473,0.11855276219492783
382,8.821835199953057,0.07197658500189111,-0.0009059861759839757,-0.01079899919061581,0.04032306017135038,0.13458424481481904,-0.08931612321317906,-0.029229180570364634,0.010054389227137124,-0.028872479063911844,-0.1017535912639172,-0.37919127026661237,0.11814465043346144
383,8.825585199985653,0.07214636891977011,-0.00033835006008124517,-0.01117590529503575,0.04019889482351769,0.1346232727911342,-0.08943682900312867,-0.029654759502819202,0.00845632999630632,-0.028375124755349635,-0.10007234765334307,-0.3786928624651364,0.11773139706135059
384,8.829200999985915,0.07231562544345743,0.0002294364283585523,-0.011553315997847355,0.04007294974417274,0.1346555661252323,-0.08955544110658853,-0.030073198125720877,0.006860465715760355,-0.02787952378439136,-0.09836750038169163,-0.378150448943968,0.11731319614221493
385,8.83358129998669,0.07248434713125519,0.0007973449086210576,-0.011931222485489487,0.039945255254155924,0.13468113446459148,-0.08967196696142371,-0.030484398250640525,0.005266981240542507,-0.0273856966132022,-0.09663969246478672,-0.37756437154959194,0.11689023430871218
386,8.837042699975427,0.07265252667020274,0.001365347042319376,-0.01230961597594863,0.0398158420826523,0.13469998823318713,-0.08978641409012711,-0.030888264414233032,0.003676059979934121,-0.026893662933519618,-0.09488957309466081,-0.376934973632673,0.11646268992694692
387,8.84144109999761,0.07282015687777439,0.0019334145366557236,-0.012688487719108904,0.039684741355647146,0.13471213862538478,-0.08989879009664538,-0.03128470390340271,0.0020878838931336656,-0.026403441703155926,-0.09311779763916761,-0.3762626000804418,0.11603073258161638
388,8.845626099966466,0.07298723070352836,0.0025015191476573106,-0.01306782899708904,0.039551984584274606,0.1347175975998171,-0.090009102663363,-0.031673626782225225,0.0005026334806181625,-0.025915051183558756,-0.09132502805899646,-0.3755475989110087,0.11559452297943971
389,8.84978059999412,0.0731537412307062,0.0030696326833863424,-0.013447631124566954,0.039417603653046175,0.13471637787320398,-0.09011735954824501,-0.03205494592063013,-0.0010795122336243084,-0.025428508977128103,-0.08951193350904937,-0.3747903226881903,0.11515421324921168
390,8.85444979998283,0.07331968167778243,0.0036377270071237815,-0.013827885449092626,0.03928163080795743,0.13470849291407958,-0.09022356858213584,-0.032428577026394845,-0.0026583757226659394,-0.024943832062246134,-0.08767919019885384,-0.3739911280606959,0.11470994745646375
391,8.858294199977536,0.0734850453999637,0.004205774040526443,-0.014208583351389891,0.03914409864444668,0.13469395693643896,-0.09032773766619746,-0.03279443867264992,-0.004233780970520151,-0.024461036826253533,-0.08582747914975379,-0.3731503740109579,0.1142618618551347
392,8.862490999978036,0.07364982589063687,0.004773745766757172,-0.014589716245647713,0.03900504009526972,0.1346727848933481,-0.09042987476948633,-0.033152452310956974,-0.005805553477943424,-0.023980139098356706,-0.0839574845520132,-0.37226842077625727,0.11381008487196564
393,8.867261199979112,0.07381401678276589,0.005341614233588044,-0.014971275579801536,0.038864488418348185,0.13464499247054157,-0.09052998792666911,-0.03350254228495767,-0.0073735202672169575,-0.023501154182735736,-0.08206989522178763,-0.37134563013239197,0.1133547369576413
394,8.870935199956875,0.07397761185023737,0.005909351556476544,-0.015353252835805293,0.03872247718452917,0.13461059607999215,-0.09062808523587884,-0.03384463585573986,-0.008937509890340976,-0.02302409689270708,-0.08016540645296506,-0.3703823657752824,0.11289593023991003
395,8.874869999999646,0.07414060500915425,0.006476929921614537,-0.01573563952989468,0.03857904026521965,0.13456961285343946,-0.0907241748567188,-0.034178663231105084,-0.010497352437034873,-0.022548981586757125,-0.07824471990029665,-0.36937899275012265,0.11243376818373119
396,8.879020299995318,0.07430299031907708,0.007044321588949862,-0.016118427212842325,0.03843421181989926,0.13452206063589214,-0.09081826500842255,-0.03450455758994908,-0.012052879538116946,-0.022075822205571236,-0.0763085423535244,-0.3683358764224536,0.11196834569096877
397,8.883199699979741,0.0744647619842124,0.007611498895180502,-0.016501607470205546,0.03828802628354911,0.1344679579791279,-0.09091036396817014,-0.03482225510119017,-0.013603924364826485,-0.021604632307226486,-0.07435758430363092,-0.3672533818913162,0.11149974966362866
398,8.887250299972948,0.0746259143545479,0.008178434256721358,-0.01688517192256732,0.03814051835400488,0.1344073241352014,-0.09100048006954495,-0.035131694936057396,-0.015150321627254007,-0.021135425099470317,-0.07239255841602468,-0.3661318739432094,0.11102805951305411
399,8.891503899998497,0.07478644192693423,0.008745100172643658,-0.017269112225771016,0.037991722979282,0.13434017904995765,-0.09108862170112214,-0.03543281927414166,-0.01669190757327502,-0.02066821347061868,-0.07041417897540284,-0.36497171720192406,0.1105533474197951
400,8.895837699994445,0.07494633934611324,0.009311469227587032,-0.017653420071149475,0.037841675344877757,0.13426654335654883,-0.09117479730518611,-0.035725573311001776,-0.018228519988243964,-0.02020301001964294,-0.06842316204747942,-0.3637732760559659,0.11007567840306125
401,8.900015699968208,0.07510560140569261,0.009877514094644234,-0.018038087185748918,0.037690410861032274,0.1341864383689502,-0.09125901537657267,-0.03600990526557966,-0.01975999819331586,-0.019739827086482243,-0.06642022506275398,-0.3625369139265616,0.10959511017127732
402,8.904085099988151,0.0752642230490668,0.01044320753821853,-0.01842310533254825,0.03753796514996809,0.13409988607549114,-0.09134128446164218,-0.03628576638429583,-0.02128618303896656,-0.019278676783390843,-0.06440608619201343,-0.3612629924638679,0.10911169334273797
403,8.908184499945492,0.07542219937028394,0.011008522416853867,-0.018808466310674333,0.037384374033116625,0.13400690913242574,-0.09142161315738608,-0.03655311094319754,-0.022806916896535155,-0.01881957102338946,-0.06238146439266511,-0.35995187198905726,0.1086254724626343
404,8.912250099994708,0.07557952561485906,0.011573431686038027,-0.01919416195561373,0.0372296735183396,0.13390753085753515,-0.09150001011064002,-0.03681189625244508,-0.024322043655472823,-0.018362521543034926,-0.06034707989384477,-0.35860391320646795,0.10813648711587395
405,8.91652599995723,0.07573619718053327,0.012137908400978841,-0.019580184139421343,0.03707389978711768,0.1338017752237213,-0.09157648401738244,-0.037062082662551316,-0.02583140872932563,-0.01790753992148593,-0.058303654197287766,-0.35721947843816176,0.10764477234692778
406,8.920024599996395,0.07589220961797888,0.012701925719353314,-0.019966524770926267,0.036917089181719286,0.1336896668525589,-0.09165104362210848,-0.03730363356887534,-0.027334859063395726,-0.017454637599731652,-0.0562519099152077,-0.3557989311311186,0.10715035813950917
407,8.925609299971256,0.07604755863145035,0.013265456904029452,-0.02035317579593512,0.03675927819235133,0.13357123100782448,-0.0917236977172907,-0.03753651541649468,-0.02883224313656779,-0.017003825904045936,-0.05419257100119403,-0.3543426350034995,0.10665326864965731
408,8.929649599944241,0.07620224007938109,0.013828475325760812,-0.020740129197433357,0.03660050344428692,0.133446493589033,-0.09179445514295088,-0.03776069770664636,-0.030323410961769742,-0.016555116071684146,-0.05212636330593578,-0.35285095471421113,0.10615352226153572
409,8.93377679999685,0.07635624997492582,0.01439095446585382,-0.021127376995784992,0.03644080168496178,0.133315481124963,-0.09186332478633744,-0.03797615300628612,-0.03180821409344636,-0.016108519273866737,-0.0500540145995617,-0.3513242574252259,0.10565113218266561
410,8.937449699966237,0.07650958448644853,0.014952867918807705,-0.021514911248931186,0.03628020977102133,0.1331782207671302,-0.09193031558169101,-0.03818285695471789,-0.03328650564119671,-0.015664046636455865,-0.04797625341570339,-0.34976291356479144,0.10514610676387977
411,8.942069999990053,0.0766622399379556,0.015514189394926778,-0.021902724052588,0.03611876465536121,0.13303474028319764,-0.09199543651009638,-0.038380788263403735,-0.034758140283684694,-0.015221709260240444,-0.04589380787214787,-0.348167296386518,0.10463844948664273
412,8.94566389999818,0.07681421280947445,0.016074892722904785,-0.02229080754044372,0.035956503374175934,0.13288506805033187,-0.09205869659941907,-0.03856992871264667,-0.036222974278557835,-0.014781518241719704,-0.0438074050916021,-0.34653778104072414,0.10412815885867592
413,8.949990099994466,0.07696549973737749,0.01663495185238115,-0.022679153884356096,0.035793463034027403,0.13272923304852952,-0.09212010492433252,-0.03875026314651526,-0.03768086546852548,-0.014343484694268546,-0.04171777140995596,-0.3448747441350859,0.10361522838605655
414,8.953836799948476,0.0771160975146516,0.017194340856469047,-0.02306775529454988,0.035629680798936386,0.1325672648539222,-0.0921796706064333,-0.03892177947128294,-0.03913167328757205,-0.013907619769156422,-0.039625633117350206,-0.3431785637467355,0.10309964662999316
415,8.958077099989168,0.07726600309111326,0.017753033934255175,-0.023456604019815034,0.035465193877464156,0.1323991936320507,-0.09223740281444548,-0.03908446865660286,-0.04057525876713728,-0.013473934676233845,-0.037531716411351355,-0.3414496191452217,0.1025813976063771
416,8.961586299992632,0.07741521357356912,0.0183110054132711,-0.023845692347706008,0.035300039509794094,0.13222505013111768,-0.09229331076451032,-0.039238324733552245,-0.04201148453999291,-0.013042440701581417,-0.03543674661033362,-0.33968829034184317,0.10206046163620151
417,8.966383099963423,0.07756372622592211,0.018868229751936128,-0.024235012604742378,0.03513425495482981,0.13204486567522927,-0.09234740372053954,-0.03938334478917287,-0.043440214842622,-0.012613149221023844,-0.03334144741357912,-0.3378949586031373,0.1015368166169938
418,8.970578899956308,0.07771153846922323,0.019424681541971647,-0.024624557156611108,0.03496787747732279,0.13185867215762767,-0.09239969099461894,-0.039519528958275034,-0.04486131552342634,-0.012186071707055612,-0.031246540715745147,-0.33607000852278723,0.10101043970589581
419,8.974970899987966,0.07785864788166905,0.019980335510786918,-0.02501431840837059,0.034800944335039635,0.13166650203386343,-0.0924501819474201,-0.03964688041641326,-0.04627465406258047,-0.011761219728159775,-0.029152747024268615,-0.3342138297712331,0.10048130820461591
420,8.978932399943005,0.07800505219854531,0.020535166523835833,-0.025404288804656387,0.03463349276594898,0.13146838831486074,-0.09249888598859825,-0.03976540537521068,-0.04768009959499539,-0.011338604948269885,-0.027060785597097892,-0.33232681673317843,0.09994939885494006
421,8.982918299967423,0.07815074931211638,0.02108914958694422,-0.025794460829888614,0.03446555997542814,0.13126436455989596,-0.09254581257719946,-0.03987511307649635,-0.049077522927115286,-0.010918239132030487,-0.02497137404929532,-0.33040936693981543,0.0994146864666309
422,8.987966699991375,0.07829573727146089,0.021642259848607383,-0.026184827008481123,0.034297183123499476,0.13105446486952124,-0.09259097122210284,-0.03997601578431172,-0.050466796546658546,-0.01050013415583145,-0.022885227637421717,-0.32846188063805676,0.09887714326347202
423,8.991555399959907,0.07844001428225356,0.02219447260225772,-0.02657537990505262,0.03412839931210448,0.13083872387846093,-0.09263437148252081,-0.04006812877301241,-0.051847794635781305,-0.010084302018583976,-0.02080305817119757,-0.32648476276683963,0.09833673962540651
424,8.995572999992874,0.07858357870649353,0.02274576328850235,-0.026966112124640056,0.03395924557244046,0.13061717674842416,-0.09267602296853217,-0.04015147031009551,-0.053220393097486794,-0.009670754846495678,-0.01872557278714857,-0.32447842527407555,0.09779344507669198
425,9.000284199952148,0.07872642906217939,0.023296107497330118,-0.02735701631291425,0.0337897588523795,0.13038985916077847,-0.09271593534162266,-0.040226061633958206,-0.054584469588330194,-0.009259504895512414,-0.01665347339443112,-0.32244328771051395,0.09724722857444562
426,9.00387839996256,0.07886856402293134,0.02384548097028743,-0.02774808515639784,0.03361997600399271,0.13015680730908663,-0.09275411831523865,-0.04029192693205114,-0.055939903549836675,-0.008850564553659759,-0.01458745690592326,-0.32037977655003663,0.09669805841656008
427,9.008274199964944,0.07900998241756105,0.024393859602622303,-0.028139311382685567,0.03344993377115342,0.12991805789151525,-0.0927905816553474,-0.04034909332058608,-0.05728657623547357,-0.008443946344261481,-0.012528215191402788,-0.3182883242516401,0.09614590212035433
428,9.012252999993509,0.07915068322958926,0.024941219445396186,-0.028530687760666952,0.03327966877723261,0.1296736481031441,-0.0928253351810179,-0.04039759082229437,-0.0586243707341571,-0.00803966292930448,-0.010476434962734813,-0.3161693688957764,0.09559072684456292
429,9.016434899996966,0.07929066559671186,0.02548753670756314,-0.02892220710075149,0.033109217512889685,0.1294236156281765,-0.09285838876500956,-0.04043745234516624,-0.05995317199415741,-0.007637727109098179,-0.008432796940231906,-0.3140233543583855,0.09503250005441367
430,9.020527199958453,0.07942992881021449,0.026032787758015964,-0.02931386225509628,0.03293861632394721,0.12916799863204698,-0.09288975233435011,-0.040468713653178334,-0.061272866848073114,-0.007238151820030142,-0.006397973586039866,-0.3118507306952243,0.094471189643173
431,9.024844099942127,0.07956847231433638,0.026576949127598806,-0.029705646117836104,0.03276790139942858,0.12890683575342105,-0.0929194358709054,-0.04049141332591618,-0.06258334403997778,-0.00684095013320035,-0.004372627925384295,-0.3096519548375777,0.09390676364828211
432,9.02937349997228,0.07970629570558407,0.027119997511085812,-0.030097551625315855,0.03259710875977329,0.12864016609607393,-0.0929474494119458,-0.04050559271936003,-0.06388449425626216,-0.006446135254570945,-0.0023574139846459373,-0.307427491538075,0.09333918958140161
433,9.033838999981526,0.07984339873199583,0.02766190976912526,-0.030489571756325388,0.03242627424520535,0.12836802922063018,-0.0929738030507172,-0.040511295929202114,-0.06517621016075775,-0.006053720529250955,-0.0003529762134967264,-0.30517781399655497,0.09276843342191882
434,9.03749349998543,0.0799797812923573,0.028202662930148514,-0.030881699532336777,0.03225543350425793,0.12809046513614616,-0.09299850693704362,-0.04050856974675871,-0.06645838643085761,-0.005663719450134877,0.0016400521569208087,-0.30290340345115296,0.09219445875970118
435,9.041162199981043,0.0801154434353691,0.02874223419224318,-0.03127392801774424,0.03208462198251363,0.12780751429154508,-0.093021571277971,-0.04049746360844018,-0.06773091978919113,-0.005276145669417481,0.003621049553937292,-0.30060474789457053,0.09161722599364693
436,9.0453039999702,0.08025038535876751,0.02928060092498983,-0.03166625032010684,0.0319138749115553,0.12751921756693224,-0.09304300633846699,-0.040478029547952495,-0.06899370902891779,-0.004891013013991874,0.005589406387202727,-0.2982823419406319,0.09103669215707601
437,9.049856499943417,0.08038460740839892,0.02981774067126189,-0.03205865959039427,0.031743227298109425,0.1272256162648168,-0.09306282244219456,-0.040450322143035955,-0.07024665504427642,-0.004508335498436974,0.0075445267832837445,-0.2959366898841469,0.09045281253565032
438,9.054058799985796,0.08051811007724895,0.030353631148988328,-0.032451149023236134,0.031572713913446175,0.12692675210116935,-0.09308102997232134,-0.040414398453036994,-0.0714896608816861,-0.0041281273267699085,0.00948583008954835,-0.29356831011279266,0.08986554334699866
439,9.058260099962354,0.08065089400442742,0.030888250252878145,-0.03284371185717454,0.0314023692830493,0.1266226671962127,-0.09309763937230806,-0.040370317952962996,-0.07272263180750553,-0.003750402882833342,0.011412751151831968,-0.29117773683174225,0.08927484336429553
440,9.061927399947308,0.08078295997411042,0.03142157605610538,-0.033236341374919987,0.03123222767657237,0.12631340406490799,-0.0931126611466367,-0.04031814246871227,-0.07394547537367958,-0.0033751767183544876,0.013324739897471478,-0.288765518227429,0.0886806737728661
441,9.066197699983604,0.08091430891444057,0.03195358681195334,-0.03362903090361017,0.031062323098054952,0.12599900560719168,-0.09312610586149835,-0.040257936114645586,-0.07515810147001176,-0.0030024635445418365,0.015221261705987338,-0.2863322146602003,0.08808299802503591
442,9.070379599987064,0.08104494189638653,0.03248426095541729,-0.034021773815071626,0.03089268927640538,0.12567951509802097,-0.09313798414545041,-0.040189765225689775,-0.07636042237456737,-0.0026322782213683824,0.017101798843129137,-0.2838784000744587,0.08748178285676944
443,9.07459109998308,0.08117486013256302,0.03301357710476472,-0.03441456352608408,0.030723359656189553,0.1253549761771856,-0.09314830669001406,-0.04011369828281443,-0.07755235281783933,-0.0022646357405939435,0.018965851224029617,-0.28140466452532714,0.08687699930703957
444,9.07886559999315,0.08130406497601263,0.0335415140630521,-0.03480739349864715,0.03055436738874226,0.12502543283881207,-0.09315708425018833,-0.04002980583869901,-0.07873381005446134,-0.0018995512064509507,0.020812936043409436,-0.2789116142213811,0.0862686227636751
