,time,x,y,z,vx,vy,vz,ax,ay,az,jx,jy,jz
0,15.595184999983758,0.0016420153888887735,-0.0026990107690399705,0.0360398282294183,0.0011236213969917266,-0.00994887253766798,0.009427570338894594,0.01792058280596018,0.0060633512452532845,-0.006506754655344519,0.06470799406390458,0.07205478731086426,-0.10206774034367072
1,15.599471000023186,0.0016471911428168602,-0.0027432084537873627,0.036081702516263366,0.0012039815875138518,-0.0099211866857947,0.009397615043865527,0.01820974452880575,0.006384651280737752,-0.006963250094274253,0.06529430906669019,0.07239644787523675,-0.10316762402674834
2,15.603779199998826,0.0016527272411709453,-0.00278727979852034,0.03612343902978151,0.0012856339190365526,-0.009892068146220711,0.009365618140300173,0.018501507797540093,0.00670746413155983,-0.007424639413996983,0.06587755195563413,0.07273490370323357,-0.10426791040028004
3,15.607671299949288,0.0016586294577981603,-0.002831218414941585,0.036165028639428824,0.0013685899341696667,-0.009861510220879985,0.009331557853725806,0.018795858645980094,0.007031775416444738,-0.00789092412647009,0.06645758794062073,0.07307009878647,-0.10536847330020249
4,15.611976300016975,0.0016649036177548804,-0.0028750178850996564,0.03620646211778243,0.0014528611120603854,-0.009829506276235722,0.009295412404191605,0.019092782508409522,0.007357570505745024,-0.008362105179997945,0.06703428229498166,0.07340197743312289,-0.1064691854589682
5,15.615949800005184,0.0016715555970184775,-0.0029186717616785057,0.03624773014052169,0.0015384588657270295,-0.00979604974438221,0.009257160008787757,0.019392264219978944,0.0076848345226944595,-0.00883818295423559,0.06760750037423653,0.07373048421114922,-0.10756991848579991
6,15.620323400013149,0.0016785913221872173,-0.002962173568291881,0.03628882328642067,0.0016253945393947709,-0.009761134124141585,0.009216778884185643,0.019694288017037046,0.008013552344465411,-0.009319157255191652,0.06817710758963354,0.07405556394716836,-0.10867054286669085
7,15.6246515000239,0.0016860167701683079,-0.003005516799782602,0.036329732037351944,0.0017136794058323565,-0.009724752982156287,0.009174247249201396,0.01999883753729513,0.008343708603412795,-0.009805027310232034,0.06874296938106353,0.07437716181199565,-0.10977092810238037
8,15.629485299927182,0.0016938379678541012,-0.0030486949225266846,0.03637044677830188,0.001803324663689294,-0.009686899953974747,0.009129543327380538,0.02030589581991745,0.008675287688892443,-0.010295791764310395,0.06930495119303676,0.07469522344086894,-0.11087094287587396
9,15.634023600025102,0.0017020609917864516,-0.003091701374742275,0.036410957797397434,0.001894341434833379,-0.00964756874512767,0.009082645349595082,0.020615445305471977,0.009008273749574714,-0.010791448676462272,0.06986291843773615,0.07500969503800443,-0.11197045507209938
10,15.63746340002399,0.0017106919678092285,-0.0031345295668033487,0.03645125528594453,0.0019867407616874426,-0.00960675313219314,0.009033531556659358,0.020927467835692014,0.009342650696193094,-0.011291995516210445,0.07041673647776213,0.0753205234804507,-0.11306933184685121
11,15.642024499946274,0.0017197370707089795,-0.0031771728815581214,0.03649132933847813,0.0020805336045647575,-0.009564446963848438,0.008982180201959093,0.021241944653273444,0.009678402204781804,-0.011797429160672454,0.07096627064801339,0.07562765640601331,-0.11416743970559787
12,15.64586019993294,0.0017292025238437373,-0.003219624674652107,0.03653116995282404,0.0021757308390039825,-0.009520644161906353,0.008928569554092974,0.021558856401831025,0.010015511720206665,-0.012307745891667117,0.07151138628985142,0.07593104227275321,-0.11526464440506062
13,15.64948399993591,0.0017390945987599707,-0.003261878274855748,0.03657076703017243,0.002272343253104179,-0.009475338722335584,0.008872677899527472,0.021878183125999588,0.010353962459932062,-0.01282294139194639,0.0720519487898983,0.0762306304375725,-0.11636081080542009
14,15.653879499994218,0.0017494196147976814,-0.0033039269843965517,0.03661011037516329,0.0023703815448606566,-0.009428524716263528,0.008814483545271933,0.022199904271735526,0.010693737418250995,-0.013343010740986962,0.0725878236428524,0.07652637122312331,-0.11745580296866955
15,15.659551899996586,0.0017601839386836523,-0.0033457640792956423,0.036649189695983755,0.0024698563195026707,-0.009380196290959058,0.008753964821570839,0.022523998686976864,0.011034819370647323,-0.013867948412097172,0.07311887655369388,0.07681821591079345,-0.11854948415879063
16,15.663748499937356,0.0017713939841128572,-0.0033873828097086417,0.036687994604477484,0.0025707780868351416,-0.009330347670796492,0.008691100084604638,0.022850444622854068,0.011377190877963416,-0.014397748268210164,0.0736449735614906,0.07710611671364057,-0.11964171645745315
17,15.667943299980834,0.0017830562113180586,-0.003428776400270798,0.03672651461626605,0.0026731572585871255,-0.009278973158201295,0.00862586771921944,0.023179219735451624,0.011720834290521594,-0.014932403555571674,0.07416598113758985,0.07739002676789129,-0.12073236075415208
18,15.671945699956268,0.0017951771266276268,-0.003469938050446279,0.036764739150882575,0.0027770041457692045,-0.009226067134577381,0.008558246141684003,0.023510301087892458,0.01206573175221614,-0.015471906899445435,0.07468176623117723,0.07766990009822695,-0.12182127697278756
19,15.67627659998834,0.001807763282011626,-0.003510860934881553,0.03680265753191768,0.002882328956040504,-0.009171624061216403,0.008488213802457638,0.023843665152504856,0.01241186520432589,-0.016016250299816855,0.07519219626409496,0.07794569155458032,-0.12290832388444439
20,15.68032459996175,0.001820821274616208,-0.00355153820376277,0.03684025898717772,0.0029891417910853624,-0.00911563848019114,0.00841574918898542,0.02417928781286078,0.012759216389043928,-0.01656542512543271,0.07569713907444486,0.0782173567794608,-0.12399335898927157
21,15.684525199932978,0.0018343577462863584,-0.003591962983177092,0.03687753264885561,0.003097452643998482,-0.009058105015233376,0.008340830828519118,0.024517144365441022,0.013107766852999459,-0.01711942210845391,0.07619646282883819,0.07848485218312501,-0.12507623867409393
22,15.688852699939162,0.0018483793830770257,-0.003632128375477886,0.03691446755371417,0.0032072713966764133,-0.008999018372595962,0.00826343729095999,0.02485720952089281,0.013457497950566602,-0.017678231339897463,0.07669003593993082,0.0787481348958016,-0.12615681826161
23,15.692796199931763,0.0018628929147526596,-0.0036720274596537214,0.03695105264328222,0.0033186078172138976,-0.008938373341901253,0.00818354719172026,0.025199457404961264,0.013808390846961208,-0.018241842264726946,0.07717772700849297,0.07900716275592372,-0.1272349519315231
24,15.69752059993334,0.0018779051142751755,-0.003711653291701114,0.036987276764063395,0.003431471557303636,-0.008876164796975613,0.008101139194609589,0.025543861559231596,0.01416042652144495,-0.018810243676592786,0.07765940478182784,0.07926189433399378,-0.12831049277984094
25,15.70115330000408,0.0018934227972803586,-0.0037509989050009468,0.03702312866775794,0.0035458721496392357,-0.008812387696669349,0.008016192014743354,0.025890394941690622,0.014513585770634474,-0.019383423713450313,0.07813493812149176,0.07951228896661715,-0.12938329286800834
26,15.70543909992557,0.0019094528215427215,-0.003790057310698509,0.037058597011497385,0.0036618190053199755,-0.008747037085661774,0.007928684421468105,0.02623902992718176,0.01486784921200828,-0.019961369852737176,0.078604196018379,0.0797583068032699,-0.1304532031539546
27,15.709718800033444,0.0019260020864288194,-0.00382882149808708,0.03709367035809234,0.0037793214112577995,-0.008680108095249942,0.00783859524131275,0.02658973830810075,0.015223197287631973,-0.020544068906377923,0.07906704766131989,0.07999990883636464,-0.13152007353153855
28,15.714351000031456,0.0019430775323390373,-0.003867284434994985,0.03712833717629348,0.0038983885275882734,-0.008611595944120566,0.007745903360958452,0.026942491295460988,0.015579610267932639,-0.021131507016312362,0.0795233625319604,0.08023705689217878,-0.13258375280089682
29,15.718754799920134,0.00196068614013787,-0.0039054390681760474,0.037162585841065715,0.0040190293850870555,-0.00854149593910517,0.007650587730229604,0.02729725952043337,0.01593706825534338,-0.02172366964923633,0.07997301051808639,0.08046971362035685,-0.13364408858978188
30,15.723641499993391,0.001978834930572725,-0.003943278323703363,0.037196404633875815,0.004141252882594554,-0.008469803475919583,0.007552627365110517,0.027654013036419883,0.0162955511879843,-0.02232054159143019,0.08041586203337195,0.08069784257010895,-0.1347009273337285
31,15.728510099928826,0.001997530963681287,-0.0039807951073663325,0.03722978174299343,0.0042650677844508445,-0.008396514039886343,0.007452001350782401,0.02801272132165886,0.016655038843984973,-0.022922106943323146,0.08085178813747235,0.08092140834056896,-0.13575411431548914
32,15.73288979998324,0.002016781338187502,-0.00401798230507086,0.03726270526380568,0.0043904827179435104,-0.008321623206635733,0.007348688844688421,0.02837335328236703,0.017015510846503167,-0.023528349114672605,0.08128066063016628,0.08114037668372959,-0.13680349377344697
33,15.737503799959086,0.002036593190886234,-0.004054832783242625,0.037295163199145505,0.0045175061707705124,-0.008245126642783531,0.007242669079613562,0.028735877256182367,0.01737694666896314,-0.02413925082009303,0.08170235208777277,0.08135471445513424,-0.13784890886218168
34,15.741410100017674,0.0020569736960166754,-0.004091339389233312,0.03732714345963364,0.004646146488518659,-0.008167020106585444,0.007133921366789466,0.029100261015630135,0.017739325639635654,-0.024754794073884458,0.08211673584225022,0.08156438941780214,-0.1388902018495601
35,15.745407299953513,0.0020779300646245713,-0.004127494951729702,0.037358633864034554,0.004776411872157316,-0.008087299448574108,0.007022425099020312,0.029466471771379787,0.018102626945131796,-0.025374960187314884,0.08252368593091207,0.08176937009717444,-0.13992721431368602
36,15.749814499984495,0.0020994695439133294,-0.004163292281165572,0.03738962213962629,0.004908310375545854,-0.008005960612182434,0.006908159753811826,0.029834476175263625,0.018466829633692446,-0.02599972976520104,0.0829230770567277,0.08196962575661326,-0.14095978695581338
37,15.75350150000304,0.00212159941658407,-0.00419872417013633,0.037420095922584204,0.0050418499029542116,-0.007922999634351351,0.006791104896527586,0.030204240323180497,0.018831912618464106,-0.02662908270152626,0.08331478455569129,0.08216512640319769,-0.14198775971856498
38,15.75880439998582,0.0021443270001646744,-0.0042337833938163255,0.0374500427583789,0.0051770382065961795,-0.007838412646123998,0.006671240183557017,0.030575729757824133,0.019197854680839937,-0.02726299817707305,0.08369868434332685,0.08235584285433557,-0.14301097199275606
39,15.7645575000206,0.0021676596463278902,-0.004268462710378767,0.03747945010218816,0.00531388288417424,-0.007752195873223741,0.00654854536549276,0.030948909471110904,0.019564634474328237,-0.027901454656881083,0.08407465284253403,0.0825417468906068,-0.14402926258794024
40,15.769572300021537,0.0021916047401985355,-0.004302754861418174,0.03750830531932313,0.005452391376434445,-0.0076643456366139555,0.006423000290321287,0.031323743906266195,0.01993223052925333,-0.028544429887617705,0.08444256693060934,0.08272281147989045,-0.14504246972249368
41,15.77390050003305,0.0022161696996498485,-0.004336652572375283,0.03753659568566867,0.0055925709647298245,-0.007574858353034214,0.006294584906623657,0.03170019695978081,0.020300621258618104,-0.0291919008949477,0.08480230392156833,0.08289901093861352,-0.1460504308954985
42,15.77845919993706,0.0022413619745890153,-0.004370148552964262,0.03756430838813797,0.005734428768592667,-0.007483730535507909,0.006163279266789538,0.03207823198334007,0.020669784964239532,-0.029843843979763956,0.08515374155920324,0.08307032092684251,-0.14705298276858933
43,15.783156199962832,0.002267189046231919,-0.004403235497602133,0.03759143052514154,0.005877971743315089,-0.0073909587938238526,0.0060290635302515,0.03245781178571844,0.021039699842567545,-0.03050023471450601,0.0854967580312267,0.08323671832643711,-0.14804996109700994
44,15.787321700016037,0.002293658426367142,-0.0044359060858402775,0.03761794910707059,0.00602320667753818,-0.007296539834992131,0.005891917966731786,0.032838898634834475,0.021410343989736486,-0.031161047938777324,0.08583123197801444,0.08339818107221403,-0.14904120044376287
45,15.792200300027616,0.002320777656609266,-0.0044681529827979094,0.03764385105679488,0.006170140190850847,-0.007200470463680762,0.0057518229595156,0.03322145425972324,0.021781695405881832,-0.031826257753120604,0.08615704241499485,0.08355468813106677,-0.15002653397272367
46,15.799640199984424,0.00234855430764151,-0.004499968839597466,0.037669123210175244,0.006318778731396509,-0.007102747582633138,0.005608759008753262,0.03360543985190073,0.022153732000005887,-0.03249583751279442,0.08647406855031874,0.08370621964610787,-0.15100579337978257
47,15.804695699946024,0.002376995978447738,-0.004531346293801798,0.03769375231659083,0.006469128573484088,-0.0070033681930614,0.005462706734788862,0.03399081606571411,0.022526431595576938,-0.03316975982093588,0.08678218952003484,0.08385275705726701,-0.15197880862674074
48,15.813355699996464,0.002406110295533842,-0.004562277969853057,0.03771772503948122,0.00662119581519781,-0.00690232939501406,0.0053136468815232485,0.03437754301734997,0.02289977193646791,-0.03384799651996974,0.08708128408338608,0.0839942831345936,-0.1529454074979408
49,15.817501000012273,0.002435904912138484,-0.004592756479513157,0.037741027956903594,0.0067749863759993785,-0.0067996283877165406,0.0051615603198191164,0.03476558028247364,0.023273730692851817,-0.034530518680826384,0.08737123037027332,0.08413078186619133,-0.15390541537364483
50,15.822033299948089,0.002466387507433145,-0.0046227744223056935,0.037763647562105165,0.006930505994316771,-0.006695262469886347,0.005006428050959921,0.035154886892990594,0.02364828546614337,-0.035217296592334676,0.08765190578883734,0.08426223820081791,-0.15485865530888954
51,15.826373999938369,0.002497565785711414,-0.004652324385959207,0.037785570264111085,0.0070877602251175975,-0.006589229040029637,0.0048482312101493395,0.03554542133386352,0.024023413792604326,-0.03590829975114154,0.08792318708097302,0.0843886377596598,-0.1558049479842381
52,15.830624099937268,0.002529447475567449,-0.00468139894685174,0.03780678238832803,0.00724675443746958,-0.006481525596724319,0.004686951070059872,0.035937141540367666,0.02439909314572076,-0.03660349685066663,0.08818495040048654,0.08450996656536147,-0.15674411177464478
53,15.83475279994309,0.0025620403290635596,-0.004709990670456624,0.037827270177163676,0.00740749381208949,-0.006372149738895471,0.004522569044430573,0.036330004895603236,0.02477530093739757,-0.037302855771634585,0.0884370713709502,0.0846262108364891,-0.15767596291705083
54,15.83996719995048,0.0025953521208868617,-0.004738092111789482,0.03784701979066231,0.007569983338881497,-0.006261099166087812,0.004355066691699883,0.0367239682282655,0.02515201451850709,-0.03800634357252084,0.08867942513626155,0.08473735686792745,-0.15860031528380705
55,15.844912100001238,0.0026293906474949592,-0.004765695815856441,0.03786601730715661,0.0077342278144662685,-0.006148371678736235,0.0041844257186883695,0.037118987810607004,0.02552921117901949,-0.03871392647806801,0.08891188641851303,0.0848433909433946,-0.15951698006726558
56,15.849430999951435,0.0026641637262506137,-0.004792794318103541,0.037884248723936004,0.007900231839701184,-0.006033965178437126,0.0040106279843337275,0.03751501935672255,0.025906868147773023,-0.03942556986692547,0.08913432960293985,0.08494429927278954,-0.1604257656320359
57,15.853719100006856,0.0026996791945453646,-0.004819380144867364,0.037901699957931724,0.008067999817194178,-0.005917877668220935,0.003833655503483489,0.037912018021267195,0.02628496259204701,-0.04014123825885129,0.08934662884445993,0.08504006792686129,-0.16132647765296576
58,15.857664300012402,0.002735944908912079,-0.004845445813826865,0.03791835684641888,0.00823753594881255,-0.005800107252827297,0.003653490450743888,0.038309938398689104,0.026663471616750832,-0.040860895303579434,0.0895486582093152,0.08513068273495403,-0.16221891942053948
59,15.862188800005242,0.002772968744126408,-0.004870983834456449,0.03793420514773575,0.00840884423318998,-0.005680652138984818,0.003470115164371623,0.03870873452320775,0.027042372263087155,-0.04158450377073882,0.08974029180441061,0.0852161291938426,-0.16310289211676357
60,15.86612239992246,0.0028107585922971553,-0.004895986708480296,0.03794923054202051,0.008581928463235146,-0.005559510635698087,0.0032835121502124078,0.039108359869197494,0.027421641506929825,-0.04231202554117509,0.08992140378894889,0.0852963924690016,-0.16397819516986153
61,15.870312699931674,0.0028493223619455695,-0.004920446930327984,0.03796341863196554,0.00875679222364215,-0.0054366811545419,0.0030936640856699467,0.0395087673512693,0.02780125625749839,-0.043043421600025375,0.09009186822551342,0.08537145748704358,-0.1648446264217481
62,15.882525800028816,0.0028886679770735615,-0.004944356987591437,0.037976754943589465,0.008933438888399864,-0.005312162209960057,0.0029005538237060996,0.03990990932332939,0.02818119335655842,-0.043778652029530116,0.09025155880537855,0.08544130905137565,-0.16570198226600433
63,15.88702339993324,0.0029288033762208373,-0.004967709361483205,0.03798922492702707,0.009111871618293984,-0.005185952419566706,0.0027041643968738088,0.040311737576217054,0.028561429578125016,-0.044517676003335394,0.0904003485916277,0.08550593194693001,-0.16655005791389763
64,15.891103100031614,0.002969736511510892,-0.004990496527296093,0.038000813957337204,0.009292093358395355,-0.0050580505044477775,0.0025044790213679577,0.040714203334477804,0.028941941628594935,-0.045260451781671505,0.09053810996508832,0.08556531098574743,-0.16738864753228505
65,15.896263299975544,0.0030114753476857955,-0.005012710954864122,0.03801150733532875,0.009474106835533312,-0.004928455289461151,0.002301481101101194,0.04111725725352017,0.029322706146855657,-0.04600693670688226,0.0906647147751045,0.08561943098107477,-0.1682175443421707
66,15.899782899999993,0.0030540278611297074,-0.00503434510902483,0.038021290288404785,0.00965791455575872,-0.004797165703537121,0.0020951542317945637,0.041520849417730286,0.029703699704187035,-0.0467570871994804,0.09078003453057394,0.0856682767104811,-0.1690365405989936
67,15.90824459993746,0.0030974020388810906,-0.005055391450082907,0.038030147971424934,0.009843518801800535,-0.004664180779979436,0.0018854822050884295,0.04192492933932835,0.030084898804042227,-0.04751085875350153,0.09088394051317719,0.0857118328899431,-0.16984542759262355
68,15.912279299926013,0.0031416058776335973,-0.005075842434275171,0.03803806546758612,0.010030921630518663,-0.004529499656767715,0.0016724490126744415,0.04232944595749061,0.030466279881718777,-0.04826820593255949,0.0909763038043142,0.0857500841430549,-0.17064399563751967
69,15.91695660003461,0.003186647382725621,-0.005095690514236897,0.03804502778932167,0.010220124870352721,-0.004393121576861416,0.0014560388504415503,0.042734347637445456,0.030847819303865598,-0.04902908236511273,0.09105699533649589,0.085783014927153,-0.17143203382639824
70,15.92157959996257,0.003232534567118484,-0.005114928139469495,0.038051019879218974,0.010411130118766848,-0.004255045888506634,0.0012362361226500934,0.04313958217005268,0.031229493367496794,-0.04979344073832808,0.09112588595783884,0.08581060942246023,-0.17220932982332515
71,15.9293064000085,0.0032792754503632557,-0.005133547756809571,0.038056026610955695,0.01060393873969472,-0.004115272045548846,0.0010130254461324024,0.04354509677147336,0.03161127829851235,-0.05056123279150622,0.09118284633230693,0.08583285142371283,-0.172975669775058
72,15.9368321999209,0.0033268780575562078,-0.005151541810899386,0.038060032790254814,0.010798551860981432,-0.003973799607752868,0.0007863916545253828,0.04395083808186155,0.03199315024974777,-0.05133240930915668,0.09122774676551243,0.08584972421334243,-0.1737308381927981
73,15.943037700024432,0.0033753504182828737,-0.005168902744658761,0.038063023155858515,0.010994970371816863,-0.0038306282411329565,0.0005563198025327335,0.04435675216348433,0.032375085298366434,-0.052106920113371286,0.09126045718803377,0.08586121044563301,-0.174474617676317
74,15.947258500033058,0.0034247005655506685,-0.00518562299975848,0.038064982380521126,0.01119319492016084,-0.003685757718295965,0.0003227951702253802,0.044762784499265074,0.0327570594428786,-0.052884714054444656,0.09128084731369078,0.08586729203588728,-0.17520678893367103
75,15.951178999966942,0.0034749365347100394,-0.005201695017095242,0.03806589507202128,0.01139322591016354,-0.0035391879187979623,8.580326738714414e-05,0.04516887999231168,0.03313904859954769,-0.05366573900342307,0.09128878683896903,0.08586795001024917,-0.1759271312442686
76,15.955260599963369,0.003526066362364135,-0.005217111237268237,0.03806574577419351,0.011595063499586453,-0.003390918829519369,-0.0001546701621185312,0.045574982966234114,0.033521028598073106,-0.0544499418468449,0.09128414556151015,0.085863164408349,-0.17663542269534008
77,15.959668199997395,0.0035780980852670096,-0.00523186410105744,0.03806451896797928,0.011798707597225616,-0.003240950545059983,-0.0003986391359561168,0.04598103716572685,0.0339029751771304,-0.055237268481393334,0.09126679343534531,0.08585291420941615,-0.17733144045781238
78,15.9638756000204,0.0036310397392103687,-0.005245946049903698,0.038062199072497624,0.012004157860337754,-0.0030892832681537943,-0.0006461174289036969,0.04638698575737784,0.0342848639793967,-0.056027663811091276,0.0912366006347933,0.0858371772300561,-0.17801496110159581
79,15.969302500016056,0.0036848993578988717,-0.005259349526390714,0.03805877044613548,0.012211413692070709,-0.0029359173101082704,-0.0008971185684355484,0.04679277133081944,0.03466667054618137,-0.05682107174475919,0.09119343764650269,0.08581593007128653,-0.17868576049705653
80,15.974475299939511,0.003739684971814016,-0.005272066974729045,0.03805421738765764,0.012420474238899824,-0.002780853091266943,-0.0011516558302852224,0.047198335900356284,0.035048370311980236,-0.05761743519233341,0.0911371753568315,0.08578914805450895,-0.1793436139234038
81,15.9789653000189,0.0037954046070666327,-0.0052840908412422,0.03804852413733653,0.01263133838807286,-0.0026240911414971437,-0.0014097422339953668,0.04760362090689365,0.0354299385985366,-0.05841669606328827,0.09106768510216172,0.08575680514761751,-0.1799882962854402
82,15.982807299937122,0.0038520662842380362,-0.005295413574854978,0.03804167487810176,0.012844004765063524,-0.00246563210070543,-0.0016713905384667701,0.04800856722001296,0.03581135060873805,-0.05921879526488287,0.09098483873429337,0.08571887400686617,-0.18061958205444242
83,15.987444399972446,0.003909678017209865,-0.0053060276275841535,0.03803365373670952,0.013058471731034863,-0.002305476719379621,-0.0019366132374925855,0.048413115140481966,0.03619258142104993,-0.06002367270005725,0.09088850873389746,0.08567532611230752,-0.18123724554405465
84,15.991045100032352,0.003968247811982664,-0.005315925455031631,0.03802444478493185,0.013274737380315125,-0.0021436258591537496,-0.0022054225552886565,0.04881720440333964,0.03657360598461719,-0.060831267268133725,0.09077856832852757,0.08562613185283816,-0.1818410612551209
85,15.99577889998909,0.004027783665483264,-0.0053250995168801635,0.03801403204076581,0.01349279953788859,-0.0019800804933936774,-0.002477830442033981,0.049220774181456324,0.03695439911445449,-0.06164151686578108,0.09065489157820268,0.0855712605594292,-0.1824308037475861
86,16.00023330003023,0.004088293564361045,-0.005333542277391715,0.03800239946966242,0.013712655756903112,-0.0018148417078048395,-0.002753848569409615,0.04962376308938004,0.037334935486843725,-0.0624543583865762,0.09051735344763333,0.08551068055556559,-0.18300624749273492
87,16.00487039994914,0.0041497854837731375,-0.005341246205908584,0.03798953098577551,0.013934303316195175,-0.0016479107010588083,-0.0030334883261352377,0.05002610918753923,0.03771518963497286,-0.06326972772065363,0.09036582986773785,0.085444359124067,-0.18356716692244837
88,16.008871200028807,0.004212267386158665,-0.005348203777357344,0.037975410453230406,0.014157739217834819,-0.0014792887854398397,-0.003316760813504936,0.05042774998663642,0.038095135944038266,-0.06408755975470544,0.09020019773001534,0.08537226243810392,-0.18411333649814915
89,16.012351999990642,0.0042757472200021076,-0.005354407472755717,0.037960021687412464,0.014382960184689788,-0.0013089773875150123,-0.0036036768409237682,0.05082862245180084,0.038474748646269825,-0.06490778837224417,0.0900203348496543,0.08529435552175821,-0.184644530710827
90,16.01608590001706,0.004340232918585865,-0.005359849779722477,0.03794334845627548,0.014609962658007408,-0.0011369780488250337,-0.0038942469214458897,0.05122866300665388,0.03885400181568234,-0.06573034645360298,0.08982611996062928,0.08521060213302942,-0.1851605239233932
91,16.02122699993197,0.004405732398732111,-0.005364523192990471,0.03792537448166992,0.014838742795014898,-0.000963292426601078,-0.004188481267311117,0.05162780753741813,0.039232869362059775,-0.06655516587479597,0.08961743271695187,0.0851209646788648,-0.18566109035094208
92,16.0246860999614,0.004472253559534007,-0.005368420214922897,0.03790608344069104,0.01506929646653781,-0.0007879222945091137,-0.004486389785472912,0.05202599139699391,0.03961132502495066,-0.06738217750734271,0.08939415370125443,0.08502540417946138,-0.18614600426769487
93,16.028861099970527,0.004539804281076365,-0.005371533356032947,0.03788545896704692,0.015301619254636608,-0.0006108695434201644,-0.004787982073133388,0.0524231494091447,0.03998934236733475,-0.06821131121896978,0.08915616447390817,0.0849238802066527,-0.1866150398789472
94,16.03270139999222,0.004608392423145836,-0.005373855135506945,0.03786348465244628,0.015535706450262346,-0.00043213618221098513,-0.005093267413277534,0.05281921587301068,0.04036689476907023,-0.06904249587229601,0.08890334765947397,0.08481635091593766,-0.18706797115346932
95,16.036958999931812,0.004678025823930714,-0.005375378081731107,0.037840144048006265,0.015771553050933407,-0.0002517243385926219,-0.0054022547701965224,0.053214124568063306,0.04074395542084535,-0.06987565932404284,0.08863558703300517,0.08470277310315265,-0.18750457208960256
96,16.041509000002407,0.0047487122987104535,-0.00537609473282205,0.03781542066568009,0.016009153758435257,-6.963625996490234e-05,-0.0057149527850149096,0.0536078087593867,0.04112049731812985,-0.07071072842608707,0.08835276757126197,0.08458310223031483,-0.1879246167941054
97,16.045192099991255,0.00482045963853501,-0.005375997637161159,0.03778929797970461,0.016248502976544173,0.00011412568570119154,-0.006031369771223308,0.054000201203087864,0.041496493255356495,-0.0715476290253727,0.08805477547646604,0.08445729252046481,-0.1883278794820583
98,16.049406499951147,0.004893275608894104,-0.005375079353932945,0.03776175942806772,0.016489594808775137,0.0002995590089572658,-0.006351513710204805,0.05439123415178943,0.04187191582071636,-0.07238628596496284,0.08774149821478679,0.08432529707096913,-0.18871413486122446
99,16.053537699976005,0.004967167948376528,-0.005373332453667473,0.03773278841399572,0.016732423056154428,0.0004866610979488343,-0.006675392246776992,0.05478083936038229,0.042246737391348384,-0.0732266230873712,0.08741282457980516,0.08418706797791463,-0.18908315826010202
100,16.058843299979344,0.005042144367319589,-0.005370749518786984,0.0377023683074604,0.0169769812150187,0.0006754292174662639,-0.007003012684748022,0.05516894809208297,0.042620930129241404,-0.07406856323675327,0.08706864474567867,0.08404255647527206,-0.18943472560813626
101,16.062525099958293,0.005118212546448833,-0.0053673231441567675,0.03767048244670589,0.017223262474841464,0.0008658605079796334,-0.007334381982478137,0.05555549112465927,0.042994465977661864,-0.07491202826206184,0.08670885035341909,0.08389171306790455,-0.189768613721529
102,16.066024699946865,0.0051953801355081545,-0.0053630459376403684,0.03763711413979529,0.01747125971608756,0.0010579519846578964,-0.007669506748463801,0.05594039875725527,0.04336731665823921,-0.07575693902178092,0.08633333467828345,0.08373448770278477,-0.19008460049053305
103,16.071626999997534,0.0052736547518804295,-0.005357910520659188,0.0376022466661768,0.01772096550810036,0.0012517005363778088,-0.00800839323694134,0.056323600818106244,0.04373945366891693,-0.07660321538874769,0.08594199280009505,0.08357082987364589,-0.19038246494821848
104,16.075612399959937,0.005353043979198827,-0.0053519095287565075,0.03756586327826941,0.01797237210702487,0.0014471029247248625,-0.008351047343513981,0.056705026672879015,0.044110848281969046,-0.07745077625549825,0.08553472174077933,0.08340068866039672,-0.19066198742818177
105,16.07947170000989,0.005433555365948964,-0.005345035612165977,0.03752794720306801,0.01822547145376915,0.0016441557829845648,-0.008697474600803052,0.05708460523361052,0.0444814715423018,-0.07829953954049264,0.08511142061075962,0.0832240128375365,-0.19092294963363982
106,16.08317460003309,0.0055151964240620814,-0.005337281436384616,0.03748848164376774,0.018480255172006948,0.0018428556151282626,-0.0090476801741304,0.05746226496835067,0.044851294266434735,-0.07914942219407539,0.08467199077200233,0.08304075096894768,-0.1911651345584528
107,16.08697259996552,0.005597974627499425,-0.005328639682750323,0.03744744978140748,0.01873671456622489,0.0020431987947953567,-0.009401668857222632,0.05783793391155151,0.04522028704164576,-0.08000034020399786,0.08421633599186007,0.08285085145224803,-0.19138832669417374
108,16.091427400009707,0.00568189741082805,-0.005319103049023931,0.03740483477653248,0.018994840619817564,0.002245181564271519,-0.009759445067942659,0.05821153967507883,0.045588420225346815,-0.0808522086032209,0.0837443625377459,0.08265426259023438,-0.1915923123451702
109,16.095305699971505,0.005766972167788255,-0.005308664249975812,0.037360619770875805,0.01925462399323268,0.0024488000334653526,-0.010121012844063356,0.05858300945944368,0.04595566394486459,-0.08170494147824083,0.08325597922153062,0.08245093266967174,-0.1917768795597115
110,16.099389099981636,0.005853206249852879,-0.005297316017977033,0.03731478788905853,0.019516055022166065,0.0026540501788846578,-0.010486375839073189,0.05895227006520894,0.04632198809751716,-0.082558451976279,0.08275109745007946,0.08224081005246957,-0.19194181815970648
111,16.104420899995603,0.005940606964778682,-0.005285051103595069,0.03726732224030855,0.019779123715808335,0.002860927842613774,-0.010855537318013832,0.05931924790467045,0.04668736235120593,-0.08341265231387235,0.08222963123980757,0.08202384324339927,-0.1920869199473288
112,16.108012399985455,0.006029181575150038,-0.00527186227619406,0.03721820592019779,0.0200438197551438,0.0030694287312951125,-0.011228500153362233,0.059683869013393134,0.047051756145094714,-0.08426745378590132,0.08169149719239052,0.08179998090486335,-0.19221197868543963
113,16.112316299928352,0.006118937296915182,-0.005257742324539585,0.03716742201239765,0.020310132491299763,0.00327954841511254,-0.011605266820948548,0.06004605906167601,0.04741513869033311,-0.08512276677400622,0.08113661451081171,0.08156917190003622,-0.19231679019622458
114,16.116024899994954,0.0062098812979152224,-0.0052426840574079595,0.03711495359045254,0.020578050943947452,0.003491282326779347,-0.011985839395913085,0.06040574336623105,0.04777747897111942,-0.0859785007564927,0.08056490501851775,0.08133136533470184,-0.19240115246941436
115,16.12029679992702,0.006302020696406152,-0.005226680304200019,0.037060783719571284,0.020847563799755216,0.003704625760531089,-0.012370219548712374,0.06076284690181865,0.0481387457457962,-0.08683456431771099,0.07997629313525997,0.08108651059789099,-0.19246486539625518
116,16.124620800022967,0.006395362559574101,-0.005209723915559378,0.0370048954584362,0.021118659410892974,0.003919573871123301,-0.012758408541159554,0.06111729431271155,0.048498907548274774,-0.08769086515559447,0.0793707058327892,0.08083455739519596,-0.1925077307006348
117,16.1284161999356,0.006489913902044049,-0.005191807763995122,0.03694727186102974,0.02139132579358741,0.004136121672837013,-0.013150407222497513,0.0614690099239361,0.04885793268942719,-0.0885473100904262,0.07874807255456141,0.08057545571915269,-0.19252955211646255
118,16.132778299972415,0.0065856816843822144,-0.005172924744508924,0.036887895978478476,0.021665550626726437,0.004354264038488849,-0.013546216025517274,0.06181791775202183,0.04921578925824719,-0.08940380507395557,0.07810832512714845,0.08030915584798423,-0.1925301352003298
119,16.136929800035432,0.006682672811592354,-0.005153067775226541,0.03682675086091431,0.02194132125051003,0.004573995698446872,-0.013945834962712246,0.062163941515454506,0.049572445123231015,-0.09026025519649807,0.07745139770366075,0.08003560836170683,-0.19250928694733171
120,16.141074399929494,0.006780894131606151,-0.005132229798033683,0.03676381955935267,0.022218624665147686,0.004795311239652968,-0.014349263622459772,0.06250700464492234,0.04992786793368166,-0.09111656469263396,0.07677722671299153,0.07975476410019863,-0.19246681566296814
121,16.145424799993634,0.006880352433767923,-0.005110403779216212,0.03669908512758767,0.02249744752960043,0.0050182051046502914,-0.014756501165226088,0.0628470302933175,0.05028202512071661,-0.0919726369471683,0.0760857508453479,0.07946657410896468,-0.19240253100259014
122,16.14954549993854,0.0069810544473138175,-0.005087582710104661,0.036632530624104084,0.022777776160367247,0.005242671590614621,-0.015167546319800893,0.0631839413458535,0.05063488389808958,-0.09282837450118056,0.07537691108929734,0.07917098959366492,-0.19231624392215782
123,16.15439029992558,0.0070830068398457235,-0.005063759607723053,0.036564139114006015,0.023059596530317104,0.0054687048483891155,-0.015582397379556131,0.06351766043039644,0.05098641126279367,-0.09368367905754656,0.07465065079530722,0.07886796186220495,-0.1922077665499526
124,16.158026300021447,0.007186216215800078,-0.0050389275154420045,0.03649389367096215,0.023342894267567308,0.005696298881521029,-0.016001052198729694,0.06384810992814764,0.051336573995367896,-0.0945384514858467,0.0739069157709564,0.078557442271656,-0.19207691200943605
125,16.16205339995213,0.007290689114911793,-0.005013079503636119,0.03642177737916749,0.023627654654410562,0.005925447545299199,-0.01642350818872787,0.06417521198482193,0.051685338660028085,-0.09539259182631189,0.07314565436460028,0.07823938222719039,-0.19192349445878018
126,16.166195899946615,0.007396432010673521,-0.004986208670345653,0.0363477733353215,0.02391386262629278,0.00615614454579193,-0.016849762314444152,0.06449888852207475,0.052032671604963936,-0.09624599929508346,0.07236681750477039,0.07791373323008116,-0.19174732932701252
127,16.170942199998535,0.007503451308790484,-0.004958308141942465,0.036271864650622584,0.02420150277084181,0.006388383438887119,-0.017279811090608485,0.06481906124903093,0.05237853896289697,-0.09709857229026003,0.0715703587002274,0.0775804468923465,-0.1915482333435482
128,16.174825299996883,0.0076117533456311,-0.004929371073800229,0.036194034452778745,0.024490559326947825,0.0066221576293351,-0.017713650578159875,0.06513565167371228,0.05272290665150789,-0.09795020839742029,0.07075623398192168,0.07723947487658345,-0.1913260245090227
129,16.17845679994207,0.0077213443866736295,-0.004899390650968893,0.036114265888034305,0.024781016183893712,0.00685746036979258,-0.01815127638064477,0.06544858111404997,0.05306574037345921,-0.09880080439541027,0.06992440186750103,0.07689076881086544,-0.1910805221050456
130,16.183260899968445,0.007832230624949064,-0.004868360088853402,0.036032542123212614,0.02507285688053344,0.0070942847598656844,-0.01859268364064116,0.06575777070899634,0.05340700561606546,-0.0996502562619529,0.06907482337961834,0.07653428027028263,-0.19081154671361555
131,16.188449800014496,0.007944418179480463,-0.004836272633896669,0.03594884634777459,0.025366064604521312,0.00733262374515095,-0.019037867036206867,0.0660631414297002,0.053746667651151624,-0.10049845917960808,0.06820746202371664,0.07616996089281335,-0.19051892027616285
132,16.196264400030486,0.008057913093718987,-0.00480312156426683,0.035863161775893035,0.025660622191589766,0.0075724701162771186,-0.01948682077735667,0.06636461409042096,0.05408469153575419,-0.10134530754190749,0.06732228377839397,0.07579776259349337,-0.1902024660448532
133,16.200317499926314,0.008172721333976807,-0.004768900190548745,0.035775471648542494,0.025956512124875725,0.007813816507952365,-0.019939538602565178,0.06666210935961824,0.05442104211388508,-0.10219069495888142,0.06641925708675736,0.07541763781077604,-0.18986200863167071
134,16.204004899947904,0.008288848787857142,-0.004733601856439722,0.0356857592356047,0.026253716534297058,0.008056655398021785,-0.020396013775293126,0.06695554777078902,0.0547556840194246,-0.10303451426363028,0.06549835282907283,0.07502953967278138,-0.1894973742148216
135,16.208469399949536,0.008406301262681626,-0.004697219939449408,0.035594007837989355,0.026552217195975357,0.008300979106540362,-0.020856239080548716,0.06724484973331396,0.055088581679364465,-0.1038766575196878,0.06455954440399168,0.07463342203188204,-0.18910839051944545
136,16.21198939997703,0.008525084483915207,-0.004659747851603762,0.03550020078977014,0.026851995531708892,0.008546779794859304,-0.021320206821479424,0.06752993554401725,0.055419699317008464,-0.10471701602742095,0.06360280783260008,0.0742292394892761,-0.18869488675857732
137,16.216186399920844,0.008645204093588824,-0.004621179040153072,0.035404321460335834,0.027153032608498242,0.008794049464727496,-0.02178790881599028,0.06781072539893856,0.05574900095543411,-0.10555548033086784,0.06262812179869058,0.07381694742435212,-0.18825669378089588
138,16.220239499933086,0.008766665648720088,-0.004581506988283924,0.03530635325655641,0.027455309138123978,0.009042779957408627,-0.022259336393396514,0.06808713940525131,0.05607645042095456,-0.10639194022545218,0.06163546770263533,0.07339650201224042,-0.1877936441491794
139,16.224390499992296,0.0088894746197322,-0.004540725215835074,0.03520627962496392,0.027758805476778337,0.009292962952813445,-0.02273448039111047,0.06835909759351384,0.056402011346736454,-0.10722628476551921,0.06062482967177917,0.07296786023728137,-0.18730557223910355
140,16.228943999973126,0.009013636388871352,-0.004498827280017134,0.035104084053948104,0.0280635016247519,0.009544589968649073,-0.023213331151361292,0.06862651992968018,0.05672564717638162,-0.10805840227292916,0.05959619449108986,0.07253097987190138,-0.1867923145351771
141,16.23277479992248,0.009139156248622866,-0.004455806776136019,0.03499975007596643,0.02836937722617213,0.009797652359583133,-0.023695878517958312,0.06888932632673422,0.05704732116735698,-0.10888818034722615,0.058549551539300485,0.07208581943617536,-0.18625370986667653
142,16.237144400016405,0.009266039400126262,-0.004411657338320066,0.034893261269768494,0.02867641156879356,0.010052141316423574,-0.0241821118331012,0.06914743665613234,0.05736699639421651,-0.10971550587633071,0.057484892715196835,0.07163233811889254,-0.1856895996342039
143,16.241841699928045,0.009394290951589529,-0.0043663726402507754,0.03478460126263447,0.028984583583838125,0.01030804786531146,-0.024672019934238468,0.06940077075878173,0.05768463575132883,-0.1105402650487244,0.05640221245925998,0.07117049565691431,-0.18509982813530326
144,16.245760399964638,0.009523915916702777,-0.004319946395897118,0.034673753732627426,0.02929387184588304,0.010565362866925075,-0.025165591150986055,0.0696492484566756,0.05800020195502584,-0.11136234336703937,0.05530150797820445,0.07070025216276689,-0.18448424273171285
145,16.251250899978913,0.009654919213051508,-0.004272372360253352,0.03456070241085922,0.029604254572804644,0.010824077015691817,-0.02566281330210672,0.06989278956586922,0.058313657544796366,-0.11218162566173102,0.054182779478996995,0.07022156785732571,-0.18384269396757458
146,16.258180300006643,0.009787305660529771,-0.004223644330080345,0.03444543108376968,0.029915709625781724,0.011084180839002927,-0.026163673692550276,0.07013131391019718,0.05862496488305651,-0.11299799610571924,0.05304603042490639,0.06973440270411715,-0.18317503580589412
147,16.26258500001859,0.009921079979753458,-0.0041737561446503774,0.03432792359541881,0.030228214509361404,0.011345664696423341,-0.026668159110563246,0.07036474133652755,0.05893408615308967,-0.11381133823016487,0.05189126791725459,0.06923871607292696,-0.18248112577625294
148,16.266415199963376,0.010056246790474049,-0.004122701686495491,0.034208163849791716,0.030541746371598184,0.01160851877888809,-0.02717625582486946,0.07059299173187553,0.05924098335582397,-0.11462153494042517,0.050718503040279805,0.06873446662171921,-0.18176082517221354
149,16.27056780003477,0.010192810609993143,-0.004070474882159446,0.0340861358131159,0.030856282004272095,0.01187273310788348,-0.027687949581921677,0.07081598504172591,0.059545618306721754,-0.11542846853358656,0.049527751112545704,0.06822161236198986,-0.18101399934647372
150,16.274347999948077,0.010330775851578145,-0.004017069702953355,0.0339618235161906,0.031171797843190747,0.01213829753461582,-0.028203225603238156,0.07103364128938353,0.05984795263313845,-0.11623202071704611,0.04831903189613406,0.06770011072689898,-0.18024051777021033
151,16.27861179993488,0.010470146822879486,-0.003962480165715032,0.033835211056727814,0.031488269968579646,0.012405201739169102,-0.028722068582819605,0.07124588059615687,0.06014794777181822,-0.11703207262657227,0.047092369774162084,0.06716991857324094,-0.17944025417109855
152,16.286367199965753,0.010610927724349779,-0.003906700333572122,0.03370628260170462,0.03180567410556382,0.012673435229651447,-0.029244462684646443,0.07145262320228793,0.0604455649662704,-0.11782850484611428,0.04584779390309133,0.06663099214259374,-0.17861308693694902
153,16.291470299940556,0.010753122647665325,-0.003849724316709047,0.03357502238972645,0.03212398562474435,0.012942987341329447,-0.029770391540271987,0.07165378948849092,0.060740765263919444,-0.1186211974294541,0.04458533825015264,0.06608328707615227,-0.1777588993130163
154,16.29516490001697,0.010896735574150399,-0.003791546273137834,0.03344141473340083,0.03244317954287161,0.013213847235749247,-0.030299838246512355,0.07184929999721508,0.06103350951361336,-0.11941002992177127,0.04330504149254246,0.0655267586260321,-0.17687757945123303
155,16.299528499948792,0.011041770373204748,-0.003732160409472882,0.03330544402172121,0.032763230523611006,0.013486003899848727,-0.030832785363231516,0.07203907545328654,0.06132375836465364,-0.1201948813817329,0.042006946866207345,0.06496136206641796,-0.17596902061721417
156,16.30360430001747,0.011188230800734687,-0.003671560981709688,0.033167094722460426,0.033084112878399845,0.013759446145069949,-0.031369214911227725,0.07222303678382576,0.06161147226796166,-0.12097563040490021,0.040691101969493305,0.06438705310808535,-0.1750331213082452
157,16.307747500017285,0.011336120497588222,-0.003609742296007512,0.0330263513845733,0.033405800567390266,0.014034162606481717,-0.03190910837022683,0.07240110513714247,0.06189661147879665,-0.12175215514686828,0.039357558640145965,0.06380378820571149,-0.17406978514493676
158,16.312428499921225,0.011485442987994534,-0.00354669870947591,0.03288319864060797,0.033728267200474255,0.014310141741916207,-0.03245244667697456,0.07257320190155876,0.06217913606065624,-0.12252433334570867,0.03800637300668641,0.06321152483374426,-0.17307892082226486
159,16.316008299938403,0.01163620167800822,-0.003482424630965078,0.03273762120912549,0.034051486038394016,0.01458737183112623,-0.03299921022342955,0.07273924872476113,0.062459005890448824,-0.12329204234467352,0.03663760560921024,0.06261022172159156,-0.172060441980976
160,16.320751099963672,0.01178839985395866,-0.003416914521859885,0.032589603897127194,0.03437542999393917,0.01486584097496788,-0.03354937885505757,0.07289916753369831,0.06273618066448661,-0.12405515911349409,0.03525132151237179,0.06199983904947516,-0.17101426697169334
161,16.32609109999612,0.011942040680904912,-0.0033501628968774875,0.03243913160248949,0.03470007163323417,0.015145537094611116,-0.03410293186921408,0.07305288055493854,0.0630106199054005,-0.12481356026898612,0.03384759038972069,0.061380338659778225,-0.16994031885474364
162,16.330163699924015,0.012097127201096522,-0.0032821643248683876,0.03228618931640564,0.0350253831771166,0.015426447930783935,-0.03465984801362179,0.07320031033531775,0.06328228297001348,-0.1255671220963468,0.032426486590145694,0.06075168424514755,-0.16883852529127377
163,16.333800100022927,0.012253662332440692,-0.0032129134296207712,0.032130762125834045,0.03535133650260829,0.015708561043053,-0.035220105484942664,0.07334137976288799,0.0635511290579291,-0.1263157205687914,0.030988089186350844,0.060113841497725806,-0.16770881832710283
164,16.337313399999402,0.012411648866976176,-0.0031424048906679657,0.031972835215952775,0.035677903144480036,0.015991863809144233,-0.03578368192743022,0.07347601208799687,0.06381711722073255,-0.12705923136692718,0.029532482002728008,0.05946677822449273,-0.16655113441206854
165,16.340891400002874,0.012571089469354365,-0.0030706334440988243,0.03181239387261984,0.03600505429691022,0.01627634342430529,-0.03635055443167388,0.07360413094448401,0.0640802063716053,-0.12779752989856213,0.028059753667255286,0.05881046442946933,-0.16536541434122354
166,16.345307199982926,0.012731986675327949,-0.0029975938833708545,0.03164942348483886,0.03633276081523812,0.01656198690071171,-0.03692069953342752,0.07372566037122222,0.06434035529525763,-0.12853049131755573,0.026569997662339494,0.05814487235934592,-0.1641516031317685
167,16.349485300015658,0.01289434289024759,-0.002923281060125887,0.031483909547229794,0.0366609932178142,0.01684878106691776,-0.037494093212521534,0.07384052483376627,0.06459752265794916,-0.1292579905425327,0.025063312384599513,0.05746997651466133,-0.1629096500372229
168,16.354064199957065,0.013058160387567056,-0.00284768988500809,0.03131583766250427,0.036989721687946016,0.01713671256735172,-0.038070710891857894,0.07394864924642598,0.06485166701752086,-0.1299799022758599,0.023539801267941068,0.056785753647971685,-0.16163950861153706
169,16.357760399929248,0.0132234413073572,-0.0027708153284841264,0.03114519354394527,0.0373189160759449,0.017425767861856,-0.03865052743649102,0.07404995899501,0.06510274683339932,-0.13069610102293047,0.021999572849736915,0.0560921827397137,-0.16034113671960226
170,16.362099000019953,0.013390187654829303,-0.002692652421665263,0.03097196301789061,0.03764854590127419,0.017715933225271437,-0.03923351715279444,0.0741443799594877,0.06535072047641396,-0.13140646111123422,0.020442740764082177,0.055389244905850614,-0.15901449666530273
171,16.36618070001714,0.013558401298868176,-0.0026131962571312242,0.030796132026220065,0.03797858035479759,0.018007194747064734,-0.039819653787711316,0.0742318385366729,0.06559554623797965,-0.13211085671078107,0.018869423662280758,0.054676923221365706,-0.15765955556987607
172,16.370270999963395,0.013728083970575495,-0.002532441989755616,0.03061768662884552,0.03830898830112918,0.01829953833099447,-0.04040891052810282,0.07431226166217839,0.06583718233834354,-0.1328091618565377,0.017279745099683264,0.05395520251737754,-0.15627628570274854
173,16.374669199925847,0.013899237261823814,-0.002450384837532752,0.03043661300620386,0.038639738281077085,0.018592949694811914,-0.04100126000019827,0.07438557683209285,0.06607558693396261,-0.1335012504717945,0.01567383350658225,0.05322406918166661,-0.1548646646294782
174,16.378775399993174,0.014071862623821646,-0.0023670200824057377,0.030252897461752058,0.0389707985141864,0.018887414369992667,-0.04159667426915141,0.07445171212467637,0.06631071812397576,-0.1341869963919184,0.014051822170762467,0.05248351099567691,-0.15342467528987094
175,16.38273259997368,0.014245961365690096,-0.0022823430710956867,0.030066526424463974,0.039302136901375864,0.01918291770149506,-0.04219512483870188,0.07451059622188216,0.06654253395613122,-0.13486627338841478,0.012413849357772637,0.05173351703396497,-0.151956306077681
176,16.38696000003256,0.014421534653051401,-0.0021963492159319522,0.02987748645132847,0.039633721027672236,0.01947944484754453,-0.042796582650945554,0.07456215843212213,0.06677099243236395,-0.13553895519338957,0.010760058517896891,0.050974077548272226,-0.15045955086942747
177,16.391308599966578,0.014598583506629893,-0.002109033995683262,0.029685764229848262,0.03996551816504954,0.019776980779441643,-0.043401018086213675,0.07460632871363002,0.06699605151369169,-0.13620491552386743,0.00909059842508827,0.05020518378799712,-0.14893440888151419
178,16.39587270002812,0.014777108800865798,-0.0020203929563896595,0.029491346580539094,0.04029749527537132,0.020075510281390027,-0.04400840096305954,0.07464303769846305,0.0672176691241951,-0.13686402810498258,0.007405623321342885,0.0494268278555963,-0.1473808844296176
179,16.39953199995216,0.014957111262542377,-0.0019304217121951675,0.02929422045942872,0.040629619013443384,0.020375017950339816,-0.04461870053834396,0.0746722167171496,0.0674358031546273,-0.13751616669215636,0.0057052929237237995,0.04863900273675008,-0.14579898682461556
180,16.403838300029747,0.015138591469426886,-0.0018391159461811234,0.02909437296055531,0.040961855730175384,0.020675488195847684,-0.045231885507419266,0.07469379782275336,0.06765041146666238,-0.13816120509336208,0.003989772312145761,0.047841702461426674,-0.14418873025933757
181,16.407705300021917,0.015321549848925843,-0.0017464714112000884,0.028891791318464796,0.04129417147584766,0.020976905239958096,-0.04584792400441287,0.07470771381452254,0.06786145189793794,-0.13879901719029503,0.0022592318083172807,0.04703492228551592,-0.1425501335178045
182,16.41201720002573,0.015505986676755056,-0.0016524839307102384,0.028686462910706763,0.041626532003483194,0.021279253117108203,-0.04646678360259961,0.07471389826087704,0.06806888226791961,-0.13942947695805039,0.0005138467807049535,0.04621865888697551,-0.14088321964570946
183,16.41896529996302,0.01569190207562489,-0.00155714939961012,0.028478375260328474,0.041958902772319014,0.021582515674061272,-0.04708843131486036,0.07471228552132243,0.06827266038468871,-0.1400524584833615,-0.0012462025153656224,0.04539291053202396,-0.13918801561011748
184,16.4234804000007,0.015879296013941176,-0.0014604637850736332,0.02826751603836668,0.042291248951373095,0.02188667656987197,-0.04771283359421669,0.07470281076801444,0.06847274405228539,-0.14066783598125018,-0.003020731122140282,0.044557677180509854,-0.13746455192445875
185,16.42956860002596,0.01606816830452222,-0.0013624231273850966,0.028053873066336898,0.042623535423107616,0.022191719275885122,-0.048339956334437606,0.07468541000603209,0.0686690910784337,-0.14127548380992846,-0.004809549736829338,0.04371296056770742,-0.1357128619305169
186,16.433218499994837,0.016258518603332304,-0.001263023540774241,0.02783743431871981,0.04295572678717625,0.022497627075769733,-0.04896976487070674,0.07466002009176244,0.0688616592826126,-0.14187527648106077,-0.006612464950659918,0.042858764318877765,-0.13393298097029674
187,16.43758040003013,0.016450346408232022,-0.001162261214250972,0.02761818792544461,0.04328778736425097,0.02280438306558955,-0.04960222398032045,0.07462657875104689,0.06905040650480018,-0.1424670886672978,-0.008429279233784675,0.041995094177492955,-0.13212494607964687
188,16.441246400005184,0.01664365105774584,-0.0010601324124397357,0.027396122174369198,0.043619681199930815,0.023111970153914873,-0.05023729788342202,0.07458502459770017,0.06923529061557518,-0.14305079520981276,-0.010259790805122298,0.04112195833607147,-0.13028879574343902
189,16.445483300019987,0.016838431729847215,-0.0009566334764132866,0.027171225513756992,0.04395137206873344,0.023420371061983008,-0.05087495024376681,0.07453529715281465,0.06941626952780472,-0.14362627112365717,-0.012103793457031761,0.040239367781151954,-0.12842456962916587
190,16.44960179994814,0.017034687440761646,-0.0008517608245256259,0.026943486554750307,0.044282823478175616,0.023729568323914055,-0.05151514416950409,0.07447733686483926,0.06959330120981504,-0.14419339160292685,-0.013961076484126663,0.03934733658998882,-0.12653230859552936
191,16.45378179999534,0.017232417043788112,-0.000745510953243849,0.026712894073840216,0.04461399867294347,0.024039544286988533,-0.05215784221398818,0.07441108512951712,0.06976634369971892,-0.14475203202619413,-0.015831424693367277,0.03844588214220629,-0.1246120546249377
192,16.45796829997562,0.017431619228139232,-0.0006378804379786144,0.026479437015332716,0.044944860639150326,0.024350281111990654,-0.052803006376608605,0.07433648430987465,0.06993535512046951,-0.1453020679610733,-0.01771461835917039,0.037535025243428485,-0.1226638506658136
193,16.461776899988763,0.01763229251780057,-0.0005288659339129367,0.026243104493811197,0.04527537210868481,0.024661760773619874,-0.05345059810364184,0.0742534777565586,0.07010029369528774,-0.14584337516824983,-0.019610433228934184,0.036614790163036495,-0.12068774049848052
194,16.466253499966115,0.01783443527040949,-0.0004184641768289939,0.026003885796595034,0.045605495563649644,0.024973965060971427,-0.05410057828911734,0.07416200982777604,0.070261117763052,-0.14637582960485254,-0.021518640561787403,0.0356852046092611,-0.11868376876047551
195,16.47021409997251,0.018038045676153944,-0.0003066719839326454,0.02576177038619435,0.04593519324088711,0.025286875578084796,-0.054752907275699245,0.0740620259092866,0.07041778579350397,-0.1468993074287081,-0.02343900704030643,0.03474629967978787,-0.11665198083856883
196,16.47914489998948,0.018243121756691603,-0.00019348625467535918,0.025516747902760765,0.04626442713659575,0.025600473744559538,-0.05540754485559031,0.07395347243512787,0.0705702564021989,-0.14741368500075253,-0.025371294716702932,0.03379810977292051,-0.11459242234113491
197,16.48270860000048,0.018449661364089712,-7.890397157325104e-05,0.02526880816653411,0.04659315901104025,0.025914740796236766,-0.05606445027143504,0.07383629690808653,0.07071848836492098,-0.14791883888459123,-0.027315261090838452,0.032840672444637044,-0.11250513886638126
198,16.488432699930854,0.018657662179786122,3.7077798977051496e-05,0.025017941180285146,0.04692135039335021,0.026229657785943227,-0.05672358221721971,0.07371044791972958,0.07086244063136186,-0.14841464584684855,-0.029270659155013173,0.03187402824393951,-0.1103901764658064
199,16.49229419999756,0.018867121713571848,0.0001544619058859901,0.024764137131754276,0.047248962586408275,0.026545205584294483,-0.0573848988391786,0.07357587517047695,0.07100207233807117,-0.14890098286085116,-0.031237237369422105,0.030898220553257513,-0.10824758254577166
200,16.49581989995204,0.019078037302595583,0.0002732511125623574,0.02450738639608619,0.04757595667182753,0.026861364880554208,-0.05804835773672679,0.07343252948985116,0.07113734282071503,-0.1493777271149989,-0.03321473962736321,0.029913295417901727,-0.10607740680354523
201,16.50089869997464,0.019290406110390547,0.0003934480961085233,0.024247679538260285,0.04790229351501972,0.027178116183546437,-0.05871391596344091,0.07328036285685943,0.07126821162550927,-0.14984475602477618,-0.03520290526530919,0.028919301345247547,-0.10387970193165301
202,16.50433239992708,0.019504225125924087,0.000515055446519833,0.02398500731551658,0.04822793377035404,0.027495439822616582,-0.059381530028098733,0.07311932842015378,0.07139463851969127,-0.1503019472473895,-0.037201469053264644,0.027916289099211164,-0.10165452425768702
203,16.50814139994327,0.019719491162670428,0.0006380756658883835,0.023719360679776893,0.0485528378864047,0.02781331594863685,-0.060051155895790194,0.0729493805184989,0.07151658350112461,-0.15074917869947116,-0.039210161085548784,0.026904311535839436,-0.09940193425257714
204,16.512184599996544,0.01993620085770696,0.0007625111676113667,0.023450730780060866,0.04887696611129182,0.028131724535052714,-0.060722748989114506,0.07277047470190394,0.07163400680730815,-0.15118632857623893,-0.04122870671267638,0.025883423497073458,-0.09712199681670958
205,16.516157199977897,0.0201543506708345,0.0008883642756041568,0.02317910896489649,0.049200278498117,0.028450645378968478,-0.061396264189461605,0.07258256775269646,0.07174686892403549,-0.15161327537174538,-0.04325682661543689,0.024853681760292907,-0.09481478170234889
206,16.52087270002812,0.020373936883721955,0.001015637223518311,0.022904486784724735,0.049522734910491716,0.028770058102270797,-0.06207165583838946,0.07238561770599515,0.07185513059395518,-0.15202989790179577,-0.045294236872737426,0.023815145045066984,-0.09248036408028144
207,16.524585700011812,0.02059495559907576,0.0011443321539646536,0.022626855994297815,0.04984429502815505,0.029089942152790406,-0.0627488777391094,0.07217958387018017,0.07195875282529018,-0.15243607532923895,-0.04734064893276635,0.02276787406089593,-0.09011882491061357
208,16.529109700000845,0.020817402739834512,0.0012744511177416123,0.02234620855507061,0.05016491835268418,0.02941027680550321,-0.06342788315808842,0.0719644268476224,0.07205769690082289,-0.1528316871901841,-0.049395769632891856,0.02171193157627533,-0.08773025108469991
209,16.533828199957497,0.021041274048389236,0.001405996073068988,0.022062536637584666,0.05048456421329657,0.02973104116377195,-0.06410862482676782,0.07174010855497678,0.07215192438722905,-0.1532166134205545,-0.05145930120448034,0.020647382494957473,-0.08531473580390916
210,16.537361299968325,0.02126656508582963,0.0015389688848273394,0.021775832623844332,0.05080319177274098,0.030052214160630353,-0.06479105494340172,0.07150659224386868,0.07224139714474123,-0.1535907343856741,-0.05353094119373999,0.01957429391579085,-0.08287237904395552
211,16.541428399970755,0.021493271231216738,0.0016733713238031766,0.021486089109684404,0.051120760033283724,0.030373774560110763,-0.06547512517503888,0.07126384252189148,0.07232607733701521,-0.1539539309109524,-0.05561038258488915,0.018492735170102897,-0.08040328766747738
212,16.545185199938715,0.021721387680882467,0.0018092050659401586,0.021193298907128625,0.0514372278427865,0.03069570095861606,-0.06616078665963432,0.07101182537219712,0.072405927441126,-0.15430608431247278,-0.057697313987564475,0.017402777812272424,-0.07790757573451096
213,16.552328099962324,0.021950909447756326,0.0019464716915964925,0.020897455046738546,0.051752553900866936,0.031017971786336255,-0.06684799000830323,0.07075050817282631,0.07248091025735036,-0.1546470764304395,-0.059791419637089185,0.016304495506299227,-0.07538536486206696
214,16.55728690000251,0.022181831360719755,0.002085172684808734,0.02059855077995197,0.05206669676514839,0.03134056530870742,-0.06753668530773016,0.0704798597162967,0.07255098891815362,-0.15497678966296535,-0.061892379674984,0.015197963826076471,-0.07283678416453294
215,16.561850299942307,0.022414148063988473,0.0022253094325621683,0.020296579581410384,0.05237961485759479,0.03166345962790825,-0.06822682212272357,0.07019985022643734,0.07261612689619522,-0.15529510699898832,-0.06399987056719016,0.01408326009742266,-0.070261970289961
216,16.56606159999501,0.02264785401652316,0.0023668832240679237,0.019991535151274664,0.052691266470910214,0.03198663268439022,-0.06891834949891787,0.06991045137425594,0.07267628801191012,-0.15560191205238208,-0.06611356490315633,0.012960463390362071,-0.06766106767936668
217,16.570468300022185,0.02288294349146875,0.002509895250046967,0.019683411417528475,0.05300160977501488,0.03231006225844158,-0.06961121596563143,0.0696116362965609,0.0727314364414456,-0.15589708909717973,-0.06823313100601061,0.011829654663558191,-0.06503422860073613
218,16.57490579993464,0.02311941057562273,0.0026543466020211327,0.019372202538268553,0.053310602823610415,0.03263372597178816,-0.07030536953888201,0.0693033796152968,0.07278153672552774,-0.15618052310198674,-0.07035823281904437,0.01069091695154715,-0.06238161304296135
219,16.58110139996279,0.023357249168932837,0.00280023827161136,0.019057902903981263,0.053618203560827894,0.03295760128923622,-0.07100075772455101,0.06898565745717639,0.07282655377906404,-0.15645209976426114,-0.07248852973898576,0.009544335448929209,-0.05970338866972861
220,16.586198000004515,0.023596452984024508,0.0029475711498433395,0.01874050713980474,0.05392436982796776,0.0332816655203587,-0.07169732752170381,0.0686584474744995,0.07286645290075891,-0.15671170554431613,-0.07462367650650636,0.008389997494123195,-0.05699973050483025
221,16.591555999941193,0.02383701554575855,0.0030963460264607505,0.018420010107775903,0.05422905937033306,0.033605895821223634,-0.07239502542605654,0.06832172886575923,0.0729011997825718,-0.15695922769680049,-0.0767633231333759,0.0072279925525204,-0.05427082057256298
222,16.59605209995061,0.024078930190819373,0.0032465635892462877,0.01809640690906175,0.05453222984415275,0.033930269196164514,-0.07309379743357657,0.06797548239710884,0.0729307605191828,-0.15719455430150184,-0.07890711468577614,0.006058412292842641,-0.05151684792615092
223,16.600029399967752,0.024322190067334264,0.0033982244233506493,0.017769692886174332,0.0548338388236059,0.03425476249959295,-0.07379358904422328,0.06761969042489586,0.07295510161813012,-0.1574175742950799,-0.08105469115490732,0.004881350781577391,-0.04873800881727042
224,16.603720400016755,0.024566788134524117,0.0035513290106296896,0.017439863625168785,0.055133843807945476,0.03457935243785923,-0.07449434526583093,0.0672543369182803,0.0729741900110056,-0.15762817750337807,-0.08320568727579279,0.0036969046630219993,-0.045934506995489365
225,16.607876599999145,0.02481271716238608,0.003705877728989962,0.017106914957823745,0.05543220222872379,0.03490401557116456,-0.07519601061813685,0.06687940748338068,0.07298799306519398,-0.1578262546758207,-0.08535973227587597,0.0025051732058319425,-0.043106554096616526
226,16.612043699948117,0.02505996973140857,0.0038618708517428836,0.016770842963803535,0.0557288714571311,0.03522872831552608,-0.07589852913697037,0.0664948893881291,0.07299647859548265,-0.1580116975211799,-0.0875164500030928,0.0013062582407043115,-0.040254369861485506
227,16.616017999942414,0.025308538232319225,0.004019308546967762,0.016431643972801325,0.05602380881144223,0.03555346694479242,-0.07660184437859925,0.06610077158527779,0.07299961487524648,-0.1581843987439194,-0.08967545912783617,0.00010026407367033258,-0.03737818240753568
228,16.620309500023723,0.025558414865866158,0.004178190876883892,0.01608931456666264,0.0563169715645598,0.03587820759270819,-0.07730589942424192,0.06569704473545723,0.07299737064728602,-0.15834425208237746,-0.0918363730242611,-0.0011127026247893816,-0.034478228514924394
229,16.62541209999472,0.02580959164263302,0.00433851779723195,0.01574385158148838,0.05660831695166605,0.03620292625502599,-0.07801063688475365,0.06528370123123885,0.0729897151340259,-0.15849115234765637,-0.09399879976625888,-0.0023325329644652724,-0.031554753792738664
230,16.62883940001484,0.026062060382888344,0.004500289156664881,0.015395252109716632,0.05689780217798014,0.03652759879166163,-0.07871599890548481,0.06486073522022885,0.07297661804706541,-0.1586249954632842,-0.09616234225474019,-0.003559115956930662,-0.028608012920930067
231,16.632965500000864,0.026315812716469617,0.004663504696148469,0.015043513502182458,0.057185384426615415,0.036852200928891084,-0.07942192717131986,0.06442814262799852,0.0729580495962958,-0.15874567850625673,-0.09832659824725777,-0.004792338603710787,-0.025638269846325324
232,16.636843199958093,0.026570840082702534,0.004828164048371771,0.01468863337015489,0.057471020866540753,0.03717670826158688,-0.0801283629119008,0.06398592118091452,0.07293398049866644,-0.15885309974844308,-0.1004911603392526,-0.006032085962999578,-0.022645797896062893
233,16.641306899953634,0.026827133730355897,0.004994266737167582,0.014330609587350242,0.057754668660640926,0.03750109625549301,-0.08083524690703454,0.06353407042923599,0.07290438198670848,-0.15894715869863696,-0.1026556158151142,-0.00727824118043498,-0.019630879986041582
234,16.645415699924342,0.027084684717632587,0.0051618121769431095,0.013969440291920982,0.05803628497388346,0.03782534024953716,-0.08154251949229047,0.06307259177127002,0.0728692258170273,-0.15902775614581685,-0.10481954651529139,-0.008530685430878534,-0.016593808803423038
235,16.6497970999917,0.02734348391219712,0.005330799672121013,0.013605123888419255,0.0583158269815939,0.03814941545818118,-0.08225012056479272,0.06260148847765103,0.07282848427934409,-0.15909479420282097,-0.106982528674477,-0.009789297779745491,-0.013534886875887924
236,16.65348169999197,0.027603521991240255,0.0055012284165909895,0.013237659049734219,0.058593251877838676,0.03847329697381375,-0.08295798958920632,0.06212076571693593,0.07278213020622203,-0.15914817635022363,-0.1091441326553787,-0.011053955087724542,-0.010454426625652602
237,16.661953300004825,0.027864789441581116,0.005673097493172099,0.012867044719002308,0.05886851688392811,0.03879695976918741,-0.08366606560391983,0.06163043058225217,0.07273013698295563,-0.1591878074804908,-0.11130392288402453,-0.012324532074930245,-0.007352750433783797
238,16.66767669992987,0.028127276559807457,0.005846405873086033,0.01249328011148956,0.05914157925703635,0.03912037869989918,-0.08437428722742431,0.06113049211746845,0.07267247855672616,-0.15921359394242868,-0.11346145800755626,-0.013600901497375237,-0.004230190748203896
239,16.671309099998325,0.028390973452454487,0.006021152415441512,0.012116364716445125,0.05941239629893723,0.03944352850690906,-0.08508259266489147,0.060620961342438905,0.07260912944492086,-0.15922544358630014,-0.11561629121523638,-0.014882934124257648,-0.0010870902954900625
240,16.674955099937506,0.028655870036222844,0.0061973358667299595,0.01173629829892507,0.0596809253648488,0.03976638381909468,-0.08579091971495402,0.060101851276317786,0.07254006474449043,-0.15922326581015775,-0.11776797053351296,-0.01617049835392938,0.0020761975315189475
241,16.683115800027736,0.028921956038236118,0.006374954860332628,0.011353080901585563,0.059947123872376606,0.04008891915585303,-0.08649920577669602,0.05957317696017846,0.07246526014368505,-0.15920697160840871,-0.11991603899309937,-0.017463459778226435,0.005259308211899537
242,16.68792349996511,0.02918922099633839,0.00655400791603942,0.01096671284644448,0.06021094931055949,0.04041110892975953,-0.08720738785686534,0.059034955478841605,0.07238469193528801,-0.15917647362225676,-0.12206003484136924,-0.01876168090133565,0.008461865741636756
243,16.691495699924417,0.029457654259432232,0.006734493439579676,0.010577194736610425,0.060472359249007034,0.0407329274492875,-0.0879154025773128,0.05848720598160447,0.07229833703085295,-0.1591316861914256,-0.12419949151299822,-0.020065020857365227,0.011683482366981803
244,16.69572600000538,0.029727244987857556,0.006916409722165186,0.010184527457978146,0.06073131134712983,0.04105434892159392,-0.08862318618266478,0.05792994970433031,0.07220617297645027,-0.1590725254069731,-0.12633393726468065,-0.021373335083892327,0.014923758362985132
245,16.700318399933167,0.029997982153811723,0.007099754940045763,0.009788712180889291,0.06098776336347343,0.04137534745537898,-0.08933067454823229,0.05736320999342758,0.07210817796980885,-0.15899890916498516,-0.12846289494879196,-0.022686475105358195,0.01818228181945433
246,16.70520339999348,0.030269854541811435,0.0072845271540777,0.009389750361757465,0.06124167316516197,0.04169589706382434,-0.09003780318816128,0.056787012329953084,0.07200433087798963,-0.15891075722129427,-0.13058588199901427,-0.02400428849125548,0.021458628483346412
247,16.708861300023273,0.030542850749196875,0.0074707243093054794,0.008987643744656465,0.06149299873744656,0.04201597166760994,-0.09074450726382852,0.05620138435371907,0.07189461125489927,-0.15880799124657557,-0.13270241042507347,-0.025326618947026994,0.024752361619369487
248,16.712180899921805,0.030816959186678542,0.007658344234557075,0.008582394362870638,0.061741698193363385,0.04233554509800807,-0.09145072159248212,0.05560635588744319,0.071778999358155,-0.1586905348823056,-0.13481198693099655,-0.02665330645695803,0.028063031745436676
249,16.716059800004587,0.031092168078927326,0.007847384642053189,0.008174004540406248,0.061987729783496974,0.04265459110005023,-0.0921563806561353,0.05500195895980349,0.07165747616532706,-0.15855831379821214,-0.13691411289512384,-0.027984187336680018,0.03139017644245496
250,16.721569899935275,0.0313684654652082,0.008037843127030727,0.007762476893462698,0.0622310519058434,0.04297308333576571,-0.09286141861071799,0.05438822782976616,0.07153002339033632,-0.15841125574992518,-0.13900828409476604,-0.029319094261393994,0.03473332026646344
251,16.72507859999314,0.03164583920005806,0.008229717167380851,0.00734781433186248,0.06247162311579003,0.043290995387494334,-0.09356576929548358,0.05376519901209028,0.07139662349944564,-0.1582492906372085,-0.1410939907061206,-0.03065785646469039,0.03809197454002561
252,16.729563999921083,0.03192427695400819,0.008423004123301929,0.006930020060438704,0.06270940213620559,0.04360830076126732,-0.09426936624267855,0.05313291130165631,0.07125725972588866,-0.15807235056346666,-0.14317071736291728,-0.032000300033698886,0.041465637133772965
253,16.733370100031607,0.032203766214351885,0.008617701236967663,0.006509097580379016,0.06294434786763639,0.04392497289025019,-0.0949721426874787,0.052491405798449055,0.07111191608323508,-0.15788036989592016,-0.1452379430091427,-0.0333462481616301,0.0448537923468289
254,16.737287299940363,0.03248429428595763,0.008813805632210674,0.006085050690524726,0.0631764193986187,0.04424098513824252,-0.09567403157819414,0.051840725933196496,0.07096057737777267,-0.1576732853261763,-0.14729514084469755,-0.034695521360357716,0.0482559108763204
255,16.741141099948436,0.03276584829212847,0.009011314314221768,0.0056578834886239285,0.06340557601610304,0.044556310803231004,-0.09637496558674441,0.051180917492836216,0.0708032292199812,-0.15745103593067558,-0.14934177813324523,-0.036047937738644245,0.051671449839986096
256,16.745289999991655,0.03304841517550794,0.009210224169265131,0.005227600372537437,0.06363177721599311,0.04487092312099133,-0.09707487711940131,0.05051202864786381,0.070639858034439,-0.15721356323106145,-0.15137731595027518,-0.03740331334884146,0.05509985282526397
257,16.750552500016056,0.033331981699033196,0.00941053196440964,0.004794206041396324,0.06385498271381346,0.04518479526872935,-0.09777369832780107,0.049834109980040814,0.07047045106821236,-0.15696081125418995,-0.15340120940120372,-0.03876146252648589,0.05854054998640595
258,16.753942899988033,0.03361653444693586,0.009612234347276457,0.004357705496709879,0.0640751524554949,0.0454979003687576,-0.09847136112022112,0.04914721450780265,0.07029499639774069,-0.15669272659163547,-0.15541290788706666,-0.040122198266525126,0.06199295812707679
259,16.759173600003123,0.033902059825791094,0.009815327845803044,0.003918104043422818,0.06429224662826824,0.045810211492197744,-0.09916779717312167,0.04845139771160268,0.07011348293387859,-0.15640925845896544,-0.15741185514256648,-0.04148533253987004,0.06545648081764037
260,16.762813100009225,0.03418854406561538,0.010019808868023705,0.0034754072909205583,0.06450622567167519,0.04612170166270192,-0.09986293794294988,0.04774671755898167,0.06992590042596467,-0.15611035875420265,-0.1593974893956158,-0.0428506764554698,0.06893050856888973
261,16.76641959999688,0.03447597322101357,0.010225673701866706,0.0030296211539814068,0.0647170502886851,0.046432343860191426,-0.10055671467820156,0.04703323452849235,0.0697322394654216,-0.15579598211555423,-0.1613692435138992,-0.04421804030624869,0.07241441903330799
262,16.770456500002183,0.03476433317237554,0.01043291851496808,0.0025807518536745174,0.06492468145691879,0.04674211102461007,-0.10124905843173891,0.046311011633464925,0.06953249148941629,-0.15546608597808334,-0.1633265452119296,-0.04558723348644016,0.0759075772752579
263,16.774298499920405,0.03505360962712312,0.010641539354502141,0.0021288059182024907,0.06512908043997669,0.04705097605969541,-0.10193990007335652,0.04558011444408947,0.06932664878519536,-0.1551206306290343,-0.165268817416239,-0.046958064353610975,0.07940933600431589
264,16.77865480002947,0.03534378812100754,0.010851532147028843,0.001673790183687532,0.0653302087988591,0.04735891183677072,-0.10262917030259128,0.044840611107932304,0.0691147044949729,-0.15475957926242828,-0.1671954784910131,-0.048330340119445606,0.08291903575077711
265,16.78280809998978,0.03563485401945795,0.01106289269835803,0.001215711794900079,0.06552802840347696,0.04766589119855968,-0.10331679966177411,0.04409257237001091,0.06889665262123769,-0.15438289803282695,-0.16910594261310022,-0.049703866788635344,0.08643600502255822
266,16.787019399926066,0.035926792518981294,0.011275616693430735,0.0007545782059288403,0.06572250144425065,0.04797188696302555,-0.10400271854931827,0.04333607158997385,0.0686724880321846,-0.1539905561085322,-0.1709996205907574,-0.051078449174216105,0.08995956037181733
267,16.79133209993597,0.03621958864861401,0.011489699696217588,0.0002903971807911948,0.0659135904437736,0.04827687192723424,-0.10468685723324432,0.04257118475489131,0.06844220646688541,-0.15358252572475714,-0.17287592034472488,-0.052453890950884756,0.09348900643161935
268,16.795285500003956,0.03651322727142567,0.01170513714963448,-0.0001768232060171007,0.06610125826852492,0.048580818871239426,-0.10536914586494157,0.04179799049215484,0.06820580454024577,-0.15315878223649948,-0.17473424709494323,-0.05382999463061282,0.09702363601565224
269,16.79982509999536,0.036807693086074914,0.011921924375475543,-0.0006470745690339473,0.06628546814064779,0.04888370056198974,-0.10604951449316344,0.04101657008060668,0.06796327974839306,-0.15271930417082544,-0.17657400400345039,-0.055206561444831444,0.10056273026079195
270,16.803745199926198,0.03710297062841787,0.012140056574363577,-0.0011203482114057152,0.06646618364976108,0.04918548975726186,-0.10672789307825402,0.040227007457719684,0.06771463047468153,-0.15226407327847474,-0.17839459260671792,-0.056583391292113344,0.10410555880225175
271,16.807822600007057,0.03739904427316917,0.012359528825718018,-0.0015966351245258522,0.0666433687648016,0.049486159209621086,-0.10740421150660263,0.03942938922688006,0.06745985599554562,-0.15179307458458616,-0.1801954130414651,-0.057960282785231125,0.10765138002916569
272,16.812324299942702,0.03769589823561572,0.0125803360877406,-0.002075925987738298,0.06681698784590061,0.049785681670406506,-0.1080783996053217,0.038623804662558256,0.06719895648608645,-0.1513062964380286,-0.18197586449891243,-0.05933703326632502,0.11119944144683264
273,16.815995799959637,0.03799351657338341,0.01280247319741879,-0.002558211168106682,0.06698700565627194,0.0500840298937413,-0.10875038715714015,0.03781034571355023,0.06693193302579017,-0.15080373055890373,-0.18373534540150643,-0.06071343873976182,0.11474898009834601
274,16.819935099920258,0.038291883188256645,0.013025934870547118,-0.0030434807202502447,0.06715338737411743,0.05038117664056877,-0.10942010391550396,0.036989107006575955,0.06665878760471182,-0.15028537208412587,-0.18547325347233815,-0.062089293833036366,0.11829922305635311
275,16.824410100001842,0.03859098182805096,0.013250715701766528,-0.0035317243862473847,0.06731609860454706,0.050677094682717666,-0.11008747961987506,0.036160185848903105,0.0663795231295415,-0.1497512196105494,-0.18718898634613843,-0.06346439207499724,0.12184938819256613
276,16.828798300004564,0.03889079608853862,0.013476810164621877,-0.0040229315956076955,0.06747510539150768,0.05097175680699218,-0.1107524440112156,0.035323682226509515,0.0660941434273129,-0.14920127523370227,-0.18888194285875706,-0.0648385265929258,0.12539868538568957
277,16.832998599973507,0.03919130941542736,0.01370421261163767,-0.004517091465313277,0.06763037422968687,0.051265135819270266,-0.1114149268476315,0.034479698795234326,0.06580265324526755,-0.14863554458016645,-0.19055152422092292,-0.06621149093312195,0.12894631785945262
278,16.836805999977514,0.039492505106391906,0.013932917274412024,-0.00501419279992995,0.06778187207636288,0.05155720454859244,-0.11207485792014474,0.033628340868497496,0.06550505824726251,-0.14805403683440696,-0.19219713462940946,-0.06758307964172637,0.132491483243673
279,16.841328599955887,0.03979436631315812,0.014162918263728784,-0.0055142240917889,0.06792956636319923,0.051847935851228114,-0.11273216706857561,0.03276971640301338,0.06520136500846709,-0.14745676476171202,-0.1938181817290023,-0.06895308856794549,0.13603337441752877
280,16.845246299984865,0.040096876043639484,0.014394209569687663,-0.006017173521239192,0.06807342500796758,0.052137302614717246,-0.11338678419751917,0.03190393598240009,0.06489158100907273,-0.14684374472751943,-0.1954140767804598,-0.07032131523354263,0.13957118037738203
281,16.84956699993927,0.04040001716412552,0.014626785061852316,-0.006523028956971557,0.06821341642619648,0.05242527776188069,-0.11403863929239941,0.03103111280139877,0.06457571462570234,-0.14621499671263571,-0.19698423487702785,-0.07168755943381765,0.14310408723349355
282,16.85404320002999,0.04070377240152193,0.014860638489416163,-0.007031777956413743,0.06834950954275384,0.05271183425478541,-0.11468766243558107,0.030151362647556572,0.06425377511977326,-0.14557054432369468,-0.1985280757523133,-0.07305162382608336,0.1466312792987455
283,16.85785669996403,0.04100812434564207,0.015095763481385735,-0.007543407766197648,0.06848167380333274,0.0529969450986513,-0.11533378382251691,0.029264803878258267,0.06392577262367087,-0.14491041479869016,-0.2000450244412438,-0.07441331437339468,0.1501519401854284
284,16.862250500009395,0.04131305545154925,0.015332153546781264,-0.008057905322698336,0.06860987918582949,0.0532805833456934,-0.11597693377790876,0.028371557396528687,0.06359171812516375,-0.14423463900767647,-0.20153451164437736,-0.07577244080247551,0.1536652538769928
285,16.86616839992348,0.04161854804194947,0.01556980207485421,-0.00857525725264495,0.06873409621161419,0.053562722098890035,-0.11661704277186095,0.02747174662482302,0.06325162344950305,-0.14354325144876573,-0.20299597430821265,-0.07712881701775048,0.15717040578224992
286,16.87055909994524,0.041924584309633986,0.015808702335321376,-0.009095449873803448,0.06885429595667564,0.05384333451566578,-0.11725404143600583,0.026565497475666243,0.06290550124015404,-0.14283629023944908,-0.204428855960751,-0.0784822612834934,0.1606665837939241
287,16.875547399977222,0.04223114631997119,0.0160488474786152,-0.00961846919573099,0.0689704500626306,0.05412239381148817,-0.11788786057957995,0.0256529383224579,0.06255336493927487,-0.142113797103176,-0.20583260663347927,-0.07983259631201423,0.16415297937443366
288,16.879135399940424,0.04253821601344715,0.016290230536149877,-0.010144300920601696,0.06908253074760899,0.054399873263376974,-0.11851843120543014,0.024734199970805663,0.0621952287676635,-0.1413758173510154,-0.20720668282104623,-0.08117964938533076,0.16762878863129263
289,16.883184399921447,0.042845775208254305,0.016532844420602866,-0.010672930444103442,0.06919051081700814,0.054675746213322496,-0.1191456845259266,0.023809415629688874,0.06183110770415402,-0.14062239985866695,-0.2085505471462256,-0.08252325252461698,0.17109321323770618
290,16.887175199924968,0.043153805602927704,0.016776681926211425,-0.011204342856405203,0.06929436367412135,0.054949986071611535,-0.11976955197876439,0.022878720885772925,0.06146101746405593,-0.13985359703993167,-0.2098636681923122,-0.08386324271645389,0.17454546120750666
291,16.891401799977757,0.043462288779028274,0.017021735729083717,-0.011738522943194427,0.06939406333066368,0.05522256632005388,-0.12038996524264053,0.021942253676063988,0.061084974476537504,-0.13906946481682866,-0.2111455211053431,-0.08519946195279615,0.17798474763322777
292,16.895999199943617,0.04377120620387268,0.01726799838752404,-0.01227545518678386,0.0694895844171572,0.05549346051510702,-0.1210068562527896,0.02100015425686541,0.060702995862709504,-0.138270062586499,-0.212395587514679,-0.08653175706346178,0.18141029523661642
293,16.899874299997464,0.04408053923330902,0.017515462342371745,-0.012815123767287146,0.06958090219318057,0.05576264229090767,-0.12162015721636636,0.02005256517713904,0.06031509941449889,-0.13745545318642452,-0.213613355058414,-0.08785997939547142,0.18482133469788012
294,16.904274699976668,0.04439026911453785,0.017764119917353428,-0.013357512563862506,0.0696679925575173,0.0560300853622085,-0.12222980062767193,0.01909963125168406,0.059921303575585456,-0.13662570285840245,-0.21479831804608374,-0.08918398433529386,0.18821710486730844
295,16.90918529999908,0.04470037698897817,0.01801396331944798,-0.013902605156023802,0.06975083205816668,0.05629576352724008,-0.12283571928321588,0.01814149952860218,0.05952162742452612,-0.1357808812118814,-0.21594997823585782,-0.09050363106822988,0.19159685269671867
296,16.912874899921007,0.04501084389517755,0.018264984639264244,-0.014450384825018233,0.06982939790220263,0.056559650670497445,-0.12343784629661622,0.017178319255561778,0.05911609065783235,-0.1349210611885458,-0.21706784496217144,-0.09181878242482906,0.19495983307708747
297,16.917539899935946,0.0453216507717658,0.018517175851430853,-0.015000834555269961,0.06990366796548445,0.056821720765451486,-0.1240361151133464,0.01621024184612754,0.05870471357446085,-0.13404631902709666,-0.21815143551091148,-0.09312930451613187,0.19830530887224945
298,16.921537999995053,0.04563277846045149,0.018770528814998015,-0.015553937035889009,0.06997362080221604,0.05708194787719754,-0.12463045952532194,0.015237420842686575,0.05828751706213629,-0.13315673422753607,-0.21920027592641306,-0.09443506625680664,0.20163255087452012
299,16.92522460001055,0.04594420770906067,0.01902503527385091,-0.016109674662244666,0.07003923565432692,0.057340306165045055,-0.12522081368532964,0.014260011875598184,0.05786452258608465,-0.13225238951634283,-0.22021390131879356,-0.09573593886206831,0.204940837718085
300,16.92972589994315,0.04625591917461688,0.019280686857134518,-0.016668029537602762,0.07010049246066793,0.05759676988506599,-0.12580711212130444,0.013278172623385608,0.05743575217983181,-0.13133337081152752,-0.22119185571387892,-0.09703179550764139,0.20822945592775055
301,16.93339110002853,0.04656789342646167,0.01953747507968969,-0.017228983474826095,0.07015737186603808,0.0578513133926026,-0.1263892897504477,0.012292062773221018,0.057001228436962294,-0.13039976718737437,-0.22213369235913877,-0.09832251106398092,0.2114976999696009
302,16.937482899986207,0.04688011094941489,0.01979539134250029,-0.017792517998137317,0.07020985523002873,0.058103911144742476,-0.12696728189319031,0.011301843978395343,0.05656097450428248,-0.12945167083904568,-0.22303897443530712,-0.09960796183513303,0.21474487218858931
303,16.941135699977167,0.04719255214697394,0.020054426933151282,-0.01835861434494359,0.07025792463567197,0.05835453770276555,-0.12754102428699618,0.010307679812471956,0.056115014075902664,-0.12848917704787893,-0.22390727615686476,-0.10088802542574743,0.21797028247000028
304,16.945495099993423,0.04750519734455099,0.02031457302629764,-0.018927253467722283,0.07030156289787698,0.05860316773456648,-0.12811045310001648,0.00930973571696549,0.05566337138758352,-0.12751238414900315,-0.22473818463551345,-0.10216258083961853,0.22117324784076167
305,16.949779400019906,0.04781802679274729,0.020575820684143997,-0.01949841603596711,0.07034075357161286,0.05884977601705132,-0.12867550494460503,0.008308178938916142,0.05520607120994141,-0.12652139350018315,-0.22553130174312191,-0.10343150874555038,0.22435309228133016
306,16.9538695999654,0.04813102067066319,0.02083816085693487,-0.02007208243819407,0.07037548095978961,0.05909433743849947,-0.12923611689069542,0.00730317846199382,0.05474313884042943,-0.12551630945110964,-0.22628624493765837,-0.10469469167915026,0.22750914659000815
307,16.958405299927108,0.04844415908924255,0.021101584383455333,-0.02064823278400661,0.070405730120828,0.05933682700088902,-0.1297922264790431,0.006294904936724107,0.054274600094747404,-0.12449723931345055,-0.22700264726441702,-0.10595201418641823,0.23064074826510403
308,16.962170399958268,0.04875742209465015,0.021366081991541917,-0.02122684690621937,0.07043148687591973,0.05957721982218226,-0.13034377173433606,0.00528353061158149,0.053800481297545354,-0.12346429333118959,-0.22768015740510777,-0.10720336294646868,0.23374724159330998
309,16.966768999933265,0.049070789671680666,0.02163164429860362,-0.021807904363040004,0.07045273781598425,0.0598154911385683,-0.13089069117817306,0.004269229262778579,0.05332080927274166,-0.1224175846498913,-0.22831844016068711,-0.10844862694369575,0.23682797785307202
310,16.970957499928772,0.049384241747197966,0.021898261812152774,-0.02239138444030838,0.0704694703083043,0.06005161630666246,-0.13143292384190083,0.0032521761210635744,0.052835611332694786,-0.1213572292852302,-0.22891717673677778,-0.10968769772426464,0.23988231550322553
311,16.97462919994723,0.04969775819360315,0.02216592493034561,-0.022977266153792617,0.0704816725028314,0.06028557080565254,-0.13197040927931228,0.0022325477989700994,0.05234491526623941,-0.12028334609057753,-0.22947606476242877,-0.1109204695635437,0.24290962057046184
312,16.979034999967553,0.050011318832329926,0.02243462394253222,-0.023565528251541273,0.07048933333817409,0.06051733023939177,-0.13250308757919535,0.001210522217447764,0.051848749326368515,-0.11919605672208314,-0.2299948184699931,-0.11214683966342387,0.24590926723558784
313,16.982697600033134,0.05032490343736594,0.022704349029815746,-0.02415614921629101,0.07049244254725073,0.06074687033843549,-0.13303089937772056,0.00018627853151161365,0.05134714221651395,-0.11809548560104624,-0.23047316864428502,-0.1133667084324839,0.2488806384320788
314,16.986993700033054,0.05063849173879843,0.022975090265620467,-0.024749107267929015,0.07049099066261624,0.06097416696201203,-0.13355378587065506,-0.0008400029426749502,0.0508401230757359,-0.11698175987367194,-0.23091086239448919,-0.11457997968830587,0.25182312641550597
315,16.991223799996078,0.05095206342638297,0.023246837616268515,-0.025344380366009316,0.07048496902146609,0.061199196099927626,-0.1340716888253921,-0.001868140800121396,0.050327721463203426,-0.11585500936837584,-0.2313076629208099,-0.11578656075153476,0.2547361332088523
316,16.995537900016643,0.05126559815313362,0.023519580941564915,-0.025941946212322237,0.07047436977031961,0.06142193387439923,-0.13458455059278532,-0.002897952617851014,0.0498099673425471,-0.1147153665515785,-0.23166334910913217,-0.1169863623220169,0.25761907088513364
317,17.000114399939775,0.051579075538933344,0.023793309995390605,-0.026541782253516007,0.07045918586939376,0.0616423565418202,-0.13509231411878478,-0.003929255023615831,0.04928689106744154,-0.11356296648249563,-0.23197771524402305,-0.11817929823764482,0.26047136198254583
318,17.003777000005357,0.0518924751741631,0.02406801442630319,-0.027143865683769735,0.07043941109667505,0.06186044049446484,-0.13559492295586908,-0.0049618637641841296,0.04875852336810359,-0.11239794676523894,-0.2322505709708628,-0.11936528519393777,0.26329244012300057
319,17.00794009992387,0.05220577662334845,0.02434368377814512,-0.027748173447516736,0.07041504005168574,0.06207616226213396,-0.13609232127425533,-0.005995593773718442,0.04822489533936978,-0.1112204474981032,-0.23248174105951383,-0.12054424226032781,0.2660817504297335
320,17.01221740001347,0.052518959428822176,0.024620307490659087,-0.02835468224221724,0.0703860681589474,0.062289498513753344,-0.1365844538728799,-0.007030259239960428,0.04768603843149811,-0.11003061122195165,-0.2326710653536532,-0.12171609033930422,0.2688387497618816
321,17.016091199941002,0.0528320031144017,0.024897874900110434,-0.028963368521179405,0.07035249167115831,0.06250042605893749,-0.13707126619014928,-0.008065673672158076,0.047141984443057505,-0.108828582867416,-0.23281839918557895,-0.1228807515948715,0.2715629070539072
322,17.020479499944486,0.05314488718907997,0.025176375239916452,-0.029574208496427692,0.07031430767205261,0.0627089218495248,-0.13755270431445107,-0.009101649970941126,0.046592765516814634,-0.10761450970026196,-0.23292361333764044,-0.12403814871698876,0.2742537035740122
323,17.024382899980992,0.053457591150728324,0.02545579764128245,-0.03018717814161739,0.07027151407895603,0.0629149629811047,-0.1380287149944187,-0.010138000495905113,0.04603841413916766,-0.10638854126629015,-0.23298659412867054,-0.1251882044453228,0.2769106330163564
324,17.028719799942337,0.053770094489810114,0.025736131133844643,-0.030802253194994304,0.07022410964504378,0.06311852669454784,-0.13849924564895227,-0.01117453713625578,0.045478963140270244,-0.10515082933588117,-0.23300724410562132,-0.12633084128417238,0.2795332016213357
325,17.03271409997251,0.054082376693103645,0.026017364646319836,-0.03141940916239845,0.0701720939612677,0.0633195903775343,-0.13896424437698982,-0.012211071384546619,0.04491444569600161,-0.10390152784782636,-0.2329854822890125,-0.12746598103760567,0.2821209282954934
326,17.036930299946107,0.054394417247432957,0.026299487007161906,-0.03203862132031068,0.07011546745795816,0.0635181315661013,-0.13942365996702843,-0.013247414409507047,0.044344895332226436,-0.10264079285280603,-0.23292124439926923,-0.12859354462678535,0.28467334464623256
327,17.041677900007926,0.054706195643405016,0.026582486945225258,-0.03265986471894106,0.07005423140610323,0.0637141279462093,-0.13987744190639273,-0.014283377131793682,0.04377034592839022,-0.10136878245691137,-0.23281448363671953,-0.12971345216096725,0.28718999493518504
328,17.045209000003524,0.05501769137915187,0.026866353090435238,-0.033283114185358,0.0699883879182766,0.06390755735532175,-0.14032554039025338,-0.015318770303758163,0.04319083172114746,-0.10008565676553761,-0.2326651713393926,-0.1308256229275071,0.28967043583030716
329,17.049852899974212,0.055328883964076106,0.027151073974465645,-0.03390834432665685,0.0699179399492071,0.06409839778400343,-0.14076790633039643,-0.016353404591050887,0.042606387308045925,-0.09879157782911148,-0.23247329734891328,-0.13192997557226768,0.2921142360875026
330,17.053729299921542,0.05563975292259806,0.027436638031423367,-0.034535529533167006,0.06984289129598054,0.06428662737753298,-0.14120449136375898,-0.017387090655644193,0.04201704764954977,-0.09748670958981698,-0.23223887021772893,-0.13302642844516868,0.2945209765962003
331,17.058125299983658,0.055950277797903084,0.027723033598540236,-0.03516464398169653,0.06976324659787057,0.06447222443751924,-0.1416352478607245,-0.0184196392392798,0.04142284806964944,-0.09617121782691737,-0.23196191705096944,-0.13411489979865562,0.296890250420729
332,17.062278699944727,0.05626043815568724,0.02801024891687205,-0.03579566163881302,0.06967901133579818,0.0646551674235192,-0.1420601289331721,-0.019450861245085018,0.04082382425611898,-0.09484527010311283,-0.23164248321997802,-0.13519530794408002,0.2992216626828607
333,17.066407899954356,0.05657021358789975,0.028298272132004813,-0.03642855626415983,0.0695901918314363,0.0648354349546567,-0.14247908844229448,-0.02048056781847147,0.04022001225973466,-0.09350903571090743,-0.23128063242226798,-0.1362675715912948,0.3015148306242211
334,17.071249799919315,0.05687958371648076,0.02858709129476817,-0.037063301413806496,0.0694967952459496,0.0650130058112333,-0.1428920810061701,-0.021508570429284727,0.03961144849151085,-0.09216268561841154,-0.23087644657422793,-0.13733161028765575,0.30376938345866583
335,17.07544289994985,0.057188528197092546,0.028876694361955977,-0.03769987044363236,0.06939882957836818,0.06518785893632248,-0.14329906200709894,-0.02253468095174843,0.03899816971801288,-0.0908063924170222,-0.23043002547345698,-0.1383873447190449,0.3059849621415644
336,17.078956799930893,0.0574970267228428,0.029167069197053908,-0.03833823651274226,0.06929630366361614,0.0653599734373388,-0.14369998759870914,-0.023558711743609725,0.03838021305591468,-0.08944033026927822,-0.22994148666253872,-0.13943469705437322,0.3081612197982802
337,17.084769899956882,0.057805059027998325,0.029458203570974,-0.038978372586913335,0.0691892271701811,0.06552932858758366,-0.14409481471282887,-0.02458047572487136,0.03775761596424658,-0.08806467485272841,-0.22941096558753246,-0.14047359185075786,0.3102978233300996
338,17.091411600005813,0.058112604891687576,0.029750085162796005,-0.03962025144207188,0.06907761059744223,0.06569590382774548,-0.1444835010660935,-0.025599786458347224,0.03713041623089962,-0.08667960329349861,-0.2288386167587646,-0.14150395717363953,0.31239445614816774
339,17.09543400001712,0.05841964414159058,0.030042701560515285,-0.04026384566779896,0.06896146527262317,0.0658596787673254,-0.1448660051662265,-0.02661645823872205,0.03649865195490757,-0.08528529408583603,-0.2282246149039074,-0.1425257252118006,0.31445082045334877
340,17.09949329996016,0.05872615665761436,0.03033604026179685,-0.040909127670863125,0.06884080334732762,0.06602063318597985,-0.1452422863179307,-0.027630306183365913,0.03586236152747946,-0.08388192700539239,-0.22756915417044718,-0.14353883215885516,0.3164666368136973
341,17.10433459992055,0.05903212237555205,0.03063008867473519,-0.04155606967877842,0.06871563779368427,0.06617874703477744,-0.14561230462839775,-0.028641146314298253,0.035221583615335963,-0.08246968303252744,-0.22687244552534297,-0.14454321730754285,0.3184416413239357
342,17.108078200020827,0.059337521290724,0.03092483411861951,-0.04220464374338616,0.0685859824001532,0.06633400043739332,-0.14597602101251697,-0.029648795625867103,0.03457635714980002,-0.08104874429086431,-0.22613471376863276,-0.14553882174342345,0.3203755826604334
343,17.11220009997487,0.05964233346159959,0.031220263824704168,-0.04285482174445924,0.0684518517670687,0.06648637369126899,-0.1463333971978381,-0.03065307214014309,0.03392672132175546,-0.07961929399679496,-0.22535619568012558,-0.1465255871632212,0.3222682202108894
344,17.116729100001976,0.0599465390133987,0.031516364936984245,-0.043506575393328084,0.0683132613019527,0.0666358472687618,-0.14668439572933104,-0.031653794958109736,0.03327271558125083,-0.07818151641467577,-0.22453713946925005,-0.14750345515460936,0.32411932355925355
345,17.120651499950327,0.060250118141671784,0.031813124512976215,-0.044159876236527326,0.06817022721460225,0.06678240181830127,-0.14702897997394976,-0.032650784310162745,0.03261437963886578,-0.07673559681091568,-0.22367780468669007,-0.14847236667025604,0.3259286724180411
346,17.124613899970427,0.06055305111585766,0.03211052952450378,-0.04481469565946232,0.06802276651195369,0.06692601816555069,-0.1473671141249837,-0.03364386160651413,0.03195175346999435,-0.07528172140977397,-0.22277846223298123,-0.14943226117559055,0.327696056186185
347,17.128718000021763,0.0608553182828179,0.03240856685848889,-0.045471004890094556,0.06787089699272154,0.06706667731460159,-0.1476987632062285,-0.03463284948776798,0.03128487732379369,-0.07382007735138219,-0.22183939438848738,-0.1503830760073099,0.32942127394587606
348,17.132936000009067,0.061156900070346895,0.03270722331774821,-0.046128775002645284,0.06771463724181284,0.06720436044921496,-0.14802389307596364,-0.035617571875591295,0.0306137917331747,-0.07235085264757003,-0.22086089486266067,-0.15132474603396226,0.331104134634026
349,17.137050300021656,0.06145777699065657,0.03300648562179517,-0.04678797692131631,0.06755400662451516,0.06733904893410458,-0.1483424704307304,-0.03659785402372802,0.02993853752677058,-0.07087423613836182,-0.2198432690400246,-0.15225720314786478,0.332744456931823
350,17.141186599968933,0.06175792964383473,0.033306340407647864,-0.047448581424027234,0.06738902528045704,0.06747072431628476,-0.14865446280892242,-0.03757352257085838,0.029259155843447873,-0.06939041744878495,-0.21878683423771259,-0.1531803757302086,0.33434206950911377
351,17.146311299991794,0.06205733872127605,0.03360677423064307,-0.04811055914616819,0.06721971411732576,0.06759936832648271,-0.14895983859417922,-0.03854440559390426,0.028575688149033992,-0.0678995869431921,-0.21769191965497647,-0.15409418807320258,0.33589681148059447
352,17.149923100019805,0.062355985009084514,0.03390777356525674,-0.04877388058436729,0.0670460948043535,0.06772496288063518,-0.14925856701857054,-0.03951033266043932,0.027888176255969465,-0.066401935678011,-0.21655886648100856,-0.15499856015233274,0.33740853228764756
353,17.1541159999324,0.06265384939144646,0.03420932480593132,-0.04943851610027167,0.06686818976556883,0.06784749008147564,-0.14955061816556942,-0.040471134882953654,0.027196662342061674,-0.06489765535711785,-0.21538802821191966,-0.15589340765809664,0.3388770915198606
354,17.157843100023456,0.06295091285397297,0.03451141426791036,-0.05010443592434139,0.06668602217280002,0.06796693222019778,-0.14983596297283944,-0.041426644974084055,0.026501188969854757,-0.06338693828617507,-0.214179770708773,-0.15677864174844988,0.3403023594259069
355,17.16220030002296,0.0632471564870107,0.034814028188080645,-0.05077161015965532,0.06649961593843523,0.06808327177821503,-0.1501145732348016,-0.04237669730139504,0.02580179910758584,-0.06186997732345947,-0.21293447211850994,-0.15765416882282077,0.34168421710254765
356,17.16668739996385,0.06354256148891979,0.03511715272582245,-0.05144000878572782,0.06630899570793838,0.06819649142901048,-0.15038642160498408,-0.04332112794190557,0.02509853615056553,-0.060346965832518355,-0.21165252247106758,-0.15851989030471236,0.34302255651566455
357,17.170315099996515,0.06383710916931816,0.03542077396386814,-0.05210960166233555,0.06611418685212421,0.06830657404008664,-0.15065148159816788,-0.04425977473328561,0.024391443944068347,-0.058818097632810595,-0.21033432252630024,-0.15937570236575122,0.34431728108898263
358,17.174647399922833,0.0641307809522907,0.035724877909169755,-0.05278035853335328,0.06591521545921868,0.06841350267501903,-0.15090972759229743,-0.0451924773181239,0.02368056680716836,-0.057283566947124887,-0.20898028274783628,-0.16022149564131674,0.34556830628543356
359,17.17873599997256,0.06442355837956287,0.0360294504937759,-0.05345224903059763,0.06571210832674014,0.06851726059561801,-0.1511611348301584,-0.04611907718599488,0.02296594955815967,-0.055743568347048356,-0.20759082292017547,-0.1610571550122689,0.346775560240059
360,17.182997899944894,0.06471542311363772,0.036334477575718546,-0.05412524267767785,0.06550489295318553,0.0686178312642085,-0.15140567942080316,-0.04703941771431979,0.022247637540334025,-0.054198296694753914,-0.20616637153875297,-0.16188255984145514,0.3479389841025866
361,17.18747969996184,0.06500635694089546,0.03663994493991022,-0.054799308893852254,0.06529359752954793,0.0687151983460212,-0.1516433383407107,-0.04795334420500696,0.021525676645297084,-0.052647947085420935,-0.20470736561077846,-0.162697584605562,0.3490585317025665
362,17.191131499945186,0.06529634177465507,0.03694583829905207,-0.055474416997889284,0.0650782509306768,0.06880934571167971,-0.15187408943469977,-0.04886070392354096,0.020800113333124443,-0.0510927147920019,-0.2032142509718594,-0.16350209958377054,0.35013416941262154
363,17.195804100017995,0.06558535965819698,0.03725214329455318,-0.05615053621193209,0.0648588827064478,0.06890025743977109,-0.15209791141659734,-0.049761346138439924,0.020070994649550918,-0.04953279520885974,-0.20168748218730168,-0.16429597157674353,0.35116587629642204
364,17.19988710002508,0.06587339276774609,0.037558845497461524,-0.056827635665365535,0.06463552307277187,0.06898791781948595,-0.1523147838696504,-0.05065512215946657,0.019338368239729717,-0.04796838379521795,-0.20012752235381615,-0.16507906463700803,0.3521536440876435
365,17.203905600006692,0.0661604234154145,0.037865930409406744,-0.05750568439868444,0.06440820290242519,0.06907231135331139,-0.15252468724669116,-0.05154188537532127,0.018602282358923493,-0.04639967601898515,-0.19853484266788576,-0.16585124060981388,0.35309747740630887
366,17.208466399926692,0.06644643405210293,0.038173383463555075,-0.05818465136736206,0.06417695371572286,0.06915342275976623,-0.15272760287004916,-0.05242149128801284,0.01786278588145149,-0.04482686729828037,-0.19690992177515698,-0.16661235945853006,0.35399739399758173
367,17.21253949997481,0.06673140727036045,0.03848119002557647,-0.05886450544571755,0.06394180767104306,0.06923123697617352,-0.15292351293119621,-0.053293797544763155,0.01711992830848554,-0.043250152943133106,-0.1952532449609809,-0.16736227953060356,0.35485342461184105
368,17.21643279993441,0.06701532580720161,0.038789335394624175,-0.05954521543078127,0.06370279755521688,0.06930573916146515,-0.15311240049013972,-0.054158663965176115,0.01637375977463095,-0.04166972809807555,-0.19356530348174722,-0.16810085783298706,0.35566561293560495
369,17.221774799982086,0.0672981725468807,0.03909780480432681,-0.060226750046156866,0.06345995677381074,0.06937691469901294,-0.15329424947455694,-0.05501595256719315,0.015624331053272036,-0.04008578768445722,-0.19184659444707391,-0.16882795028004,0.3564340154554879
370,17.22554230003152,0.06757993052362236,0.03940658342379315,-0.06090907794587887,0.06321331934128534,0.06944474919948077,-0.1534690446786751,-0.05586552759321405,0.014871693560947414,-0.03849852634424758,-0.19009762064079877,-0.16954341187954383,0.3571587011401661
371,17.229453600011766,0.06786058292430834,0.039715656358629545,-0.061592167718264805,0.06296291987104563,0.06950922850369458,-0.15363677176190557,-0.05670725553445978,0.014115899361040544,-0.03690813838518023,-0.1883188903842343,-0.17024709692870926,0.3578397510469612
372,17.232919799978845,0.06814011309111956,0.04002500865197026,-0.06227598788976066,0.06270879356538304,0.0695703386855274,-0.15379741724723603,-0.0575410051558767,0.013357001166411165,-0.03531481772805575,-0.18651091789101434,-0.17093885927242197,0.3584772575658628
373,17.237165599945,0.06841850452413335,0.04033462528552059,-0.06296050692877866,0.06245097620530386,0.06962806605479271,-0.15395096851939577,-0.05836664752365648,0.012595052340788199,-0.03371875785861185,-0.18467422371941647,-0.17161855245051133,0.3590713234903326
374,17.241541299968958,0.0686957408838751,0.040644491180612884,-0.06364569324952644,0.062189504140226615,0.06968239716014189,-0.15409741382281955,-0.05918405603416463,0.01183010690009094,-0.032120151783093284,-0.18280933473370714,-0.17228602964743342,0.3596220614959042
375,17.24543100001756,0.06897180599382377,0.04095459119927546,-0.0643315152158267,0.061924414277553075,0.06973331879196933,-0.15423674225941775,-0.05999310644111649,0.01106221951426963,-0.0305191919847609,-0.18091678388718202,-0.17294114348609615,0.3601295937558814
376,17.249912000028417,0.06924668384287075,0.04126491014531451,-0.06501794114492648,0.06165574407212387,0.06978081798532619,-0.15436894378615318,-0.060793676882575476,0.010291445510460993,-0.028916070382880722,-0.17899711008418942,-0.17358374571280755,0.36059405104510517
377,17.253609300008975,0.06952035858773159,0.041575432765408905,-0.06570493931129537,0.06138353151554926,0.06982488202285371,-0.1544940092124464,-0.0615856479069015,0.009517840877631828,-0.027310978297206787,-0.17705085796334746,-0.17421368713766883,0.36101557180479743
378,17.258336100028828,0.06979281455530993,0.04188614375021819,-0.06639247795041162,0.06110781512543391,0.0698654984377382,-0.15461193019743658,-0.06236890249782047,0.008741462270264868,-0.025704106415290338,-0.17507857795636514,-0.17483081755568056,0.361394301717235
379,17.26216379995458,0.07006403624501335,0.0421970277355037,-0.06708052526253595,0.0608286339344846,0.06990265501667715,-0.15472269924709584,-0.06314332610089606,0.0079623670137043,-0.02409564476074679,-0.1730808263673694,-0.17543498534368113,0.3617303929283822
380,17.266930599929765,0.0703340083310204,0.042508069303262945,-0.0677690494164721,0.060546027479499484,0.0699363398028818,-0.15482630971120787,-0.06390880664930497,0.007180613111427662,-0.022485782667481198,-0.1710581652154785,-0.1760260373805775,0.3620240029826486
381,17.270899399998598,0.07060271566449845,0.04281925298287744,-0.06845801855331367,0.06026003579024649,0.06996654109910792,-0.154922755780253,-0.06466523458890809,0.0063962592511010805,-0.020874708757432685,-0.16901116181998396,-0.17660381906733158,0.36227529429167044
382,17.27485429996159,0.07087014327577185,0.04313056325227404,-0.06914740079017694,0.0599706993782295,0.0699932474707123,-0.1550120324821887,-0.06541250290033511,0.005609364811673344,-0.019262610919526184,-0.16694038813089684,-0.1771681741104401,0.3624844334263691
383,17.27979099994991,0.07113627637643977,0.04344198453909996,-0.06983716422391913,0.05967805922537028,0.07001644774874659,-0.15509413567914745,-0.0661505071180995,0.0048199898713575245,-0.017649676293715447,-0.16484642021737006,-0.17771894428472676,0.3626515903266091
384,17.283378700027242,0.07140110036144365,0.04375350122191167,-0.07052727693484183,0.059382156772604576,0.07003613103308484,-0.15516906206407527,-0.06687914534813165,0.004028195216835497,-0.016036091256966468,-0.1627298377542653,-0.1782559693262224,0.36277693792671617
385,17.28704939992167,0.07166460081108365,0.04406509763137771,-0.07121770699037933,0.05908303390840808,0.07005228669559925,-0.15523680915730484,-0.0675983182823258,0.0032340423521926057,-0.014422041410632264,-0.16059122362795117,-0.17877908719707283,0.36286065172348914
386,17.291581099969335,0.07192676349298396,0.044376758051495845,-0.07190842244877155,0.05878073295726307,0.07006490438336714,-0.15529737530308174,-0.06830792921256598,0.002437593505765297,-0.012807711570279715,-0.15843116356296263,-0.1792881341642573,0.36290290942065184
387,17.295225200010464,0.07218757436400665,0.044688466720824424,-0.07259939136272149,0.0584752966680596,0.07007397402190767,-0.15535075966604708,-0.06900788404195128,0.001638911638375423,-0.011193285756227661,-0.15625024521515363,-0.17978294460410724,0.3629038903376749
388,17.299505800008774,0.07244701957211376,0.045000207833728316,-0.07329058178303688,0.05816676820246227,0.07007948581846206,-0.1553969622276795,-0.06969809129075356,0.0008380604519170725,-0.009578947188633466,-0.15404905732350266,-0.18026335085328446,0.36286377383329954
389,17.302941899979487,0.0727050854581777,0.04531196554163947,-0.07398196176225592,0.05785519112325841,0.07008143026530671,-0.15543598378273416,-0.07037846210009636,3.510439891673174e-05,-0.007964878292057062,-0.1518281888045943,-0.18072918272524915,0.3627827375912633
390,17.306752000004053,0.07296175855773968,0.04562372395433232,-0.0746734993582573,0.05754060938269213,0.07007979814311847,-0.15546782593572522,-0.07104891022985614,-0.0007698913045778942,-0.006351260705799456,-0.14958822762950427,-0.18118026745257987,0.36266095712835167
391,17.31216480000876,0.07321702560271622,0.04593546714121428,-0.07536516263785463,0.057223067310831134,0.07007458052440245,-0.15549249109745694,-0.07170935205234881,-0.001576860668924539,-0.0047382752928436436,-0.1473297612566784,-0.1816164310858496,0.3624986073891063
392,17.316153099993244,0.07347087352305416,0.04624717913263164,-0.07605691968037556,0.056902609603956995,0.07006576877694688,-0.1555099824815857,-0.07235970655408233,-0.0023857369304433854,-0.00312610213600496,-0.14505337824802703,-0.18203750044318098,0.36229586662915736
393,17.320853299926966,0.07372328944833392,0.04655884392119084,-0.07674873858122569,0.056579281312916355,0.07005335456725488,-0.15552030410111675,-0.07299989534382167,-0.003196452558688963,-0.0015149205123218988,-0.14275966858431674,-0.18244330416672322,0.36205291919298915
394,17.325427199946716,0.07397426070932077,0.04687044546309486,-0.07744058745543647,0.056253127831439424,0.07003732986393464,-0.15552346076473847,-0.07362984265714745,-0.004008939265406656,9.509113550738197e-05,-0.14044922293585285,-0.18283367278997473,0.3617699546457566
395,17.329237599973567,0.07422377483946418,0.04718196767949464,-0.07813243444119651,0.055924194884450655,0.07001768694105147,-0.15551945807306494,-0.07424947535803211,-0.004823128012403576,0.0017037552170099974,-0.13812263213072312,-0.18320843838240983,0.361447166279211
396,17.33337719994597,0.07447181957634516,0.047493394457855345,-0.07882424770336606,0.0555925285163732,0.06999441838144797,-0.15550830241481114,-0.07485872293866756,-0.0056389490173433,0.00331089500920901,-0.1357804867215036,-0.18356743394094435,0.36108475055663725
397,17.3372023999691,0.07471838286307149,0.0478047096533373,-0.07951599543697427,0.055258175079441134,0.06996751708004453,-0.1554900009628996,-0.07545751751718631,-0.006456331756202602,0.004916334669569968,-0.133423376668978,-0.1839104930433286,0.36068290666017866
398,17.341370099922642,0.07496345284962107,0.04811589709019161,-0.08020764587069905,0.05492118122202416,0.06993697624713764,-0.15546456167052045,-0.07604579383467511,-0.007275204965982421,0.00651989924724411,-0.131051891520352,-0.1842374498385041,0.360241836452617
399,17.34535950003192,0.07520701789413332,0.04842694056317044,-0.08089916727032927,0.05458159387696643,0.06990278941167624,-0.15543199326713797,-0.07662348925448172,-0.008095496647078792,0.008121414695674864,-0.1286666206456713,-0.1845481387319053,0.35976174471195066
400,17.350659899995662,0.07544906656414876,0.04873782383895181,-0.08159052794220908,0.0542394602499174,0.06986495042453898,-0.15539230525443856,-0.07719054376133194,-0.00891713406319394,0.0097207078859281,-0.1262681530205926,-0.1848423943752911,0.35924283913455035
401,17.35421719995793,0.07568958763779658,0.04904853065757901,-0.08228169623666409,0.05389482780767852,0.06982345346181135,-0.1553455079022187,-0.07774689995870371,-0.00974004374361674,0.011317606619326704,-0.12385707726628246,-0.18512005149931401,0.35868533033165206
402,17.358743699966,0.07592857010493052,0.04935904473391455,-0.08297264055140907,0.05354774426655745,0.06977829302804262,-0.15529161224422044,-0.07829250306829907,-0.010564151481644175,0.012911939640749628,-0.12143398151108571,-0.18538094408566066,0.3580894321267001
403,17.36239070002921,0.07616600316821288,0.049669349759108576,-0.08366332933493707,0.05319825758071942,0.06972946395953704,-0.15523063007390106,-0.07882730092618757,-0.011389382329496312,0.014503536653911929,-0.11899945272097602,-0.18562490546540633,0.3574553615560477
404,17.36622119997628,0.07640187624414674,0.04997942940208207,-0.08435373108988954,0.05284641593057581,0.06967696142765605,-0.1551625739401326,-0.07935124397632123,-0.012215660597612822,0.016092228334670063,-0.11655407640343571,-0.1858517684182458,0.356783338925762
405,17.370258199982345,0.07663617896405663,0.05028926731102466,-0.08504381437640714,0.05249226771119316,0.06962078094211567,-0.15508745714285324,-0.07986428526404332,-0.013042909850450812,0.017677846346807306,-0.11409843619423819,-0.18606136441388477,0.3560735883463471
406,17.374720599967986,0.07686890117501766,0.05059884711490718,-0.08573354781546116,0.052135861520739527,0.06956091835432615,-0.15500529372862626,-0.08036638042592696,-0.013871052899031993,0.019260223360096498,-0.11163311340372187,-0.1862535236600774,0.3553263372772642
407,17.37851079995744,0.0771000329407334,0.050908152425009165,-0.08642290009216488,0.051777246148983894,0.06949736986075566,-0.15491609848613075,-0.08085748767924707,-0.014700011797167898,0.02083919306203305,-0.10915868676054687,-0.18642807542907205,0.35454181631164133
408,17.382935300003737,0.0773295645423627,0.05121716683646132,-0.08711183995906482,0.051416470565836196,0.0694301320063035,-0.15481988694161625,-0.08133756780953916,-0.015529707836911447,0.022414590173982247,-0.10667573201863666,-0.1865848477516777,0.35372026002341417
409,17.387034900020808,0.07755748647929554,0.05152587392980307,-0.08780033623941165,0.05105358390995743,0.06935920168770429,-0.1547166753542497,-0.08180658415657424,-0.016360061542060267,0.023986250470449277,-0.1041848219556011,-0.1867236672784117,0.35286190643365545
410,17.39114940003492,0.07778378946987857,0.0518342572725553,-0.08848835783041008,0.050688635477424436,0.06928457615695895,-0.15460648071139874,-0.0822645026019036,-0.017190992662372884,0.025554010790478462,-0.10168652623563572,-0.18684435934103627,0.35196699618587085
411,17.395596000016667,0.07800846445209014,0.052142300420808425,-0.08917587370644778,0.05032167471045085,0.06920625302479036,-0.1544893207238771,-0.08271129155361388,-0.01802242016761954,0.02711770904958588,-0.09918141077977097,-0.18694674792082533,0.35103577331179436
412,17.39934100001119,0.07823150258416542,0.05244998692082588,-0.08986285292230299,0.0499527511861875,0.0691242302641273,-0.15436521382112187,-0.08314692192826899,-0.018854262241516047,0.028677184257971885,-0.09667003746870553,-0.1870306556980052,0.35006848602102925
413,17.40373909997288,0.07845289524517182,0.05275730031066317,-0.09054926461633052,0.04958191460560403,0.06903850621361404,-0.1542341791462768,-0.08357136713302125,-0.01968643627621448,0.030232276539479186,-0.09415296396582407,-0.1870959042006014,0.34906538672138576
414,17.407715699984692,0.0786726340355352,0.05306422412180261,-0.0912350780136256,0.04920921478244846,0.06894907958114331,-0.15409623655120083,-0.08398460304597873,-0.02051885886756133,0.031782827149986315,-0.09163074336357423,-0.18714231411878718,0.34802673215387525
415,17.41198540001642,0.07889071077751707,0.053370741880803804,-0.09192026242916548,0.04883470163230347,0.06885594944740808,-0.15395140659138792,-0.08438660799517016,-0.021351445812384958,0.03332867849756675,-0.08910392435992484,-0.18716970553227028,0.34695278335659596
416,17.416300599928945,0.07910711751564337,0.05367683711096997,-0.09260478727092812,0.048458425161733105,0.06875911526945866,-0.15379971052079605,-0.08477736274048223,-0.022184112105776817,0.03486967416056108,-0.08657305161304492,-0.18717789800830023,0.3458438059203489
417,17.42155740002636,0.07932184651708517,0.05398249333403007,-0.09328862204298773,0.048080435457499786,0.06865857688427868,-0.15364117028660632,-0.08515685045578013,-0.023016771939250877,0.03640565891001034,-0.08403866574156094,-0.18716671146862418,0.34470007203602204
418,17.430352499941364,0.07953489027199152,0.05428769407183696,-0.09397173634858683,0.04770078267587008,0.06855433451235854,-0.15347580852385237,-0.08552505671084708,-0.02384933870573817,0.03793647874594379,-0.08150130356097,-0.18713596760852166,0.3435218634311953
419,17.435099499998614,0.07974624149377497,0.054592422848081315,-0.09465409989318406,0.04731951703199237,0.068446388761227,-0.15330364854985665,-0.08588196945560828,-0.02468172501037141,0.03946198094593932,-0.07896149849758119,-0.18708549098098393,0.3423094729090944
420,17.43913389998488,0.07995589311934992,0.05489666319002119,-0.09533568248747672,0.04693668878934303,0.06833474062892862,-0.15312471435842775,-0.08622757900575326,-0.025513842685125496,0.040982014115103334,-0.07641978080468059,-0.18701510971482507,0.3410632044075041
421,17.44287099991925,0.08016383830932422,0.05520039863022689,-0.09601645405039691,0.04655234824923198,0.06821939150742515,-0.15293903061385203,-0.08656187802888309,-0.02634560280599119,0.04249642823515528,-0.07387667744524032,-0.18692465562425384,0.33978337297702393
422,17.449476499925368,0.0803700704481442,0.055503612708340776,-0.09669638461208066,0.046166545740372114,0.06810034318592013,-0.15274662264465422,-0.08688486152908916,-0.02717691570859048,0.044005074714214096,-0.07133271171690735,-0.18681396414926582,0.33847030470217426
423,17.453572800033726,0.08057458314419347,0.05580628897285174,-0.09737544431680856,0.045779331608522066,0.06797759785412137,-0.1525475164371461,-0.0871965268297639,-0.02800769100481993,0.04550780643518082,-0.0687884030153267,-0.18668287494647218,0.33712433715653134
424,17.458030699985102,0.08077737022984573,0.05610841098288403,-0.09805360342591744,0.04539075620620857,0.06785115810541749,-0.15234173862875666,-0.08749687355607391,-0.028837837603722657,0.047004477809574376,-0.06624426677584774,-0.1865312320575813,0.33574581936379994
425,17.461812200024724,0.08097842576147218,0.05640996230999997,-0.09873083232068174,0.04500086988252516,0.06772102693995465,-0.1521293165011018,-0.08778590361725194,-0.02966726372963066,0.04849494482556785,-0.06370081405880454,-0.18635888270617862,0.3343351091150732
426,17.466232299921103,0.08117774401940361,0.056710926540016186,-0.09940710150516345,0.04460972297301209,0.06758720776765173,-0.15191027797288714,-0.08806362118538029,-0.030495876932331734,0.04997906507795587,-0.06115855072235376,-0.1861656761062543,0.332892569739096
427,17.470442999969237,0.0813753195078477,0.05701128727483313,-0.10008238160903038,0.04421736578964378,0.0674497044111866,-0.15168465159271097,-0.08833003267032355,-0.03132358409461123,0.05145669778745584,-0.05861797691036903,-0.1859514632649688,0.33141856878280307
428,17.47454560000915,0.08157114695476202,0.057311028134277874,-0.10075664339034208,0.04382384861093176,0.06730852110894417,-0.15145246653179545,-0.08858514669395573,-0.03215029144066417,0.05292770381893605,-0.056079586854858005,-0.18571609694303165,0.32991347739665267
429,17.479153399937786,0.08176522131168334,0.057610132757959884,-0.1014298577383034,0.043429221672141444,0.06716366251792782,-0.15121375257662742,-0.08882897406333513,-0.0329759045432845,0.054391945695248196,-0.05354386852145971,-0.18545943150778008,0.3283776690379582
430,17.482855699956417,0.0819575377535136,0.0579085848071397,-0.10210199567598496,0.043033535155633705,0.06701513371664354,-0.15096854012156644,-0.08906152774177745,-0.03380032833097005,0.055849287603918996,-0.05101130331412156,-0.1851813229226644,0.3268115187615475
431,17.487163899932057,0.08214809167826317,0.05820636796661038,-0.10277302836301093,0.04263683918133904,0.06686294020794807,-0.15071686016142608,-0.08928282281940313,-0.034623467095018214,0.0572995954046717,-0.04848236609438657,-0.18488162894360283,0.3252154032947992
432,17.49183690000791,0.08233687870675219,0.0585034659465915,-0.10344292709821351,0.04223918379736116,0.06670708792186995,-0.15045874428401507,-0.08949287648438209,-0.035445224498377906,0.05874273663678531,-0.045957525063227346,-0.18456020948417157,0.32358970050992897
433,17.496182100032456,0.08252389468227019,0.058799862484635715,-0.10411166332225434,0.041840618970707025,0.06654758321837893,-0.15019422466265311,-0.08969170799242977,-0.03626550358599435,0.060178580521920995,-0.04343724158423387,-0.1842169266755709,0.3219347885740397
434,17.500629000016488,0.0827091356701949,0.059095541347547416,-0.10477920862021241,0.0414411945781618,0.06638443289011493,-0.14992333404868688,-0.08987933863647872,-0.03708420679419452,0.061606997963919295,-0.0409219706361994,-0.1838516450436884,0.3202510458309567
435,17.504216099972837,0.08289259795757081,0.05939048633331353,-0.10544553472413884,0.0410409603972887,0.06621764416507397,-0.1496461057640076,-0.09005579172020131,-0.0379012359626073,0.06302786155057523,-0.038412160990637816,-0.18346423199018216,0.31853885078299665
436,17.508519100025296,0.08307427805264779,0.05968468127304609,-0.10611061351557827,0.0406399660975396,0.06604722470923109,-0.14936257369355133,-0.09022109252926072,-0.038716492347829125,0.06444104555327328,-0.035908254896817766,-0.1830545580891226,0.3167985811824554
437,17.51225099992007,0.08325417268438058,0.059978110032936384,-0.10677441702805689,0.04023826123151058,0.06587318262910467,-0.1490727722778197,-0.0903752683020314,-0.039529876637983366,0.06584642592067945,-0.03341068871177233,-0.1826224973343657,0.3150306137987876
438,17.516180599923246,0.08343227880188966,0.06027075651622033,-0.10743691744953728,0.03983589522631304,0.06569552647424984,-0.14877673650543638,-0.09051834820645521,-0.04034128896858685,0.06724388027630486,-0.03091989349192455,-0.18216792746424587,0.31323532530151565
439,17.52138589997776,0.08360859357388395,0.06056260466515481,-0.10809808712484023,0.039432917375035216,0.06551426523968161,-0.1484745019056895,-0.09065036331602568,-0.04115062893999806,0.06863328792005305,-0.028436294579144546,-0.18169073032483862,0.3114130922988007
440,17.524840999976732,0.08378311438804567,0.0608536384630046,-0.10875789855803324,0.03902937682832691,0.06532940836821306,-0.1481661045410743,-0.09077134658296121,-0.041957795636515596,0.07001452982612673,-0.02596031171901066,-0.1811907924020562,0.3095642912841428
441,17.529952300013974,0.08395583885037822,0.06114384193603951,-0.10941632441478595,0.0386253225860997,0.06514096575270857,-0.14785158099985418,-0.09088133281524152,-0.04276268764856045,0.0713874886441009,-0.02349235929722882,-0.18066800564144259,0.30768930014939444
442,17.5369989000028,0.08412676478451718,0.06143319915554135,-0.11007333752469249,0.03822080348931598,0.0649489477382246,-0.14753096838859386,-0.09098035865188434,-0.04356520309906821,0.0727520487102909,-0.021032845787370715,-0.18012226828479974,0.3057885001539488
