,time,x,y,z,vx,vy,vz,ax,ay,az,jx,jy,jz
0,12.596870800000032,0.0037566908850764236,-0.007421235088121722,0.028578976239489542,0.0008057598812853106,-0.0059594921436328715,0.010852105493793214,0.014038330420870238,0.020836535326191775,-0.01458849745427715,0.049971563196946206,0.09629833617421887,-0.15524566624218708
1,12.602519699998084,0.003760397615993792,-0.007447427589752153,0.028626901316179468,0.0008684312884568135,-0.005866254404974463,0.010785964472451929,0.014260362649884397,0.02126466809223686,-0.015279247397685925,0.050281205946958105,0.09701484058036199,-0.15664690028070738
2,12.608112399990205,0.003764384120909807,-0.007473202905490771,0.028674526652608025,0.0009320891999008112,-0.005771113271606161,0.010716750106269253,0.014483760221107216,0.021695967796950707,-0.015976196817999323,0.05058801937891912,0.09772821027175521,-0.15804479974697622
3,12.612220999988494,0.0037686547828277147,-0.007498552573397698,0.028721838574925027,0.0009967396354915643,-0.005674054746677916,0.010644434968074188,0.014708510440733067,0.022130420143307124,-0.01667933043575092,0.05089193040147913,0.09843825827006637,-0.15943913429699771
4,12.616463699989254,0.0037732140112905913,-0.007523468069675826,0.028768823287944625,0.0010623885581602483,-0.0055750648985024515,0.010568991700635138,0.014934600290780932,0.022568010002206613,-0.01738863194962259,0.05119286578419247,0.09914479610854975,-0.1608296728780785
5,12.620891099999426,0.003778066242125938,-0.00754794080896762,0.028815466875465122,0.0011290418724577824,-0.00547412986425498,0.010490393021190786,0.01516201642871327,0.023008721407038826,-0.0181040840333045,0.051490752241716765,0.09984763429493658,-0.16221618376866187
6,12.624821799996424,0.0037832159371839077,-0.007571962144668351,0.028861755300608874,0.0011967054231168278,-0.005371235853692805,0.010408611725999384,0.015390745187330836,0.023452537550035228,-0.018825668332709804,0.05178551644253277,0.1005465826856681,-0.16359843480313166
7,12.629097299999556,0.003788667584069163,-0.007595523369255851,0.028907674406182405,0.001265384993613685,-0.0052663691528873485,0.010323620694894307,0.015620772574468792,0.02389944078014681,-0.01955336546482613,0.052077084903551604,0.10124145080408069,-0.16497619354150933
8,12.633120300000884,0.0037944256958663625,-0.007618615714636808,0.028953209915056666,0.0013350863047276007,-0.005159516127962553,0.01023539289584352,0.015852084271957872,0.02434941260221547,-0.02028715501643357,0.05236538381044222,0.10193204811739735,-0.16634922731914475
9,12.637564299991936,0.003800494810859254,-0.0076412303525096375,0.02899834743056754,0.0014058150130934607,-0.005050663228834253,0.010143901389516484,0.01608466563372882,0.024802433677305537,-0.02102701554339639,0.05265033885855384,0.10261818431114542,-0.1677173033415664
10,12.641884199998458,0.0038068794922433416,-0.007663358394743906,0.02904307243693656,0.0014775767097443056,-0.004939796992945636,0.010049119333849896,0.016318501683364323,0.02525848382430616,-0.021772924570221255,0.052931875152499114,0.10329966960108838,-0.16908018873455033
11,12.645674499988672,0.003813584327832067,-0.007684990893776292,0.029087370299711854,0.0015503769186423371,-0.00482690404899242,0.009951019988618517,0.01655357711131387,0.025717542023026157,-0.022524858589792487,0.053209917108831155,0.103976314985283,-0.17043765057391627
12,12.65015059999132,0.003820613929756463,-0.007706118843023008,0.029131226266229365,0.0016242210951967597,-0.0047119711206309,0.009849576720003252,0.016789876271583536,0.026179586418029324,-0.02328279306319427,0.053484388340011006,0.10464793239996069,-0.17178945574591464
13,12.653996799999732,0.0038279729341582037,-0.007726733177308614,0.02917462546609426,0.0016991146247654632,-0.004594985030169146,0.00974476300516355,0.017027383177922926,0.026644594323110206,-0.02404670241820908,0.053755211580190206,0.1053143348842087,-0.1731353708673173
14,12.65817049999896,0.003835666000875986,-0.007746824773311141,0.02921755291168265,0.0017750628211390853,-0.004475932702235402,0.009636552436818793,0.017266081499857484,0.027112542226588272,-0.024816560048432017,0.054022308673344885,0.10597533664241454,-0.17447516233020374
15,12.66455169999972,0.003843697813125151,-0.007766384450023395,0.029259993498663595,0.0018520709250075455,-0.004354801167422384,0.009524918727828536,0.01750595455877033,0.027583405796336873,-0.02559233831216597,0.05428560059760755,0.10663075299183332,-0.17580859606762908
16,12.668557600001805,0.0038520730771704785,-0.007785402969230367,0.029301932006541388,0.0019301441024093971,-0.004231577565911128,0.009409835715783686,0.0177469853241501,0.028057159884612926,-0.02637400852946005,0.054545007505195135,0.1072804003064752,-0.17713543729899994
17,12.675294799992116,0.0038607965219920734,-0.007803871036002646,0.02934335309921824,0.0020092874431651216,-0.004106249151072503,0.00929127736761298,0.017989156410026512,0.02853377853258878,-0.02716154097874912,0.054800448719900155,0.10792409589480335,-0.17845545046522
18,12.679951999991316,0.003869872898944281,-0.007821779299205725,0.029384241325577373,0.0020895059592949045,-0.00397880329305091,0.009169217784203931,0.01823245007119598,0.029013234974098464,-0.027954904893317683,0.05505184270654635,0.1085616578150461,-0.17976839904902497
19,12.684148399988771,0.0038793069814075563,-0.007839118352025167,0.02942458112008663,0.0021708045834184933,-0.003849227482332614,0.00904363120504063,0.018476848199386588,0.02949550163853343,-0.028754068456347794,0.05529910710466304,0.10919290460453243,-0.18107404538530175
20,12.691769999990356,0.0038891035644332043,-0.00785587873250752,0.029464356803422666,0.0022531881671389994,-0.0037175093333037847,0.008914492012868563,0.018722332319782015,0.02998055015219106,-0.029558998795702614,0.055542158814554966,0.10981765495408699,-0.18237215079590363
21,12.695545900001887,0.003899267464380932,-0.007872050924117002,0.029503552583115877,0.0023366614794119622,-0.003583636587806882,0.008781774738378628,0.01896888358794899,0.030468351338285942,-0.030369661980168633,0.055780914112119315,0.11043572745969932,-0.18366247565956823
22,12.69997639999201,0.003909803518549139,-0.007887625356307925,0.029542152554216085,0.0024212292049019327,-0.0034475971186986015,0.008645454064905236,0.019216482787378357,0.030958875216098466,-0.03118602301485859,0.0560152887348913,0.11104694049026748,-0.18494477924206532
23,12.707580299989786,0.003920716584797914,-0.007902592405112893,0.029580140699979086,0.0025068959423297536,-0.003309378933413799,0.008505504833151054,0.019465110327174778,0.03145209099981448,-0.032008045835949024,0.05624519790637357,0.11165111219139931,-0.18621881973116822
24,12.712326699998812,0.0039320115411646825,-0.007916942393746804,0.029617500892574193,0.002593666202808677,-0.0031689701775337153,0.008361902045931726,0.01971474623981333,0.031947967097707565,-0.032835693306393,0.056470556396610784,0.11224806058641551,-0.18748435436165162
25,12.716428300002008,0.003943693285472461,-0.007930665593226655,0.029654216893812816,0.0026815444081717712,-0.0030263591383571462,0.008214620872938597,0.019965370179365834,0.03244647111187343,-0.03366892721176498,0.0566912786256584,0.11283760374854222,-0.188741139440007
26,12.720695800002431,0.00395576673493069,-0.00794375222300718,0.029690272355898193,0.0027705348892923245,-0.002881534248471019,0.00806363665552024,0.020216961420174047,0.032947569838937624,-0.03450770825619251,0.056907278790867544,0.11341955998058287,-0.189988930384354
27,12.725107899997964,0.003968236825728613,-0.007956192451632288,0.029725650822196335,0.002860641884399499,-0.002734484089315294,0.00790892491148122,0.02046949885620358,0.033451229271381604,-0.03535199605855464,0.05711847101537953,0.11399374797707171,-0.19122748179440704
28,12.728997300000628,0.003981108512621181,-0.007967976397402278,0.02976033572802826,0.0029518695373930114,-0.0025851973947417922,0.007750461339897304,0.020722961001032575,0.03395741459968691,-0.03620174914903343,0.05732476945724993,0.1145599870538739,-0.19245654747639446
29,12.73433739999018,0.003994386768507504,-0.007979094129056806,0.029794310401483608,0.003044221896158685,-0.0024336630545601034,0.00758822182594477,0.020977325988172327,0.03446609021569523,-0.03705692496553315,0.05752608834441771,0.11511809739768258,-0.19367588042815556
30,12.738139900000531,0.004008076584001837,-0.007989535666473516,0.02982755806425564,0.0031377029108859726,-0.002279870118066648,0.007422182445747338,0.02123257157136574,0.0349772197169628,-0.037917479850099745,0.0577223419547058,0.11566790025563364,-0.1948852329538184
31,12.741837399997166,0.00402218296699712,-0.007999290981382265,0.029860061832497797,0.003232316432386151,-0.002123807797552009,0.007252319471237199,0.021488675124730787,0.03549076591180022,-0.03878336904635592,0.05791344458965674,0.1162092180601134,-0.1960843568484554
32,12.7457424000022,0.004036710942221074,-0.008008349998094823,0.029891804717701774,0.003328066210411115,-0.0019654654717853486,0.007078609375024669,0.02174561364282717,0.036006690824732505,-0.03965454669755645,0.05809931048219861,0.11674187457847227,-0.1972730035428867
33,12.749895999993896,0.004051665550784842,-0.008016702594249974,0.029922769627597202,0.0034249558919721636,-0.0018048326894733707,0.006901028835276446,0.02200336373998182,0.03652495570286519,-0.040530965845306056,0.058279853618208886,0.11726569505771602,-0.19845092430818181
34,12.754155899994656,0.004067051849724187,-0.008024338601573852,0.029952939367072943,0.0035229890196528174,-0.0016418991726883405,0.0067195547405966205,0.02226190164877484,0.037045521022626135,-0.04141257842942633,0.05845498760181779,0.1177805062918718,-0.19961787042542453
35,12.758043299996643,0.004082874911533198,-0.008031247806655407,0.029982296639120012,0.003622169029914193,-0.0014766548202673237,0.006534164194906111,0.02252120321817174,0.037568346496728446,-0.042299335288177524,0.0586246255468462,0.11828613671932377,-0.20077359327056077
36,12.762398999999276,0.004099139823690469,-0.008037419951736863,0.0300108240457961,0.003722499251391273,-0.0013090897111785237,0.00634483452232171,0.02278124391104767,0.03809339108177454,-0.04319118615887711,0.058788679962002335,0.11878241646524582,-0.2019178443891321
37,12.766721899999538,0.0041158516881777095,-0.008042844735519,0.03003850408921172,0.00382398290317635,-0.001139194107853157,0.006151543272030042,0.02304199880130263,0.038620612985594965,-0.04408807967878364,0.05894706271597727,0.11926917723678071,-0.20305037545145257
38,12.7717527999921,0.004133015620990723,-0.008047511813981128,0.03006531917253789,0.0039266230930897405,-0.0009669584594867783,0.005954268223158779,0.023303442571076485,0.03914996967392388,-0.04498996338531823,0.05909968507364028,0.11974625219077946,-0.20417093816281515
39,12.775404499989236,0.0041506367516426935,-0.008051410801215615,0.030091251601035457,0.004030422815938555,-0.0007923734053120188,0.005752987389648633,0.02356554950818484,0.03968141787656621,-0.04589678371615292,0.0592464577621049,0.1202134757841104,-0.20527928422850106
40,12.77912639999704,0.004168720222659742,-0.008054531270276857,0.030116283583105932,0.0041353849517647,-0.0006154297778452782,0.005547679025123791,0.023828293503919306,0.040214913592747065,-0.04680848600912222,0.05938729104688604,0.12067068355158851,-0.20637516520905322
41,12.783295100001853,0.0041872711890686915,-0.008056862754044564,0.030140397231363945,0.004241512264084159,-0.0004361186061120735,0.005338321627764693,0.024091648051158033,0.040750412095311585,-0.047725014501029374,0.05952209479054642,0.12111771183647567,-0.20745833227574906
42,12.787480599989069,0.004206294817877023,-0.008058394746101304,0.030163574563731265,0.0043488073981182585,-0.00025443111885652554,0.005124893945189039,0.02435558624268552,0.04128786793368695,-0.04864631232539167,0.059650778519991246,0.12155439754095991,-0.2085285360908652
43,12.791625999991084,0.004225796287544976,-0.00805911670162422,0.030185797504552487,0.004457272879018062,-7.035874774046825e-05,0.004907374979344544,0.024620080769899286,0.04182723493587179,-0.049572321510186,0.05977325150263391,0.12198057791656407,-0.20958552674775818
44,12.796337099993252,0.004245780787449772,-0.008059018038290915,0.030207047885732398,0.0045669111100841795,0.00011610686946468851,0.0046857439914099125,0.024885103921804423,0.04236846620954142,-0.05050298297506338,0.05988942280752075,0.12239609033458372,-0.21062905348140923
45,12.800549699997646,0.0042662535173419456,-0.008058088137199446,0.030227307447895077,0.004677724370982256,0.0003049738856886413,0.004459980506712272,0.025150627584261755,0.04291151414200366,-0.05143823652653027,0.05999920137647433,0.12280077212638525,-0.21165886440397244
46,12.804311699990649,0.004287219686793759,-0.00805631634380246,0.03024655784156483,0.0047897148159561165,0.0004962502413699382,0.004230064319670835,0.02541662323961263,0.0434563303998893,-0.05237802085282038,0.060102496082705105,0.12319446052602749,-0.21267470646484654
47,12.808479799990891,0.004308684514639704,-0.00805369196885547,0.030264780628369074,0.004902884472039937,0.0006899436612639195,0.003995975498759762,0.025683061966446312,0.04400286592859959,-0.05332227351872229,0.06019921573821611,0.12357699258791159,-0.2136763253308424
48,12.812631499997224,0.00433065322840908,-0.008050204289379267,0.03028195728226325,0.005017235237269325,0.000886061651245568,0.0037576943914976453,0.025949914439290362,0.04455107095126722,-0.05427093095938967,0.06028926909140378,0.12394820518178609,-0.21466346527143984
49,12.81671239998832,0.004353131063750645,-0.008045842549636521,0.0302980691907779,0.005132768878890745,0.0010846114951082455,0.003515201629465201,0.026217150928356782,0.04510089496815955,-0.0552239284741524,0.06037256487073717,0.12430793509506279,-0.215635869078994
50,12.820565599991824,0.004376123263849334,-0.00804059596212255,0.03031309765628803,0.0052494870315703554,0.0012856002513612558,0.0032684781333495844,0.026484741299619342,0.04565228675654595,-0.056181200219619976,0.060449011854620545,0.12465601916506244,-0.2165932779638669
51,12.824903000000631,0.004399635078835042,-0.008034453708570288,0.03032702389730488,0.005367391195604117,0.0014890347500274071,0.003017505118023177,0.026752655015178615,0.04620519437127261,-0.057142679202563565,0.06051851893619137,0.12499229440376695,-0.21753543153947216
52,12.829303799997431,0.004423671765183485,-0.008027404940969431,0.030339829049790268,0.005486482735129862,0.0016949215894456662,0.0027622640976509545,0.02702086113391334,0.04675956514573502,-0.05810829727288693,0.060580995149514705,0.12531659816000512,-0.21846206788214986
53,12.83328469999833,0.004448238585109146,-0.008019438782599727,0.03035149416849361,0.005606762876343176,0.001903267133077336,0.002502736890831545,0.027289328312077497,0.04731534569388952,-0.059077985117038954,0.06063634960732704,0.12562876834652772,-0.21937292382564014
54,12.837823499998194,0.004473340805950331,-0.008010544329078408,0.030362000228311817,0.005728232705714754,0.00211407750632653,0.0022389056257629543,0.027558024803400173,0.047872481913237425,-0.06005167225359318,0.060684491419889304,0.12592864359223702,-0.22026773518564413
55,12.841399899989485,0.004498983699546319,-0.008000710649421658,0.030371328125672066,0.0058508931682071654,0.0023273585933727852,0.0019707527454227826,0.027826918458963765,0.04843091898818512,-0.0610292870286497,0.06072532965873394,0.12621606343927627,-0.22114623679970213
56,12.845857799999068,0.004525172541606625,-0.007989926787120098,0.030379458679937583,0.005974745065491136,0.002543116034021303,0.001698261012774685,0.028095976726982684,0.04899060139477416,-0.06201075661176797,0.060758773380417505,0.12649086853015137,-0.22200816287159375
57,12.850270399998408,0.004551912611072348,-0.007978181761228154,0.030386372634836553,0.00609978905416035,0.0027613552205774643,0.001421413515984617,0.028365166652891988,0.04955147290569902,-0.06299600699441964,0.060784731716389026,0.12675290067018155,-0.22285324726074865
58,12.854587099995117,0.004579209189469617,-0.007965464567467238,0.0303920506599141,0.006226025643948516,0.002982081294741523,0.0011401936736410022,0.0286344548799222,0.05011347659559046,-0.0639849629884852,0.06080311398275717,0.1270020029921377,-0.2236812236269699
59,12.858282100001816,0.004607067560255146,-0.00795176417934262,0.03039647335200744,0.006353455195949261,0.003205299144529924,0.0008545852399842951,0.028903807650160356,0.050676554847491756,-0.06497754822598892,0.06081382984615559,0.12723802011593432,-0.22449182573986304
60,12.862475000001725,0.004635493008153912,-0.007937069549273883,0.030399621236744202,0.006482077920842599,0.0034310134012273683,0.0005645723101294966,0.02917319080659417,0.05124064935955672,-0.0659736851603366,0.060816789525911144,0.1274607981686092,-0.2252847876584733
61,12.866608999989694,0.004664490818488994,-0.007921369609738795,0.030401474770063833,0.006611893877132934,0.003659228436367468,0.00027013932528475245,0.029442569795964057,0.051805701151702944,-0.06697329506764188,0.060811903952566776,0.12767018484916354,-0.22605984387601455
62,12.870907999997144,0.004694066276503646,-0.007904653274430514,0.03040201433976215,0.0067429029694007865,0.0038899483587437494,-2.8728922037880834e-05,0.02971190967221161,0.052371650572884246,-0.06797629804924618,0.06079908485381271,0.12786602946606745,-0.2268167295145079
63,12.874977100000253,0.004724224666675649,-0.00788690943942794,0.030401220267058916,0.006875104946571355,0.004123177011454735,-0.00033204728282616144,0.02998117510009287,0.05293843730807613,-0.0689826130347692,0.06077824472088885,0.12804818280245941,-0.22755518040959513
64,12.879216499990434,0.004754971272024041,-0.00786812698437909,0.030399072808188415,0.007008499400198249,0.004358917968976829,-0.0006398302463839193,0.030250330358329174,0.053506000384354074,-0.0699921577853802,0.060749296746237746,0.12821649696013876,-0.22827493335508334
65,12.883049399999436,0.004786311373408269,-0.00784829477369739,0.030395552156012952,0.00714308576275996,0.004597174534263242,-0.0009520919351637625,0.030519339342668095,0.054074278176496966,-0.07100484889901493,0.06071215486206539,0.1283708252598817,-0.22897572627762078
66,12.887221999990288,0.004818250248819828,-0.007827401657770744,0.030390638441659207,0.007278863305970712,0.004837949735866521,-0.001268846099629548,0.030788165569375903,0.0546432084121823,-0.07202060181519425,0.060666733790377896,0.12851102213784169,-0.22965729802209567
67,12.892316699988442,0.004850793172666446,-0.007805436474183316,0.030384311736177245,0.007415831139107875,0.005081246325083494,-0.001590106113131777,0.031056772178741764,0.05521272817667187,-0.07303933081833999,0.060612949029206366,0.12863694302198161,-0.23031938830671816
68,12.89592549999361,0.004883945415048907,-0.0077823880489498965,0.030376552052222266,0.007553988207353854,0.005327066773119311,-0.0019158849667994385,0.03132512193844817,0.05578277391691227,-0.07406094904219569,0.06055071686376079,0.12874844422485615,-0.23096173775297774
69,12.899960199996713,0.004917712241030551,-0.007758245197762804,0.03036733934575887,0.007693333290153361,0.005575413268268713,-0.0022461952644545684,0.03159317724717395,0.056353281445270804,-0.07508536847340777,0.06047995439766525,0.1288453828512162,-0.23158408770098352
70,12.903950399995663,0.004952098909899538,-0.007732996727251222,0.030356653517787855,0.007833864999587225,0.005826287713113169,-0.002581049217535817,0.031860900138241395,0.05692418594281747,-0.07611249995431045,0.060400579518151754,0.12892761670448133,-0.232186180099675
71,12.90832029999001,0.004987110674423947,-0.00770663143625293,0.030344474416095456,0.00797558177876197,0.006079691721731219,-0.002920458640037678,0.03212825228291095,0.05749542196223231,-0.07714225318553433,0.06031251083107309,0.12899500421566737,-0.2327677574669189
72,12.913006599992514,0.005022752780099772,-0.0076791381170983565,0.030330781837024975,0.008118481900212816,0.006335626616921367,-0.0032644349434571684,0.032395194993452614,0.0580669234304578,-0.07817453672843781,0.06021566767200034,0.12904740442332677,-0.23332856275971964
73,12.916634699999122,0.005059030464391874,-0.00765050555690691,0.03031555552727078,0.00826256346432046,0.006594093427435922,-0.003612989131754593,0.03266168922653895,0.05863862365142848,-0.07920925800656589,0.060109970131366534,0.12908467700730925,-0.23386833903489956
74,12.92199449999316,0.00509594895596795,-0.007620722538895534,0.030298775185694585,0.008407824397744136,0.00685509288522807,-0.003966131796313149,0.03292769558653923,0.05921045530902244,-0.08024632330507563,0.05999533903825201,0.12910668234238773,-0.23438682929938148
75,12.925593799998753,0.005133513473925605,-0.0075897778436994304,0.030280420465164097,0.008554262451867585,0.007118625422711862,-0.004323873110894601,0.03319317432876878,0.059782350470266005,-0.08128563777086863,0.059871696010265145,0.12911328156433477,-0.23488377638543254
76,12.929298099988957,0.0051717292270125545,-0.007557660250704886,0.03026047097441398,0.008701875201260895,0.007384691170037676,-0.004686222826600059,0.03345808536322506,0.06035424058887056,-0.08232710541091133,0.059738963528221084,0.12910433666107607,-0.2353589224965048
77,12.93323349999264,0.00521060141284007,-0.0075243585393941275,0.030238906279929152,0.008850660042159564,0.00765328995238354,-0.005053190266810774,0.03372238825849851,0.060926056509244764,-0.0833706290883442,0.05959706500864667,0.12907971064111812,-0.23581200905753189
78,12.941770399993402,0.005250135217089709,-0.007489861490702151,0.030215705907850554,0.009000614190960992,0.00792442128726613,-0.005424784322114447,0.03398604224615097,0.06149772847152343,-0.08441611051947578,0.059445924913727875,0.12903926777174038,-0.23624277657521828
79,12.945768299992778,0.005290335812713437,-0.007454157888385395,0.030190849345903402,0.009151734682742331,0.00819808438187665,-0.005801013445219397,0.034249006225600516,0.062069186117689835,-0.0854634502686543,0.05928546882215347,0.12898287377996281,-0.2366509642537738
80,12.950515399992582,0.005331208359127233,-0.007417236520402167,0.030164316045348014,0.009304018369800247,0.008474278130446062,-0.006181885645835435,0.03451123876912746,0.06264035849838491,-0.08651254774185756,0.059115623480377515,0.1289103959723156,-0.23703631003482145
81,12.954660999996122,0.005372758001398273,-0.0073790861803046635,0.0301360854229534,0.009457461920213116,0.008753001111641288,-0.006567408485531252,0.03477269812721335,0.06321117408009057,-0.08756330118191802,0.05893631692364463,0.1288217033457138,-0.2373985508568807
82,12.958497699990405,0.005414989869425798,-0.007339695668642459,0.03010613686299366,0.00961206181642809,0.009034251585994078,-0.006957589072572989,0.035033342234619035,0.06378156075292113,-0.0886156076644115,0.058747478635669356,0.12871666667758938,-0.2377374228051336
83,12.963783400002283,0.005457909077115781,-0.007299053794377305,0.030074449719267288,0.009767814353877132,0.00931802749336623,-0.0073524340567452055,0.03529312871713828,0.06435144583860508,-0.08966936309420895,0.05854903970087035,0.12859515854441492,-0.23805266123113503
84,12.96818149999308,0.005501520721549535,-0.007257149376309073,0.030041003317139443,0.00992471563962391,0.009604326450449167,-0.007751949624158903,0.03555201489902444,0.06492075609844061,-0.09072446220242562,0.05834093297029407,0.1284570533089981,-0.23834400090260063
85,12.972270500002196,0.005545829882146392,-0.007213971244512705,0.03000577695560727,0.010082761591045626,0.00989314574829964,-0.008156141492045462,0.03580995781121392,0.06548941774116482,-0.09178079854429982,0.05812309319511843,0.12830222710601377,-0.23861117624285696
86,12.976806799997576,0.005590841619820636,-0.007169508241785986,0.02996874990938827,0.01024194793455276,0.01018448234990901,-0.008565014903545883,0.03606691419993556,0.06605735643078106,-0.09283826449826328,0.05789545706896711,0.12813055784922728,-0.23885392145563972
87,12.981013899989192,0.005636560976132839,-0.007123749225108028,0.02992990143103179,0.010402270204347162,0.010478332887808289,-0.008978574622496481,0.03632284053530894,0.06662449729449217,-0.09389675126492547,0.05765796324676233,0.12794192517017625,-0.23907197061507546
88,12.985258200002136,0.005682992972435792,-0.007076683067108262,0.029889210753053588,0.010563723741217975,0.01077469366170771,-0.00939682492820913,0.03657769302012076,0.0671907649299846,-0.09495614886694112,0.057410552432037805,0.12773621032497604,-0.23926505791488178
89,12.99043969999184,0.005730142609015175,-0.0070282986575458265,0.029846657090093556,0.01072630369137747,0.01107356063616629,-0.009819769610255782,0.03683142759919666,0.06775608341253604,-0.09601634615020213,0.05715316746045192,0.12751329615287482,-0.23943291776338227
90,12.996409899991704,0.005778014864225173,-0.006978584904799209,0.029802219641096497,0.01089000500533999,0.011374929438294365,-0.01024741196325928,0.0370839999689174,0.06832037630193241,-0.0970772307845468,0.05688575328860018,0.12727306695028198,-0.2395752847587173
91,13.004082899991772,0.005826614693619218,-0.006927530737365986,0.029755877591515982,0.011054822436842093,0.011678795355484432,-0.010679754781684148,0.03733536558649157,0.06888356664845953,-0.09813868926473215,0.05660825692040815,0.12701540833872907,-0.2396918938431736
92,13.008067000002484,0.005875947029076039,-0.006875125105372567,0.029707610115541287,0.011220750541803631,0.011985153333166762,-0.01111680035463602,0.03758547967881975,0.06944557699865041,-0.09920060691251031,0.056320627253770746,0.1267402072134444,-0.23978248048804432
93,13.011721199989552,0.005926016777921195,-0.006821356982093814,0.029657396378347318,0.011387783677326431,0.012293997972591151,-0.011558550460670834,0.03783429725040856,0.07000632940082134,-0.10026286787923848,0.056022814870733746,0.12644735172095603,-0.2398467809233242
94,13.016010599996662,0.005976828822044258,-0.00676621536548244,0.029605215538367525,0.011555916000725475,0.012605323528631583,-0.012005006362617369,0.038081773090376116,0.0705657454106208,-0.10132535514999012,0.055714771875422245,0.12613673128799463,-0.2398845323420124
95,13.02085219998844,0.006028388017011769,-0.0067096892797080775,0.0295510467495897,0.011725141468589637,0.012919123907617135,-0.012456168802422866,0.03832786177893036,0.07112374609682157,-0.10238795054797482,0.055396451784403535,0.12580823665616786,-0.2398954729501842
96,13.025022000001629,0.00608069919117609,-0.0066517677767058865,0.029494869163874553,0.011895453835870264,0.01323539266518795,-0.01291203799601472,0.038572517693403224,0.07168025204717679,-0.10345053473909305,0.05506780941160688,0.1254617599669037,-0.23987934210181242
97,13.028856999997515,0.006133767144780291,-0.006592439937734622,0.029436661933297022,0.012066846654995361,0.01355412300417802,-0.013372613628186448,0.03881569501370949,0.07223518337496462,-0.10451298723755033,0.05472880077126744,0.1250971949025177,-0.2398358803534965
98,13.033221099991351,0.006187596649059158,-0.006531694874943997,0.02937640421251016,0.01223931327500653,0.013875307772529136,-0.013837894847509115,0.03905734772752117,0.07278845972609396,-0.10557518641089689,0.05437938306779916,0.12471443680704457,-0.23976482943456487
99,13.037755500001367,0.006242192445336428,-0.006469521732951227,0.029314075161131523,0.012412846840718998,0.01419893946123662,-0.014307880261261952,0.039297429635636656,0.0733400002867195,-0.10663700948537695,0.054019514694512626,0.12431338284359442,-0.2396659323818835
100,13.041711899990332,0.0062975592441183595,-0.006405909690426596,0.02924965394615196,0.012587440291906117,0.014525010202330737,-0.014782567930391165,0.03953589435714374,0.07388972379174144,-0.10769833255216262,0.05364915521515626,0.1238939321464562,-0.23953893362469453
101,13.046097300000838,0.006353701724183743,-0.006340847961687878,0.029183119744366662,0.012763086362505133,0.014853511766897719,-0.01526195536449578,0.039772695334625234,0.07443754853376802,-0.10875903057345472,0.05326826544471316,0.12345598586862236,-0.23938357899452467
102,13.049683099990943,0.006410624531670435,-0.006274325798303437,0.02911445174482838,0.012939777579847798,0.015184435563140575,-0.015746039516840497,0.040007785840037745,0.07498339237203623,-0.1098189773888045,0.05287680753063344,0.12299944722662218,-0.23919961579494098
103,13.05586009999388,0.006468332279158553,-0.00620633249070383,0.02904362915132264,0.013117506263918216,0.01551777263447915,-0.01623481677939754,0.04024111898063693,0.07552717274177148,-0.11087804572183241,0.052474744966535335,0.122524221618974,-0.23898679295656813
104,13.060051499996916,0.0065268295447504345,-0.0061368573698017325,0.02897063118486489,0.013296264526635954,0.01585351365769384,-0.016728282977919024,0.040472647704977646,0.07606880666415769,-0.11193610718792302,0.05206204265330884,0.12203021673244333,-0.23874486111694365
105,13.064305499996408,0.0065861208711474805,-0.006065889808619989,0.02889543708621938,0.013476044271167035,0.016191648941113974,-0.017226433367046982,0.04070232480938049,0.07660821075663826,-0.11299303230165128,0.05163866700035062,0.12151734260787586,-0.2384735725250347
106,13.068377399991732,0.006646210764724013,-0.005993419223927588,0.0288180261184396,0.013656837191264332,0.01653216842285279,-0.01772926262545152,0.04093010294482878,0.07714530124346937,-0.11404869048363156,0.05120458600761647,0.12098551171408431,-0.23817268119661084
107,13.074909099988872,0.006707103694598274,-0.005919435077883347,0.028738377569430252,0.01383863477063967,0.016875061669089305,-0.0182367648510015,0.041155934624161984,0.07767999396667548,-0.1151029500693203,0.05075976933938819,0.12043463900404386,-0.23784194310911458
108,13.07917599999928,0.006768804091700719,-0.005843926879687108,0.028656470754530476,0.014021428282367939,0.017220317872400335,-0.0187489335559807,0.04137977222962617,0.07821220439710046,-0.11615567831759135,0.050304188422900194,0.11986464186321151,-0.23748111616079146
109,13.083228199990115,0.00683131634783974,-0.0057668841872382,0.02857228501911818,0.014205208788326077,0.017567925850140272,-0.019265761662334454,0.04160156802094115,0.07874184764490527,-0.11720674141917664,0.04983781652055554,0.11927544003890402,-0.2370899603708257
110,13.08734060000279,0.006894644814764988,-0.005688296608800985,0.028485799741235378,0.014389967138668658,0.017917874042866103,-0.019787241496960574,0.04182127414349069,0.07926883846999347,-0.1182560045070144,0.049360628740008294,0.11866695565786368,-0.23666823800445022
111,13.091900499988697,0.0069587938032284495,-0.005608153804677277,0.028396994334234253,0.014575693971339431,0.018270150512809537,-0.02031336478704768,0.04203884263647896,0.07979309129266449,-0.11930333166579815,0.048872602049126475,0.1180391132219723,-0.23621571361738225
112,13.09564619998855,0.007023767582043441,-0.005526445488885421,0.028305848249443783,0.014762379711619157,0.0186247429423964,-0.020844122655450714,0.04225422544125328,0.08031452020400116,-0.12034858594271863,0.048373715290892454,0.11739183957877473,-0.2357321544051156
113,13.09999560000142,0.007089570377141684,-0.005443161430845826,0.028212340978856762,0.014950014571710878,0.01898163863281079,-0.021379505616124415,0.04246737440959261,0.08083303897626193,-0.12139162936010704,0.04786394913227197,0.11672506393883643,-0.23521733029810485
114,13.103935799997998,0.007156206370628622,-0.005358291457072767,0.02811645205783689,0.015138588550361183,0.019340824502606522,-0.021919503569610848,0.042678241311577304,0.08134856107342207,-0.12243232292702019,0.047343285985721746,0.1160387178717706,-0.2346710139715344
115,13.108292599994456,0.007223679699837138,-0.005271825452872218,0.028018161067845774,0.015328091432515198,0.019702287086364678,-0.02246410579857551,0.042886777843182254,0.08186099966153075,-0.1234705266519703,0.04681170996414312,0.1153327353004592,-0.23409298114952373
116,13.11222349999298,0.007291994456379823,-0.0051837533640455465,0.027917447639189547,0.015518512789005106,0.0200660125333968,-0.02301330096340762,0.043092935633747616,0.08237026761920105,-0.124506099557205,0.04626920685598779,0.11460705249179301,-0.23348301067546767
117,13.11632169999939,0.007361154685199929,-0.0050940651985988345,0.02781429145378485,0.015709841976271326,0.020431986606495357,-0.023567077097882746,0.0432966662533514,0.08287627754788496,-0.1255388996920603,0.04571576405912248,0.11386160800955265,-0.23284088443695872
118,13.121810099997674,0.007431164383621164,-0.005002751028457642,0.027708672247943895,0.01590206813611635,0.020800194680727975,-0.024125421604881365,0.04349792121969432,0.08337894178194603,-0.12656878414657552,0.04515137046358921,0.11309634273086532,-0.23216638748542703
119,13.127137599993148,0.007502027500396471,-0.004909800991187011,0.027600569815178343,0.016095180195486898,0.021170621742277133,-0.02468832125217211,0.04369665200443379,0.08387817239908014,-0.127595609065906,0.044576016362895036,0.11231119989924057,-0.23145930799126926
120,13.131235399996513,0.007573747934755892,-0.004815205291716505,0.02748996400902174,0.016289166866283882,0.021543252387326704,-0.025255762168258016,0.0438928100392829,0.08437388123085797,-0.12861922966354064,0.043989693363139064,0.11150612511378624,-0.23071943690957014
121,13.137182499995106,0.007646329535453659,-0.004718954204070079,0.027376834745870198,0.016484016645198586,0.021918070820995048,-0.02582772983827685,0.0440863467215394,0.08486597987305021,-0.1296395002327533,0.04339239433438886,0.11068106629548347,-0.22994656771075145
122,13.14163820000249,0.007719776099814611,-0.004621038073100572,0.027261162007841132,0.016679717813571603,0.02229506085631302,-0.02640420909994881,0.044277213419753936,0.08535437969587133,-0.1306562741574342,0.042784113504950455,0.10983597369452447,-0.22914049613585832
123,13.145848200001636,0.007794091372780034,-0.004521447316228627,0.027142925845649854,0.016876258437279235,0.022674205913247807,-0.026985184139572793,0.04446536148009412,0.08583899185436976,-0.1316694039213734,0.042164846583035126,0.10897079990674892,-0.22830101987697818
124,13.150478700001258,0.007869279045953071,-0.0044201724251858344,0.02702210638150377,0.01707362636664881,0.02305548901777299,-0.027570638488056347,0.04465074223309061,0.08631972729881726,-0.13267874111626124,0.04153459084155095,0.10808549987829504,-0.2274279384878184
125,13.154337300002226,0.007945342756643815,-0.0043172039677618875,0.026898683812014147,0.01727180923640484,0.02343889280098441,-0.02816055501698281,0.04483330700075234,0.08679649678514033,-0.13368413645017954,0.04089334517252581,0.10718003091704956,-0.22652105333871478
126,13.158318999994664,0.008022286086914236,-0.004212532589555559,0.02677263841112515,0.017470794465647366,0.02382439949826264,-0.02875491593471649,0.04501300710379469,0.08726921088541097,-0.13468543975520345,0.04024111008122814,0.10625435269662366,-0.22558016757134863
127,13.163113899994642,0.008100112562623088,-0.004106149015729276,0.02664395053306011,0.01767056925786216,0.024211990948481785,-0.029353702782537135,0.04518979386870265,0.08773777999831334,-0.13568249999549162,0.03957788769610984,0.1053084272241226,-0.2246050863287519
128,13.16662269999506,0.008178825652470925,-0.0039980440527671085,0.02651260061528481,0.017871120600961632,0.024601648593264684,-0.029956896430816782,0.04536361863504708,0.08820211435934901,-0.1366751652769255,0.03890368181487958,0.10434221876096712,-0.22359561698964886
129,13.1708290999959,0.008258428767045366,-0.003888208590235938,0.026378569181487618,0.018072435267359847,0.02499335347628211,-0.030564477075239634,0.045534432762956004,0.08866212405060217,-0.13766328285727555,0.03821849788959854,0.1033556937551774,-0.22255156930318945
130,13.174912999995286,0.008338925257866782,-0.0037766336025496544,0.026241836844576257,0.018274499814079623,0.025387086242594475,-0.031176424233068958,0.045702187640298854,0.08911771901034501,-0.1386466991570341,0.03752234297181559,0.10234882078379264,-0.22147275565843186
131,13.179013200002371,0.008420318416434506,-0.003663310150736161,0.026102384309691015,0.018477300582891182,0.025782827138036132,-0.03179271673946293,0.04586683468967173,0.08956880904229285,-0.1396252597719688,0.036815225637550325,0.10132157046481785,-0.22035899154858274
132,13.183153799996944,0.008502611473273749,-0.0035482293842070203,0.02596019237723415,0.018680823700481138,0.026180556008639062,-0.03241333274385273,0.04602832537491708,0.09001530382442943,-0.14059880948806813,0.036097155922566765,0.10027391539957621,-0.21921009597016583
133,13.187275199990836,0.008585807596983306,-0.003431382542529568,0.025815241945915182,0.0188850550786489,0.02658025230009536,-0.03303824970639082,0.046186611207535554,0.09045711291775141,-0.14156719229763104,0.03536814531998589,0.09920583013247186,-0.21802589167245565
134,13.192155899989302,0.008669909893284214,-0.0033127609572013187,0.025667514015811767,0.019089980414532467,0.026981895057258388,-0.033667444394471537,0.04634164375318455,0.09089414577473719,-0.142530251416422,0.03462820684739703,0.09811729105413435,-0.21680620538205303
135,13.196222200000191,0.008754921404069459,-0.0031923560534264997,0.02551698969144581,0.01929558519086239,0.02738546292368028,-0.03430089287933134,0.0464933746386846,0.09132631174723335,-0.14348782930175022,0.033877355141639386,0.09700827633266709,-0.21555086810730825
136,13.199972099988372,0.00884084510645488,-0.003070159351894554,0.025363650184874457,0.019501854676249635,0.027790934141182968,-0.03493857053272962,0.04664175555935754,0.09175352009431449,-0.14443976767232147,0.03311560654647289,0.09587876599203793,-0.21425971540327626
137,13.204446099989582,0.008927683911831427,-0.002946162470560474,0.02520747681879561,0.01970877392550457,0.028198286549465306,-0.035580452023724736,0.04678673828680956,0.09217567999086405,-0.14538590752866448,0.032342979361960233,0.0947287420684389,-0.21293258740588328
138,13.208152399995017,0.009015440664918894,-0.0028203571264267843,0.025048451029667483,0.01991632777999376,0.028607497585750114,-0.036226511315535816,0.04692827467847859,0.09259270053681933,-0.14632608917328546,0.0315594941161779,0.0935581887608639,-0.21156932899683212
139,13.2128631999949,0.009104118142821336,-0.0026927351373270034,0.024886554370841914,0.020124500868043533,0.02901854428447321,-0.03687672166249735,0.04706631668782441,0.09300449076708622,-0.1472601522325553,0.030765173625559947,0.09236709259252689,-0.21016979005373468
140,13.216685599996708,0.009193719054084375,-0.0025632884237103814,0.024721768515710903,0.020333277605387046,0.02943140327701827,-0.03753105560711485,0.04720081637441057,0.09341095966221424,-0.14818793567908006,0.029960043019525123,0.0911554425458193,-0.2087338255291511
141,13.220665799992275,0.009284246037754582,-0.0024320090104277083,0.024554075260866004,0.020542642195657174,0.029846050791500447,-0.03818948497721765,0.04733172591431266,0.09381201615950681,-0.14910927785428824,0.029144129767841514,0.08992323015086921,-0.2072612956056007
142,13.22659749999002,0.009375701662441144,-0.002298889028517971,0.024383456529270087,0.020752578630925778,0.03026246265259964,-0.038851980883214635,0.04745899761044267,0.09420756916448074,-0.1500240164921745,0.02831746362111766,0.08867044956962634,-0.20575206594534967
143,13.23089199999231,0.009468088425380026,-0.002163920716995638,0.024209894373441045,0.020963070692288043,0.030680614281445633,-0.03951851371545739,0.047582583902430094,0.0945975275627215,-0.15093198874409988,0.027480076528313857,0.08739709766827317,-0.20420600784467663
144,13.235003699999652,0.009561408751500817,-0.0020270964246383327,0.024033370978646905,0.021174101950489296,0.03110048069555639,-0.040189053141715655,0.04770243737621552,0.09498180023198412,-0.15183303120390196,0.026632002599116567,0.08610317406249837,-0.20262299822424423
145,13.23965189998853,0.00965566499249644,-0.0018884086117746661,0.02385386866611191,0.021385655766594323,0.03152203650883039,-0.040863568104762875,0.0478185107735984,0.09536029605444954,-0.1527269799326098,0.025773278066492145,0.08478868110365792,-0.2010029196089535
146,13.245810099993832,0.009750859425895932,-0.0017478498520719782,0.023671369896233013,0.021597715292698768,0.03194525593159351,-0.04154202682007062,0.04793075700149897,0.09573292392870293,-0.15361367048337576,0.024903941172410335,0.0834536237667536,-0.19934566016772795
147,13.24973319999117,0.009846994254140451,-0.001605412834323754,0.023485857271806385,0.021810263472680506,0.03237011277069745,-0.04222439677361501,0.048039129140493624,0.09609959278099764,-0.15449293792654276,0.02402403205006646,0.0820980095211574,-0.19765111354417494
148,13.254128300002776,0.009944071603662716,-0.0014610903642364938,0.023297313541263347,0.022023283042986647,0.03279658042966642,-0.04291064471979319,0.048143580453033456,0.0964602115760883,-0.15536461687307596,0.02313359271389069,0.080721848323584,-0.19591917857702085
149,13.259955199988326,0.010042093523969986,-0.00131487536621583,0.023105721601915322,0.02223675653345772,0.03322463190889153,-0.04360073667943733,0.048244064391891175,0.09681468932843255,-0.1562285414971535,0.02223266710239031,0.0793251527644747,-0.1941497591901228
150,13.263992399995914,0.010141061986730798,-0.0011667608851516748,0.022911064503207373,0.022450666268189503,0.0336542398058767,-0.04429463793793122,0.04834053460875915,0.09716293511432089,-0.15708454555862383,0.021321301147599146,0.07790793827480033,-0.19234276430279898
151,13.267819599990617,0.010240978884865585,-0.0010167400882021588,0.022713325449979838,0.02266499436643338,0.034085376315540525,-0.04499231304342323,0.04843294496331156,0.09750485808491041,-0.15793246242480197,0.020399542845237494,0.07647022329839216,-0.19049810773001685
152,13.271422699996036,0.010341846031641387,-0.0008648062665761044,0.02251248780573769,0.02287972274353845,0.03451801323057763,-0.04569372580513599,0.048521249532423975,0.09784036747988134,-0.15877212509204267,0.019467442254361193,0.07501202939512643,-0.18861570811748132
153,13.27741419999802,0.010443665159770818,-0.0007109528373137634,0.022308535095927156,0.02309483311193355,0.034952121941881506,-0.04639883929177045,0.04860540261923239,0.09816937264138482,-0.15960336620696172,0.01852505146278612,0.07353338126187701,-0.18669548887692006
154,13.282604399995762,0.01054643792051547,-0.0005551733450655444,0.022101451011219214,0.023310306982149625,0.03538767343902947,-0.047107615830003564,0.048685358762046535,0.0984917830278851,-0.16042601808743576,0.0175724244273642,0.07203430666390491,-0.1847373782057189
155,13.289138499996625,0.010650165882793943,-0.00039746146386845487,0.021891219410799516,0.023526125663880706,0.03582463831082808,-0.04782001700307838,0.04876107274199391,0.09880750822749945,-0.1612399127439975,0.016609616644180532,0.07051483632141743,-0.18274130915189005
156,13.295709199999692,0.010754850532294651,-0.0002378109989199957,0.021677824325664376,0.023742270267074,0.03626298674591628,-0.04853600364949125,0.04883249958901148,0.09911645797083547,-0.16204488190141106,0.015636684919636098,0.06897500383795296,-0.18070721968924813
157,13.300196600001073,0.010860493270593498,-7.6215888349261e-05,0.021461249961922325,0.023958721703043955,0.03670268853342456,-0.04925553586177307,0.04889959458746177,0.09941854214369658,-0.16284075702073328,0.014653687272616919,0.06741484572273893,-0.17863505302660193
158,13.304100900000776,0.01096709541427656,8.732979501500678e-05,0.021241480704100896,0.024175460685612084,0.03714371306369063,-0.049978572985371936,0.04896231328125789,0.09971367080011732,-0.163627369323628,0.013660682859864812,0.0658344015226242,-0.1765247580567331
159,13.308299299998907,0.011074658194067864,0.00025283184187965726,0.021018501118458075,0.02439246773226644,0.03758602932903408,-0.05070507361764973,0.04902061147881854,0.10000175417623769,-0.1644045498184048,0.012657732153260106,0.06423371405258409,-0.17437628969576932
160,13.312348499996006,0.011183182753962328,0.00042029590472593935,0.020792295956297977,0.02460972316534534,0.03802960592459493,-0.051434995606995486,0.04907444525976349,0.10028270270538038,-0.1651721293273397,0.011644897328637594,0.06261282967007338,-0.17218960913816353
161,13.316720999995596,0.011292670150364037,0.0005897274960521705,0.02056285015729015,0.024827207113256155,0.03847441104924189,-0.052168296052064,0.04912377098331306,0.10055642703435556,-0.16592993851497276,0.010622242573132018,0.06097179853994075,-0.16996468400602777
162,13.320699599993532,0.011403121351229978,0.0007611319866205898,0.020330148852791996,0.02504489951173343,0.03892041250655534,-0.052904931301139865,0.0491685452977063,0.10082283804088496,-0.16667780791675163,0.009589834287304871,0.059310674877575915,-0.16770148842847618
163,13.325020299991593,0.011514537235219457,0.0009345146037087349,0.02009417736917371,0.02526278010514111,0.03936757770588994,-0.05364485695162985,0.049208725150391035,0.10108184685206058,-0.16741556796803203,0.00854774125437189,0.05762951716269947,-0.16540000311259329
164,13.32950369999162,0.011626918590849376,0.001109880429365709,0.019854921231145198,0.02548082844782095,0.03981587366352113,-0.05438802784968381,0.04924426779894123,0.10133336486366272,-0.1681430490333501,0.007496034782782612,0.055928388292597386,-0.16306021539790955
165,13.333157499990191,0.011740266115655592,0.0012872343986737144,0.019612366165084372,0.02569902390549144,0.04026526700387888,-0.05513439808994641,0.04927513082251009,0.10157730375997619,-0.16886008143590528,0.006434788731373041,0.05420735564675406,-0.1606821193404941
166,13.337715999994543,0.011854580415360586,0.0014665812980152486,0.01936649810236627,0.02591734565669767,0.04071572396086974,-0.05588392101543922,0.04930127213297025,0.10181357553368085,-0.1695664954875778,0.0053640794138737095,0.052466491066606155,-0.15826571592851335
167,13.342009499989215,0.011969862003047668,0.0016479257633463498,0.019117303182692398,0.026135772694308952,0.04116721037928679,-0.05663654921757834,0.04932264998552097,0.10204209250548851,-0.17026212152032105,0.004283985549529407,0.05070587081654935,-0.15581101334147132
168,13.345760399999564,0.012086111298341912,0.0018312722784762834,0.018864767757419684,0.026354283827062657,0.04161969171630566,-0.057392234536334574,0.0493392229893908,0.10226276734368803,-0.17094678991847562,0.00319458822092115,0.04892557560524044,-0.1533180270693997
169,13.34990599998855,0.012203328626598038,0.0020166251733540405,0.018608878392888408,0.02657285768115664,0.0420731330430676,-0.05815092806053737,0.049350950118071196,0.10247551308397088,-0.17162033115121758,0.0020959706960717002,0.04712569065077083,-0.15078678003347343
170,13.353899900001124,0.012321514218095457,0.0022039886223620482,0.01834962187374847,0.026791472701883735,0.04252749904635114,-0.05891258012832242,0.049357790718443255,0.10268024314955367,-0.172282575805941,0.0009882182665487775,0.04530630574149762,-0.14821730281065526
171,13.358268800002406,0.012440668207240624,0.0023933666426174775,0.01808698520628334,0.027010107155305038,0.042982754030333456,-0.05967714032773131,0.04935970451957707,0.10287687137154257,-0.17293335462269635,-0.00012858184197055798,0.04346751525274936,-0.1456096337970283
172,13.362303199988672,0.012560790631776914,0.0025847630922815564,0.017820955621731027,0.027228739129962348,0.043438861918442394,-0.060444557497464226,0.04935665164106624,0.10306531200920382,-0.17357249852901988,-0.0012543406073667292,0.0416094181013802,-0.14296381932370247
173,13.36652779999713,0.012681881432002145,0.002778181668877285,0.017551520579601354,0.027447346538625284,0.0438957862552974,-0.06121477972778814,0.04934859260060763,0.10324547976992558,-0.17419983867539884,-0.0023889673083805165,0.03973211768971996,-0.14027991379705293
174,13.370858499998576,0.012803940449993926,0.0029736259076159426,0.017278667770988878,0.027665907120070877,0.044353490208738425,-0.0619877543616037,0.049335488321473886,0.10341728982899187,-0.17481520647134324,-0.0035323695044115013,0.03783572188787831,-0.13755797984194423
175,13.374724799999967,0.012926967428842948,0.0031710991797327765,0.017002385121880726,0.02788439844089688,0.04481193657194199,-0.06276342799567296,0.04931730014027219,0.10358065784938768,-0.1754184336221198,-0.004684452925880891,0.03592034306434592,-0.13479808832755974
176,13.379289399992558,0.0130509620118944,0.0033706046908322553,0.01672266079645863,0.028102797897370094,0.04527108776562556,-0.06354174648201169,0.04929398981538802,0.103735500001844,-0.17600935216505256,-0.005845121204727035,0.0339860981395786,-0.13200031828792383
177,13.383089499999189,0.013175923741997626,0.0035721454792432845,0.016439483200394425,0.028321082717314483,0.04573090584034117,-0.0643226549294387,0.04926551953713135,0.10388173298511764,-0.17658779450555273,-0.007014275592574477,0.03203310865273895,-0.12916475703327798
178,13.3872732000018,0.01330185206076427,0.00377572441438478,0.01615284098413837,0.02853922996204938,0.04619135247885946,-0.0651060977052873,0.049231851938677115,0.10401927404662747,-0.17715359345440596,-0.008191814830671985,0.030061500839344432,-0.12629150028290922
179,13.391592799991486,0.013428746307835108,0.003981344195142002,0.01586272304619948,0.02875721652837452,0.04665238899864612,-0.06589201843728497,0.04919295010736362,0.1041480410034221,-0.17770658226497893,-0.009377634990426282,0.02807140567494144,-0.12338065209265611
180,13.39563119999366,0.013556605720155773,0.004189007348254068,0.01556911853641719,0.028975019150608336,0.047113976354431666,-0.06668036001559441,0.049148777597045626,0.10426795226320308,-0.17824659466986437,-0.010571629341262045,0.026062958886857626,-0.12043232486734412
181,13.39988149999408,0.013685429431261643,0.004398716226713051,0.015272016859223612,0.029192614402682428,0.04757607514087412,-0.06747106459501784,0.0490992984405634,0.10437892684539662,-0.17877346491819782,-0.01177368836516739,0.024036300967556806,-0.11744663956062826
182,13.405750699996132,0.013815216470572125,0.00461047300817508,0.014971407676895667,0.02940997870029032,0.048038645595315455,-0.06826407359736865,0.049044477161966936,0.10448088440229515,-0.179287027814073,-0.012983699904353009,0.021991577192419422,-0.11442372592364053
183,13.409254400001371,0.013945965762694574,0.004824279693383859,0.01466728091279634,0.029627088303090212,0.048501647600631574,-0.06905932771401599,0.048984278787676916,0.10457374524028654,-0.1797871187560613,-0.014201549355771734,0.019928937634762688,-0.11136372264378382
184,13.416348899991135,0.014077676126738091,0.005040138104607013,0.014359626754604261,0.029843919316952624,0.048965040688176815,-0.06985676690860652,0.048918668856985745,0.10465743034112868,-0.18027357377685668,-0.015427119833099944,0.017848537117828703,-0.10826677737851004
185,13.420866799991929,0.01421034627563736,0.005258049884085691,0.014048435657530854,0.030060447696256164,0.0494287840408224,-0.07065633041996022,0.04884761343178353,0.10473186138275344,-0.18074622958309444,-0.016660292491237638,0.015750535156088635,-0.10513304686267955
186,13.426644599996507,0.014343974815486776,0.005478016492497831,0.013733698347524264,0.03027664924622133,0.04989283649608522,-0.07145795676514487,0.04877107910418447,0.10479696076002123,-0.18120492359594711,-0.01790094684346216,0.013635096028966537,-0.10196269702384106
187,13.433360199996969,0.014478560244884956,0.005700039207435481,0.013415405824459265,0.03049249962527385,0.05035715654935016,-0.07226158374273146,0.04868903300344322,0.1048526516061781,-0.1816494939919645,-0.01914896088830847,0.011502389022587546,-0.09875590301635757
188,13.437491599994246,0.014614100954289808,0.005924119121896605,0.013093549365312356,0.03070797434743974,0.05082170235718899,-0.07306714843623055,0.04860144280245728,0.10489885781575184,-0.18207977974397194,-0.020404211087024046,0.00935258886222953,-0.09551284922514412
189,13.443445799988694,0.014750595225384262,0.00615025714279181,0.012768120527321224,0.030923048784766257,0.05128643174078547,-0.07387458721770991,0.048508276724883115,0.10493550406984009,-0.18249562066194336,-0.02166657204985999,0.007185876162099305,-0.09223372925167535
190,13.44759699999122,0.014888041230452776,0.006378453989466493,0.012439111151127788,0.03113769816978,0.05175130218947828,-0.07468383575159297,0.04840950355441757,0.10496251586299096,-0.18289685743377565,-0.0229359160987529,0.0050024376998892795,-0.08891874589311263
191,13.453968000001623,0.01502643703176885,0.006608710192238953,0.012106513363904017,0.03135189759799008,0.05221627086442429,-0.07549482899863773,0.0483050926457881,0.10497981953092331,-0.18328333166597682,-0.024212112965196774,0.0028024665948372025,-0.0855681110892855
192,13.458335399991483,0.015165780580993707,0.006841026090954993,0.011770319582459726,0.031565622030443566,0.052681294602387026,-0.07630750122009558,0.04819501393671071,0.10498734227898476,-0.18365488592397064,-0.02549502961159896,0.0005861624221460439,-0.08218204589861358
193,13.462687899998857,0.015306069718586439,0.007075401833559586,0.011430522516331547,0.031778846296334616,0.053146329919652034,-0.07712178598204732,0.04807923796046273,0.10498501221088564,-0.18401136377257152,-0.026784530021059703,-0.0016462687115094438,-0.0787607806379878
194,13.46651220000058,0.01544730217322581,0.007311837374686172,0.01108711517085232,0.031991545095671294,0.05361133301606991,-0.07793761615992051,0.04795773585970302,0.10497275835782588,-0.18435260981752832,-0.02808047503441638,-0.0038946140868099245,-0.07530455517386207
195,13.470744499994908,0.015589475561244022,0.007550332474264134,0.010740090850200041,0.03220369300200711,0.05407625977922971,-0.07875492394319351,0.04783047940048837,0.10495051070794799,-0.184678469748578,-0.02938272233424658,-0.006158654313700351,-0.07181361922002151
196,13.474943399996846,0.015732587386072715,0.007790886696145066,0.010389443160425582,0.032415264465232026,0.05454106578876285,-0.07957364084029428,0.04769744098623541,0.10491820023597864,-0.18498879038362717,-0.03069112636709866,-0.008438163300013358,-0.06828823253424524
197,13.478908899996895,0.01587663503770146,0.008033499406748383,0.010035166012458244,0.03262623381442768,0.05500570632077915,-0.08039369768369574,0.04755859367242596,0.1048757589329596,-0.18528341971354806,-0.03200553822748415,-0.010732908301498888,-0.06472866514305413
198,13.483542799993302,0.016021615792149054,0.008278169773726876,0.009677253625088334,0.03283657526078867,0.055470136352434085,-0.08121502463521145,0.047413911181596595,0.10482311983544605,-0.18556220694835102,-0.033325805604480827,-0.01304264999725084,-0.06113519762607267
199,13.487291299999924,0.01616752681094789,0.008524896764652791,0.009315700527925807,0.03304626290061053,0.0559343105666235,-0.08203755119150002,0.04726336791851704,0.1047602170545694,-0.1858250025644995,-0.034651772734158655,-0.015367142508985165,-0.057508121318149384
200,13.49164279999968,0.01631436514064172,0.008773679145724973,0.008950501564334083,0.03325527071834552,0.05639818335680834,-0.08286120618977992,0.04710693898560122,0.10468698580506478,-0.1860716583528732,-0.035983280333440504,-0.01770613347017991,-0.053847738461259835
201,13.49569939999492,0.016462127712297103,0.00902451548049768,0.00858165189433806,0.03346357258972711,0.056861708831966465,-0.08368591781375877,0.046944600198671506,0.10460336243372137,-0.18630202746742872,-0.037320165504173115,-0.02005936400609377,-0.0501543623776301
202,13.499696200000471,0.016610811341028837,0.0092774041286316,0.008209146997505403,0.033671142284965414,0.05732484082166947,-0.08451161359977923,0.04677632810321962,0.10450928444858695,-0.1865159644746963,-0.03866226168069282,-0.022426568611128052,-0.04642831763649699
203,13.50497369999357,0.016760412725539717,0.009532343244667636,0.00783298267580012,0.033877953472015734,0.05778753288129319,-0.0853382204431868,0.04660209999063537,0.10440469054850458,-0.18671332540391775,-0.04000939872319636,-0.024807475203740808,-0.04266994017700138
204,13.509703999996418,0.016910928447674934,0.009789330776824083,0.007453155056407429,0.03408397971991775,0.058249738297356156,-0.08616566460491985,0.04642189391364042,0.10428952065183071,-0.186893967797632,-0.041361403048862634,-0.027201805192308103,-0.0388795774001578
205,13.517767699988326,0.0170623549719914,0.010048364465817708,0.007069660594528959,0.03428919450220081,0.058711410092984556,-0.08699387171832555,0.046235688701355415,0.10416371592538841,-0.1870577507626277,-0.04271809761700092,-0.029609273457446964,-0.035057588198199166
206,13.522245899992413,0.017214688645342313,0.010309441843709334,0.006682496076147244,0.03449357120035657,0.05917250103350716,-0.08782276679620125,0.04604346397486534,0.10402721881334208,-0.18720453502078865,-0.044079301962737384,-0.03202958838968328,-0.031204342942370178
207,13.52787979999266,0.01736792569647726,0.010572560232774487,0.006291658620758534,0.0346970831073822,0.059632963632176045,-0.08865227423806088,0.045845200161988245,0.10387997306581699,-0.18733418295993834,-0.0454448324825204,-0.03446245184488324,-0.02732022347144443
208,13.533668999996737,0.01752206223565816,0.01083771674439966,0.005897145684072923,0.03489970343138382,0.060092750156015104,-0.08948231783762672,0.04564087851031133,0.10372192376816881,-0.18744655868458368,-0.04681450273845353,-0.03690755895150544,-0.02340562308464984
209,13.53780829999596,0.017677094254291287,0.01110490827800477,0.005498955060680792,0.035101405299235236,0.06055181263180004,-0.09031282079054535,0.04543048109926369,0.10355301737131066,-0.18754152806669683,-0.0481881236970281,-0.03936459792660241,-0.019460946565358152
210,13.541427999996811,0.017833017624575627,0.011374131519992395,0.005097084886684583,0.0353021617602883,0.06101010285217552,-0.09114370570232928,0.04521399085103751,0.10337320172261262,-0.1876189587966688,-0.04956550384503917,-0.041833249947696396,-0.015486610217861461
211,13.545795699988956,0.017989828099167774,0.011645382942724424,0.004691533642294892,0.035501945790128386,0.06146757238190893,-0.09197489459652426,0.044991391541633924,0.10318242609736383,-0.18767872043441702,-0.05094644918401402,-0.04431318899876007,-0.011483041922392887
212,13.549740099988412,0.018147521310863557,0.011918658803526693,0.004282300154389884,0.03570073029438262,0.061924172564286235,-0.0928063089231037,0.0447626678118336,0.10298064123103644,-0.1877206844608265,-0.052330763299446255,-0.04680408176553122,-0.007450681230768119
213,13.55405449999671,0.018306092772296664,0.012193955143722297,0.0038693835990370245,0.035898488112572534,0.06237985452765153,-0.09363786956709164,0.04452780517762924,0.10276779935167503,-0.1877447243297045,-0.053718247257253285,-0.049305587602433296,-0.0033899794930134742
214,13.5581674999994,0.018465537875654404,0.012471267787694158,0.0034527835039761096,0.03609519202201472,0.06283456919208986,-0.09446949685741747,0.04428679004211343,0.10254385421245366,-0.1877507155203435,-0.05510869939882899,-0.05181735851561115,0.0006986000450155568
215,13.562387099998888,0.018625851892410887,0.012750592341977531,0.003032499751062551,0.03629081474177879,0.0632882672762552,-0.09530111057600454,0.04403960970772673,0.10230876112421555,-0.18773853559034082,-0.056501915420085175,-0.05433903915531915,0.004814582207514667
216,13.566618700002437,0.018787029973077848,0.013031924194383072,0.002608532578669892,0.03648532893669654,0.06374089930434146,-0.09613262996709276,0.04378625238744531,0.10206247698809758,-0.1877080642284636,-0.05789768845659718,-0.05687026678816328,0.008957479872460455
217,13.571236699994188,0.01894906714697334,0.013315258513151093,0.0021808825840505097,0.036678707221419,0.06419241561319956,-0.09696397374679555,0.04352670721627475,0.10180496032831583,-0.18765918330761264,-0.059295808864860605,-0.05941067128754989,0.013126793975670946
218,13.574904199995215,0.0191119583220085,0.013600590246137672,0.0017495507256534639,0.036870922164527455,0.06464276635959888,-0.09779506011289163,0.043260964264375486,0.10153617132487473,-0.18759177693765153,-0.06069606389231218,-0.061959875034387754,0.017322013552723566
219,13.579108199992334,0.01927569828449267,0.013887914120033245,0.0013145383253984574,0.03706194629270674,0.06509190152763401,-0.09862580675484998,0.042989014551479805,0.10125607184723227,-0.187505731517999,-0.0620982375921818,-0.06451749278313794,0.021542615761939683
220,13.587446999998065,0.019440281698957115,0.014177224639614329,0.0008758470709048779,0.03725175209498398,0.0655397709362845,-0.09945613086408756,0.0427108500607716,0.10096462548819572,-0.18740093579025452,-0.06350211090881672,-0.06708313171044293,0.025788065864392206
221,13.591539899993222,0.019605703107997703,0.014468516087029079,0.0004334790176748852,0.03744031202702485,0.06598632424712189,-0.10028594914446039,0.04242646375254751,0.10066179759715611,-0.18727728089096768,-0.06490746149262244,-0.06965639142804286,0.030057817124015517
222,13.595816299988655,0.019771956932136694,0.014761782521117291,-1.2563408770484424e-05,0.03762759851549335,0.06643151097216383,-0.1011151778229888,0.042135849579736054,0.1003475553138695,-0.18713466040514873,-0.06631406359086489,-0.07223686384235235,0.034351310526605595
223,13.600019899997278,0.019939037469704025,0.015057017776765535,-0.000462277410803243,0.03781358396248551,0.06687528048188042,-0.10194373266082259,0.04183900250252615,0.10002186760293545,-0.18697297042152736,-0.06772168834670149,-0.07482413305190579,0.03866797432885791
224,13.60404269999708,0.020106938896738383,0.015354215464298082,-0.0009156598166494849,0.03799824075001879,0.06731758201335374,-0.10277152896445568,0.04153591850123719,0.09968470528848677,-0.18679210959005807,-0.0691301038788484,-0.07741777523718901,0.04300722356025187
225,13.609680599998685,0.02027565526690826,0.015653368968904326,-0.0013727070784006594,0.03818154124457979,0.06775836467859148,-0.10359848159720081,0.041226594590241784,0.09933604108964399,-0.18659197918159173,-0.07053907527203007,-0.08001735846540074,0.04736845957688244
226,13.613824499989278,0.020445180511453314,0.015954471450103355,-0.0018334152700762562,0.038363457801736965,0.0681975774730006,-0.10442450499093277,0.04091102883092047,0.09897584965693464,-0.18637248314933344,-0.07194836485602564,-0.08262244254970036,0.05175106967877176
227,13.617660799995065,0.02061550843914629,0.01625751584124644,-0.0022977800857391095,0.038543962770803124,0.06863516928402359,-0.1052495131581075,0.040589220343112464,0.09860410760899463,-0.1861335281919042,-0.07335773224607822,-0.08523257893585492,0.056154426758690555
228,13.621897199991508,0.02078663273627568,0.016562494849058116,-0.0027657968376645576,0.038723028499549575,0.0690710888999372,-0.10607341970406406,0.040261169317712335,0.09822079356999174,-0.18587502381790985,-0.07476693416305485,-0.08784731059312204,0.06057788896773235
229,13.625420500000471,0.0209585469666494,0.01686940095321661,-0.0032374604545647263,0.038900627338980226,0.06950528501882024,-0.10689613783961564,0.03992687702971396,0.09782588820729356,-0.18559688241196529,-0.07617572448286668,-0.0904661720676648,0.06502079938731053
230,13.629333899996707,0.021131244571619762,0.01717822640597437,-0.003712765479869231,0.039076731648161264,0.06993770625768607,-0.10771758039393647,0.0395863458503694,0.09741937426841785,-0.1852990193021691,-0.07758385427687989,-0.09308868955947146,0.06948248572374836
231,13.633075799996732,0.02130471887012992,0.0174889632318194,-0.0041917060700636215,0.03925131379910298,0.07036830116177768,-0.10853765982775058,0.03923957925987485,0.09700123661801906,-0.18498135282883343,-0.07899107167238945,-0.09571438088115172,0.07396226008067679
232,13.637310599995544,0.021478963058782084,0.017801603227178126,-0.00467427599308692,0.03942434618170183,0.07079701821402784,-0.10935628824682754,0.03888658186076553,0.09657146227520368,-0.1846438044139748,-0.0803971217123877,-0.0983427555016156,0.0784594188029206
233,13.641654899998684,0.021653970211927765,0.018116137960160535,-0.005160468626789623,0.03959580120874093,0.07122380584468474,-0.11017337741578684,0.03852735939184395,0.09613004045012984,-0.18428629863142693,-0.08180174614124205,-0.10097331468542187,0.08297324233392593
234,13.64569859999756,0.021829733281780277,0.018432558770348318,-0.005650276957453528,0.03976565132095547,0.07164861244109638,-0.11098883877221474,0.03816191874347342,0.09567696258008819,-0.18390876327759467,-0.08320468329469502,-0.10360555153787464,0.08750299515159718
235,13.64989699999569,0.022006245098549853,0.018750856768626683,-0.006143693578374792,0.03993386899216873,0.07207138635765586,-0.11180258344109548,0.037790267972480744,0.09521222236570202,-0.1835111294421352,-0.08460566816008126,-0.10623895113481116,0.09204792576865103
236,13.65390999999363,0.02218349837060165,0.0190710228370606,-0.006640710688511604,0.040100426734489526,0.07249207592590644,-0.1126145222495542,0.037412416316916344,0.09473581580585837,-0.1830933315787088,-0.08600443228145753,-0.10887299076169943,0.0966072667145603
237,13.65907850000076,0.022361485684636907,0.01939304762881614,-0.007141320091197847,0.040265297103578915,0.07291062946479625,-0.11342456574191499,0.037028374211797346,0.09424774123179,-0.18265530757581996,-0.08740070362917805,-0.11150714005368532,0.10118023459639901
238,13.66266099999484,0.022540199505897605,0.019716921568127557,-0.007645513192924163,0.04042845270398716,0.07332699529108531,-0.11423262419507135,0.036638153305023104,0.09374799934076591,-0.18219699882702922,-0.08879420667081263,-0.11414086124987963,0.10576603023199689
239,13.66637289999926,0.02271963217839491,0.020042634850310815,-0.008153281002187785,0.04058986619456142,0.07374112172989873,-0.11503860763416619,0.036241766472490056,0.09323659322792065,-0.1817183503006147,-0.0901846625651352,-0.11677360949346362,0.11036383879920407
240,13.67085359999328,0.02289977592516173,0.02037017744182417,-0.0086646141284125,0.0407495102939166,0.07415295712541561,-0.11584242584857948,0.03583922783228874,0.09271352841728618,-0.18121931060846155,-0.091571789187054,-0.11940483295581535,0.11497283003763259
241,13.674893799994608,0.023080622848529624,0.02069953908037639,-0.009179502780940117,0.04090735778596884,0.0745624498516972,-0.11664398840821848,0.0354305527595978,0.09217881289252167,-0.1806998320739364,-0.092955301023195,-0.12203397301105562,0.11959215856822179
242,13.679060700000264,0.023262164930430387,0.021030709275083243,-0.009697936768094741,0.04106338152553825,0.07496954832364804,-0.11744320468010666,0.035015757901806,0.09163245712639906,-0.18015987079794574,-0.09433490902689337,-0.12466046434639011,0.12422096433639274
243,13.683620600000722,0.02344439403272259,0.021363677306672834,-0.010219905496321196,0.041217554444016404,0.07537420100810527,-0.11823998384525918,0.03459486119469084,0.09107447411055535,-0.17959938672288467,-0.09571032030872609,-0.1272837350264808,0.12885837307605966
244,13.687254299991764,0.02362730189754336,0.021698432227740334,-0.010745397969398796,0.041369849555112415,0.0757763564350634,-0.11903423491583827,0.03416788188028205,0.09050487938440793,-0.1790183436945847,-0.09708123781705853,-0.1299032067581741,0.13350349694571556
245,13.691867000001366,0.023810880147685835,0.02203496286305274,-0.011274402787731745,0.04152023996067863,0.07617596320901977,-0.1198258667525775,0.033734840525870204,0.0899236910625617,-0.17841670952062744,-0.09844735990948413,-0.13251829513027824,0.1381554352762759
246,13.69620789999317,0.02399512028700256,0.022373257809904117,-0.011806908147717269,0.041668698856625115,0.07657297002044205,-0.1206147880824538,0.0332957590456667,0.08933092986160028,-0.17779445602566757,-0.099808379908069,-0.13512841000722065,0.14281327506587305
247,13.699993199988969,0.024180013700835314,0.022713305438521954,-0.012342901841192556,0.04181519953893725,0.0769673256573511,-0.12140090751660171,0.03285066072375237,0.08872661912400574,-0.1771515591053632,-0.10116398598972103,-0.13773295608854602,0.1474760913697664
248,13.70412339999166,0.02436555165647183,0.02305509389252501,-0.0128823712549616,0.041959715409793506,0.07735897901700033,-0.12218413356846326,0.03239957023670867,0.08811078483999343,-0.1764879987782447,-0.10251386118610369,-0.1403313334079561,0.15214294774758866
249,13.708099099996616,0.024551725303629826,0.02339861108943313,-0.013425303370402923,0.04210221998378349,0.07774787911765202,-0.12296437467216172,0.03194251367656704,0.08748345566701081,-0.175803759235683,-0.1038576834084715,-0.1429229379563111,0.1568128965188516
250,13.712581699990553,0.024738525674968787,0.02374384472122942,-0.01397168476315918,0.04224268689422905,0.07813397511042944,-0.12374153920109403,0.03147951857322009,0.0868446629460532,-0.175098828891495,-0.10519512563795404,-0.14550716227119026,0.16148497893855096
251,13.716753200002133,0.024925943686630005,0.024090782254975057,-0.014521501602909596,0.04238108989960089,0.07851721629123762,-0.12451553548674409,0.03101061391568526,0.08619444071593987,-0.1743732004303562,-0.10652585582042846,-0.14808339593151826,0.1661582256171733
252,13.7207527999999,0.025113970138805213,0.024439410933477068,-0.015074739653226234,0.042517402890027985,0.078897552112742,-0.12528627183770405,0.030535830175447337,0.08553282572524804,-0.17362687085368533,-0.10784953633697418,-0.15065102613015996,0.17083165704728542
253,13.724976799989236,0.025302595716334277,0.02478971777600926,-0.01563138427151493,0.042651599893921,0.07927493219639495,-0.12605365655889406,0.03005519933241321,0.08485985744151639,-0.17285984152339212,-0.1091658235600158,-0.15320943842777177,0.17550428411213637
254,13.72893589999876,0.02549181098933251,0.02514168957908653,-0.01619142040904183,0.04278365508471166,0.07964930634449587,-0.1268175979709711,0.02956875490218642,0.08417557805650093,-0.17207211820325627,-0.11047436746994127,-0.15575801755228547,0.18017510846214527
255,13.733309299990651,0.025681606413848063,0.02549531291729264,-0.016754832611046263,0.04291354278771776,0.0800206245522643,-0.12757800442991538,0.029076531965418217,0.08348003248829608,-0.17126371109934002,-0.11177481135951682,-0.15829614804719247,0.18484312262134597
256,13.737349000002723,0.025871972332550064,0.02585057414416148,-0.017321605016940786,0.04304123748714256,0.08038883701991889,-0.12833478434679704,0.028578567197700633,0.08277326838084746,-0.17043463490042418,-0.11306679173424143,-0.16082321494953794,0.18950731009102426
257,13.74161909999384,0.02606289897544801,0.026207459393111837,-0.01789172136059917,0.043166713833204605,0.08075389416474608,-0.12908784620772085,0.028074898899800266,0.08205533610006685,-0.16958490881750257,-0.11434993798873294,-0.16333860448859647,0.19416664569701447
258,13.746034299998428,0.026254376460643065,0.02656595457843559,-0.018465164970733132,0.04328994664940496,0.0811157466331447,-0.12983709859394282,0.027565567030418178,0.08132628872715553,-0.16871455662114143,-0.11562387195676818,-0.16584170481586497,0.19882009608290863
259,13.749972699995851,0.02644639479511183,0.02692604539633917,-0.01904191877135852,0.04341091093994725,0.08147434531263553,-0.13058245020214576,0.027050613240409773,0.0805861820482524,-0.16782360667660465,-0.11688820772701881,-0.168331906857236,0.20346662010298994
260,13.754269199998816,0.02663894387552337,0.027287717326038134,-0.019621965282351668,0.04352958189730801,0.08182964134381414,-0.13132380986486714,0.02653008090717705,0.07983507454020812,-0.16691209197773224,-0.11814255142341792,-0.17080860493687686,0.20810516911788338
261,13.75814309999987,0.026832013489090072,0.02765095563090453,-0.020205286620096553,0.04364593490996143,0.08218158613223446,-0.13206108657107468,0.026004015170834165,0.07907302735470645,-0.1659800501794465,-0.11938650092080764,-0.17327119741702754,0.21273468734330275
262,13.763140700000804,0.027025593314453075,0.028015745359666746,-0.020791864498223414,0.04375994557027009,0.08253013136022097,-0.1327941894868823,0.02547246297111869,0.07830010429837052,-0.165027523628541,-0.12061964569003039,-0.1757190875492923,0.21735411230910884
263,13.766745699991588,0.027219672922603036,0.028382071347661495,-0.02138168022843943,0.04387158968253666,0.08287522899857601,-0.13352302797639834,0.024935473084929487,0.07751637180934277,-0.16405455939212005,-0.12184156668298422,-0.1781516839503331,0.2219623752002459
264,13.770639700000174,0.0274142417778369,0.028749918218137393,-0.021974714721452033,0.04398084327122721,0.08321683131818448,-0.13424751162269352,0.024393096164256226,0.07672189893317723,-0.16306120928536738,-0.1230518364029147,-0.1805684010218576,0.22655840098018956
265,13.77578270000231,0.02760928923875151,0.02911927038360975,-0.02257094848798533,0.044087682589358905,0.08355489090150764,-0.13496755024889517,0.023845384773094565,0.07591675729569879,-0.16204752989889207,-0.12425001928364268,-0.18296865951755836,0.23114110862789192
266,13.779373400000622,0.027804804559274674,0.02949011204726596,-0.023170361639890287,0.04419208412705032,0.08388936065394732,-0.13568305393939736,0.023292393422016174,0.07510102107387313,-0.16101358262439816,-0.12543567238329648,-0.18535188693798435,0.23570941139314008
267,13.783178099998622,0.028000776889734524,0.02986242720442097,-0.023772933891349053,0.044294024620215415,0.0842201938150817,-0.1363939330611826,0.022734178598938296,0.07427476696516798,-0.1599594336797684,-0.1266083460373697,-0.18771751783524124,0.2402622167530559
268,13.787796299991896,0.02819719527796761,0.0302361996440222,-0.02437864456017402,0.04439348105938642,0.08454734396975808,-0.13710009828525418,0.022170798797908484,0.07343807415572366,-0.15888515413511922,-0.1277675845679249,-0.19006499397815046,0.24479842623950823
269,13.791775199992117,0.028394048670466403,0.03061141295020328,-0.024987472569202012,0.044490430698662785,0.08487076505904668,-0.13780146060818865,0.02160231454359149,0.0725910242882513,-0.15779081993941343,-0.12891292730695236,-0.19239376433173228,0.24931693570081592
270,13.796131700000842,0.02859132591356668,0.030988050503886026,-0.02559939644778428,0.044584851064751026,0.0851904113910491,-0.13849793137380392,0.021028788410988285,0.07173370143038516,-0.15667651194419682,-0.13004390948417807,-0.19470328482220126,0.2538166359157386
271,13.800210899993544,0.028789015754675108,0.0313660954844299,-0.026214394333372634,0.04467671996608834,0.08550623765157166,-0.13918942229492207,0.020450285042058074,0.07086619204466262,-0.15554231592477158,-0.13116006311513687,-0.19699301811803221,0.2582964132361041
272,13.804023599994252,0.028987106843537436,0.03174553087132855,-0.02683244397320224,0.04476601550202969,0.08581819891466794,-0.13987584547522494,0.019866871157570076,0.06998858495881606,-0.1543883225982401,-0.13226091796980208,-0.19926243350493755,0.2627551504048465
273,13.808735799990243,0.029185587733547482,0.032126339445952674,-0.02745352272607136,0.044852716072076436,0.086126250653049,-0.14055711343117686,0.019278615565144656,0.0691009713368604,-0.15321462763743152,-0.13334600260106602,-0.20151100667154817,0.26719172725169293
274,13.812288999994053,0.02938444688309708,0.03250850379333876,-0.028077607564218357,0.04493680038513465,0.08643034874836979,-0.14123313911400356,0.01868558916199404,0.06820344465128352,-0.15202133168278265,-0.13441484571080436,-0.20373821949472276,0.27160502132516356
275,13.816620899990085,0.029583672656967073,0.032892006304023086,-0.028704675075296147,0.04501824746876802,0.08673044950139291,-0.14190383593172018,0.01808786493086179,0.06729610065603572,-0.15080854035066574,-0.13546697727358956,-0.20594355988482196,0.27599390886024106
276,13.82071200000064,0.02978325332775924,0.033276829175920515,-0.02933470146444433,0.04509703667842019,0.08702650964203584,-0.14256911777118395,0.017485517932808798,0.06637903736009089,-0.149576364236697,-0.13650192919576232,-0.20812652166086307,0.28035726585954035
277,13.824876400001813,0.02998317707736898,0.03366295441624748,-0.029967662556459027,0.04517314770660375,0.08731848633930048,-0.14322889902015146,0.0168786252973142,0.06545235500154185,-0.14832491891448665,-0.13751923616265527,-0.21028660431072366,0.28469396910800643
278,13.828951699993922,0.030183431998498645,0.034050363843488744,-0.030603533798060387,0.04524656059203492,0.0876063372110908,-0.14388309458932036,0.016267266207555992,0.06451615602328586,-0.14705432492995832,-0.13851843656769477,-0.21242331261182937,0.28900289715648125
279,13.833050399989588,0.030384006096211152,0.03443903908940736,-0.031242290260257696,0.04531725572869211,0.08789002033392712,-0.14453161993433625,0.01565152188228126,0.06357054505048024,-0.14576470779138595,-0.13949907319649701,-0.21453615635281065,0.29328293137210637
280,13.83766829999513,0.030584887289523553,0.03482896160109749,-0.031883906640811845,0.045385213874789984,0.08816949425256396,-0.1451743910777461,0.015031475555026538,0.06261562886869357,-0.144456197954408,-0.14046069378973827,-0.21662465024296843,0.29753295706301186
281,13.84141969999473,0.03078606341304015,0.035220112643079574,-0.032528357266794906,0.04545041616165399,0.08844471798951074,-0.14581132463087243,0.014407212451001688,0.06165151640216342,-0.1431289308021009,-0.14140285150735146,-0.21868831370200656,0.3017518643837244
282,13.845678999990923,0.030987522218624688,0.035612473299437473,-0.03317561609724639,0.0455128441024896,0.08871565105445713,-0.14644233781559018,0.013778819762198063,0.06067831869381023,-0.14178304662197244,-0.1423251054036007,-0.22072667082077388,0.3059385491079477
283,13.85012989999086,0.03118925137711115,0.036006024475997156,-0.03382565672592573,0.045572479601036324,0.08898225345361659,-0.1470673484859971,0.013146386620063797,0.059696148883842816,-0.14041869057918938,-0.14322702079551916,-0.22273925088029023,0.3100919134264326
284,13.85395449999487,0.03139123848005261,0.0364007469025466,-0.03447845238416052,0.04562930496009493,0.08924448569896222,-0.1476862751499534,0.012510004067348063,0.058705122185174305,-0.13903601268650267,-0.1441081693230344,-0.22472558876094165,0.314210866582903
285,13.858284399990223,0.03159347104150758,0.03679662113509629,-0.035133975943789815,0.045683302889932,0.08950230881735258,-0.14829903699048574,0.01186976503024373,0.057705355858402675,-0.13763516777184157,-0.1449681288741674,-0.22668522540101452,0.31829432575965605
286,13.86255479999818,0.03179593649986331,0.03719362755817999,-0.03579219992020196,0.04573445651656036,0.0897556843595458,-0.1489055538870399,0.011225764290894264,0.05669696918316468,-0.13621631544039348,-0.14580648340509886,-0.2286177086865439,0.32234121719161785
287,13.866751299996396,0.031998622219695474,0.03759174638719507,-0.03645309647546619,0.0457827493899001,0.09000457440907168,-0.1495057464365487,0.010578098461130375,0.05568008342523337,-0.1347796200323289,-0.14662282277120262,-0.2305225942182569,0.3263504769762631
288,13.870784999991884,0.032201515493663804,0.03799095767078188,-0.037116637421557096,0.04582816549182636,0.09024894159095435,-0.1500995359743102,0.009926865956473753,0.05465482180107787,-0.13332525057770647,-0.1474167426312002,-0.2323994460799272,0.3303210517494947
289,13.874770800000988,0.03240460354444304,0.03839124129324136,-0.03778279422367115,0.04587068924410002,0.09048874908027037,-0.15068684459465614,0.009272166970722794,0.05362130943815423,-0.13185338074821032,-0.1481878446674112,-0.23424783857650183,0.3342519000536533
290,13.87957939998887,0.03260787352668883,0.03879257697699021,-0.0384515380036343,0.04591030551619033,0.0907239606105196,-0.15126759517140267,0.008614103448005186,0.052579673324067495,-0.13036418879993628,-0.14893573794854695,-0.23606735989622488,0.3381419962728413
291,13.89176289999159,0.03281131252903796,0.03919494428505268,-0.03912283954339965,0.0459469996329581,0.090954540481733,-0.1518417113780119,0.007952779045290953,0.05153004223442067,-0.12885785749026712,-0.14966004134397734,-0.2378576173214909,0.34199033727809225
292,13.895558799995342,0.03301490757614235,0.03959832262358753,-0.03979666928863365,0.045980757382146166,0.09118045356820431,-0.1524091177073061,0.007288299083057598,0.050472546635815005,-0.1273345739617907,-0.15036038571014385,-0.23961824175834098,0.3457959480840545
293,13.900110699993093,0.03321864563073564,0.040002691244448337,-0.04047299735238845,0.04601156502162555,0.09140166532573851,-0.1529697394906012,0.00662077048843421,0.049407318573573174,-0.12579452960906393,-0.15103641471903992,-0.2413488889352505,0.3495578826118595
294,13.904571399994891,0.03342251359573133,0.04040802924777469,-0.04115179351885755,0.046039409286382296,0.09161814179838891,-0.15352350291624042,0.005950301738527293,0.04833449156411979,-0.12423791995577275,-0.15168778470869604,-0.24304923703916484,0.3532752202351313
295,13.91239699999278,0.03362649831635132,0.040814315584612126,-0.041833027247212384,0.0460642773952615,0.09182984962475221,-0.15407033504763964,0.0052770028048893846,0.0472542005036464,-0.12266494455209437,-0.15231416491235988,-0.24471898388787894,0.3569470629615673
296,13.916661399998702,0.033830586582283745,0.04122152905955913,-0.042516667675517796,0.04608615705746224,0.0920367560438965,-0.15461016384091192,0.004600985094814632,0.04616658158554123,-0.1210758068768249,-0.15291523834648357,-0.24635784605363384,0.3605725352868675
297,13.922353799993289,0.03403476512986909,0.04162964833343957,-0.04320268362472475,0.046105036478761574,0.0922388289009248,-0.1551429181620456,0.003922361387940936,0.045071772216818067,-0.11947071423603556,-0.15349070263000913,-0.24796555822526278,0.3641507843043797
298,13.927286299993284,0.03423902064431315,0.042038651925998996,-0.043891043602738024,0.04612090436744782,0.09243603665216278,-0.1556685278036312,0.0032412457702876603,0.0439699109411966,-0.11784987766422908,-0.15404027050267763,-0.24954187144866907,0.3676809793033177
299,13.933273099988584,0.0344433397619257,0.04244851821862302,-0.04458171580855706,0.0461337499399602,0.09262834837004087,-0.15618692350116387,0.002557753566266191,0.04286113737111849,-0.11621351182655514,-0.15456367057411116,-0.2510865524398089,0.37116231279972334
300,13.937211099997512,0.03464770907238341,0.042859225457076856,-0.0452746681364881,0.04614356292621984,0.09281573374767968,-0.15669803694890402,0.0018720012660817004,0.04174559211691387,-0.11456183491083372,-0.15506064842143893,-0.252599384264984,0.374594002701663
301,13.94170949999534,0.03485211512101575,0.043270751754264355,-0.04596986818042553,0.04615033357462628,0.09299816310314467,-0.15720180081522322,0.0011841064480200877,0.040623416712790836,-0.11289506851058956,-0.15553096700795968,-0.25408016611873624,0.3779752924358406
302,13.946361800000886,0.03505654441111218,0.0436830750930052,-0.046667283238199964,0.0461540526567,0.0931756073833759,-0.15769814875742866,0.0004941877021409041,0.03949475354796953,-0.1112134375159539,-0.15597440565624912,-0.25552871151692813,0.38130544853588816
303,13.95019119999779,0.03526098340624916,0.04409617332882878,-0.047366880315990914,0.04615471147140299,0.09334803816783263,-0.15818701543614255,-0.0001976354383386968,0.03835974580867873,-0.1095171700180637,-0.15639075880013276,-0.25694484672200657,0.38458375856701843
304,13.95470909999858,0.035465418532635636,0.044510024192783645,-0.048068626132802265,0.04615230184917339,0.09351542767190926,-0.15866833652927975,-0.0008912425622950443,0.03721853742324016,-0.1078064972183484,-0.15677983609361773,-0.2583284112323115,0.387809531890658
305,13.962358199991286,0.03566983618147576,0.04492460529426166,-0.04877248712499877,0.04614681615566803,0.09367774875009342,-0.15914204874562352,-0.0015865124502790027,0.036071272999730404,-0.10608165332615543,-0.15714146385901068,-0.2596792598758294,0.390982103519146
306,13.9665582000016,0.03587422271134757,0.045339894123835454,-0.04947842945090178,0.04613824729518066,0.09383497489882965,-0.15960808983789618,-0.0022833231525956036,0.034918097752517134,-0.10434287543388913,-0.1574754863648302,-0.2609972651852861,0.39410083806945434
307,13.9706920000026,0.036078564450595964,0.045755868056107894,-0.050186418995441524,0.04612658871369279,0.09398708025902673,-0.16006639861522884,-0.002981552070205836,0.0337591574188806,-0.10259040337961109,-0.15778176538539423,-0.2622823180199063,0.39716513035983186
308,13.97509120000177,0.03628284769973841,0.04617250435257178,-0.050896421374863325,0.046111834401575263,0.09413403961818272,-0.16051691495501483,-0.003681076028904763,0.03259459818004186,-0.1008244796168935,-0.15806017832528735,-0.26353432557812245,0.40017440224619405
309,13.97891969999182,0.03648705873388188,0.04658978016447815,-0.05160840194148488,0.046093978895981935,0.09427582841219267,-0.16095957981422646,-0.0043817713436083905,0.0314245665953892,-0.0990453491054453,-0.15831061630315496,-0.2647532092999316,0.4031280985612394
310,13.98325659999682,0.03669118380514972,0.04700767253571197,-0.05232232578850272,0.04607301728298176,0.09441242272689104,-0.16139433524029956,-0.005083513875556555,0.030249209542088918,-0.09725325921693989,-0.15853298317291098,-0.2659389040797946,0.40602568485942264
311,13.987299499989604,0.03689520914511749,0.0474261584056741,-0.05303815775484591,0.046048945199445704,0.0945437992993244,-0.161821124381616,-0.0057861790879288905,0.02906867415628452,-0.09544845964561809,-0.15872719493522444,-0.26709135770747994,0.4088666471637241
312,13.99156409999705,0.03709912096725658,0.047845214612168285,-0.05375586243007539,0.04602175883468618,0.0946699355187729,-0.16223989149759627,-0.006489642097834211,0.0278831077776609,-0.09363120231635916,-0.1588931789992245,-0.2682105305092589,0.41165049260615394
313,13.995603499992283,0.03730290546938453,0.04826481789429215,-0.05447540415932709,0.04599145493188336,0.09479080942753197,-0.1626505819683676,-0.007193777725386088,0.02669265789382213,-0.09180174128960965,-0.1590308739725958,-0.2692963955670067,0.4143767492519736
314,13.99969979999878,0.03750654883612129,0.0486849448953311,-0.05519674704829687,0.04595803078928989,0.09490639972144102,-0.16305314230401435,-0.007898460543832737,0.025497472082914665,-0.08996033267101165,-0.1591402296310733,-0.27034893892651746,0.4170449656455848
315,14.006550399994012,0.03771003724135025,0.049105572165654046,-0.055919854968265625,0.045921484261213084,0.0950166857501568,-0.16344752015344557,-0.008603564928362357,0.024297697956159717,-0.08810723452035447,-0.15922120692940678,-0.27136815998919867,0.4196547116986007
316,14.0111087999976,0.037913356850683144,0.049526676165609684,-0.05664469156116278,0.0458818137587873,0.09512164751717304,-0.16383366431283877,-0.009308965106330145,0.023093483097006547,-0.08624270675333569,-0.1592737788996041,-0.27235407298848135,0.42220558107891204
317,14.016401299988502,0.03811649382392796,0.049948233268422404,-0.05737122024466618,0.0458390182505112,0.09522126567955481,-0.1642115247336372,-0.010014535214020974,0.021884974990585622,-0.0843670110293486,-0.15929793234670908,-0.27330670938348656,0.42469719561180536
318,14.020670099998824,0.03831943431755861,0.050370219763086234,-0.05809940421733643,0.045793097262517235,0.09531552154733317,-0.1645810525299996,-0.010720149361898919,0.020672320941656986,-0.0824804106142548,-0.15929366933661987,-0.27422611957805626,0.4271292091194508
319,14.025658400001705,0.038522164487185186,0.050792611857255365,-0.05882920646378279,0.04574405087853093,0.09540439708251262,-0.1649421999855818,-0.011425681704550173,0.019455667988834902,-0.0805831702341585,-0.15926100761554543,-0.27511237240050157,0.42950130705237544
320,14.02939919999335,0.0387246704900233,0.051215385680129316,-0.05956058975985761,0.04569187973952071,0.09548787489770598,-0.16529492055969103,-0.012131006509648453,0.018235162827145015,-0.07867555594144371,-0.15919998005058283,-0.27596555252814686,0.4318132032402564
321,14.033251599990765,0.03892693848736125,0.05163851728533136,-0.060293516677876705,0.04563658504304627,0.09556593825445572,-0.16563916889288086,-0.012835998222942112,0.017010951745064375,-0.07675783499733263,-0.15911063349203594,-0.27678575724520005,0.43406463636331144
322,14.037352200000896,0.03912895464702355,0.05206198265377881,-0.06102794959186336,0.04557816854233267,0.09563857106131109,-0.1659749008120651,-0.013540531527141082,0.01578318057579989,-0.07483027576918198,-0.15899302799489057,-0.2775730939063825,0.43625536785643804
323,14.04172419999668,0.039330705145829925,0.05248575769654443,-0.06176385068281405,0.045516632545097045,0.09570575787171787,-0.16630207333520283,-0.014244481400007216,0.014551994656797485,-0.07289314763160809,-0.1588472369985693,-0.2783276785991557,0.43838518144519045
324,14.045813399992769,0.03953217617204843,0.05290981825770801,-0.06250118194398391,0.04545197991210813,0.09576748388173677,-0.16662064467553653,-0.014947723174833637,0.013317538792871573,-0.07094672086789394,-0.158673347696168,-0.27904963505688063,0.4404538830205715
325,14.04986149999604,0.03973335392784169,0.05333414011719758,-0.06323990518618999,0.045384214055477136,0.0958237349276066,-0.16693057424540358,-0.015650132601806057,0.01207995722534229,-0.06899126657222344,-0.1584714613638135,-0.2797390931509304,0.44246130059164823
326,14.053987499995856,0.03993422463170489,0.05375869899361938,-0.06397998204313055,0.04531333893667372,0.0958744974831892,-0.16723182265960834,-0.01635158591139984,0.010839393608523014,-0.06702705655150826,-0.15824169372026092,-0.2803961875833332,0.4444072843357686
327,14.0582260999945,0.040134774520894395,0.054183470547076444,-0.06472137397671811,0.04523935906425525,0.09591975865732437,-0.167524351738364,-0.017051959878926905,0.009595990990439162,-0.06505436322717718,-0.15798417503600487,-0.28102105711841663,0.4462917066364075
328,14.062364899989916,0.04033498985384569,0.05460843038197515,-0.06546404228242485,0.045162279491310936,0.09595950619110397,-0.16780812450979454,-0.017751131888899385,0.0083498917961224,-0.06307345953666774,-0.15769905019340164,-0.28161384404380807,0.4481144616566377
329,14.066706600002362,0.04053485691257932,0.05503355404981965,-0.06620794809463784,0.045082105812620954,0.09599372845507884,-0.16808310521200404,-0.018448980000109135,0.007101237813104327,-0.061084618838994055,-0.15738647868746533,-0.2821746936319658,0.44987546483796886
330,14.07105810000212,0.040734362005093644,0.05545881705199366,-0.06695305239202273,0.044998844161524026,0.09602241444640443,-0.16834925929474198,-0.019145383009998445,0.005850170179480847,-0.05908811482067814,-0.15704663420588055,-0.2827037538791686,0.4515746529622431
331,14.075109099998372,0.04093349146774307,0.05588419484252963,-0.06769931600289376,0.04491250120650629,0.09604555378594197,-0.16860655342063927,-0.01984022051601898,0.004596829371718087,-0.05708422140076946,-0.15667970408982654,-0.2832011756765162,0.4532119839496875
332,14.079276099990238,0.04113223166760056,0.056309662830864846,-0.06844669961058839,0.044823084147525345,0.09606313671529607,-0.16885495546603213,-0.020533372975226047,0.0033413551912019213,-0.05507321263856517,-0.1562858887755253,-0.28366711289976276,0.45478743638004065
333,14.083409599988954,0.04133056900480332,0.05673519638458434,-0.06919516375884459,0.04473060071207116,0.09607515409379672,-0.16909443452138062,-0.021224721760690346,0.0020838867512480677,-0.05305536264287198,-0.1558654010158941,-0.28410172268765826,0.4563010091968781
334,14.087449300001026,0.041528489914880395,0.05716077083215028,-0.06994466885717922,0.0446350591509904,0.09608159739542184,-0.16932496089128873,-0.02191414921419703,0.0008245624611858506,-0.05103094548234568,-0.15541846501201148,-0.28450516615230304,0.4577527211244051
335,14.092281899997031,0.04172598087106136,0.057586361465617596,-0.07069517518626549,0.04453646823408047,0.0960824587056383,-0.16954650609412858,-0.022601538694963303,-0.00043647999292456834,-0.04900023509991948,-0.15494531519479687,-0.2848776093057726,0.4591426098292509
336,14.0960730999941,0.041923028386564906,0.05801194354333541,-0.07144664290330796,0.044434837245482285,0.09607773071815358,-0.16975904286130247,-0.02328677462154467,-0.0016991036724171937,-0.046963505230569046,-0.1544461949383473,-0.28521922426826873,0.46047073174398545
337,14.10028389999934,0.04211961901686671,0.058437492292633855,-0.07219903204741353,0.044330175978903055,0.09606740673154314,-0.1699625451361386,-0.023969742509154266,-0.002963172416005696,-0.044921029317304254,-0.15392135563189452,-0.28553019025752197,0.46173716164589135
338,14.103989600000205,0.04231573936194571,0.05886298291249566,-0.0729523025449566,0.04422249473267845,0.09605148064573643,-0.17015698807240887,-0.024650329003347786,-0.00422855087267331,-0.04287308043266578,-0.15337105593001765,-0.2858106941953424,0.46294199141839976
339,14.108281799999531,0.04251137606850818,0.05928839057621181,-0.07370641421493698,0.044111804304696994,0.09602994695835286,-0.17034234803252918,-0.025328421910700623,-0.005495104537031629,-0.04081993120568902,-0.15279556080550488,-0.2860609311576699,0.4640853295149184
340,14.112325399997644,0.04270651583218911,0.059713690434020694,-0.07446132677432908,0.043998115987190466,0.09600280076087461,-0.17051860258543025,-0.026003910224102308,-0.0067626997861973985,-0.038761853748150506,-0.15219514044129137,-0.2862811049250676,0.4651673006762498
341,14.116499099996872,0.042901145399730105,0.06013885761572986,-0.07521699984342094,0.04388144156143421,0.09597003773465591,-0.1706857305041045,-0.026676684143617582,-0.008031203920028006,-0.036699119584035156,-0.1515700696013625,-0.28647142872985776,0.4661880452522424
342,14.121038500001305,0.04309525157113379,0.06056386723331978,-0.07597339295114172,0.043761793292352726,0.09593165414673942,-0.170843711762852,-0.02734663509620781,-0.00930048520461698,-0.03463199958179203,-0.15092062738159115,-0.28663212555426987,0.4671477185676515
343,14.12568789999932,0.043288821201793955,0.06098869438352859,-0.07673046554037634,0.043639183923045284,0.09588764684548015,-0.1709925275342274,-0.028013655754384775,-0.01057041291517071,-0.03256076388941925,-0.15024709706976974,-0.28676342785368947,0.46804649031771317
344,14.12961639999412,0.043481841204601454,0.061413314150417044,-0.07748817697326589,0.04351362666922626,0.09583801325598207,-0.1711321601857106,-0.028677640054692147,-0.011840857377052266,-0.03048568187207428,-0.14954976596603387,-0.2868655774158968,0.46888454458794987
345,14.13357969999197,0.0436742985520251,0.06183770160791286,-0.07824648653649278,0.04338513521358703,0.0957827513753584,-0.17126259327610102,-0.029338483214768455,-0.013111690007411147,-0.02840702204698335,-0.14882892611098866,-0.286938825918457,0.4696620814170548
346,14.141289599996526,0.0438661802781676,0.062261831822333684,-0.07900535344654926,0.043253723700085143,0.0957218597677994,-0.17138381155161186,-0.029996081758278857,-0.014382783361164896,-0.026325052007206487,-0.14808487639263035,-0.2869834355992854,0.4703793198858793
347,14.145681800000602,0.044057473480795875,0.06268567985488771,-0.07976473685498787,0.04311940672808537,0.09565533755942539,-0.17149580094158876,-0.030650333550642856,-0.01565401117856923,-0.024240038329182357,-0.14731792408323965,-0.28699967928653297,0.47103650075265824
348,14.14996080000128,0.0442481653233451,0.06310922076415108,-0.08052459585365214,0.042982199346332337,0.09558318443293307,-0.1715985485537851,-0.03130113783758106,-0.01692524843146441,-0.02215224647314839,-0.14652838522744904,-0.2869878389409196,0.4716338857573348
349,14.154239399998914,0.044438243036895614,0.06353242960852108,-0.08128488947988513,0.042842117046750124,0.09550540062203886,-0.17169204266919855,-0.031948395284280694,-0.01819637135793222,-0.020061940696848447,-0.1457165842043045,-0.28694820189158265,0.4721717531663277
350,14.158419899991712,0.04462769392212203,0.06395528144864429,-0.08204557672171436,0.04269917575806794,0.09542198690581823,-0.17177627273658194,-0.03259200801006277,-0.01946725747519659,-0.017969383995420866,-0.14488285248967603,-0.28688105674601283,0.47265039310403506
351,14.162515299991355,0.04481650535121368,0.06437775134981964,-0.08280661652301181,0.0425533918393126,0.09533294460303474,-0.17185122936674724,-0.03323187961658407,-0.020737785578047608,-0.015874838056463263,-0.14402752846553302,-0.28678669127455536,0.4730701061367256
352,14.168435300001876,0.0450046647697661,0.06479981438437635,-0.08356796778862831,0.04240478207318438,0.09523827556649332,-0.17191690432667833,-0.033867915220814726,-0.022007835733001427,-0.013778563212465565,-0.14315095911785067,-0.28666539137927294,0.4734312055841508
353,14.172735100000864,0.04519215969864275,0.06522144563402692,-0.0843295893895014,0.042253363659257324,0.09513798217742107,-0.17197329053341368,-0.03450002149828159,-0.023277289267589676,-0.011680818375396768,-0.14225350125368771,-0.28651744005768043,0.473734020714635
354,14.176784499999483,0.045378977735806285,0.06564262019219531,-0.08509144016773557,0.04209915420697206,0.09503206733991541,-0.17202038204757958,-0.035128106726827604,-0.024546028755339306,-0.009581860960833388,-0.14133552100206057,-0.2863431166761223,0.4739788968281881
355,14.180850299992017,0.04556510655811822,0.06606331316632079,-0.0858534789416528,0.04194217172844842,0.09492053447545792,-0.1720581740666007,-0.03575208082543354,-0.025813937998625035,-0.007481946821809944,-0.14039739299599208,-0.28614269568947326,0.474166193198125
356,14.185278099990684,0.04575053392310648,0.06648349968013743,-0.08661566451081264,0.041782434631134346,0.09480338751751444,-0.17208666291764738,-0.03637185539073133,-0.027080902002307308,-0.005381330191182134,-0.13943949993279892,-0.2859164453831199,0.4742962819308194
357,14.18995939999877,0.0459352476707,0.06690315487593018,-0.08737795566100032,0.04161996171029507,0.0946806309062824,-0.17210584605033546,-0.03698734373193048,-0.028346806945440235,-0.003280263625578501,-0.13846223230530144,-0.28566462827490996,0.47436954818887284
358,14.195604299995466,0.046119235724929694,0.06732225391676783,-0.08814031116918211,0.041454772141352576,0.09455226958354158,-0.1721157220291772,-0.03759846090495026,-0.02961154015847034,-0.0011789979457866107,-0.13746598838104793,-0.2853875018723696,0.47438639158847973
359,14.199795099993937,0.0463024860955952,0.06774077198871341,-0.08890268980842658,0.041286885472072446,0.09441830898760346,-0.1721162905257529,-0.03820512374716206,-0.030874990101652507,0.0009222178316742338,-0.13645117405288382,-0.2850853196698878,0.4743472276738947
360,14.2041545999964,0.04648498687989667,0.06815868430301249,-0.08966505035279061,0.04111632161459553,0.09427875504835312,-0.17210755231055566,-0.03880725091019782,-0.03213704635108256,0.0030231365672287775,-0.13541820189128462,-0.28475833264740696,0.47425248662086317
361,14.208095199996023,0.04666672626403087,0.06857596609825961,-0.09042735158216839,0.040943100837334157,0.09413361418232234,-0.1720895092445193,-0.039404762886297205,-0.03339759959038978,0.005123513055187088,-0.13436748930737327,-0.2844067899279043,0.47410260910641816
362,14.21247410000069,0.046847692524751225,0.06899259264254294,-0.09118955228710238,0.04076724375677039,0.09398289328780515,-0.17206216427035848,-0.039997582024842625,-0.03465654160259394,0.007223104059831803,-0.1332994564767647,-0.2840309394364655,0.47389804221510334
363,14.216460199997528,0.047027874030891245,0.06940853923556745,-0.09195161127355561,0.04058877132920577,0.09382659974000303,-0.17202552140377705,-0.04058563254031423,-0.03591376526763643,0.009321668336093568,-0.13221452477279017,-0.2836310294580376,0.47363923628455473
364,14.220864399991116,0.04720725924485147,0.06982378121075652,-0.09271348736764477,0.040407704842489095,0.09366474138616229,-0.17197958572462507,-0.0411688405149452,-0.03716916456803706,0.011418966637694008,-0.131113115688766,-0.2832073104935114,0.47332664309080125
365,14.224967899994226,0.04738583672404963,0.07023829393733212,-0.09347513942033413,0.040224065907742634,0.09349732654066924,-0.1719243633680349,-0.0417471338971294,-0.0384226346028678,0.01351476172174515,-0.1299956500292271,-0.2827600365966113,0.472960715186186
366,14.228911099999095,0.04756359512233431,0.0706520528223729,-0.0942365263120901,0.04003787645110403,0.09332436398006372,-0.17185986151553753,-0.04232044249691194,-0.0396740716052528,0.015608818351027192,-0.12886254729117638,-0.2822894658925555,0.47254190522455536
367,14.233254199993098,0.04774052319136192,0.07106503331285018,-0.09499760695749652,0.03984915870549244,0.09314586293797925,-0.1717860883861785,-0.042888697978915494,-0.04092337296093678,0.01770090329260993,-0.12771422501527005,-0.2817958612583481,0.4720706653020137
368,14.238074099994265,0.047916609781937416,0.07147721089764128,-0.09575834030983048,0.03965793520241311,0.09296183309999209,-0.17170305322764645,-0.04345183385208316,-0.04217043723181166,0.01979078531429042,-0.12655109831710876,-0.28127949120042023,0.47154744677336324
369,14.241804599994794,0.04809184384531872,0.07188856110951986,-0.09651868536559896,0.039464228763814405,0.09277228459835296,-0.17161076630742056,-0.04400978545845257,-0.04341516418225974,0.021878235181588285,-0.12537357975708963,-0.28074063013350403,0.4709727002354836
370,14.245759099998397,0.04826621443448525,0.07229905952712254,-0.09727860116903633,0.03926806249399179,0.09257722800660273,-0.17150923890392572,-0.04456248996174582,-0.04465745480515081,0.02396302565403615,-0.12418207914039883,-0.2801795580814261,0.4703468751290949
371,14.24976579999202,0.048439710705370634,0.07270868177689158,-0.0980380468165626,0.03906945977154596,0.09237667433407382,-0.1713984832977129,-0.045109886334371734,-0.04589721134553476,0.026044931478647053,-0.1229770036079105,-0.27959656017824575,0.46967041985652913
372,14.254397899989272,0.04861232191806002,0.07311740353499278,-0.09879698146120273,0.03886844424140198,0.09217063502029603,-0.1712785127626721,-0.04565191534682109,-0.04713433732221933,0.028123729387248178,-0.12175875830436071,-0.2789919262293466,0.4689437821994211
373,14.25808369999868,0.04878403743795206,0.0735252005292086,-0.09955536431696713,0.03866503980686132,0.09195912192930679,-0.17114934155723643,-0.04618851956058804,-0.048368737547574585,0.030199198093648516,-0.12052774676695122,-0.2783659500523683,0.4681674090424889
374,14.262363399990136,0.048954846736885826,0.07393204854080568,-0.10031315466319297,0.03845927062168375,0.09174214734388153,-0.17101098491562006,-0.04671964332100791,-0.0496003181432721,0.03227111828852562,-0.11928437104621492,-0.27771892885862864,0.4673417464322435
375,14.266618499998003,0.04912473939423266,0.07433792340637677,-0.10107031184884711,0.0382511610822028,0.0915197239597045,-0.1708634590390676,-0.04724523275124936,-0.050828986554609594,0.034339272637113366,-0.11802903219470223,-0.2770511628532942,0.46646723939696716
376,14.270648099991377,0.049293705097953215,0.07474280101965669,-0.1018267952967899,0.03804073581946086,0.09129186487947223,-0.17070678108711268,-0.04776523574948129,-0.05205465156270814,0.03640344577249393,-0.1167621308153605,-0.27636295451689374,0.46554433176740445
377,14.275959999999031,0.04946173364561965,0.07514665733331204,-0.10258256450800057,0.03782801969134977,0.09105858360695634,-0.17054096916888659,-0.04827960198772302,-0.05327722329247185,0.03846342429169709,-0.11548406707222489,-0.27565460770840144,0.46457346679427214
378,14.2801419999887,0.04962881494540304,0.07554946836070447,-0.10333757906576418,0.03761303777475608,0.09081989404103648,-0.17036604233441144,-0.04878828290910589,-0.054496613216839546,0.04051899675446261,-0.11419524033091125,-0.2749264270848546,0.46355508715038507
379,14.283746699991752,0.049794939017026,0.07595121017762761,-0.10409179863981981,0.037395815357725924,0.09057581046972539,-0.17018202056591986,-0.04929123172353863,-0.05571273415960294,0.04256995367935834,-0.11289604899884514,-0.2741787176019689,0.4624896349702674
380,14.28749039999093,0.04996009599268068,0.07635185892401739,-0.10484518299047055,0.037176377931648664,0.09032634756417698,-0.16998892476918245,-0.049788403403553616,-0.056925500295234376,0.044616087542893514,-0.11158689036566553,-0.2734117838368525,0.46137755152830634
381,14.291503100001137,0.05012427611791211,0.07675139080563582,-0.10559769197265496,0.03695475118345855,0.0900715203727129,-0.1697867767648354,-0.050279754678558386,-0.058134827145705094,0.046657192772785704,-0.11026815990418871,-0.27262592962796645,0.46021927668277873
382,14.2968683999934,0.05028746975246718,0.07714978209572854,-0.10634928553998023,0.03673096098786931,0.08981134431485875,-0.1695755992797675,-0.05076524402448931,-0.05934063157712345,0.048693065742148864,-0.10894025049250074,-0.2718214578160547,0.4590152489752344
383,14.300909999990836,0.05044966737110915,0.07754700913665563,-0.10709992374871725,0.03650503339966745,0.08954583517540046,-0.16935541593849937,-0.05124483165117178,-0.060542831794258165,0.0507235047636407,-0.10760355230370218,-0.2709986701032098,0.4577659047487852
384,14.304885899997316,0.05061085956439833,0.07794304834149655,-0.10784956676175748,0.036276994646058845,0.08927500909846904,-0.16912625125462225,-0.051718479490997185,-0.061741347335928,0.05274831007583984,-0.10625845246655638,-0.27015786691405586,0.45647167787400994
385,14.309367499998189,0.05077103703943886,0.07833787619562861,-0.10859817485253218,0.03604687111906231,0.08899888258163778,-0.16888813062229782,-0.05218615118327684,-0.0629360990682953,0.05476728383496505,-0.1049053338486743,-0.2692993468574502,0.45513299992508005
386,14.312825899993186,0.05093019062059197,0.07873146925827951,-0.10934570840889389,0.035814689367994805,0.08871747247006641,-0.16864108030777056,-0.052647812052139455,-0.06412700917548696,0.056780230102812655,-0.10354457399726173,-0.2684234064658355,0.4537502991010569
387,14.31690959999105,0.051088311250156164,0.079123804164054,-0.11009212793696059,0.03558047609206083,0.08843079595068139,-0.16838512744097425,-0.053103429081501424,-0.06531400115057898,0.0587869548289198,-0.10217654453071087,-0.26753034039540985,0.45232399997089556
388,14.320974100002786,0.05124538998901487,0.07951485762443487,-0.11083739406492277,0.035344258133059345,0.08813887054639993,-0.1681203000072024,-0.05355297088757452,-0.0664969997879907,0.06078726583624291,-0.10080161072002614,-0.2666204414650361,0.4508545230288685
389,14.3249022999953,0.05140141801725202,0.07990460642925844,-0.11158146754681375,0.03510606246821671,0.0878417141103777,-0.16784662683884166,-0.05399640769012812,-0.06767593117481402,0.06278097279938251,-0.09942013132843666,-0.2656940001190149,0.4493422835193156
390,14.329001499994774,0.05155638663473615,0.08029302744816454,-0.11232430926624361,0.03486591620314819,0.08753934482030958,-0.16756413760723507,-0.054433711283576075,-0.06885072267844847,0.06476788721985045,-0.09803245844207334,-0.264751304166772,0.44778769091956955
391,14.332499999989524,0.05171028726167369,0.08068009763202155,-0.11306588024009737,0.03462384656494704,0.08723178117278696,-0.16727286281463463,-0.054864855006738954,-0.07002130293562436,0.06674782239971411,-0.09663893694069203,-0.2637926390212354,0.44619114765965356
392,14.33747189999849,0.05186311143913184,0.08106579401432644,-0.11380614162219763,0.03437988089541387,0.08691904197769577,-0.16697283378629804,-0.05528981370924215,-0.07118760184214964,0.06872059340552163,-0.09523990402897256,-0.26281828802068435,0.4445530483038833
393,14.341399199998705,0.05201485082953183,0.0814500937125801,-0.11454505470693277,0.034134046644443396,0.08660114635266454,-0.1666640826627608,-0.055708563717126014,-0.07234955054478419,0.07068601703469617,-0.09383568903660074,-0.26182853310586046,0.44287378086901175
394,14.345679099991685,0.05216549721711324,0.0818329739296382,-0.11528258093285111,0.033886371363558467,0.08627811371753442,-0.1663466423922307,-0.05612108279747294,-0.07350708143698502,0.0726439117911383,-0.09242661304859266,-0.2608236557373878,0.4411537284617287
395,14.349871099999293,0.05231504250837001,0.08221441195503763,-0.11601868188622173,0.033636882699610175,0.08594996378884498,-0.16602054672307603,-0.05652735012074261,-0.07466012815890785,0.07459409786612646,-0.09101298854711283,-0.25980393743601504,0.4393932695778843
396,14.353899900001124,0.05246347873245891,0.08259438516629843,-0.11675331930456209,0.033385608388645543,0.08561671657430418,-0.16568583019638924,-0.05692734622222605,-0.07580862559793818,0.07653639711657012,-0.08959511921093663,-0.2587696593437049,0.4375927772639199
397,14.358206799995967,0.052610798041581204,0.08297287103020119,-0.11748645508013297,0.03313257624994911,0.08527839236726947,-0.16534252813866787,-0.05732105296260434,-0.07695250988480459,0.07847063303848154,-0.08817330015480085,-0.2577211017649251,0.43575261905602874
398,14.36243839999952,0.05275699271133841,0.08334984710404023,-0.11821805126340126,0.03287781418026,0.08493501174125222,-0.16499067665461317,-0.05770845349152304,-0.0780917183900463,0.08039663074468996,-0.0867478183098723,-0.2566585441443581,0.4338731579785964
399,14.366556199995102,0.05290205514106268,0.08372529103685221,-0.11894807006647111,0.032621350148136226,0.08458659554443004,-0.16463031262000846,-0.058089532211521355,-0.07922618971992898,0.08231421694715835,-0.08531895232276895,-0.2555822649480714,0.43195475244586407
400,14.370731199989676,0.053045977854122635,0.08409918057062071,-0.1196764738664836,0.03236321218849129,0.08423316489418749,-0.16426147367467442,-0.05846427474071204,-0.08035586371185956,0.08422321993382643,-0.08388697288509732,-0.2544925415460974,0.4299977557826987
401,14.374743299995316,0.05318875349820538,0.08447149354145654,-0.12040322520898551,0.032103428397289066,0.08387474117166895,-0.16388419821555256,-0.05883266787962985,-0.08148068142926192,0.08612346954668204,-0.08245214349279086,-0.25338964996981134,0.42800251695989583
402,14.379035399993882,0.0533303748455753,0.08484220788075397,-0.12112828681126774,0.03184202692637413,0.08351134601636472,-0.1634985253898548,-0.05919469958063826,-0.08260058515484235,0.08801479716511804,-0.08101472071446067,-0.2522738646935403,0.4259693808969157
403,14.383078799990471,0.0534708347933103,0.08521130161632315,-0.12185162156567332,0.03157903597843765,0.08314300132072361,-0.16310449508829436,-0.059550358917155176,-0.08371551838353056,0.08989703568668551,-0.07957495413232996,-0.2511454584361509,0.42389868848274365
404,14.38722509999934,0.053610126363516024,0.08557875287349859,-0.12257319254287594,0.0313144838021203,0.08276972922480152,-0.16270214793840587,-0.05989963605253636,-0.08482542581398742,0.09177001951063556,-0.07813308637229709,-0.2500047019783774,0.4217907768906695
405,14.39196880000236,0.053748242703518676,0.08594453987622416,-0.12329296299512875,0.031048398687253842,0.0823915521109493,-0.16229152529792204,-0.060242522209567544,-0.08593025333992774,0.09363358452146096,-0.07668935318298419,-0.24885186324733122,0.41964597968226974
406,14.395675399995524,0.053885177086037093,0.08630864094811456,-0.1240108963594842,0.030780808960234315,0.08200849259853814,-0.16187266924823954,-0.060579009640048066,-0.08702994803351792,0.09548756807335917,-0.07524398340628964,-0.24768720603903974,0.4174646270266722
407,14.400169999993524,0.05402092290933461,0.08667103451349355,-0.12472695626098501,0.030511742979533032,0.08162057353879455,-0.16144562258793335,-0.06090909159402213,-0.08812445812538196,0.09733180897571642,-0.07379719893746915,-0.24651099003559218,0.4152470453380529
408,14.404274399988935,0.05415547369735132,0.08703169909840963,-0.1254411065158265,0.030241229131342355,0.08122781800970291,-0.16101042882635125,-0.06123276228900883,-0.08921373298815098,0.09916614747435928,-0.07234921468521664,-0.24532347042848257,0.4129935566400817
409,14.408115300000643,0.0542888230998174,0.0873906133316292,-0.1261533111344908,0.029969295825359284,0.0808302493109861,-0.1605671321772942,-0.06155001687887974,-0.09029772311313256,0.10099042523140866,-0.0709002383719688,-0.24412489682062447,0.4107044784654698
410,14.412314599991078,0.05442096489234801,0.08774775594560774,-0.12686353432485328,0.029695971490706935,0.08042789095921478,-0.16011577755278936,-0.06186085142131992,-0.09137638008413342,0.10280448530564143,-0.0694504700546751,-0.24291551338444328,0.40838012431363674
411,14.416504699998768,0.05455189297652048,0.0881031057774396,-0.12757174049526157,0.029421284572006382,0.0800207666830199,-0.15965641055694438,-0.06216526284246009,-0.09244965655552927,0.10460817213639872,-0.06800010165591833,-0.24169555912183113,0.40602080389226125
412,14.420801499989466,0.05468160137993442,0.08845664176978682,-0.12827789425758745,0.02914526352561145,0.07960890041839626,-0.159189077479863,-0.06246324890018393,-0.0935175062283904,0.10640133152608751,-0.06654931657478445,-0.24046526722682057,0.40362682213760853
413,14.424795899991295,0.05481008425625554,0.0888083429717873,-0.1289819604302521,0.028867936816005618,0.07919231630412654,-0.1587138252916544,-0.06275480814531309,-0.09457988382290558,0.10818381061541014,-0.06509828876837129,-0.23922486492466766,0.4011984786751723
414,14.429071799997471,0.054937335885243854,0.08915818853994309,-0.12968390404122482,0.02858933291238065,0.07877103867732912,-0.15823070163656816,-0.06303993987677772,-0.0956367450530821,0.10995545786108789,-0.06364718174359052,-0.2379745741901631,0.39873606882057694
415,14.433197499995003,0.055063350672767186,0.0895061577389891,-0.1303836903309964,0.02830948028543064,0.07834509206910625,-0.157739754827201,-0.06331864409387011,-0.09668804660553305,0.11171612301995724,-0.06219614837777323,-0.23671461214816356,0.3962398839760472
416,14.437280999991344,0.055188123150800975,0.08985222994274283,-0.1310812847555265,0.028028407404353625,0.07791450120027978,-0.15724103383877264,-0.06359092144982603,-0.0977337461177256,0.11346565713020569,-0.060745330689050796,-0.23544519083238707,0.3937102114716043
417,14.441766899995857,0.05531164797741521,0.09019638463493537,-0.13177665298916624,0.027746142734056834,0.07747929097723201,-0.15673458830349868,-0.06385677320204418,-0.09877380215463145,0.11520391249406123,-0.05929485931741746,-0.2341665173861332,0.3911473348444696
418,14.445764899995991,0.05543391993674949,0.09053860141002422,-0.13246976092755586,0.027462714732599293,0.07703948648784832,-0.1562204685050199,-0.0641162011610704,-0.09980817418875329,0.11693074266150327,-0.057844853923988915,-0.23287879458163935,0.38855153391828556
419,14.449870099997495,0.05555493393897729,0.09087885997398833,-0.13316057469049783,0.027178151848849013,0.07659511299753494,-0.15569872537291943,-0.0643692076443541,-0.10083682258137608,0.11864600241365401,-0.0563954236196958,-0.23158222095908162,0.38592308540437026
420,14.454283400002168,0.05567468502026029,0.09121714014510571,-0.133849060624806,0.026892482520335263,0.07614619594532761,-0.15516941047729915,-0.06461579542903009,-0.1018597085638249,0.12034954775181568,-0.05494666671634816,-0.23027699078660874,0.3832622633377861
421,14.458396000001812,0.05579316834269358,0.09155342185471396,-0.1345351853071307,0.026605735171324047,0.07569276094007546,-0.15463257602339403,-0.06485596770346981,-0.10287679421836218,0.12204123588472493,-0.0534986709062523,-0.22896329411957994,0.38056933951837657
422,14.46237769999425,0.05591037919424296,0.09188768514795409,-0.13521891554676013,0.026317938211099574,0.07523483375671888,-0.15408827484626134,-0.06508972802165434,-0.10388804245997034,0.12372092522149716,-0.05205151364104075,-0.22764131730172735,0.37784458498735546
423,14.466409499989824,0.056026312988674935,0.09221991018449804,-0.13590021838839839,0.026029120032443936,0.07477244033263476,-0.15353656040545757,-0.06531708025808156,-0.10489341702168867,0.12538847537196168,-0.050605262611166074,-0.2263112434631228,0.37508826998698697
424,14.470925799992983,0.05614096526548052,0.09255007723926016,-0.13657906111491974,0.025739309010318043,0.07430560676404427,-0.1529774867797247,-0.06553802856638691,-0.10589288244080734,0.12704374713924882,-0.04915997666399356,-0.22497325301797527,0.3723006635627018
425,14.47491699999955,0.05625433168979357,0.0928781667030929,-0.13725541125009963,0.025448533500707873,0.07383435930248039,-0.1524111086617327,-0.06575257734238373,-0.10688640404861423,0.12868660251660033,-0.047715706153148456,-0.22362752440469358,0.36948203495905124
426,14.478919000001042,0.056366408052304334,0.09320415908346698,-0.13792923656132228,0.025156821839632824,0.07335872435128656,-0.15183748135279415,-0.06596073118577882,-0.1078739479631449,0.13031690469232296,-0.04627249296843103,-0.22227423466414858,0.3666326542594973
427,14.483671800000591,0.056477190269169045,0.09352803500513608,-0.1386005050622649,0.024864202342331113,0.07287872846214839,-0.15125666075756278,-0.06616249486347775,-0.10885548108405213,0.1319345180522666,-0.04483037103486726,-0.22091356017919384,0.3637527923446896
428,14.487626699992688,0.05658667438191623,0.09384977521078629,-0.13926918501555838,0.024570703302593203,0.0723943983316378,-0.15066870337872612,-0.06635787327572144,-0.1098309710919072,0.13353930818440826,-0.043389366452580666,-0.2195456773321566,0.3608427217331395
429,14.491705399996135,0.05669485655735039,0.09416936056167016,-0.13993524493542442,0.024276352992247188,0.07190576079775089,-0.15007366631166358,-0.06654687142063054,-0.11080038644889394,0.1351311418887775,-0.041949497506598904,-0.2181707628641655,0.3579027174197746
430,14.495791800000006,0.05680173308745377,0.0944867720382255,-0.14059865359028892,0.023981179660806314,0.07141284283644593,-0.149471607239051,-0.06672949436042887,-0.11176369640129317,0.13670988718946903,-0.040510774886363114,-0.21678899395684986,0.3549330574708357
431,14.500173199994606,0.05690730038928689,0.09480199074067877,-0.14125938000537133,0.023685211535253582,0.07091567155815925,-0.14886258442541242,-0.06690574718793241,-0.11272087098090061,0.13827541334983817,-0.03907320178572923,-0.21540054832995656,0.3519340227883232
432,14.504248799989,0.05701155500488844,0.09511499788963297,-0.14191739346524976,0.023388476819986136,0.07041427420433065,-0.14824665671158996,-0.06707563499365864,-0.11367188100837602,0.13982759088242674,-0.037636774352125334,-0.21400560505992086,0.34890589623217244
433,14.508137400000123,0.05711449360117531,0.0954257748266403,-0.14257266351640133,0.023091003696891238,0.06990867814388961,-0.14762388350920766,-0.06723916283629447,-0.11461669810191263,0.1413662915563821,-0.036201481965916146,-0.21260434452204782,0.34584896313591496
434,14.512507599996752,0.057216112969843136,0.09573430301475891,-0.14322515996971824,0.02279282032555227,0.06939891086970391,-0.1469943247950757,-0.06739633571228044,-0.11555529468007414,0.14289138841195112,-0.03476730753983184,-0.2111969479296746,0.3427635112681255
435,14.518510499998229,0.05731641002726816,0.09604056403909407,-0.1438748529029986,0.022493954843594163,0.06888499999504075,-0.1463580411055258,-0.06754715852893123,-0.11648764396638162,0.14440275576755768,-0.03333422821755927,-0.20978359797254945,0.33964982995566895
436,14.522469799994724,0.05741538181441085,0.0963445396073236,-0.1445217126634122,0.02219443536712751,0.06836697324997464,-0.1457150935307527,-0.06769163608020846,-0.11741371999780581,0.1459002692265297,-0.031902215443687175,-0.20836447863893157,0.33650821056044833
437,14.526673200001824,0.057513025496721715,0.09664621155020722,-0.14516570986994137,0.021894289991308623,0.06784485847777336,-0.14506554370909003,-0.0678297730204609,-0.11833349762777806,0.14738380568840015,-0.030471234764313095,-0.20693977457544852,0.33333894703892
438,14.530976900001406,0.057609338364049835,0.09694556182207995,-0.14580681541579593,0.021593546791016275,0.06731868363127919,-0.14440945382125164,-0.06796157383843089,-0.11924695252901171,0.1488532433605905,-0.02904124577674428,-0.20550967132652562,0.33014233662362774
439,14.534761099988827,0.05770431783055469,0.09724257250132938,-0.146445000470803,0.021292233821642026,0.06678847676926981,-0.143746886584504,-0.06808704283054888,-0.12015406119863409,0.15030846177574939,-0.027612201490756886,-0.20407435631353857,0.32691868225469034
440,14.54596629999287,0.05779796143462173,0.09753722579085689,-0.14708023648377047,0.02099037912000355,0.06625426605279414,-0.1430779052467539,-0.06820618406928147,-0.12105480096968199,0.15174934182497613,-0.026184047400903455,-0.20263402114996149,0.323668298768065
441,14.553799000001163,0.057890266838782234,0.09782950401852242,-0.14771249518482432,0.020688010705415344,0.06571607974143133,-0.14240257358042654,-0.06831900136820773,-0.12194915003674306,0.1531757658299797,-0.024756721206412233,-0.2011888639163672,0.32039152036547264
442,14.55808019998949,0.0579812318296384,0.09811938963757254,-0.1483417485877179,0.020385156580911452,0.06517394618939949,-0.14172095587591405,-0.06842549824788585,-0.12283708748760497,0.15458761764247664,-0.023330153020871026,-0.1997390891013744,0.31708870316474563
443,14.562361099990085,0.058070854317794046,0.09840686522705079,-0.14896796899211118,0.020081844734618548,0.06462789384153435,-0.14103311693457288,-0.06852567790278702,-0.12371859332837365,0.15598478273894306,-0.021904266211092746,-0.19828490526616066,0.3137602225663836
