,time,x,y,z,vx,vy,vz,ax,ay,az,jx,jy,jz
0,7.098448899996583,0.0016878671432262833,-0.010594790487404238,0.010561027780308116,-0.002543904843405737,-0.008434964454039422,0.0064925417459025065,0.005081323768911136,0.015287471421193358,-0.008238479156262905,0.05759624302449791,0.12546050076699414,-0.05709736727499602
1,7.103430100003607,0.0016766113256683,-0.010632127426625724,0.010589801534608395,-0.00252075284053878,-0.008365782543513665,0.006455363191630076,0.005338226308116985,0.015846722383749418,-0.008493825908225547,0.05801076189913003,0.12620473158610077,-0.05781290922897976
2,7.107540700002573,0.0016654609408872274,-0.010669151374112371,0.01061840753270496,-0.0024964549796714663,-0.008294107777243912,0.006417042720820881,0.005596963719028928,0.01640926674622015,-0.008752360454406012,0.05842194313706005,0.1269425404725053,-0.05853188363295782
3,7.111610499996459,0.0016544210995956372,-0.010705851218220914,0.010646840668040591,-0.002471003138959107,-0.008219925581641606,0.006377566131905705,0.0058575211227129284,0.016975075866692557,-0.009014097950321437,0.05882976624040724,0.12767388230221471,-0.05925424469606599
4,7.115839000005508,0.001643496948455456,-0.010742215782820873,0.01067509577079166,-0.002444389262886338,-0.008143221510858254,0.006336919156411527,0.006119883548670054,0.017544120903387257,-0.009279053343433645,0.05923421046580026,0.12839871212167933,-0.05997994463647566
5,7.11978170000657,0.0016326936697822721,-0.010778233827864248,0.01070316760757285,-0.0024166053626766644,-0.00806398124767107,0.006295087459905705,0.0063840359335847734,0.018116372814812876,-0.009547241364541688,0.05963525479444034,0.12911698475506853,-0.060708933594997745
6,7.124049499994726,0.0016220164812478072,-0.010813894049959135,0.010731050881146134,-0.0023876435167079343,-0.007982190604372512,0.006252056642977642,0.006649963120128471,0.018691802357635866,-0.009818676517924282,0.06003287800068603,0.12982865441640334,-0.06144115928932866
7,7.138558599996031,0.00161147063558053,-0.010849185082947334,0.010758740230134232,-0.002357495870932519,-0.007897835523674856,0.006207812242270593,0.006917649856317367,0.019270380083387266,-0.010093373069659043,0.06042705878695148,0.13053367447992936,-0.06217656667058143
8,7.1430565000046045,0.0016010614202643938,-0.010884095498486004,0.010786230228738758,-0.002326154639298494,-0.007810902079629007,0.0061623397315671525,0.007187080795515111,0.019852076334291435,-0.01037134503471194,0.060817775861485554,0.13123199725029144,-0.0629150977331465
9,7.146776900000987,0.0015907941572357053,-0.010918613806633434,0.010813515386463317,-0.0022936121041697947,-0.007721376478566156,0.0061156245229358214,0.007458240496482047,0.02043686123792996,-0.010652606163566438,0.06120500788223026,0.13192357381187345,-0.06365669161106738
10,7.151710699996329,0.0015806742025781283,-0.010952728456439074,0.010840590147841856,-0.0022598606167469615,-0.0076292450600640134,0.006067651967935345,0.007731113422878786,0.021024704701731227,-0.010937169930169601,0.06158873332496943,0.13260835405357285,-0.06440128485213978
11,7.1559048000053735,0.0015707069462158128,-0.01098642783653789,0.010867448892172457,-0.002224892597491707,-0.007534494297937451,0.006018407358868424,0.00800568394214349,0.021615576407854532,-0.011225049520997624,0.06196893036534191,0.13328628683420787,-0.06514881159829213
12,7.160795899995719,0.001560897811604624,-0.0110197002757492,0.010894085933256838,-0.002188700536557641,-0.007437110801250209,0.005967875930083241,0.008281936323946684,0.022209445809149908,-0.011516257824605282,0.06234557678039129,0.13395732011350822,-0.06589920352876338
13,7.165789699996822,0.0015512522554214433,-0.011052534043680028,0.01092049551914571,-0.002151276994228571,-0.007337081315341447,0.005916042859320071,0.008559854738193456,0.022806282125206582,-0.011810807420186385,0.06271864984665579,0.13462140105585577,-0.0666523896822256
14,7.170313700000406,0.0015417757672515017,-0.01108491735133306,0.010946671831890247,-0.0021126146013669875,-0.00723439272287258,0.0058628932691144825,0.00883942325257242,0.023406054339234907,-0.01210871056554213,0.06308812626050164,0.13527847622533212,-0.0674082965679801
15,7.173759700002847,0.0015324738692736942,-0.0111168383517193,0.010972608987299926,-0.00207270605987415,-0.007129032044881539,0.005808412228250897,0.009120625829849778,0.024008731195848548,-0.012409979186629947,0.06345398209210353,0.13592849160557846,-0.06816684838574977
16,7.178137199996854,0.0015233521159438229,-0.011148285140475405,0.010998301034706903,-0.0020315441431626225,-0.007020986441849325,0.005752584753258691,0.00940344632500923,0.024614281198122936,-0.012714624867485513,0.06381619276973377,0.13657139259233936,-0.06892796709488325
17,7.182163999998011,0.001514416093675712,-0.011179245756485814,0.011023741956737157,-0.0019891216966417854,-0.0069102432147804165,0.005695395809955329,0.009687868482406397,0.025222672605311185,-0.013022658840386735,0.06417473309768183,0.13720712403791432,-0.06969157254524626
18,7.186506600002758,0.001505671420520135,-0.01120970818250969,0.011048925669088588,-0.0019454316382156622,-0.00679678980628962,0.005636830315029899,0.009973875933068,0.025833873430297652,-0.01333409197693922,0.06452957729662348,0.1378356300684736,-0.07045758256121537
19,7.191282200001297,0.0014971237458415053,-0.01123966034581271,0.01107384602031623,-0.0019004669587924389,-0.006680613801705119,0.005576873137665481,0.010261452192205115,0.026447851435690038,-0.013648934778986849,0.06488069907933122,0.13845685397520827,-0.07122591286759727
20,7.194961600005627,0.0014887787499922732,-0.01126909011880381,0.01109849679162477,-0.0018542207228043942,-0.006561702930190058,0.0055155091012034805,0.010550580657185329,0.027064574130305413,-0.013967197369038765,0.06522807175442913,0.13907073822181923,-0.07199647704264255
21,7.199433899993892,0.0014806421439849957,-0.011297985319676943,0.011122871696668559,-0.0018066860687354445,-0.006440045065876823,0.005452722984851085,0.010841244605968225,0.027684008765328883,-0.01428888948076231,0.06557166828656066,0.13967722425437723,-0.07276918658725247
22,7.203661799998372,0.001472719669162045,-0.01132633371305791,0.011146964381359304,-0.0017578562096549801,-0.006315628229022777,0.005388499525430103,0.01113342719561236,0.02830612232910952,-0.014614020450025156,0.06591146129208693,0.14027625236784128,-0.07354395103612003
23,7.207347999996273,0.0014650170968629316,-0.011354123010656393,0.011170768423681624,-0.0017077244337586812,-0.006188440587190791,0.005322823419164044,0.01142711146067251,0.02893088154213255,-0.014942599206376153,0.06624742301036725,0.1408677617555357,-0.07432067800958903
24,7.211353999999119,0.0014575402280892073,-0.01138134087192327,0.01119427733351663,-0.0016562841049166006,-0.006058470456449672,0.005255679323502682,0.011722280311451377,0.02955825285225507,-0.015274634264548418,0.06657952525311889,0.14145169048436315,-0.07509927318405885
25,7.21555310000258,0.0014502948931669154,-0.011407974904713325,0.011217484552473697,-0.0016035286632295198,-0.0059257063025970474,0.005187051858984666,0.012018916531946698,0.03018820242945791,-0.015610133715677113,0.06690773933002138,0.1420279754751313,-0.0758796402202968
26,7.219093099993188,0.0014432869514065488,-0.011434012665953433,0.0112403834537306,-0.0015494516255952792,-0.0057901367424064345,0.00511692561114014,0.012317002777441672,0.030820696160906495,-0.01594910521816533,0.06723203596749146,0.1425965525297005,-0.0766616807338094
27,7.227817000006325,0.0014365222907604667,-0.011459441662316355,0.011262967341882197,-0.001494046586286552,-0.005651750544894031,0.005045285132434544,0.012616521571730098,0.03145569964594399,-0.01629155598863851,0.06755238521513088,0.1431573562444783,-0.07744529425536531
28,7.232328900005086,0.001430006827477716,-0.01148424935090018,0.011285229452797845,-0.0014373072175418397,-0.005510536632610289,0.004972114944251644,0.012917455303875227,0.03209317819038325,-0.016637492792459425,0.06786875629846262,0.14371031988699492,-0.07823037807777339
29,7.240852000002633,0.001423746505756196,-0.011508423139913602,0.01130716295348771,-0.0013792272701720549,-0.0053664840829574425,0.004897399538921635,0.013219786224125927,0.0327330968004029,-0.01698692193332065,0.06818111739197022,0.14425537527972906,-0.07901682715958494
30,7.244791699995403,0.0014177472973920875,-0.011531950389367072,0.011328760941978206,-0.0013198005741878174,-0.005219582129535339,0.004821123381796684,0.013523496438658153,0.03337542017580662,-0.01733984924290359,0.06848943538877109,0.14479245272852387,-0.07980453417456182
31,7.24895569999353,0.0014120152014264413,-0.011554818411770041,0.011350016447196756,-0.0012590210394527784,-0.005069820163518877,0.004743270913370952,0.0138285679034438,0.03402011270328296,-0.017696280070910664,0.06879367578359095,0.14532148103986756,-0.08059338963507799
32,7.253100899994024,0.0014065562437888006,-0.011577014472834355,0.01137092242886608,-0.001196882656365414,-0.004917187735063757,0.004663826551444733,0.014134982417951978,0.034667138449818204,-0.0180562192758212,0.06909380269807837,0.14584238752584075,-0.08138328203787569
33,7.257334099995205,0.0014013764769377293,-0.011598525792183987,0.011391471777408185,-0.0011333794965683376,-0.004761674554742466,0.00458277469332665,0.01444272161924287,0.03531646115600018,-0.0184196712162192,0.06938977897035574,0.14635509796953713,-0.08217409789376107
34,7.262240800002473,0.0013964819794981295,-0.011619339544071204,0.01141165731385823,-0.0010685057136825902,-0.004603270495009546,0.004500099718074874,0.014751766976464999,0.03596804422912376,-0.018786639741813202,0.06968156621584211,0.14685953656819678,-0.0829657216534478
35,7.266019200003939,0.0013918788558952425,-0.01163944285809932,0.01143147178978844,-0.001002255544065866,-0.004441965591698868,0.004415785988779145,0.015062099785489731,0.03662185073598918,-0.01915712818410488,0.06996912484608672,0.14735562587399595,-0.08375803562610096
36,7.271507400000701,0.001387573235985227,-0.011658822819952173,0.011450907887242253,-0.0009346233075944948,-0.00427775004555291,0.004329817854884932,0.01537370116357594,0.03727784339548125,-0.019531139346684875,0.07025241407740707,0.1478432867742672,-0.08455091989528715
37,7.275731000001542,0.0013835712746822094,-0.011677466472130468,0.011469958218678895,-0.000865603408469091,-0.004110614223785993,0.0042421796545617126,0.015686552044081287,0.037935984571191864,-0.0199086754951543,0.07053139193862233,0.14832243856802957,-0.08534425222263313
38,7.28010180000274,0.0013798791515817004,-0.01169536081469515,0.011488615326928573,-0.0007951903360435465,-0.0039405486616791345,0.0041528557171167215,0.016000633171195634,0.03859623626467946,-0.02028973834656422,0.07080601525653785,0.14879299904260568,-0.08613790790220151
39,7.284284199995454,0.0013765030705802771,-0.01171249280601793,0.01150687168515851,-0.0007233786656774927,-0.003767544064203201,0.004061830365457093,0.0163159250945233,0.03925856010877253,-0.020674329058042746,0.07107623963709579,0.1492548844513937,-0.08693175962207976
40,7.288204800002859,0.0013734492594914224,-0.011728849363539075,0.011524719696850021,-0.0006501630596134501,-0.003591591307673284,0.003969087918604703,0.016632408163648922,0.03992291736063155,-0.021062448215004224,0.07134201950645666,0.14970800955091496,-0.08772567738033232
41,7.292229300001054,0.0013707239696574096,-0.011744417364532647,0.011542151695786903,-0.0005755382678775922,-0.0034126814414335194,0.003874612694263117,0.016950062523084872,0.04058926889538175,-0.021454095819029254,0.07160330822215868,0.1501522877267637,-0.088519528369024
42,7.296610699995654,0.001368333475557136,-0.011759183646879268,0.011559159946055325,-0.0004994991292018065,-0.0032308056895680648,0.0037783890114401605,0.017268868107825186,0.041257575200294605,-0.021849271275042995,0.07186005819814845,0.1505876310504113,-0.0893131768358804
43,7.301010499999393,0.0013662840744098114,-0.011773135009846562,0.011575736642055533,-0.0004220405719639783,-0.0030459554526376365,0.003680401193128838,0.017588804639404338,0.041927796368925505,-0.02224797337796553,0.07211222094893954,0.1510139502866662,-0.090106483978003
44,7.305150800006231,0.0013645820857744334,-0.01178625821487736,0.01159187390852557,-0.00034315761514508344,-0.002858122309442593,0.0035806335690485623,0.017909851621843678,0.04259989209536154,-0.022650200298945437,0.0723597469889721,0.15143115490848635,-0.09089930784311122
45,7.3113444000046,0.0013632338511449691,-0.011798539986385814,0.011607563800577338,-0.00026284536930550333,-0.002667298018810604,0.00347907047844844,0.01823198833681565,0.04327382166849087,-0.023055949571132314,0.07260258562572264,0.15183915299566683,-0.09169150319119265
46,7.315755300005549,0.001362245733541152,-0.011809967012561491,0.01162279830374525,-0.00018109903758510167,-0.0024734745214106705,0.0033756962729749643,0.018555193837751238,0.04394954396534995,-0.023465218074680615,0.0728406847543797,0.15223785100265488,-0.0924829213661034
47,7.319683599998825,0.0013616241170947745,-0.01182052594618161,0.01163756933404777,-9.791391673191615e-05,-0.0022766439415999296,0.0032704953196085957,0.018879446943179126,0.044627017443329094,-0.023878002021380868,0.07307399077726258,0.15262715358815265,-0.09327341043138263
48,7.324096299998928,0.0013613754066313405,-0.011830203405431556,0.011651868738062175,-1.3285398161441742e-05,-0.0020767985893069556,0.0031634520036680647,0.019204726230116882,0.04530620013200506,-0.024294296940870715,0.07330244867977344,0.15300696356075572,-0.09406281566179439
49,7.327885000006063,0.001361506027246943,-0.011838985974733847,0.011665688293012795,7.27910309559342e-05,-0.0018739309619511626,0.003054550731869518,0.019531010028085227,0.045987049624863434,-0.024714097669635303,0.07352600217026857,0.15337718184186236,-0.09485097998552659
50,7.332083400004194,0.0013620224238802504,-0.011846860205585721,0.011679019706872965,0.00016031978658244295,-0.0016680337463996838,0.0029437759354285936,0.019858276413742493,0.04666952307080155,-0.025137398341148896,0.07374459381776265,0.15373770737187467,-0.09563774417187922
51,7.336305000004359,0.0013629310608794956,-0.011853812617405493,0.011691854618480848,0.0002493051866778069,-0.0014590998209623011,0.0028311120732071936,0.02018650320612291,0.047353577165017084,-0.025564192376543567,0.07395816518871598,0.1540884370335886,-0.0964229470066522
52,7.340404400005354,0.0013642384215643729,-0.011859829698387869,0.011704184597669346,0.00033975145004442513,-0.0012471222574293134,0.002716543634898504,0.020515667962486914,0.04803916813983002,-0.025994472476309777,0.07416665697980312,0.15442926576085952,-0.0972064254354046
53,7.345207899998059,0.0013659510077827612,-0.011864897906368424,0.01171600114541024,0.00043166269515536055,-0.0010320943231480466,0.0026000551442475392,0.020845747974739585,0.048726251756537164,-0.026428230612238462,0.07437000912659589,0.15476008663251647,-0.09798801470181688
54,7.349612999998499,0.0013680753394622045,-0.01186900366969737,0.011727295693972727,0.0005250429389676898,-0.000814009483133125,0.002481631162307784,0.021176720266247,0.04941478329706885,-0.026865458020351462,0.07456816087735396,0.15508079082539034,-0.09876754856502575
55,7.353478100005304,0.0013706179541560868,-0.011872133388122793,0.011738059607096507,0.0006198960957221924,-0.0005928614022171419,0.002361256290724579,0.02150856158891056,0.05010471755542596,-0.027306145194775436,0.07476105084799038,0.15539126759703953,-0.0995448594305125
56,7.357402399997227,0.001373585406584443,-0.011874273433683535,0.011748284180179504,0.0007162259757306949,-0.00036864394723704514,0.0022389151750462142,0.021841248420471943,0.05079600882918309,-0.02775028188183572,0.07494861705881867,0.15569140418200986,-0.10031977849837093
57,7.365689600002952,0.0013769842681693558,-0.011875410151611868,0.011757960640480385,0.0008140362841518046,-0.00014135118926033324,0.0021145925080598136,0.02217475696191404,0.05148861091000341,-0.028197857075248148,0.07513079696912443,0.1559810856164357,-0.10109213591397792
58,7.369603800005279,0.0013808211265648835,-0.011875529861246166,0.011767080147335933,0.0009133306197551515,8.902259414424895e-05,0.001988273033145167,0.022509063135073205,0.052182477073582825,-0.02864885901155217,0.07530752756330805,0.15626019466148783,-0.10186176081241596
59,7.373895299999276,0.0013851025851814732,-0.011874618856953754,0.011775633792393374,0.001014112473675898,0.00032248291659112995,0.0018599415476512075,0.022844142580805915,0.05287756006948436,-0.02910327516569754,0.07547874548644799,0.1565286118577094,-0.10262848146915629
60,7.378017900002305,0.0013898352627048178,-0.011872663409064172,0.011783612599857768,0.0011163852281626848,0.0005590350805168577,0.0017295829062890721,0.02317997065780597,0.05357381211156527,-0.029561092247816806,0.07564438716872779,0.15678621576461138,-0.1033921254557034
61,7.382179599997471,0.0013950257926091398,-0.011869649764813006,0.011791007526754495,0.0012201521553216275,0.0007986841747794282,0.0015971820245372676,0.023516522441877154,0.054271184869941154,-0.030022296200195468,0.07580438889488832,0.15703288317558126,-0.10415251973344898
62,7.386455700005172,0.0014006808226648844,-0.011865564149296489,0.011797809463206908,0.0013254164158577966,0.0010414350722258035,0.0014627238820616633,0.023853772725367785,0.05496962946332331,-0.030486872194878722,0.07595868682554825,0.1572684891475123,-0.10490949082162407
63,7.390442899995833,0.0014068070144408163,-0.01186039276643696,0.011804009232729222,0.0014321810578141884,0.0012872924272231295,0.0013261935261419287,0.024191696016632878,0.05566909645124621,-0.030954804632134483,0.07610721702222328,0.15749290709714653,-0.10566286485165557
64,7.395352499996079,0.0014134110428005043,-0.011854121799959403,0.011809597592534625,0.0015404490153084246,0.0015362606731571657,0.0011875760751051886,0.024530266539691085,0.056369535827261216,-0.031426077138543285,0.07624991550351722,0.15770600886777206,-0.10641246753258342
65,7.399113699997542,0.0014204995953931887,-0.011846737414379145,0.011814565233858687,0.0016502231072686735,0.0017883440199030042,0.001046856721769439,0.024869458234186327,0.057070897011756924,-0.031900672565153915,0.07638671830036874,0.15790766461311662,-0.10715812420293422
66,7.402995099997497,0.0014280793721390302,-0.011838225756000876,0.011818902782298074,0.0017615060361700085,0.0020435464512596827,0.0009040207368935958,0.025209244755535803,0.05777312884412083,-0.0323785729860344,0.0765175614715055,0.15809774276770797,-0.10789965990481877
67,7.407433600004879,0.0014361570847087448,-0.011828572953929148,0.01182260079816463,0.0018743003867716453,0.0023018717223512292,0.0007590534726337908,0.025549599475028984,0.05847617957529621,-0.03285975969708627,0.07664238107010633,0.15827611003700834,-0.10863689944321124
68,7.41127320000669,0.0014447394559976286,-0.011817765121090501,0.011825649776854812,0.00198860862485418,0.002563323356995117,0.0006119403660039606,0.025890495479679303,0.059179996859856115,-0.033344213215122466,0.07676111306381078,0.15844263123684382,-0.109369667398315
69,7.416245899992646,0.0014538332195939685,-0.011805788355267351,0.011828040149234524,0.0021044330959555076,0.002827904645032856,0.0004626669423403378,0.02623190557161213,0.05988452774713298,-0.0338319132767915,0.07687369323193964,0.15859716916246042,-0.1100977881280181
70,7.41997899999842,0.0014634451192418309,-0.01179262874014384,0.011829762282039356,0.0022217760241026213,0.0030956186396196034,0.00031121881877160346,0.026573802267002886,0.06058971867212869,-0.0343228388376772,0.07698005710338006,0.15873958450213632,-0.11082108587905445
71,7.423864800002775,0.0014735819082981995,-0.011778272346363819,0.011830806478290263,0.0023406395105380912,0.0033664681544739563,0.00015758170769137995,0.026916157794912906,0.06129551544587631,-0.03481696807221097,0.07708013998192206,0.1588697356543727,-0.11153938478453312
72,7.428690400003688,0.0014842503491844443,-0.011762705232601145,0.011831162977724663,0.0024610255324415157,0.0036404557610818893,1.7414202291636976e-06,0.027258944096452756,0.062001863244725244,-0.035314278372749544,0.077173877037696,0.1589874785845537,-0.11225250861939805
73,7.43335589999333,0.0014954572128320948,-0.011745913446642517,0.011830821957242972,0.002582935941648564,0.003917583785851309,-0.00015631613026898482,0.02760213282443085,0.06270870659942884,-0.0358147463473136,0.07726120339603151,0.1590926667287142,-0.11296028068680479
74,7.440768000000389,0.0015072092781229227,-0.01172788302648306,0.011829773531370645,0.0027063724633693037,0.004197854307218993,-0.0003166049247494072,0.027945695343306622,0.06341598938357416,-0.03631834781765558,0.07734205423475453,0.15918515069213376,-0.11366252379587924
75,7.445106099999975,0.0015195133313233233,-0.011708600001434885,0.011828007752735735,0.0028313366949068272,0.004481269152702301,-0.00047913883495298267,0.02828960272970397,0.0641236547999905,-0.03682505781680059,0.0774163649453782,0.15926477784176307,-0.1143590600567115
76,7.4527681000035955,0.0015323761655130076,-0.011688050393248873,0.011825514612562024,0.0029578301043801433,0.004767829895885301,-0.0006439316199022362,0.028633825773797215,0.06483164536555636,-0.03733485058529196,0.07748407134733434,0.1593313921234935,-0.11504971071238493
77,7.457342499998049,0.0015458045800080325,-0.011666220217250025,0.011822284041177817,0.0030858540294551222,0.005057537853335437,-0.000810996922370102,0.028978334981728783,0.06553990289598369,-0.03784769956723914,0.07754510990505718,0.1593848342053402,-0.11573429609450699
78,7.461594799999148,0.0015598053797782126,-0.011643095483486658,0.011818305908540454,0.0032154096760888783,0.005350394081454407,-0.000980348265331902,0.029323100578924746,0.06624836849189762,-0.038363577406168005,0.0775994178450365,0.15942494184551662,-0.11641263565532864
79,7.465565799997421,0.0015743853748589893,-0.01161866219789374,0.01181357002477664,0.003346498117290185,0.0056463993732710945,-0.0011519990483972247,0.029668092513552968,0.06695698252689243,-0.03888245594135418,0.0776469331384963,0.15945155036920589,-0.11708454821228854
80,7.469962000002852,0.0015895513797578246,-0.011592906363470596,0.011808066140738677,0.003479120291894597,0.005945554255186283,-0.0013259625442293115,0.03001328045968467,0.06766568463784907,-0.039404306205847055,0.07768759442079774,0.15946449312058084,-0.1177498522271185
81,7.474296700005652,0.0016053102128551825,-0.011565813981473178,0.011801783948576618,0.003613277003352966,0.006247858983679522,-0.0015022518949593712,0.030358633820036174,0.06837441371700904,-0.03992909842528403,0.07772134087719641,0.15946360172705312,-0.11840836592935677
82,7.478411499992944,0.0016216686958001542,-0.011537371052621044,0.011794713082326375,0.003748968918530934,0.006553313541983387,-0.0016808801085954272,0.03070412172811501,0.06908310790464078,-0.04045680201701237,0.07774811211661242,0.1594487062104774,-0.11905990744234689
83,7.482346300006611,0.0016386336529007688,-0.011507563578319186,0.011786843118513789,0.003886196566516526,0.006861917636725161,-0.0018618600554288257,0.031049713049839632,0.06979170458210196,-0.0409873855900234,0.07776784807277214,0.15941963514027122,-0.11970429494623973
84,7.486246600004961,0.0016562119105090196,-0.011476377561894862,0.011778163576774681,0.004024960337434039,0.007173670694539428,-0.002045204464442499,0.0313953763848068,0.0705001403658669,-0.04152081694552325,0.07778048895261318,0.15937621585327205,-0.12034134674466748
85,7.490627799998037,0.0016744102964006313,-0.011443799009849534,0.01176866392049085,0.0041652604812629015,0.007488571858656663,-0.0022309259197225454,0.031741080067452694,0.07120835110254313,-0.042057063077459725,0.07778597523361463,0.15931827461925693,-0.12097088134877272
86,7.4945550999982515,0.001693235639149588,-0.011409813933126022,0.011758333557442019,0.004307097106661882,0.007806619985471534,-0.002419036856871177,0.03208679216829656,0.07191627186437008,-0.04259609017383991,0.07778424769026122,0.15924563674459785,-0.12159271768221301
87,7.49868730000162,0.0017126947674974491,-0.011374408348390949,0.011747161840473714,0.004450470179799003,0.008127813641091476,-0.0026095495594300115,0.032432480495337056,0.07262383694515696,-0.043137863619079286,0.0777752474453038,0.15915812664897852,-0.12220667510831086
88,7.504768500002683,0.0017327945097174765,-0.011337568279332567,0.011735138068181007,0.004595379523188162,0.008452151097868888,-0.002802476155313899,0.032778112595751537,0.07333097985646338,-0.04368234799556067,0.07775891601921112,0.15905556786035308,-0.12281257330657093
89,7.50897320000513,0.0017535416929736099,-0.01129927975797403,0.011722251485608093,0.0047418248145341515,0.00877963033091576,-0.0029978286132480714,0.03312365575773196,0.0740376333234924,-0.04422950708488572,0.07773519534091149,0.15893778304204983,-0.12341023223807797
90,7.513332999995327,0.0017749431426743274,-0.011259528826002202,0.0117084912849637,0.0048898055855855944,0.009110249014599362,-0.003195618739213095,0.03346907701227966,0.07474372928151211,-0.0447793038691263,0.07770402774664129,0.15880459408434716,-0.12399947209858417
91,7.517400299999281,0.0017970056818214252,-0.011218301536112077,0.011693846606352266,0.00503932122099592,0.009444004519025065,-0.003395858172893142,0.03381434313503101,0.07544919887256266,-0.045331700531659004,0.07766535598572645,0.1586558221043249,-0.12458011325181728
92,7.521489799997653,0.0018197361303537538,-0.011175583953366848,0.01167830653852092,0.005190370957192527,0.009780893906502757,-0.003598558384128359,0.034159420648103574,0.07615397244187644,-0.045886658457823734,0.07761912323512035,0.1584912874336256,-0.1251519760689102
93,7.526150000005146,0.0018431413044859455,-0.01113136215657374,0.011661860119622194,0.0053429538812541704,0.010120913927997847,-0.0038037306693689942,0.03450427582205101,0.07685797953447644,-0.046444138234330926,0.07756527314422984,0.15831080959864802,-0.12571488074809528
94,7.530066399995121,0.0018672280160421727,-0.011085622239675625,0.011644496337992518,0.005497068929797499,0.010464061019567447,-0.004011386148122498,0.034848874678107676,0.07756114889142034,-0.04700409964831746,0.07750374989009425,0.15811420723639544,-0.1262686473023317
95,7.534247400006279,0.0018920030717849777,-0.011038350313158524,0.01162620413294652,0.005652714887874394,0.010810331298777983,-0.004221535759399257,0.035193182990633974,0.0782634084456508,-0.04756650168664393,0.0774344982033893,0.1579012980058867,-0.12681309545556846
96,7.540586599992821,0.00191747327273923,-0.010989532505475076,0.011606972395587105,0.005809890387880245,0.011159720561104498,-0.004434190258153448,0.03553716628959211,0.0789646853174522,-0.04813130253402845,0.07735746338909391,0.15767189850396862,-0.1273480443438916
97,7.544998099998338,0.001943645413511252,-0.010939154964484044,0.011586789969631396,0.005968593908473291,0.011512224276307879,-0.0046493602117121825,0.035880789863175146,0.07966490580955257,-0.048698459569687484,0.07727259135212333,0.15742582421829018,-0.1278733122487357
98,7.548848299993551,0.001970526281603171,-0.010887203858905977,0.011565645652252557,0.006128823773506268,0.011867837584790621,-0.004867055996186507,0.036224018760510596,0.08036399540216234,-0.04926792936309831,0.07717982858585215,0.15716288965592415,-0.12838871652027084
99,7.553368499997305,0.0019981226567225485,-0.010833665379795116,0.011543528194937626,0.006290578150969782,0.012226555293929955,-0.005087287792862878,0.03656681779418747,0.08106187874921955,-0.049839667669958836,0.0770791221076332,0.15688290864969293,-0.12889407361449567
100,7.557139399999869,0.002026441310087339,-0.01077852574202765,0.01152042630436142,0.006453855051946416,0.012588371874400235,-0.005310065584578249,0.0369091515423867,0.08175847967615142,-0.05041362942827974,0.07697041934463954,0.15658569454821908,-0.1293891991649058
101,7.5613806000037584,0.0020554890037262244,-0.010721771185806306,0.011496328643276588,0.006618652329573041,0.012953281456486174,-0.005535399152076812,0.03725098435039349,0.0824537211778089,-0.05098976875498137,0.07685366799133858,0.1562710603319507,-0.12987390807624974
102,7.566806300004828,0.0020852724897743487,-0.01066338797818138,0.011471223831419899,0.006784967678008368,0.013321277826386868,-0.005763298070354835,0.03759228033146088,0.0831475254172595,-0.05156803894281922,0.07672881586353772,0.15593881874194554,-0.13034801452214023
103,7.570333600000595,0.0021157985097644745,-0.010603362414588178,0.011445100446434783,0.00695279863140293,0.013692354422518302,-0.005993771704990075,0.0379330033670247,0.08383981372486662,-0.05214839245695963,0.07659581074563751,0.15558878232156526,-0.13081133194757016
104,7.573957700005849,0.0021470737939135627,-0.010541680820400913,0.011417947024810247,0.007122142562868551,0.014066504331809193,-0.006226829208456177,0.038273117106209474,0.08453050659745295,-0.0527307809319276,0.0764546002490333,0.15522076348812883,-0.13126367315523763
105,7.578421800004435,0.002179105060404769,-0.010478329552503073,0.011389752062836178,0.00729299668344393,0.014443720285996059,-0.006462479516424959,0.03861258496478473,0.0852195236980167,-0.0533151551689498,0.07630513175912597,0.15483457462941896,-0.13170485040192645
106,7.582306800002698,0.002211899014664829,-0.010413295000874243,0.011360504017575126,0.007465358041054836,0.014823994657916536,-0.006700731344057191,0.03895137012419987,0.08590678385575286,-0.05390146513375911,0.07614735251812306,0.15443002825169796,-0.13213467545045238
107,7.586626599993906,0.002245462348636812,-0.010346563590193428,0.011330191307850573,0.007639223519471114,0.015207319457804638,-0.006941593182285368,0.03928943553127653,0.08659220506708504,-0.05448965995439934,0.07598120979906835,0.15400693714781769,-0.13255295969559566
108,7.590473200005363,0.0022798017400482346,-0.010278121781458807,0.011298802315251762,0.007814589837264144,0.015593686329593253,-0.007185073294084973,0.039626743898790284,0.08727570449718104,-0.05507968792014916,0.07580665108492349,0.15356511454786015,-0.13295951447033855
109,7.594862199999625,0.0023149238516745494,-0.010207956073623911,0.011266325385155112,0.007991453546769018,0.01598308654722286,-0.007431179710747688,0.03996325770675485,0.08795719848232372,-0.05567149648204887,0.07562362419766684,0.15310437434876187,-0.1333541512855296
110,7.598858299999847,0.002350835330598033,-0.010136053005250199,0.011232748827762163,0.008169811033053413,0.016375511010965113,-0.007679920228157339,0.04029893920415131,0.08863660253346757,-0.056265032253954614,0.07543207739904402,0.15262453132927653,-0.13373668207684775
111,7.603068299998995,0.002387542807462107,-0.010062399156175909,0.011198060919154105,0.008349658512895142,0.016770950243763162,-0.007931302403072476,0.04063375041110783,0.08931383134052033,-0.05686024101526037,0.07523195947872185,0.15212540140203484,-0.13410691946671885
112,7.607679399996414,0.002425052895721142,-0.009986981149201163,0.011162249902362758,0.008530992033770397,0.017169394387593295,-0.008185333549426512,0.04096765312141248,0.08998879877814007,-0.05745706771428024,0.07502321983645192,0.15160680191482906,-0.13446467687296473
113,7.611274499999126,0.002463372190885782,-0.009909785651789163,0.01112530398845799,0.008713807472853639,0.0175708331998568,-0.00844202073464037,0.04130060890542325,0.09066141791269484,-0.05805545647193618,0.07480580857053835,0.15106855183571585,-0.134809768681547
114,7.615583699996932,0.0025025072697638603,-0.009830799377783365,0.011087211357651477,0.008898100536031704,0.017975256049803448,-0.008701370775955402,0.04163257911336729,0.09133160100970504,-0.05865535058667579,0.074579676494304,0.150510471832128,-0.13514201040489215
115,7.625342900006217,0.0025424646896969605,-0.009750009089140463,0.011047960160416708,0.009083866756933024,0.01838265191498953,-0.008963390236789742,0.04196352487839724,0.09199925954150627,-0.059256692539567314,0.07434477497056678,0.14993238429579903,-0.13546121883006623
116,7.632736100000329,0.002583250987792702,-0.009667401597679048,0.01100753851862514,0.009271101495968898,0.018793009377769437,-0.00922808542311652,0.04229340711841917,0.09266430419491328,-0.05985942400053451,0.07410105560061303,0.149334113288349,-0.1357672122088316
117,7.638636799994856,0.002624872680152781,-0.009582963766843781,0.010965934526698392,0.009459799939378956,0.019206316621821824,-0.009495462379875632,0.04262218653638434,0.09332664487839915,-0.06046348583514104,0.07384846990308165,0.14871548434587742,-0.13605981014412744
118,7.644829199998639,0.0026673362610967716,-0.009496682513484926,0.010923136252776295,0.00964995709827503,0.019622561428705013,-0.00976552688741226,0.042949823619262806,0.09398619072802226,-0.061068818109816264,0.07358696907969949,0.1480763242888298,-0.1363388332466542
119,7.6492972999985795,0.002710648202381666,-0.009408544809653141,0.010879131739900745,0.00984156780767749,0.02004173117443582,-0.01003828445793509,0.04327627863625288,0.09464285011291552,-0.061675360095587134,0.07331650396717511,0.1474164611802723,-0.13660410279158908
120,7.653273599993554,0.002754814952417111,-0.009318537684409421,0.010833909007215235,0.010034626725543203,0.020463812826093768,-0.010313740331988005,0.043601511637327124,0.09529653064084243,-0.06228305027025264,0.07303702516700084,0.14673572432826962,-0.13685544044444695
121,7.657614499999909,0.0027998429354763087,-0.009226648225650077,0.010787456051180064,0.010229128331788946,0.020888792938449294,-0.01059189947492763,0.0439254824525956,0.09594713916370735,-0.06289182631967893,0.07274848324986483,0.14603394428825345,-0.13709266799417558
122,7.661303400003817,0.0028457385509025714,-0.009132863581946643,0.010739760846803188,0.010425066927313697,0.021316657650616938,-0.010872766573406538,0.04424815069266882,0.09659458178313278,-0.06350162513760138,0.07245082897725214,0.1453109528506789,-0.13731560706920384
123,7.665785200006212,0.002892508172311533,-0.009037170964400609,0.010690811348886681,0.01062243663302528,0.02174739268273313,-0.011156346031849038,0.044569475749990706,0.0972387638558598,-0.0641123828243957,0.07214401346930387,0.14456658297916494,-0.1375240790904776
124,7.66995599999791,0.0029401581467890497,-0.008939557648512855,0.010640595493288916,0.01082123138887451,0.022180983332657382,-0.011442641968923452,0.04488941680069363,0.09787958999877551,-0.06472403468646257,0.07182798829212828,0.14380066870957126,-0.13771790522692928
125,7.6738576000061585,0.0029886947940848288,-0.00884001097606771,0.010589101198202383,0.011021444952898314,0.022617414472694754,-0.011731658214012437,0.04520793280670745,0.09851696409341643,-0.06533651523460295,0.07150270550279296,0.14301304507315643,-0.137896906242423
126,7.67815989999508,0.003038124405801823,-0.008738518357031516,0.01053631636544724,0.01122307090027263,0.02305667054633708,-0.01202339830367082,0.04552498251801444,0.09915078929031286,-0.06594975818204223,0.0711681176856436,0.14220354815090303,-0.13806090263908588
127,7.681473399992683,0.0030884532445814394,-0.008635067271465652,0.010482228881780624,0.011426102622375577,0.023498735565024062,-0.01231786547807836,0.04584052447508119,0.09978096801397525,-0.06656369644407958,0.07082417799008542,0.14137201518486675,-0.1382097149708656
128,7.686305399998673,0.003139687543284609,-0.008529645271453891,0.010426826620221721,0.011630533325861956,0.023943593104928797,-0.012615062677494461,0.04615451701144934,0.10040740196822823,-0.06717826213889924,0.07047084010834116,0.14051828457542243,-0.1383431640039728
129,7.690700099992682,0.003191833504168768,-0.008422239983043995,0.010370097441392601,0.011836356031749458,0.024391226303766295,-0.012914992538718147,0.04646691825596978,0.1010299921411725,-0.06779338658864595,0.07010805817482937,0.13964219578526513,-0.13846107080368555
130,7.694942300004186,0.0032448972980608044,-0.00831283910820344,0.01031202919487475,0.012043563574513028,0.024841617857623115,-0.013217657391552335,0.046777686134499015,0.10164863880966563,-0.06840900032100782,0.06973578666174328,0.13874358929466082,-0.1385632569787418
131,7.699364800006151,0.0032988850635259897,-0.00820143042678919,0.01025260972058133,0.01225214860118614,0.0252947500178057,-0.013523059255277881,0.04708677837120515,0.1022632415438861,-0.06902503307246413,0.06935398031416456,0.13782230672256912,-0.13864954504917987
132,7.7029390999960015,0.0033538029060329374,-0.00808800179853144,0.010191826850145056,0.012462103570466777,0.02575060458771059,-0.013831199835146721,0.04739415248968754,0.10287369921289075,-0.06964141379313782,0.06896259418965366,0.13687819109479726,-0.1387197588319883
133,7.70720980000624,0.0034096568971145884,-0.007972541165031205,0.010129668408321626,0.012673420751828658,0.02620916291972215,-0.014142080518899048,0.04769976581463468,0.10347990999156241,-0.07025807065347117,0.06856158380586226,0.13591108716738284,-0.13877372384353198
134,7.712045399995986,0.0034664530735252683,-0.007855036551771643,0.010066122214408557,0.012886092224641951,0.02667040591214455,-0.01445570237331579,0.04800357547425589,0.10408177136904175,-0.07087493105265535,0.06815090531156819,0.1349208417515347,-0.13881126756633497
135,7.715891200001351,0.003524197436393858,-0.007735476070142911,0.010001176083679257,0.013100109877306119,0.027134314006174422,-0.014772066140810718,0.04830553840345955,0.10467918015856319,-0.0714919216276775,0.06773051565461662,0.1339073040248409,-0.13883221957028954
136,7.720962299994426,0.003582895950373142,-0.007613847919480397,0.009934817828832153,0.013315465406398878,0.02760086718292028,-0.015091172236063337,0.048605611347777536,0.10527203250865302,-0.07210896826282756,0.06730037273194632,0.13287032580410008,-0.13883641164089064
137,7.724774300004356,0.0036425545427854165,-0.007490140389116073,0.009867035261454693,0.013532150315843932,0.028070044960474723,-0.015413020742695502,0.048903750867876954,0.10586022391539046,-0.07272599609988531,0.06686043548292872,0.13180976178010756,-0.13882367785587005
138,7.728887899997062,0.003703179102764438,-0.007364341860442747,0.009797816193502016,0.013750155916100031,0.028541826391042815,-0.015737611409994856,0.04919991334431429,0.10644364923569263,-0.07334292954830833,0.06641066391463502,0.13072546972409793,-0.1387938545556615
139,7.73292290000245,0.003764775480393823,-0.007236440808990946,0.009727148438790075,0.013969473323370962,0.029016190058132395,-0.016064943649682,0.049494054982271725,0.10702220270141068,-0.07395969229515646,0.06595101913083858,0.1296173106366868,-0.13874678027904935
140,7.736573200003477,0.0038273494858419763,-0.0071064258065181365,0.009655019814503046,0.01419009345883671,0.02949311407380775,-0.016395016532722156,0.04978613181656906,0.10759577793393864,-0.07457620731470785,0.06548146337968726,0.12848514888158577,-0.13868229563231083
141,7.741250899998704,0.0038909068884936554,-0.0069742855231100225,0.009581418142714787,0.014412007047908003,0.029972576076009765,-0.0167278287861778,0.05007609971682379,0.1081642679594981,-0.0751923968772202,0.06500196004608112,0.12732885231304047,-0.13860024309895946
142,7.750242800000706,0.003955453416078273,-0.006840008729293588,0.009506331251924228,0.01463520461950333,0.030454553225945476,-0.017063378790098206,0.050363914392395265,0.10872756522487985,-0.07580818255685569,0.06451247357519926,0.12614829231235872,-0.1385004667606747
143,7.754998599993996,0.004020994753795034,-0.006703584298161593,0.009429746978604474,0.014859676505347433,0.030939022205548134,-0.017401664574442526,0.05064953139686504,0.10928556161305318,-0.07642348523796169,0.06401296933802073,0.12494334371286543,-0.13838281200108396
144,7.759224599998561,0.0040875365434350054,-0.006565001207508197,0.009351653168765546,0.015085412839288161,0.031425959215005496,-0.017742683816025152,0.05093290613178567,0.10983814845824053,-0.07703822512036267,0.0635034135113101,0.12371388471831489,-0.1382471254214111
145,7.763197399995988,0.004155084382500178,-0.006424248541975425,0.009272037679530639,0.015312403556628275,0.031915339970353895,-0.018086433835485843,0.0512139938500943,0.11038521656080154,-0.07765232172489109,0.06298377307090171,0.12245979685243598,-0.1380932548478502
146,7.767456300003687,0.004223643823319597,-0.006281315495210175,0.009190888380725785,0.015540638393472644,0.03240713970113883,-0.018432911594284243,0.05149274965980176,0.11092665620185925,-0.07826569389874492,0.06245401583137335,0.12118096484757677,-0.13792104930486787
147,7.771346099994844,0.004293220372162625,-0.006136191372031478,0.00910819315648284,0.015770106886092844,0.032901333148139034,-0.01878211369171763,0.05176912852775879,0.11146235715719435,-0.07887825982078123,0.06191411044758187,0.11987727651612175,-0.13773035896070943
148,7.778024800005369,0.004363819488349419,-0.0059888655906077375,0.009023939906855643,0.01600079837030783,0.033397894561150575,-0.019134036361962495,0.05204308528335883,0.11199220871072842,-0.07948993700638925,0.061364026441913036,0.11854862262630399,-0.13752103501090224
149,7.783077200001571,0.004435446583358691,-0.0058393276846436856,0.008938116549449303,0.016232701980881448,0.03389679769683077,-0.019488675471135593,0.05231457462254641,0.11251609966731431,-0.08010064231174852,0.0608037343029493,0.11719489676328367,-0.13729292962920628
150,7.787172700001975,0.004508107019932834,-0.005687567305576786,0.00885071102106249,0.016465806650938736,0.03439801581659598,-0.01984602651437338,0.05258355111239699,0.11303391836498458,-0.08071029193826597,0.060233205677521176,0.11581599533427207,-0.1370458960714115
151,7.790764699995634,0.004581806111180487,-0.005533574224782877,0.008761711279342665,0.016700101111404148,0.03490152168457439,-0.020206084612932506,0.05284996919683242,0.11354555268778743,-0.08131880143775666,0.05965241363510382,0.11441181768218237,-0.13677978886272493
152,7.794874200000777,0.004656549119676669,-0.00537733833579077,0.00867110530445416,0.016935573890468653,0.03540728756561788,-0.020568844511315295,0.05311378320355096,0.1140508900790453,-0.08192608571854651,0.059061332870816954,0.11298226611926268,-0.13649446405509066
153,7.802933800005121,0.004732341256560613,-0.005218849656505566,0.008578881100758952,0.017172213313089556,0.03591528522337271,-0.020934300574424487,0.05337494735154711,0.11454981755448979,-0.08253205905294025,0.058459939772813815,0.11152724584524583,-0.13618977956052122
154,7.807088100002147,0.004809187680631449,-0.005058098331440406,0.008485026698510027,0.01741000750052445,0.03642548591840809,-0.021302446784755097,0.05363341575864062,0.1150422217147927,-0.08313663508628708,0.05784821238543638,0.11004666484090864,-0.13586559555325337
155,7.811393500000122,0.0048870934974418944,-0.004895074633956414,0.00838953015555713,0.01764894436989795,0.03693786040639828,-0.02167327673962974,0.05388914244866886,0.11552798875775486,-0.0837397268480232,0.05722613037360245,0.10854043394903706,-0.135521774920015
156,7.815954399993643,0.004966063758390089,-0.004729768968510614,0.008292379559064693,0.01788901163379957,0.03745237893635949,-0.02204678364848865,0.05414208135869924,0.11600700449155682,-0.08434124676473978,0.056593675054642606,0.10700846718252868,-0.13515818361058043
157,7.819550400003209,0.005046103459809711,-0.004562171872911542,0.00819356302724167,0.01813019679991459,0.037969011248949754,-0.022422960330241142,0.054392186346504584,0.11647915434968631,-0.08494110667434153,0.05595082946135741,0.10545068207435637,-0.13477469083489374
158,7.824087700006203,0.005127217542058528,-0.004392274020582272,0.008093068711083016,0.018372487170688356,0.038487726574838545,-0.022801799210681505,0.05463941119833605,0.11694432340729966,-0.08553921784086674,0.05529757840130094,0.10386699993297267,-0.13437116916994327
159,7.827909999992698,0.005209410888605532,-0.004220066222830525,0.007990884796122488,0.018615869843026236,0.03900849363315204,-0.02318329231997219,0.054883709636925446,0.11740239639841944,-0.08613549096959586,0.054633908472893254,0.10225734602936734,-0.1339474946187424
160,7.832023700000718,0.0052926883251168235,-0.004045539431125511,0.007886999504196492,0.018860331708029074,0.03953128062999565,-0.02356743129019398,0.05512503532940138,0.11785325773395865,-0.08672983622239583,0.0539598080530808,0.10062164984210181,-0.13350354664470743
161,7.836812699999427,0.005377054618540391,-0.0038686847393811733,0.007781401095218667,0.019105859450763492,0.040056055257059436,-0.023954207352965596,0.05536334189518188,0.11829679152109632,-0.08732216323313421,0.05327526727990856,0.09895984530567678,-0.1330392081338558
162,7.840364000003319,0.005462514476189957,-0.0036894933862454244,0.007674077868964881,0.0193524395500675,0.04058278469031291,-0.024343611337130863,0.05559858291373566,0.11873288158350938,-0.08791238112268752,0.05258027805269098,0.09727187098529472,-0.13255436530552864
163,7.844630499996128,0.005549072544828031,-0.0035079567573949914,0.007565018166868378,0.019600058278389794,0.041111435588790275,-0.024735633666511717,0.05583071193247622,0.11916141148230172,-0.08850039851356178,0.05187483409603563,0.09555767026218132,-0.13204890761854501
164,7.848732800004655,0.0056367334097483235,-0.003324066387835452,0.007454210373824753,0.019848701701665524,0.04164197409347124,-0.025130264357725342,0.056059682475092215,0.11958226453788327,-0.0890861235440667,0.05115893100946709,0.09381719149745328,-0.13152272766139209
165,7.853056599997217,0.005725501593857695,-0.0031378139642060272,0.007341642920006489,0.020098355679229643,0.04217436582626077,-0.025527493018063157,0.05628544804988268,0.11999532385235566,-0.08966946388196015,0.050432566253853894,0.09205038812469317,-0.13097572106206246
166,7.8573728000046685,0.005815381556757802,-0.0029491913270886846,0.0072273042826867945,0.02034900586376677,0.042708575889068845,-0.025927308843429236,0.056507962157966704,0.12040047233221414,-0.09025032673782094,0.04969573909784242,0.0902572187135312,-0.13040778643123274
167,7.861275300005218,0.0059063776938265995,-0.0027581904733211112,0.007111182988072464,0.0206006377012975,0.04324456886299201,-0.026329700616338166,0.05672717830114254,0.12079759271129843,-0.0908286188781882,0.048948450499857264,0.08843764700942992,-0.12981882528805408
168,7.865771900003892,0.005998494335299865,-0.0025648035583130937,0.006993267613145507,0.020853236431198137,0.04378230880759715,-0.026734656703970253,0.05694304998904841,0.12118656757384828,-0.09140424663827455,0.04819070301044446,0.0865916419505445,-0.12920874202572585
169,7.869592500006547,0.006091735745352877,-0.0023690228983658554,0.006873546787513301,0.021106787086250644,0.04432175926030797,-0.027142165056282388,0.0571555307461536,0.12156727937760416,-0.09197711593479947,0.04742250073481697,0.0847191776570982,-0.1285774439372288
170,7.874338199995691,0.00618610612118238,-0.00217084097299389,0.006752009195267009,0.02136127449272452,0.04486288323589411,-0.027552213204177323,0.05736457411858632,0.12193961047676836,-0.09254713227893117,0.04664384923321194,0.08282023339476242,-0.12792484121927497
171,7.878262900005211,0.006281609592088996,-0.0019702504272488416,0.006628643576848008,0.02161668327048745,0.04540564322606169,-0.027964788257729575,0.05757013368023911,0.12230344314478026,-0.09311420078915514,0.045854755397239204,0.08089479351650979,-0.12725084696479808
172,7.882075600005919,0.006378250218560171,-0.0017672440740449753,0.006503438730922072,0.021872997833141436,0.0459500011991449,-0.02837987690446908,0.05777216303849759,0.12265865959676049,-0.0936782262041492,0.045055227415234884,0.07894284739894956,-0.1265553771504412
173,7.886607499996899,0.006476031991353792,-0.0015618148964858002,0.00637638351626106,0.02213020238818438,0.04649591859989603,-0.028797465407721552,0.05797061584003791,0.12300514201172034,-0.09423911289554088,0.04424527480958226,0.07696438940877258,-0.12583835060599016
174,7.890421200005221,0.0065749588305825755,-0.0013539560501914067,0.00624746685363185,0.02238828093719774,0.047043356349374475,-0.029217539605005522,0.05816544577688726,0.12334277255470771,-0.09479676488051075,0.04342490850552549,0.0749594188467213,-0.1250996889401248
175,7.898691299997154,0.006675034584799352,-0.0011436608656260748,0.006116677727692274,0.022647217276061987,0.04759227484493362,-0.029640084906484725,0.05835660659283295,0.12367143339851838,-0.09535108583388983,0.042594140910475024,0.07292793984264191,-0.12433931640432812
176,7.902871800004505,0.0067762630300833675,-0.0009309228504257288,0.005984005188893809,0.02290699499520123,0.04814263396030281,-0.030065086293472678,0.05854405209018784,0.12399100674490919,-0.09590197909955327,0.04175298600402516,0.07086996129453473,-0.1235571597955792
177,7.907521500004805,0.006878647869127742,-0.0007157356917248169,0.005849438355390806,0.023167597479858804,0.04869439304576281,-0.030492528316986334,0.0587277361369996,0.12430137484576753,-0.09644934770165275,0.04090145949217535,0.06878549694328678,-0.12275314852938693
178,7.911388299995451,0.006982192730328222,-0.0004980932584822057,0.005712966414956037,0.023429007910405978,0.049247510928415957,-0.030922395096350506,0.058907612675186925,0.1246024200249888,-0.09699309435665945,0.0400395790697925,0.06667456559557494,-0.12192721485928958
179,7.915654099997482,0.0070869011668733845,-0.00027798960380565996,0.0055745786269023245,0.023691209262689864,0.04980194591255605,-0.03135467031785856,0.05908363573008174,0.12489402470162718,-0.09753312148654746,0.03916736465584659,0.06453719139418673,-0.12107929411285553
180,7.920117600006051,0.0071927766558364786,-5.54189672744475e-05,0.005434264324009997,0.023954184308426947,0.05035765578014429,-0.03178933723349403,0.05925575942065639,0.12517607141417594,-0.09806933123293442,0.03828483848602389,0.06237340405075662,-0.12020932492383708
181,7.924159799993504,0.007299822597269128,0.0001696242227404104,0.005292012914459882,0.02421791561564189,0.05091459779139502,-0.032226378659717,0.059423937969889026,0.12544844284578693,-0.09860162547232859,0.037392025169019766,0.060183239071301305,-0.11931724951518764
182,7.928269600000931,0.007408042313297078,0.0003971453467587409,0.005147813883771549,0.02448238554915321,0.05147272868547578,-0.032665776976321254,0.05958812571549117,0.12571102185055555,-0.09912990583278511,0.0364889517402462,0.057966738009315094,-0.11840301397671456
183,7.932180000003427,0.007517439047218207,0.0006271495918771919,0.005001656796746458,0.024747576271107432,0.05203200468132675,-0.033107514125368685,0.0597482771207505,0.12596369148098996,-0.09965407371162098,0.03557564771729016,0.055723948730841744,-0.11746656850097989
184,7.935906400001841,0.007628015962603026,0.0008596419494591174,0.004853531299415676,0.025013469741561135,0.05259238147860493,-0.03355157161020393,0.05990434678575136,0.1262063350166522,-0.10017403029416823,0.03465214523753151,0.0534549256651107,-0.11650786759995996
185,7.939368299994385,0.007739776142397867,0.0010946272128289425,0.004703427120991785,0.025280047719114858,0.05315381425875814,-0.03399793049455548,0.06005628945944077,0.12643883599385528,-0.10068967657341471,0.03371847922602729,0.05115973002147304,-0.11552687026606856
186,7.943114199995762,0.00785272258803101,0.0013321099749715956,0.004551334075824588,0.02554729176160239,0.05371625768623324,-0.03444657140172487,0.060204060052341246,0.12666107823623243,-0.10120091337018854,0.032774687419877074,0.04883842995222159,-0.1145235401416656
187,7.949125900006038,0.007966858218522003,0.001572094626237612,0.004397242065360223,0.025815183226837665,0.054279665909821806,-0.03489747451386721,0.06034761364883338,0.12687294588588158,-0.1017076413543056,0.03182081014712472,0.046491100657715466,-0.11349784577988087
188,7.9533142000000225,0.008082185869594425,0.001814585352054528,0.004241141080103266,0.02608370327341325,0.05484399256414517,-0.035350619571368355,0.06048690551790334,0.12707432343486902,-0.10220976106707239,0.030856889979063246,0.04411782448115315,-0.11244976093550317
189,7.9575705000024755,0.008198708292792305,0.0020595861306451847,0.00408302120158138,0.026352832861542757,0.055409190771280155,-0.03580598587232546,0.060621891122334945,0.1272650957572162,-0.10270717294501912,0.029882971550594155,0.04171869103062443,-0.11137926471471708
190,7.963567099999636,0.008316428154600377,0.002307100730753573,0.003922872604312033,0.026622552753941032,0.05597521314252842,-0.0362635522721351,0.06075252612786038,0.12744514814148838,-0.10319977734373353,0.028899101739253745,0.03929379731158233,-0.1102863415115086
191,7.967778599995654,0.008435348035568314,0.002557132709378863,0.003760685557770811,0.02689284351674792,0.05654201178033188,-0.03672329718318566,0.060878766413943575,0.12761436632395887,-0.10368747456102877,0.027905329988272703,0.03684324784924162,-0.10917098087769132
192,7.97178530000383,0.008555470429439202,0.0028096854095182766,0.0035964504283608717,0.02716368552050429,0.057109538280336804,-0.03718519857465143,0.06100056808580249,0.12777263652228563,-0.10417016485962181,0.026901708495884285,0.03436715480258697,-0.1080331774186672
193,7.97607770000468,0.008676797742282446,0.003064761957919463,0.0034301576813830846,0.027435058941182672,0.05767774373360861,-0.03764923397238655,0.0611178874868752,0.12791984546968893,-0.10464774848937487,0.025888292315751633,0.031865638063089945,-0.10687293069039736
194,7.98037010000553,0.008799332291631401,0.0033223652628430575,0.003261797883006427,0.02770694376127409,0.05824657872899975,-0.03811538045891677,0.06123068121173489,0.12805588044950544,-0.10512012570905802,0.024865139461170308,0.02933882531705108,-0.10569024510938302
195,7.985998799995286,0.00892307630562595,0.003582498011836106,0.0030913617022382,0.027979319770933486,0.058815993355671635,-0.038583614673526896,0.061338906119482096,0.12818062932991997,-0.10558719680779037,0.023832310904229877,0.026786852057215836,-0.10448512990085586
196,7.990982499992242,0.009048031922160306,0.0038451626695170382,0.002918839912893645,0.0282521665691856,0.059385937205771254,-0.03905391281244311,0.061442519346652284,0.12829398059862282,-0.10604886212634228,0.022789870494627853,0.024209861531904853,-0.10325759906864991
197,7.995735499993316,0.00917420118803631,0.004110361475372886,0.0027442233955645413,0.028525463565185125,0.05995635937726114,-0.03952625062910975,0.06154147831988647,0.12839582339708938,-0.10650502207830867,0.021737884989701806,0.021608004689329094,-0.10200767139353713
198,7.999351199992816,0.00930158605812244,0.00437809644156941,0.0025675031395863603,0.028799189979535213,0.060527208476900705,-0.04000060343455985,0.0616357407691057,0.12848604755474252,-0.10695557717139643,0.020676424066414564,0.01898144021423013,-0.1007353704711574
199,8.00366170000052,0.009430188394518821,0.004648369350774818,0.00238867024500357,0.02907332484566473,0.06109843262337986,-0.040476946097881134,0.061725264740288235,0.12856454362355785,-0.10740042802893494,0.019605560279161265,0.01633033462009587,-0.0994407247373237
200,8.00725059999968,0.009560009965728483,0.004921181753997747,0.0022077159245326478,0.02934784701126034,0.061669979450607953,-0.04095525304677775,0.061810008608269,0.12863120291304578,-0.10783947541138834,0.018525369082334608,0.013654862304992122,-0.09812376746459364
201,8.011597499993513,0.009691052445835097,0.0051965349684402135,0.0020246315055223916,0.029622735139757526,0.062241796111158314,-0.0414354982682275,0.061889931089717305,0.12868591752535308,-0.10827262023783561,0.017435928761295752,0.01095520558760019,-0.09678453674987748
202,8.015429099992616,0.009823317413687483,0.005474430075366214,0.0018394084319110912,0.02989796771188803,0.06281382927986921,-0.04191765530923446,0.061964991255322746,0.12872858039056526,-0.1086997636073727,0.016337320315922735,0.0082315547305612,-0.09542307550637098
203,8.019757100002607,0.00995680635209111,0.005754867917986684,0.0016520382661801476,0.03017352302727919,0.06338602515760221,-0.0424016972776765,0.062035148541737826,0.1287590853020156,-0.10912080682052087,0.015229627495121889,0.005484107976566772,-0.09403943147804099
204,8.02418399999442,0.01009152064700681,0.0060378490993615065,0.0014625126913037135,0.03044937920610754,0.06395832947515694,-0.04288759684324818,0.06210036276407059,0.12877732695190838,-0.10953565140075763,0.0141129368465829,0.002713071600640224,-0.09263365726385975
205,8.028258899998036,0.010227461586756982,0.006323373980319264,0.0012708235126939304,0.030725514190809183,0.06453068749734611,-0.04337532623849961,0.06216059412826953,0.1287832009670926,-0.10994419911614045,0.012987337652576408,-8.134007460967997e-05,-0.09120581034802668
206,8.032360700002755,0.010364630361239507,0.006611442677395472,0.0010769626601413347,0.031001905747843478,0.0651030440272283,-0.04386485725997161,0.06221580324304554,0.1287766039448207,-0.11034635200110632,0.011852921902423074,-0.0028989046154818854,-0.08975595314554227
207,8.036353400006192,0.010503028061149628,0.006902055060789954,0.0008809221897500051,0.03127853146950939,0.06567534341050077,-0.04435616126942831,0.062265951132012096,0.128757433489087,-0.11074201237850059,0.010709784322354737,-0.005739391357123337,-0.08828415304208022
208,8.0404864000011,0.010642655677210016,0.00719521075234412,0.0006826942858670126,0.03155536877581707,0.06624752954005525,-0.04484920919518814,0.062310999245872634,0.1287255882474534,-0.11113108288173094,0.009558022405196778,-0.008602561256078077,-0.08679048242341296
209,8.045025300001726,0.010783514099409279,0.007490909123538841,0.00048227126300573713,0.031832394916412564,0.06681954586069813,-0.04534397153355331,0.06235090947482459,0.12868096794869843,-0.11151346647705776,0.00839773649661196,-0.011488166677218652,-0.08527501873011907
210,8.048761199999717,0.010925604116249136,0.007789149293513679,0.0002796455677626107,0.032109586972559626,0.06739133537404088,-0.04584041835033896,0.06238564416151337,0.1286234734415371,-0.11188906648623437,0.007229029827551737,-0.014395951182441758,-0.08373784456447517
211,8.053098100004718,0.011068926414000545,0.008089930127108232,7.480978072684284e-05,0.03238692185917957,0.06796284064356438,-0.0463385192825039,0.06241516611372481,0.12855300673414793,-0.11225778660974757,0.00605200842002255,-0.01732564940439463,-0.08217904783562104
212,8.057306899994728,0.011213481575969013,0.008393250232926381,-0.00013224338161733207,0.03266437632694591,0.06853400379986072,-0.04683824353988628,0.06243943861650155,0.1284694710340153,-0.1126195309507482,0.004866781050022469,-0.02027698699007203,-0.08059872192036575
213,8.061486100006732,0.011359270081769332,0.008699107961424226,-0.00034152106499635705,0.03294192696443192,0.06910476654605166,-0.047339559907047114,0.062458425444506076,0.1283727707879578,-0.112974204039721,0.003673459287763027,-0.023249680509471717,-0.07899696583454038
214,8.065807899998617,0.011506292306609983,0.009007501403022497,-0.0005530302754614914,0.033219550200315154,0.06967507016338624,-0.04784243674522518,0.06247209087449457,0.1282628117227826,-0.1133217108599383,0.0024721573907016607,-0.026243437380627743,-0.07737388440372284
215,8.069615999993403,0.011654548520587473,0.009318428386244245,-0.00076677787751189,0.03349722230563587,0.0702448555170206,-0.0483468419944068,0.06248039969672916,0.12813950088598003,-0.11366195687364739,0.0012629921429994386,-0.029257955886784627,-0.07572958842298558
216,8.074078999998164,0.011804038887990803,0.009631886475878629,-0.0009827705922271395,0.03377491939610302,0.0708140630619773,-0.048852743175513545,0.062483317226024786,0.12800274668622535,-0.11399484804894416,4.6082814066593e-05,-0.03229292521892674,-0.074064194813672
217,8.078358800004935,0.01195476346661631,0.009947872971171577,-0.0012010149954097833,0.03405261743445084,0.07138263284928514,-0.04936010739271084,0.06248080931279295,0.1278524589336954,-0.11432029088735406,-0.0011784489236407096,-0.03534802556184884,-0.07237782677093635
218,8.082181299992953,0.012106722207093079,0.010266384904044147,-0.0014215175157383786,0.03433029223284301,0.0719505045322969,-0.049868901335840876,0.0624728423533579,0.1276885488798051,-0.11463819245201706,-0.0024104790309803594,-0.03842292815174879,-0.07067061387826085
219,8.086890999999014,0.012259914952219154,0.010587419037339344,-0.0016442844329316467,0.034607919455320955,0.07251761737318231,-0.0503790912829817,0.0624593833006772,0.12751092925701235,-0.11494846039628662,-0.00364988096906689,-0.04151729524551077,-0.0689426921849283
220,8.090626799996244,0.012414341436308717,0.010910971863098199,-0.0018693218759242769,0.034885474620303294,0.07308391024959959,-0.050890643103134355,0.06244039967584061,0.12731951431882751,-0.11525100299260325,-0.0048965256378005586,-0.04463078004445841,-0.06719420424377541
221,8.094840299992939,0.012570001284550509,0.011237039600865884,-0.0020966358210549618,0.03516293310313633,0.07364932166154413,-0.051403522259038624,0.062415859579337075,0.12711421988029603,-0.11554572916142905,-0.00615028130595455,-0.04776302664008452,-0.06542529913271838
222,8.098950900006457,0.012726894012377683,0.011565618196028665,-0.00232623209026723,0.03544027013869367,0.07421378973837978,-0.05191769381011734,0.062385731703175004,0.12689496335849032,-0.11583254850031262,-0.007411013429203283,-0.05091367012348775,-0.06363613249997538
223,8.10336599999573,0.012885019024849334,0.011896703318182522,-0.002558116349323652,0.03571746082403444,0.07477725224604749,-0.05243312241555051,0.06234998534376676,0.12666166381201963,-0.11611137131322552,-0.008678584558350843,-0.054082336601694335,-0.06182686662036504
224,8.10780209999939,0.013044375616043977,0.012230290359534171,-0.0027922941060339983,0.03599448012111742,0.07533964659444782,-0.05294977233748035,0.0623085904148647,0.12641424198137685,-0.11638210864012768,-0.009952854302261381,-0.05726864301674881,-0.059997670470575956
225,8.111683700000867,0.013204962968465203,0.012566374433335309,-0.003028770708497933,0.03627130285957427,0.07590090984500816,-0.053467607444348225,0.06226151746077513,0.12615262033005645,-0.11664467228697287,-0.01123367942912877,-0.06047219711550318,-0.05814871983964013
226,8.119415699999081,0.013366780152459809,0.012904950372350897,-0.0032675513433628343,0.036547903739541115,0.07646097871843074,-0.053986591214366414,0.06220873766839419,0.12587672308516978,-0.11689897485625603,-0.01252091417007944,-0.06369259740885796,-0.05628019742229785
227,8.123684599995613,0.01352982612564862,0.013246012727362274,-0.0035086410340973463,0.03682425733453873,0.07701978960262089,-0.05450668673912654,0.06215022287772319,0.12558647627892533,-0.11714492977784868,-0.01381441057310481,-0.06692943289020939,-0.05439229289250294
228,8.137160900005256,0.013694099732370223,0.013589555765705917,-0.003752044639281274,0.0371003380943976,0.07757727856080371,-0.05502785672734545,0.062085945590758515,0.12528180779174666,-0.11738245134019966,-0.015114018875701837,-0.07018228274193719,-0.052485202993268545
229,8.141248500003712,0.013859599703137788,0.013935573469848693,-0.003997766850912432,0.03737612034821714,0.07813338133983563,-0.05555006350875095,0.062015878978694636,0.12496264739636159,-0.11761145472196904,-0.01641958772917193,-0.07345071608772846,-0.05055913162027703
230,8.144932199997129,0.014026324654109103,0.014284059536000503,-0.004245812192731078,0.037651578307354786,0.078688033378713,-0.056073269038108886,0.0619399968888203,0.12462892680312168,-0.11783185602397213,-0.01773096399865153,-0.07673429171383837,-0.048614289891344725
231,8.149212200005422,0.01419427308656997,0.014635007372765166,-0.004496185018562557,0.037926686068446486,0.07924116981728639,-0.05659743489939285,0.06185827385349903,0.124280579706569,-0.11804357230143081,-0.019047992267511787,-0.0800325579264636,-0.04665089622230503
232,8.153256699995836,0.014363443386431083,0.01498841009983052,-0.004748889510678795,0.03820141761647562,0.07979272550518318,-0.057122522310097866,0.061770685101470525,0.12391754183202341,-0.11824652159659203,-0.020370514550354508,-0.08334505253838087,-0.04466917642326324
233,8.161778900001082,0.014533833823738703,0.015344260546698612,-0.005003929678179294,0.03847574682789398,0.08034263501093596,-0.057648492125700085,0.06167720656938228,0.1235397509822681,-0.11844062297183477,-0.021698370215552907,-0.08667130283944798,-0.04266936380214097
234,8.165489599996363,0.014705442552199282,0.015702551251456944,-0.0052613093553922595,0.03874964747379315,0.08089083263132,-0.05817530484426474,0.06157781491377949,0.12314714708439906,-0.11862579654320886,-0.023031395902341094,-0.090010825612059,-0.04065169923924157
235,8.169825100005255,0.014878267608718321,0.016063274459591662,-0.005521032200296555,0.03902309322313207,0.08143725240089822,-0.058702920611203926,0.06147248752337361,0.1227396722363732,-0.11880196351420473,-0.024369425367561457,-0.09336312720720076,-0.03861643128191869
236,8.173762299993541,0.015052306912953688,0.016426422122843638,-0.005783101692965124,0.03929605764601749,0.0819818281017723,-0.05923129922418477,0.06136120253239449,0.1223172707531819,-0.11896904621013375,-0.025712289188731623,-0.09672770361119147,-0.03656381631399441
237,8.178526400006376,0.015227558266883634,0.016791985898108337,-0.006047521134030568,0.0395685142170502,0.08252449327353811,-0.059760400138192775,0.06124393883549832,0.12187988921280579,-0.11912696811340388,-0.02705981455950437,-0.10010404049540148,-0.03449411872868414
238,8.182778000002145,0.01540401935438985,0.01715995714638039,-0.006314293643173576,0.039840436318737994,0.08306518122344533,-0.06029018247075355,0.06112067610293781,0.12142747650194638,-0.11927565389943705,-0.028411825207989006,-0.10349161322818923,-0.032407611082815604
239,8.186420199999702,0.015581687740855828,0.01753032693174377,-0.0065834221576349175,0.04011179724497674,0.08360382503675931,-0.06082060500731543,0.06099139479619615,0.1209599838618748,-0.11941502947331563,-0.029768141342035336,-0.10688988691214113,-0.030304574262460995
240,8.19061839999631,0.015760560872780854,0.017903086020408465,-0.006854909430751716,0.040382570204602314,0.08414035758732828,-0.061351626206796926,0.06085607618364358,0.12047736493383233,-0.11954502200717208,-0.03112857968682395,-0.1102983164485338,-0.02818529763611149
241,8.196392900004867,0.01594063607740994,0.018278224879794577,-0.00712875803051875,0.04065272832501086,0.08467471154834874,-0.06188320420730169,0.06071470235583721,0.11997957580430624,-0.11966555997819696,-0.032492953477753016,-0.11371634646742292,-0.02605007915830446
242,8.20110219999333,0.016121910562380003,0.018655733677664692,-0.007404970338175529,0.04092224465584668,0.08520681940333512,-0.06241529683200381,0.0605672562412408,0.11946657505105165,-0.11977657320694962,-0.03386107244708926,-0.1171434112988499,-0.023899225432674403
243,8.208170600002632,0.016304381415382572,0.01903560228130549,-0.007683548546819904,0.04119109217276224,0.08573661345729422,-0.06294786159520332,0.060413721621643234,0.11893832378862339,-0.11987799289592671,-0.03523274299715593,-0.12057893494278889,-0.02173305178249182
244,8.211679800006095,0.01648804560384339,0.019417820256759435,-0.00796449466004897,0.041459243781243126,0.08626402584809963,-0.06348085570855433,0.06025408314633892,0.11839478571466494,-0.11996975166849987,-0.03660776829254771,-0.12402233082236513,-0.019551882277172278
245,8.215457800004515,0.016672899974619116,0.019802376868107482,-0.008247810490628034,0.04172667232049406,0.08678898855807758,-0.06401423608746658,0.06008832634672656,0.11783592715763386,-0.12005178360771981,-0.037985948116102175,-0.12747300158099575,-0.017356049733160076
246,8.22010269999737,0.01685894125371148,0.020189261076803758,-0.008533497659188425,0.04199335056739365,0.0873114334258056,-0.06454795935767853,0.05991643765176979,0.11726171712489392,-0.12012402429526195,-0.039367078678580705,-0.13093033887984573,-0.015145895733953318
247,8.224058299994795,0.017046166045999133,0.02057846154106315,-0.008821557592954884,0.042259251240517826,0.08783129215812586,-0.06508198186200512,0.05973840440428762,0.11667212735224082,-0.12018641085040842,-0.04075095237223674,-0.13439372313173184,-0.012921770524799894
248,8.228076400002465,0.01723457083498755,0.020969966615302753,-0.009111991524503349,0.04252434700423937,0.088348496342384,-0.0656162596672573,0.05955421487860556,0.11606713235435964,-0.12023888196805768,-0.04213735756811651,-0.13786252341084287,-0.010684032894839178
249,8.232428300005267,0.017424151982577334,0.02136376434963826,-0.009404800490549857,0.04278861047290827,0.08886297745889098,-0.06615074857132769,0.05936385829864778,0.11544670947515298,-0.120281377956659,-0.04352607862062498,-0.14133609735998834,-0.008433050211525246
250,8.23624139999447,0.017614905728851285,0.021759842489436174,-0.009699985330771313,0.043052014215112074,0.08937466689360932,-0.06668540411044727,0.05916732485554763,0.11481083893902284,-0.12031384077652796,-0.044916895902306575,-0.1448137910527199,-0.006169198398503471
251,8.240965899996809,0.017806828191880557,0.022158188474922954,-0.009997546686658886,0.04331453075801274,0.08988349595107074,-0.06722018156661161,0.05896460572543069,0.11415950390242437,-0.12033621407758432,-0.046309585754484454,-0.14829493901159205,-0.003892861849535296
252,8.24490849999711,0.017999915367550277,0.022558789440852062,-0.010297485000404791,0.043576132591765085,0.09038939586752064,-0.06775503597517304,0.05875569308746399,0.11349269050498538,-0.12034844323690247,-0.04770392051703725,-0.15177886419869138,-0.0016044334701267897
253,8.24884669999301,0.018194163129404986,0.02296163221622994,-0.010599800513823176,0.04383679217401408,0.0908922978242901,-0.06828992213260064,0.058540580141374414,0.11281038792114431,-0.12035047539681923,-0.0490996685532501,-0.1552648779330681,0.0006956852313016658
254,8.253236300006392,0.018389567228514227,0.02336670332410191,-0.010904493267305871,0.04409648193446899,0.09139213296139942,-0.0688247946044111,0.05831926112527703,0.11211258841200368,-0.12034225950329473,-0.050496594229174435,-0.15875227994360888,0.003007084119889928
255,8.257114599997294,0.018586123293358646,0.023773988981399083,-0.011211563098813774,0.044355174279559144,0.09188883239139099,-0.06935960773326971,0.05809173133337694,0.11139928737649803,-0.12032374634422936,-0.05189445798354155,-0.16224035840347098,0.005329344400428542
256,8.2620026999939,0.01878382682973696,0.024183475098847204,-0.011521009642904607,0.044612841597165435,0.09238232721338763,-0.06989431564726185,0.057857987133176185,0.11067048340294133,-0.120294888588126,-0.05329301629842686,-0.16572838989195884,0.007662038553776954
257,8.2663462000055,0.018982673220694118,0.02459514728093852,-0.011832832329797824,0.04486945626142903,0.09287254852738369,-0.07042887226833759,0.05761802598343635,0.10992617832053382,-0.12025564082297212,-0.054692021584636694,-0.16921563947198415,0.010004730223048952
258,8.270001400000183,0.019182657726471014,0.025008990825967668,-0.012147030384477432,0.04512499063764253,0.09335942744876119,-0.07096323132092879,0.05737184645240422,0.10916637725022085,-0.12020595959591374,-0.05609122227129018,-0.17270136071044984,0.012356973985786786
259,8.274032500004978,0.01938377548447612,0.025424990726132555,-0.012463602825833489,0.04537941708722069,0.09384289512303301,-0.07149734634074635,0.05711944823497813,0.10839108865601854,-0.12014580345416256,-0.05749036307755081,-0.1761847956894869,0.014718315230134086
260,8.277908200005186,0.019586021509279388,0.025843131667701306,-0.012782548465843122,0.04563270797274414,0.09432288274081521,-0.07203117068376097,0.056860832168518276,0.10760032439577277,-0.12007513298577059,-0.05888918522480505,-0.17966517521705272,0.01708829012357268
261,8.282313000003342,0.019789390692628705,0.026263398031246225,-0.013103865908791855,0.045884835663070674,0.09479932155302145,-0.07256465753536279,0.05659600024812707,0.10679409977061287,-0.11999391086081516,-0.06028742647135574,-0.18314171900451823,0.01946642549734377
262,8.286546999996062,0.019993877803489234,0.026685773891945798,-0.013427553550536042,0.046135772538514794,0.09527214288627486,-0.0730977599197082,0.056324955642151085,0.1059724335741321,-0.1199021018732009,-0.0616848210580596,-0.18661363564839437,0.021852238852415166
263,8.291003199992701,0.020199477488105914,0.02711024301995565,-0.013753609577807276,0.046385490996096755,0.09574127815853961,-0.07363043070925111,0.05604770270794462,0.10513534814200375,-0.11979967298179171,-0.06308109966897826,-0.19008012276330372,0.024245238483500423
264,8.295074900001055,0.020406184270089448,0.027536788880849494,-0.014082031967559543,0.046633963454862246,0.0962066588949738,-0.07416262263445536,0.05576424700772139,0.10428286939997972,-0.11968659335111038,-0.06447598941109241,-0.1935403672925218,0.026644923578640727
265,8.299130400002468,0.020613992550526095,0.02796539463613099,-0.014412818486359962,0.04688116236127234,0.0966682167439877,-0.07469428829368771,0.055474595324498416,0.10341502691074628,-0.11956283439158542,-0.06586921386902021,-0.19699354564235355,0.029050784262418153
266,8.303282399996533,0.02082289660811156,0.028396043143817436,-0.014745966689823874,0.0471270601946649,0.09712588349351312,-0.07522538016328802,0.055178755677461354,0.10253185392072821,-0.11942836979986651,-0.06726049327363529,-0.20043882391416395,0.031462301579270206
267,8.307462199998554,0.021032890599309344,0.02882871695909625,-0.015081473922095094,0.04737162947278109,0.09757959108747762,-0.0757558506078206,0.05487673733640956,0.10163338740488213,-0.1192831755992197,-0.06864954466392596,-0.20387535837668538,0.033878947595362134
268,8.31182020000415,0.021243968558533742,0.029263398335055084,-0.01541933731537212,0.04761484275735518,0.0980292716424721,-0.07628565189050344,0.05456855083568273,0.10071966810930245,-0.11912723017893735,-0.07003608216874009,-0.20730229590814253,0.03630018562289987
269,8.316102900003898,0.021456124398357885,0.029700069223486454,-0.015759553789481087,0.04785667265976488,0.09847485746460376,-0.07681473618380989,0.05425420798610161,0.09979074059208477,-0.11896051433273944,-0.0714198173534232,-0.21071877443132464,0.0387254703894421
270,8.319961400004104,0.021669351909746972,0.030138711275767668,-0.01610212005149621,0.048097091846727225,0.09891628106652678,-0.07734305558023917,0.05393372188581346,0.0988466532620646,-0.11878301129667855,-0.07280045925899037,-0.21412392343437892,0.041154248264142934
271,8.324038799997652,0.021883644762316926,0.030579305843816833,-0.01644703259540848,0.048336073046045355,0.0993534751846397,-0.077870562103255,0.05360710693188461,0.0978874584150516,-0.11859470678553023,-0.0741777144167031,-0.21751686443751445,0.04358595780893714
272,8.32823020000069,0.022098996504618714,0.03102183398112564,-0.016794287701843328,0.04857358905240745,0.09978637279643822,-0.07839720771837963,0.05327437883101634,0.09691321226841992,-0.11839558902579861,-0.07555128692184321,-0.22089671131830396,0.04602003043633618
273,8.332405299996026,0.02231540056444855,0.03146627644386962,-0.017143881437827937,0.0488096127332287,0.10021490713801993,-0.07892294434442576,0.05293555461048167,0.09592397499445093,-0.1181856487862598,-0.07692087829635488,-0.22426257070706507,0.04845589087772006
274,8.33823389999452,0.02253285024918414,0.031912613692096525,-0.017495809656608748,0.04904411703454753,0.10063901172173358,-0.0794477238648621,0.05259065263006217,0.09491981075140911,-0.11796487940680504,-0.0782861875180032,-0.22761354237802794,0.05089295757730271
275,8.342502300001797,0.02275133874614729,0.03236082589099345,-0.017850067997519786,0.049277074986973625,0.10105862035395997,-0.07997149813930168,0.0522396925927256,0.09390078771340782,-0.11773327682548228,-0.07964691134584981,-0.23094871973571152,0.05333064315251284
276,8.34666009999637,0.022970859122993032,0.03281089291223327,-0.018206651885902293,0.04950845971167906,0.10147366715302673,-0.08049421901510777,0.05188269555366966,0.09286697809716196,-0.11749083960324708,-0.08100274457828031,-0.2342671907560428,0.05576835504003505
277,8.351047999996808,0.02319140432812548,0.03326279433540102,-0.01856555653307621,0.049738244426426756,0.10188408656722701,-0.08101583833910217,0.05151968392870605,0.09181845818348842,-0.11723756894526176,-0.08235338005722204,-0.23756803872285104,0.0582054960901911
278,8.354962700002943,0.023412967191140537,0.03371650944950046,-0.018926776936363875,0.04996640245163609,0.10228981339292531,-0.08153630796936046,0.05115068150326681,0.09075530833751225,-0.11697346872036306,-0.08369850858892215,-0.24085034260569252,0.060641465047875105
279,8.359088600001996,0.02363554042329567,0.03417201725454143,-0.019290307879166364,0.050192907216491424,0.10269078279275584,-0.08205557978709335,0.050775713441492495,0.08967761302680871,-0.11669854547808635,-0.08503781892972428,-0.24411317759504514,0.06307565726076657
280,8.36265860000276,0.023859116618006913,0.034629296463208135,-0.019656143931092794,0.0504177322650885,0.10308693031388959,-0.08257360570859325,0.05039480629536497,0.08858546083685233,-0.11641280846183823,-0.08637099761762229,-0.2473556158491663,0.06550746543232734
281,8.366331700002775,0.02408368825137328,0.03508832550260889,-0.02002427944814284,0.05064085126262414,0.10347819190637,-0.08309033769723269,0.05000798801529287,0.08747894448252033,-0.11611626961922757,-0.08769772883911302,-0.250576727410981,0.06793628040801487
282,8.370256800000789,0.02430924768272878,0.0355490825161074,-0.020394708572942708,0.05086223800163673,0.1038645039414823,-0.08360572777550271,0.04961528796042784,0.08635816081539173,-0.1158089436082497,-0.0890176946568411,-0.2537755805939804,0.07036149198256039
283,8.373787200005609,0.0245357871552223,0.036011545365235764,-0.020767425235034644,0.05108186640828763,0.10424580323015406,-0.0841197280370663,0.04921673690722661,0.08522321083182066,-0.11549084780044182,-0.09033057514704672,-0.25695124203316294,0.07278248935243092
284,8.37830219999887,0.024763298796425463,0.036475691631689316,-0.021142423151220047,0.051299710548677754,0.10462202704139624,-0.08463229065882479,0.04881236705854544,0.08407419967978265,-0.11516200228304536,-0.09163604826624037,-0.26010277723620734,0.07519866139160533
285,8.38208090000262,0.024991774618968645,0.03694149861940354,-0.021519695825956246,0.05151574463520982,0.10499311312076466,-0.08514336791299051,0.0484022120533873,0.08291123666204875,-0.11482242985971014,-0.09293378983724505,-0.2632292510983111,0.07760939698021241
286,8.386759700006223,0.025221206521205387,0.03740894335671303,-0.021899236551806908,0.05172994303299156,0.10535899970882925,-0.08565291217915949,0.047986306976120406,0.08173443523845556,-0.11447215604973553,-0.09422347381582932,-0.2663297281400132,0.08001408513239539
287,8.391136599995662,0.025451586287905337,0.037878002598592544,-0.02228103840994613,0.051942280266279936,0.10571962555965568,-0.08616087595637732,0.04756468836385534,0.08054391302696542,-0.11411120908763805,-0.09550477266053377,-0.2694032731082624,0.08241211502407478
288,8.395115499995882,0.025682905590975934,0.03834865282898028,-0.022665094270716096,0.052152731024949904,0.10607492995928403,-0.08666721187520801,0.04713739421237635,0.07933979180059376,-0.11373961992214585,-0.09677735737193018,-0.2724489515799508,0.08480287639464985
289,8.398882800000138,0.02591515599021285,0.038820870263183135,-0.02305139679423845,0.05236127017099134,0.1064248527441831,-0.08717187270979096,0.046704463983169485,0.07812219748310463,-0.11335742221219558,-0.09804089731108549,-0.27546583005113034,0.0871857598682581
290,8.403655699992669,0.026148328934079434,0.03929463085036405,-0.023439938431079128,0.05256787274504031,0.10676933431969089,-0.08767481138987418,0.046265938610967505,0.076891260145145,-0.11296465232307136,-0.09929506026341604,-0.2784529760752615,0.08956015685910822
291,8.407402900003945,0.02638241576051519,0.03976991027611117,-0.02383071142296667,0.052772513972943025,0.10710831567843447,-0.08817598101283698,0.04582186051021046,0.0756471139987115,-0.11256134932324315,-0.10053951288236887,-0.28140945894472824,0.09192545990766385
292,8.415374799995334,0.02661740769777357,0.0402466839650889,-0.024223707803563935,0.05297516927234456,0.10744173841872127,-0.08867533485569508,0.04537227357864685,0.07438989738722696,-0.11214755497751738,-0.1017739216042904,-0.2843343518743114,0.09428106428677523
293,8.419815300003393,0.02685329586528904,0.040724927083770596,-0.024618919399293126,0.05317581425928481,0.10776954476287083,-0.08917282638706239,0.04491722319566219,0.07311975276059883,-0.11172331372959902,-0.10299795398203729,-0.2872267355477162,0.09662637051099396
294,8.423738099998445,0.02709007127457348,0.04120461454325249,-0.025016337830213817,0.05337442475477235,0.1080916775753843,-0.08966840927900116,0.044456756214026116,0.07183682663377178,-0.11128867267293763,-0.10421127983608622,-0.2900857000850141,0.09896078570382019
295,8.428404699996463,0.027327724830141672,0.04168572100214793,-0.02541595451095332,0.05357097679130705,0.10840808038090784,-0.0901620374187246,0.04399092094798913,0.07054126954429815,-0.11084368152113633,-0.10541357165949385,-0.29291034435145646,0.10128372283398118
296,8.432097500000964,0.02756624733046571,0.04216822086956098,-0.025817760651688722,0.05376544661934809,0.10871869738202493,-0.09065366492018398,0.043519767161430085,0.06923323601703424,-0.11038839258558643,-0.10660450438559867,-0.2956997743548609,0.10359459930655716
297,8.436378600003081,0.02780562946895796,0.042652088308138776,-0.02622174725918026,0.053957810713731263,0.10902347347690598,-0.09114324613557251,0.04304334605801778,0.06791288453595594,-0.10992286075839942,-0.10778375526006345,-0.2984531020605129,0.10589283631975527
298,8.440574299995205,0.028045861834982515,0.043137297237202055,-0.02662790513785561,0.054148045780049545,0.10932235427685018,-0.09163073566676068,0.04256171027049584,0.06658037751938897,-0.10944714349575903,-0.10895100429510166,-0.3011694452339617,0.10817785915385189
299,8.44515460000548,0.02828693491489487,0.0436238213359534,-0.02703622489094489,0.05433612876097511,0.10961528612371482,-0.09211608837665217,0.042074913846806776,0.0652358812932219,-0.10896130079828488,-0.1101059347632267,-0.3038479277471773,0.11044909771746295
300,8.449386499996763,0.02852883909310957,0.04411163404676269,-0.027446696921665906,0.05452203684251658,0.10990221610721913,-0.09259925940044465,0.04158301223498814,0.063879566063415,-0.10846539518952894,-0.11124823357787861,-0.3064876797264384,0.11270598696698475
301,8.453735400005826,0.028771564653195504,0.04460070857852918,-0.027859311434459254,0.054705747460206816,0.11018309208212923,-0.09308020415679458,0.0410860622659133,0.06251160588789872,-0.10795949169261092,-0.11237759191118002,-0.30908783782880905,0.11494796746744357
302,8.457455499999924,0.029015101778998558,0.04509101791011969,-0.02827405843627279,0.054887238305206726,0.11045786268531213,-0.09355887835887028,0.04058412213269649,0.06113217864662512,-0.10744365780372944,-0.11349370571236642,-0.31164754556831653,0.11717448604310036
303,8.461629400000675,0.029259440555791168,0.04558253479388227,-0.02869092773789498,0.055066487330309985,0.11072647735265453,-0.0940352380252813,0.0400772513688255,0.05974146601056694,-0.10691796346301446,-0.11459627597468161,-0.3141659534835203,0.11938499638922948
304,8.4653937999974,0.02950457097144833,0.04607523175923478,-0.02910990895533653,0.0552434727558525,0.11098888633584127,-0.09450923949087243,0.03956551082519433,0.05833965341027961,-0.10638248102260052,-0.1156850092786566,-0.3166422193363473,0.12157895963156302
305,8.469885099999374,0.029750482917649694,0.046569081116327675,-0.029530991511259673,0.055418173075512965,0.11124504071899462,-0.09498083941736926,0.03904896264340682,0.05692693000313295,-0.10583728521250639,-0.11675961843928648,-0.3190755085563032,0.12375584470129294
306,8.474789900006726,0.029997166191107136,0.04706405495978051,-0.02995416463645443,0.05559056706198503,0.11149489243516152,-0.0954499948038689,0.03852767022705681,0.05550348863792469,-0.1052824531053751,-0.11781982270407719,-0.32146499478217583,0.12591512864193527
307,8.478497400006745,0.03024461049481726,0.04756012517249129,-0.030379417371361135,0.05576063377252257,0.11173839428263833,-0.09591666299717211,0.03800169821327134,0.05406952581729716,-0.10471806407962593,-0.11886534789575864,-0.3238098603578873,0.128056297047928
308,8.482375599996885,0.03049280543933827,0.04805726342951802,-0.030806738567638544,0.05592835255435893,0.11197549994112399,-0.09638080170194654,0.037471112442722276,0.0526252416579433,-0.10414419978029589,-0.11989592671351909,-0.3261092966393555,0.13017884437130345
309,8.486330600004294,0.030741740544090627,0.048555441202031695,-0.031236116889776698,0.05609370304998561,0.11220616398769104,-0.09684236899071078,0.036935979928491965,0.051170839850295795,-0.1035609440794658,-0.12091129874881634,-0.32836250452617843,0.13228227399230352
310,8.491408500005491,0.030991405238680856,0.0490546297613398,-0.03166754081675377,0.056256665202294776,0.11243034191258046,-0.09730132331364577,0.0363963688259443,0.04970652761400706,-0.10296838303647404,-0.12191121046473824,-0.3305686952724291,0.13436609843946953
311,8.49536289999378,0.03124178886424792,0.049554800182979655,-0.032100998643736146,0.05641721925959016,0.11264799013477703,-0.09775762350822528,0.035852348401773815,0.048232515650431504,-0.1023666048563864,-0.1228954152351715,-0.3327270906946239,0.13642983968665637
312,8.4989726000058,0.03149288067483154,0.05005592335088042,-0.03253647848382087,0.05657534578045442,0.11285906601738173,-0.09821122880865818,0.03530398900352863,0.04674901809625692,-0.10175569984756973,-0.12386367314359725,-0.3348369234185077,0.13847302917412072
313,8.503517499993904,0.031744669838761855,0.05055796996159303,-0.032973968269819666,0.05673102563848917,0.11306352788277498,-0.09866209885514171,0.034751362030447965,0.045256252473793175,-0.10113576037997428,-0.12481575078935198,-0.33689743757093216,0.1404952076147766
314,8.507399099995382,0.031997145440069874,0.05106091052858701,-0.03341345575608361,0.0568842400269231,0.11326133502754715,-0.09911019370293303,0.034194539904707166,0.043754439638453685,-0.10050688084442957,-0.1257514211196176,-0.33890788920404863,0.1424959250089401
315,8.51172840000072,0.03225029647991809,0.05156471538661312,-0.03385492852036779,0.05703497046309642,0.113452447737195,-0.09955547383124065,0.03363359604374863,0.04224380372527359,-0.09986915761079568,-0.1266704632772219,-0.34086754662183766,0.14447474067877283
316,8.515559899999062,0.03250411187805079,0.05206935469613079,-0.03429837396573505,0.05718319879282306,0.1136368273005768,-0.09999790015192399,0.033068604832879676,0.040724572093488814,-0.09922268898695286,-0.12757266277760712,-0.3427756910321151,0.14643122276012113
317,8.519874599995092,0.03275858047426344,0.05257479844779926,-0.03474377932249793,0.05732890719463152,0.11381443602411612,-0.10043743401802029,0.03249964159603044,0.03919697526725876,-0.09856757518146977,-0.12845781211648452,-0.34463161756406346,0.14836494779729537
318,8.523992899994482,0.03301369102989073,0.05308101646703127,-0.03519113165019821,0.05747207818386713,0.1139852372457301,-0.10087403723211233,0.03192678256295051,0.03766124687120083,-0.09790391826619503,-0.12932571134332327,-0.3464346361090641,0.15027550064383316
319,8.528104800003348,0.033269432229312355,0.053587978418608,-0.03564041783962326,0.05761269461664137,0.11414919534846023,-0.10130767205452286,0.03135010483486925,0.03611762356363922,-0.09723182213980744,-0.13017616827397727,-0.3481840713981547,0.15216247415633902
320,8.532687700004317,0.03352579268147621,0.05409565381135391,-0.036091624614858396,0.05775073969362886,0.11430627577380721,-0.1017383012113583,0.03076968634980242,0.03456634497145097,-0.09655139249312893,-0.13100899830230123,-0.349879262874156,0.15402546937259584
321,8.536466499994276,0.03378276092143793,0.05460401200287024,-0.036544738535374724,0.05788619696370829,0.11445644503478267,-0.10216588790239482,0.030185605849887054,0.03300765362445134,-0.09586273677109164,-0.13182402349116848,-0.35151956479162233,0.155864096223116
322,8.54044700000668,0.0340403254119164,0.05511302220432584,-0.036999745998151604,0.0580190503274691,0.1145996707286608,-0.10259039580878405,0.029597942854767714,0.03144179488935148,-0.09516596413172608,-0.13262107145684124,-0.3531043458887232,0.15767797414239235
323,8.544714200004819,0.034298474544864524,0.055622653485304006,-0.03745663323983299,0.05814928404061583,0.114735921549443,-0.10301178910057458,0.02900677763884783,0.02986901690706033,-0.09446118540269499,-0.13339997492326128,-0.3546329891912223,0.15946673261359454
324,8.548916900006589,0.03455719664305495,0.05613287477870413,-0.037915386338916744,0.058276882717272584,0.11486516730005224,-0.10343003244403128,0.028412191208637777,0.028289570528384628,-0.09374851303543985,-0.13416057166347348,-0.35610489263480166,0.16123001155481254
325,8.55314279999584,0.03481647996168022,0.056643654885696906,-0.03837599121797604,0.05840183133318602,0.11498737890422614,-0.10384509100874925,0.027814265280526856,0.02670370924579921,-0.09302806105828156,-0.1349027046380351,-0.35751946968703047,0.1629674614752052
326,8.557105700005195,0.035076312689966985,0.05715496248073171,-0.0388384336459119,0.05852411522883229,0.1151025284181049,-0.10425693047455631,0.0272130822569011,0.02511168912361851,-0.09229994502917896,-0.13562622247831302,-0.3588761500093841,0.16467874353420278
327,8.561322699999437,0.03533668295280376,0.0576667661165948,-0.039302699240235967,0.0586437201124077,0.11521058904150362,-0.10466551703820698,0.026608725199619373,0.02351376872388237,-0.09156428198830333,-0.13633097987282197,-0.36017438048426187,0.16636352957294187
328,8.565841300005559,0.035597578812381715,0.05817903422951688,-0.03976877346938254,0.058760632062699894,0.11531153512884154,-0.1050708174198634,0.02600127780269713,0.021910209027398694,-0.09082119041051745,-0.13701683756661007,-0.36141362579023556,0.16802150195565585
329,8.569572199994582,0.03585898826984796,0.05869173514432849,-0.04023664165504894,0.05887483753183574,0.11540534219971249,-0.105472798869367,0.025390824365787986,0.020301273354516047,-0.09007079015935994,-0.1376836620057475,-0.3625933677872765,0.1696523529754577
330,8.573058900001342,0.03612089926697075,0.05920483707966147,-0.04070628897456331,0.058986323347916765,0.11549198694910986,-0.10587142917231031,0.0247774497700275,0.01868722729163084,-0.08931320244480616,-0.13833132485323774,-0.3637131048443784,0.1712557840451273
331,8.577886800005217,0.036383299687816215,0.05971830815319526,-0.04117770046327894,0.059095076717552326,0.11557144725734389,-0.1062666766559332,0.024161239455817662,0.0170683386179365,-0.08854854978444535,-0.13895970298892907,-0.3647723531072098,0.17283150614202625
332,8.582345100003295,0.03664617736043607,0.060232116386946546,-0.04165086101699447,0.0592010852282976,0.11564370219961545,-0.10665851019484966,0.02354227939867147,0.01544487722066285,-0.08777695595728685,-0.13956867951738844,-0.3657706497565667,0.17437924232760163
333,8.586641400004737,0.036909520058566014,0.060746229712600616,-0.042125755394399146,0.05930433685097202,0.11570873205517995,-0.10704689921653339,0.022920656078038726,0.013817114992861906,-0.08699854594254215,-0.14015814478516728,-0.3667075561595072,0.17589873018767013
334,8.590377200001967,0.037173315503334046,0.061260615976882475,-0.042602368219541754,0.059404819941820196,0.1157665183160126,-0.10743181370650041,0.02229645644410845,0.01218532572063779,-0.08621344585174015,-0.14072799607552378,-0.36758265855332595,0.17738972245368628
335,8.595081699997536,0.037437551364978075,0.06177524294696523,-0.04308068398432195,0.05950252324453525,0.1158170436949699,-0.10781322421319131,0.021669767889348202,0.010549784974852866,-0.08542178286198693,-0.14127813661961147,-0.3683955667988014,0.17885198657960133
336,8.59885559999384,0.03770221526457223,0.062290078315913745,-0.04356068705100261,0.059597435892166734,0.11586029213349229,-0.10819110185256058,0.02104067822409573,0.00891077000943968,-0.08462368515184221,-0.14180847475626415,-0.369145913363192,0.18028530406966276
337,8.603093400000944,0.03796729477576141,0.0628050897081615,-0.04404236165474193,0.05968954740892706,0.11589624880886183,-0.10856541831238886,0.020409275655566717,0.007268559662146916,-0.08381928184055411,-0.1423189234288518,-0.3698333532613933,0.18168946996376015
338,8.607417599996552,0.038232777426503675,0.06332024468501873,-0.0445256919061441,0.059778847711912796,0.1159249001410226,-0.10893614585633224,0.01977564876791871,0.005623434253374378,-0.08300870292851019,-0.14280940009631457,-0.3704575645879768,0.18306429277945926
339,8.612389300003997,0.03849865070082007,0.06383551075020996,-0.045010661793827435,0.059865327112733874,0.11594623379893906,-0.10930325732770511,0.01913988650204967,0.003975675482189817,-0.08219207923698746,-0.14327982666378106,-0.37101824896421653,0.1844095944512399
340,8.61667970000417,0.03876490204055151,0.06435085535543862,-0.04549725518700864,0.059948976319055346,0.11596023870649232,-0.10966672615299394,0.01850207813627862,0.0023255663211904287,-0.08136954234914352,-0.14373012943294652,-0.37151513212914455,0.1857252098962776
341,8.620408500006306,0.03903151884712232,0.06486624590597698,-0.045985455838102166,0.06002978643605487,0.11596690504790386,-0.11002652634511564,0.017862313266585238,0.0006733909072659679,-0.08054122455362621,-0.14416023896410335,-0.37194796452165063,0.18701098680806041
342,8.624077899992699,0.039298488483310044,0.06538164976627901,-0.046475247385333485,0.060107748967788796,0.11596622427266082,-0.11038263250643007,0.01722068178851691,-0.0009805655687138595,-0.0797072587873992,-0.14457008970042837,-0.3723165215302542,0.18826678588210702
343,8.6282302000036,0.039565798275021165,0.0658970342656141,-0.04696661335536518,0.06018285581848886,0.11595818909995927,-0.11073501983149023,0.016577273880767903,-0.002636016973356428,-0.07886777857734534,-0.14495961991888892,-0.3726206039852712,0.18949248057953508
344,8.632103700001608,0.03983343551307242,0.06641236670371936,-0.04745953716593467,0.0602550992937823,0.1159427935226387,-0.11108366410953566,0.01593217998752279,-0.0042926763454335225,-0.07802291798519378,-0.14532877200671243,-0.3728600383063585,0.19068795677172362
345,8.63650829999824,0.04010138745497735,0.06692761435646837,-0.04795400212850249,0.060324472101831575,0.11592003281060592,-0.11142854172675314,0.015285490799578185,-0.0059502560086498475,-0.07717281155228184,-0.14567749289594192,-0.3730346765443188,0.1918531131741677
346,8.64035810000496,0.04036964132673778,0.06744274448155389,-0.04844999145091008,0.06039096735438673,0.11588990351376718,-0.11176962966827908,0.014637297232823527,-0.007608467686701945,-0.07631759424062572,-0.14600573461708036,-0.3731443965969721,0.19298786168266835
347,8.644698499992955,0.040638184324639705,0.06795772432418266,-0.04894748824004587,0.06045457856773382,0.11585240346442933,-0.11210690551993642,0.01398769040444164,-0.009267022617965524,-0.07545740137469403,-0.14631345490156242,-0.37318910167483293,0.1940921272454665
348,8.648900200001663,0.04090700361705319,0.0684725211227795,-0.049446475504518535,0.06051529966353569,0.11580753177921253,-0.11244034746971945,0.013336761606034336,-0.010925631665804942,-0.07459236858361518,-0.14660061772538907,-0.37316871998722734,0.19516584824860556
349,8.653023299993947,0.04117608634623575,0.06898710211469904,-0.049946936157336246,0.06057312496954158,0.1157552888604709,-0.11276993430901702,0.01268460227499077,-0.012584005430470528,-0.07372263173952541,-0.14686719338790427,-0.3730832046019497,0.19620897751256547
350,8.657563500004471,0.04144541963013854,0.06950143454194249,-0.050448853018590804,0.06062804922017336,0.11569567639721061,-0.11309564543354936,0.012031303966912812,-0.014241854358160593,-0.07284832689091747,-0.14711315833421457,-0.37293253243791824,0.19722148279743046
351,8.661345300002722,0.04171499056421497,0.07001548565687755,-0.05095220881814523,0.06068006755699006,0.11562869736554111,-0.11341746084399881,0.011376958328561875,-0.015898888843964776,-0.07196959019649839,-0.14733849483875883,-0.37271670266554546,0.19820334626943703
352,8.66524259999278,0.041984786223230985,0.07052922272795918,-0.0514569861983235,0.06072917552903365,0.11555435602867821,-0.1137353611463588,0.010721657073096932,-0.01755481932670744,-0.07108655786327978,-0.1475431906002629,-0.37243573474896047,0.19915456367947718
353,8.67031549999956,0.04225479366307679,0.07104261304544948,-0.05196316771660123,0.0607753690930734,0.11547265793655223,-0.11404932755201419,0.010065491956621663,-0.019209356374488926,-0.07019936608773769,-0.14772723897930437,-0.37208966830900314,0.20007514495748116
354,8.674339299992425,0.04252499992257929,0.07155562392713505,-0.052470735848296125,0.060818644613743277,0.11538360992505076,-0.1143593418775673,0.009408554751310841,-0.020862210778311144,-0.06930815098861963,-0.14789064023268084,-0.3716785663829083,0.2009651175518552
355,8.67818659999466,0.04279539202531503,0.0720682227240401,-0.05297967298925714,0.060858998863547405,0.1152872201147946,-0.114665386544321,0.00875093721098555,-0.022513093666593164,-0.06841304851842114,-0.1480334030154688,-0.37120251828983386,0.2018245297578373
356,8.682074099997408,0.043065956981422696,0.07258037682613297,-0.05348996145855031,0.06089642902269144,0.11518349790936262,-0.1149674445773178,0.008092731030888232,-0.024161716624267623,-0.0675141943666081,-0.14815554468779296,-0.3706616392751725,0.2026534508564327
357,8.686323300004005,0.04333668178941453,0.0730920536680234,-0.05400158350113937,0.06093093267873052,0.11507245399300911,-0.11526549960396283,0.0074340278105311216,-0.0258077918041347,-0.06661172386985836,-0.14825709039556972,-0.3700560685343298,0.20345196947597785
358,8.691193999999086,0.04360755343798574,0.0736032207346488,-0.054514521290559365,0.060962507826070406,0.1149541003278988,-0.115559535852265,0.006774919021642287,-0.02745103202839249,-0.06570577192984757,-0.14833807193371132,-0.369385967039956,0.2042201916733443
359,8.695224600000074,0.04387855890782145,0.07411384556694695,-0.05502875693158161,0.06099115286533049,0.11482845015092176,-0.11584953814872923,0.006115495981118698,-0.02909115088067791,-0.06479647294054643,-0.14839852635384848,-0.3686515151689358,0.20495823848311887
360,8.69932479999261,0.04414968517340046,0.07462389576751391,-0.05554427246286858,0.06101686660260454,0.11469551797011034,-0.1161354919159514,0.005455849831347789,-0.030727862786504107,-0.0638839607277911,-0.1484384947390946,-0.3678529095614388,0.20566624317310153
361,8.703736900002696,0.044420919204795635,0.07513333900624496,-0.05606104985961751,0.06103964824864881,0.11455531956073903,-0.11641738316997345,0.004796071524051279,-0.03236088307738243,-0.0629683685009755,-0.14845802176870104,-0.3669903616598812,0.20634434973091512
362,8.70743599999696,0.044692247969470425,0.07564214302595774,-0.05657907103619174,0.06105949741799916,0.11440787196117144,-0.11669519851744889,0.004136251804476378,-0.0339899280582731,-0.06204982880607377,-0.1484571564694811,-0.3660641012236478,0.20699271459361718
363,8.711508199994569,0.044963658434071414,0.07615027564799635,-0.05709831784873912,0.06107641412801863,0.11425319346836067,-0.11696892515258032,0.003476481188560433,-0.03561471510294848,-0.061128473461958606,-0.14843595411246216,-0.36507438239686746,0.2076115105502535
364,8.715467799993348,0.045235137566216395,0.07665770477781447,-0.057618772097796186,0.06109039879781161,0.11409130363284857,-0.117238550853719,0.0028168499302633665,-0.03723496277537837,-0.060204433478735074,-0.14839447724086766,-0.36402148689116215,0.2082009286585373
365,8.719870400003856,0.04550667233627724,0.07716439841053498,-0.05814041553087628,0.06110145224698104,0.11392222325318717,-0.11750406397957633,0.002157447989594907,-0.03885039095338372,-0.05927783897702218,-0.1483327949191322,-0.36290572291665246,0.20876117634924882
366,8.723962300005951,0.04577824971915694,0.07767032463648353,-0.05866322984504007,0.06110957569425836,0.11374597436983884,-0.11776545346510602,0.0014983650066223077,-0.04046072094051997,-0.05834881912313612,-0.14825098169490766,-0.3617274227330666,0.2092924738075293
367,8.728088899995782,0.04604985669606031,0.07817545164669396,-0.05918719668944709,0.061114770756029696,0.11356258025860322,-0.11802270881713943,0.0008396902787239803,-0.04206567556796337,-0.05741750208053742,-0.14814911719489562,-0.36048694079137694,0.20979505089165387
368,8.732487999994191,0.04632148025625789,0.07867974773838339,-0.05971229766788742,0.06111703944476363,0.11337206542361172,-0.11827582010983613,0.00018151273818973904,-0.04366497928987582,-0.05648401497240225,-0.1480272861537419,-0.3591846524095917,0.21026914508830613
369,8.736838199998601,0.04659310739884271,0.0791831813203954,-0.06023851434129285,0.06111638416733825,0.11317445558990681,-0.11852477797998659,-0.00047607907078239765,-0.04525835827352073,-0.0555484838512445,-0.14788557829547364,-0.3578209522128171,0.21071499977226113
370,8.740812100004405,0.04686472513447933,0.07968572091860916,-0.06076582823022674,0.06111280772326448,0.11296977769563549,-0.11876957362219268,-0.001132997013432098,-0.04684554048076211,-0.05461103367695629,-0.14772408797860173,-0.35639625243263134,0.21113286247852342
371,8.745018100002198,0.04713632048714478,0.08018733518131321,-0.06129422081735238,0.061106313302823394,0.11275805988390414,-0.11901019878397519,-0.0017891533842853365,-0.04842625574306399,-0.05367178830178844,-0.1475429150942113,-0.3549109833620127,0.21152298471315792
372,8.749576600006549,0.04740788049586104,0.08068799288454222,-0.06182367354987937,0.06109690448511308,0.1125393314943054,-0.11924664576082084,-0.0024444609364831374,-0.05000023584703327,-0.05273087045007244,-0.14734216784278764,-0.35336559754508345,0.21188562405931607
373,8.757023199999821,0.04767939221641865,0.08118766293737538,-0.06235416784198792,0.06108458523592531,0.1123136230540126,-0.11947890739110953,-0.003098832926312552,-0.05156721464666052,-0.051788401684481115,-0.1471219658867541,-0.35176057525048926,0.21222104680510612
374,8.761394400004065,0.04795084272309031,0.08168631438719409,-0.06288568507723019,0.06106935990539655,0.112080966268309,-0.11970697705086146,-0.003752183170557349,-0.05312692819751399,-0.05084450236239228,-0.14688244275026882,-0.35009642739541724,0.21252952904948114
375,8.765598199999658,0.04822221911033359,0.08218391642489614,-0.06341820661090786,0.06105123322537487,0.11184139401048941,-0.11993084864827652,-0.004404426112360053,-0.054679114894971126,-0.04989929159231948,-0.14662374605678943,-0.34837369396564066,0.21281135559617842
376,8.76983669999754,0.048493508494481155,0.0826804383900636,-0.06395171377242492,0.06103021030648551,0.11159494031116068,-0.12015051661809412,-0.0050554768806842735,-0.05622351559436885,-0.04895288720010704,-0.1463460355929878,-0.34659293911475186,0.2130668173544755
377,8.774642499993206,0.04876469801541735,0.08317584977608193,-0.06448618786761516,0.06100629663496927,0.11134164034707542,-0.12036597591583209,-0.005705251338967474,-0.05775987370567363,-0.048005405708464774,-0.14604948158888859,-0.34475474679631035,0.21329620914709724
378,8.778058800002327,0.049035774838240356,0.08367012023520862,-0.06502161018104372,0.06097949806931562,0.11108153042959093,-0.12057722201196464,-0.006353666129295976,-0.059287935274807274,-0.04705696232264783,-0.14573426370051412,-0.3428597186107478,0.21349982883003893
379,8.782485899995663,0.04930672615490885,0.08416321958358969,-0.06555796197828279,0.06094982083670839,0.11081464799278008,-0.12078425088603394,-0.007000638712014772,-0.060807449059178814,-0.046107670917815015,-0.14540057030816816,-0.3409084724217846,0.2136779771536322
380,8.786467600002652,0.04957753918587255,0.08465511780622267,-0.0660952245081609,0.06091727152930684,0.11054103158121888,-0.1209870590207157,-0.007646087403665186,-0.062318166596712014,-0.04515764402594361,-0.1450485982700014,-0.3389016415254331,0.21383095809961328
381,8.790467300001183,0.04984820118168582,0.08514578506186457,-0.06663337900498582,0.06088185710035413,0.1102607208374837,-0.1211856433958145,-0.008289931414404204,-0.06381984227399079,-0.04420699282019158,-0.14467855276340133,-0.3368398740389233,0.21395907881174087
382,8.795148799996241,0.05011869942460363,0.08563519168788367,-0.0671724066907405,0.06084358486012577,0.10997375648933322,-0.1213800014821903,-0.008932090884532302,-0.06531223338985508,-0.043255827102429124,-0.14429064690901616,-0.33472383145844814,0.21406264951570017
383,8.79937809999683,0.05038902123015916,0.08612330820505357,-0.06771228877725194,0.06080246247171339,0.10968018033664033,-0.12157013123564298,-0.009572486918570836,-0.06679510021072647,-0.0423042552883128,-0.1438851011790833,-0.3325541881039414,0.21414198383614963
384,8.803923900006339,0.05065915394872226,0.08661010532228887,-0.06825300646833281,0.060758497946670334,0.10938003523808228,-0.12175603109070615,-0.010211041616530681,-0.06826820602926892,-0.04135238439199899,-0.14346214294241277,-0.3303316307646207,0.21419739844155924
385,8.807735499998671,0.05092908496703835,0.08709555394132087,-0.06879454096189518,0.06071169964051745,0.1090733650975512,-0.12193769995439586,-0.010847678103945126,-0.06973131721656367,-0.0404003200143749,-0.1430220057132257,-0.3280568570986496,0.2142292129641165
386,8.811346300004516,0.051198801709746965,0.08757962516131247,-0.0693368734520365,0.06066207624812174,0.10876021485038045,-0.12211513719989979,-0.011482320556461659,-0.07118420326654507,-0.03944816632848399,-0.142564928341415,-0.325730575019778,0.21423775013830917
387,8.815771699999459,0.05146829164087954,0.08806229028341142,-0.0698799851310973,0.060609636798983575,0.10844063044936023,-0.12228834266019634,-0.012114894222677336,-0.07262663684272354,-0.038496026066525156,-0.14209115466634395,-0.3233535027960557,0.21422333552516024
388,8.819885499993688,0.051737542265336084,0.08854352081524093,-0.07042385719169045,0.060554390652412346,0.10811465885054852,-0.12245731662162833,-0.012745325445653296,-0.07405839382349881,-0.03754400050772932,-0.14160093264738466,-0.3209263689519931,0.21418629749079923
389,8.824050900002476,0.052006541130340075,0.08902328847532683,-0.07096847082870167,0.06049634749262247,0.10778234799888399,-0.12262205981741434,-0.013373541678021744,-0.07547925334801325,-0.03659218946554911,-0.14109451315879457,-0.3184499117742929,0.21412696702958034
390,8.828100700004143,0.05227527582687154,0.08950156519746023,-0.07151380724126118,0.06043551732377474,0.10744374681358937,-0.12278257342110849,-0.013999471492788493,-0.07688899785707166,-0.0356406912771077,-0.14057214931777448,-0.31592487857921164,0.21404567731073978
391,8.832107399997767,0.052543733991077896,0.08997832313499501,-0.07205984763468608,0.06037191046497631,0.10709890517342056,-0.12293885904001801,-0.014623044592467264,-0.07828741313248244,-0.03468960279441811,-0.14003409616812484,-0.31335202624829517,0.21394276361691322
392,8.83646520000184,0.05281190330566256,0.09045353466507933,-0.07260657322239344,0.060305537545240866,0.10674787390172041,-0.12309091870858502,-0.01524419181707034,-0.07967428834273935,-0.03373901937437852,-0.13948061045304397,-0.3107321219192015,0.2138185637994205
393,8.843454699992435,0.053079771501251004,0.09092717239282021,-0.07315396522778392,0.06023640949841758,0.10639070475126171,-0.12323875488171508,-0.015862845151223336,-0.08104941608850319,-0.03278903486594474,-0.1389119509313844,-0.30806594351773575,0.21367341863483055
394,8.848380700001144,0.053347326357734294,0.09139920915538041,-0.07370200488609548,0.06016453755808804,0.10602745038889669,-0.12338237042804502,-0.016478937734966972,-0.08241259245301269,-0.03183974159695608,-0.1383283792767084,-0.30535428199281095,0.21350767277275826
395,8.853014699998312,0.05361455570558978,0.09186961802600654,-0.0742506734462272,0.06008993325239917,0.10565816437995197,-0.1235217686231544,-0.017092403878863262,-0.08376361706743204,-0.030891230352883138,-0.13773016080860007,-0.30259794364799336,0.21332167651448364
396,8.857359200002975,0.05388144742717871,0.0923383723179872,-0.07479995217253269,0.06001260839882591,0.1052829011722972,-0.12365695314264434,-0.017703179081297697,-0.08510229318198619,-0.029943590347844114,-0.1371175645316611,-0.2997977495479911,0.21311578575340537
397,8.861210300005041,0.05414798945802035,0.09280544558853945,-0.07534982234658232,0.05993257509885036,0.10490171608010768,-0.12378792805509148,-0.018311200043932063,-0.0864284277260328,-0.02899690920388185,-0.13649086240498587,-0.2969545329296025,0.21289036009771112
398,8.865821900006267,0.05441416978804233,0.09327081164262273,-0.07590026526889403,0.05984984573258705,0.10451466526739903,-0.12391469781494253,-0.0189164046825132,-0.08774183135618432,-0.028051272938667163,-0.1358503286012785,-0.2940691368908753,0.21264576144815167
399,8.870309399993857,0.054679976462806985,0.0937344445366789,-0.07645126226063241,0.05976443295336605,0.10412180573136211,-0.12403726725535894,-0.01951873213574035,-0.08904231849583956,-0.027106765957417622,-0.13519623906114608,-0.291142412513605,0.21238235302986697
400,8.87388660000579,0.05494539758471352,0.09419631858229799,-0.0770027946652759,0.05967634968227942,0.1037231952855463,-0.12415564158103962,-0.020118122772112158,-0.09032970736661715,-0.026163471049206678,-0.1345288711482967,-0.2881752177751968,0.21210049889740779
401,8.878231900001992,0.05521042131417592,0.09465640834980887,-0.07755484385025208,0.05958560910270342,0.10331889254291499,-0.1242698263610328,-0.020714518195729177,-0.0916038200182151,-0.025221469383282152,-0.1338485037779426,-0.2851684175699133,0.21180056395476252
402,8.882196799997473,0.05547503587077639,0.09511468867179432,-0.07810739120854093,0.05949222465479344,0.10290895689876345,-0.12437982752152608,-0.021307861254282214,-0.09286448236003307,-0.02428084050519736,-0.13315541777178458,-0.28212288325376933,0.21148291377865192
403,8.886616000003414,0.05573922953439435,0.09557113464652983,-0.07866041816024612,0.05939621002993517,0.10249344851349326,-0.12448565133862383,-0.021898096048010178,-0.09411152418698664,-0.023341662334700277,-0.13244989559163906,-0.2790394914195646,0.2111479143996722
404,8.890493500002776,0.05600299064631056,0.09602572164134562,-0.07921390615413401,0.0592975791651599,0.10207242829530074,-0.12458730443111847,-0.022485167935320717,-0.0953447792002412,-0.022404011163810005,-0.13173222080625938,-0.27591912381731265,0.2107959322835017
405,8.894979200005764,0.05626630761028646,0.09647842529591157,-0.07976783666914068,0.059196346237545765,0.10164595788276701,-0.12468479375325084,-0.023069023537008806,-0.09656408503231899,-0.021467961654872997,-0.1310026780516395,-0.2727626672362018,0.21042733415296638
406,8.899248699992313,0.056529168893618524,0.09692922152544439,-0.08032219121584663,0.0590925256585955,0.10121409962732332,-0.12477812658746418,-0.023649610741524538,-0.09776928326678373,-0.02053358684022113,-0.1302615528425417,-0.2695710118449003,0.2100424863934731
407,8.903841999999713,0.05679156302816763,0.09737808652383681,-0.08087695133791935,0.05898613206859089,0.10077691657566615,-0.12486731053716141,-0.02422687870751643,-0.09896021944859515,-0.019600958125512838,-0.12950913066430733,-0.2663450502815127,0.2096417539885779
408,8.907437300003949,0.057053478611363256,0.09782499676670839,-0.08143209861352366,0.05887718033094792,0.10033447245213042,-0.12495235351948887,-0.02480077786102661,-0.10013674309570454,-0.018670145298852612,-0.12874569605421576,-0.2630856774575671,0.20922549957113432
409,8.911845299997367,0.05731490430718265,0.09826992901437799,-0.08198761465670014,0.05876568552659617,0.09988683164100161,-0.12503326375817464,-0.025371259889868596,-0.10129870770766695,-0.017741216542566177,-0.1279715322843496,-0.2597937902399046,0.20879408348073006
410,8.915732299996307,0.057575828847105055,0.09871286031475744,-0.08254348111871183,0.058651662948383886,0.09943405916881236,-0.12511004977641693,-0.02593827773800356,-0.1024459707744092,-0.016814238441809445,-0.12718692152995645,-0.25647028853847514,0.20834786433682678
411,8.920144499992603,0.05783624103104119,0.0991537680061666,-0.08309967968935943,0.0585351280955074,0.09897622068657666,-0.12518272038979894,-0.026501785601414644,-0.1035783937945111,-0.015889275991249247,-0.12639214518614017,-0.25311607661211527,0.20788719935721317
412,8.923758000004455,0.05809612972823792,0.0995926297200691,-0.08365619209826498,0.058416096667952895,0.09851338245192401,-0.12525128469923663,-0.02706173892529818,-0.10469584229558017,-0.01496639260084164,-0.12558748386733548,-0.24973206344161117,0.20741244447568655
413,8.928349099995103,0.05835548387815834,0.10002942338372865,-0.08421300011612445,0.05829458456095074,0.09804561131115243,-0.12531575208394494,-0.02761809439993334,-0.1057981858558489,-0.014045650101466607,-0.12477321697249076,-0.24631916322362823,0.20692395430025057
414,8.936213199995109,0.05861429249133717,0.10046412722278522,-0.08477008555592888,0.05817060785945401,0.09757297468117068,-0.12537613219443564,-0.028170809954008398,-0.10688529812893982,-0.013127108751077934,-0.12394962239893442,-0.2428782961829167,0.20642208243226823
415,8.940967200003797,0.058872544650211744,0.10089671976375082,-0.08532743027415467,0.05804418283265211,0.09709554053133117,-0.1254324349455382,-0.02871984474794703,-0.10795705687268227,-0.012210827237501052,-0.12311697670019747,-0.2394103898763143,0.2059071822753213
416,8.945239599997876,0.05913022950992864,0.10132717983642425,-0.08588501617192275,0.057915325928508635,0.09661337736511598,-0.1254846705094226,-0.029265159168637405,-0.1090133439854683,-0.011296862677393214,-0.1222755554417016,-0.23591638039611773,0.2053796074307724
417,8.953256499997224,0.05938733629912611,0.10175548657622406,-0.08644282519612684,0.05778405376832186,0.09612655420164665,-0.12553284930861083,-0.029806714825920094,-0.11005404554576585,-0.010385270615525303,-0.12142563345790634,-0.2323972127465039,0.20483971138194854
418,8.958041899997625,0.059643854320692385,0.10218161942643894,-0.08700083934053049,0.05765038314129378,0.09563514055701898,-0.12557698200899334,-0.030344474549602866,-0.11107905185182057,-0.009476105026549208,-0.12056748454553998,-0.22885384088444485,0.20428784717586565
419,8.962321900005918,0.059899772952499805,0.10260555814039479,-0.08755904064683326,0.05751433099911716,0.09513920642545991,-0.12561707951285633,-0.030878402383221808,-0.11208825746153264,-0.008569418317108682,-0.11970138090064845,-0.22528722688819236,0.20372436639779332
420,8.966815799998585,0.06015508164811502,0.10302728278353762,-0.08811741120570579,0.05737591445060002,0.09463882226030787,-0.12565315295191692,-0.03140846357605223,-0.11308156122476755,-0.007665261336721503,-0.11882759302031641,-0.22169833866506913,0.20314961749170482
421,8.97153029999754,0.06040976993748534,0.10344677373543154,-0.08867593315779408,0.05723515075632371,0.09413405895488246,-0.12568521368044716,-0.03193462457599622,-0.11405886630285814,-0.006763683394819336,-0.11794638950445027,-0.21808814779872188,0.2025639452055796
422,8.975867000001017,0.06066382742760146,0.10386401169167163,-0.08923458869469343,0.05709205732333061,0.09362498782329146,-0.12571327326846063,-0.03245685301983164,-0.11502008018178027,-0.00586473227656043,-0.11705803635397549,-0.21445762850031858,0.20196768996082462
423,8.980023399999482,0.06091724380313657,0.10427897766571133,-0.08979336005989215,0.05694665169986885,0.09311168058118337,-0.12573734349497706,-0.03297511771986158,-0.1159651146823324,-0.004968454265474506,-0.11616279672440012,-0.21080775703611426,0.2013611872385591
424,8.98441659999662,0.061170008827062375,0.10469165299060422,-0.09035222954968565,0.05679895157019874,0.09259420932646398,-0.1257574363414102,-0.03348938865197287,-0.11689388596822307,-0.004074894164730576,-0.11526093136080848,-0.20713951178734952,0.20074476882250314
425,8.990719399997033,0.06142211234124207,0.10510201932066002,-0.09091117951406137,0.056648974749443595,0.09207264651997699,-0.12577356398502149,-0.03399963694615205,-0.11780631455678285,-0.003184095308734176,-0.11435269931845973,-0.203453873624725,0.20011876436295098
426,8.995048900003894,0.06167354426700055,0.10551005863301462,-0.09147019235755469,0.05649673917848044,0.09154706496612536,-0.12578573879241095,-0.03450583488094905,-0.11870232533038043,-0.002296099570493505,-0.11343835864465518,-0.199751825612444,0.19948350145721788
427,8.999312700005248,0.06192429460567198,0.10591575322911384,-0.09202925054007596,0.056342262918840105,0.09101753779345048,-0.1257939733130364,-0.035007955880054065,-0.11958184754450393,-0.001410947372501588,-0.11251816653725853,-0.1960343520398551,0.19883930499482308
428,9.003388600001927,0.0621743534391247,0.10631908573611086,-0.09258833657770887,0.05618556414762832,0.09048413843518169,-0.1257982802728011,-0.035505974508170314,-0.12044481483056954,-0.0005286776999228871,-0.11159237903801741,-0.19230243658399412,0.1981864968392147
429,9.007325099999434,0.0624237109302636,0.10672003910817705,-0.09314743304348046,0.05602666115246249,0.08994694060979044,-0.12579867256769006,-0.035999866464864916,-0.1212911651876702,0.00035067188569548943,-0.11066125052844854,-0.1885570599775098,0.19752539448862605
430,9.011804599998868,0.06267235732351008,0.10711859662772658,-0.09370652256810286,0.05586557232644749,0.08940601830161321,-0.12579516325747966,-0.036489608575960716,-0.12212084096465517,0.0012270652213339339,-0.10972503417519743,-0.1847991988223193,0.1968563095135074
431,9.01945569999225,0.06292028294525973,0.10751474190655498,-0.09426558784068748,0.0557023161631889,0.08886144574156493,-0.12578776555959698,-0.03697517879134585,-0.12293378884133364,0.0021004675148999386,-0.10878398305612011,-0.1810298256897384,0.1961795479896749
432,9.024013000002014,0.06316747820431794,0.10790845888689236,-0.09482461160943213,0.05553691125178831,0.08831329738792897,-0.12577649284307466,-0.037456556186374945,-0.12372995981144434,0.002970845323988371,-0.1078383503867803,-0.1772499090807795,0.19549541061915657
433,9.027748900000006,0.06341393359231316,0.10829973184237122,-0.09538357668228148,0.05536937627184408,0.08776164790722195,-0.1257613586225991,-0.03793372096169197,-0.12450930916350626,0.003838166529355238,-0.10688838935367138,-0.1734604125157723,0.19480419168016647
434,9.032662500001608,0.06365963968408804,0.10868854537890953,-0.09594246592756125,0.05519972998844823,0.08720657215515394,-0.12574237655270112,-0.038406654443149,-0.12527179645569614,0.0047024003043446,-0.10593435282694379,-0.16966229350804374,0.1941061784759192
435,9.036812699996515,0.0639045871380682,0.10907488443550932,-0.09650126227458707,0.05502799124718793,0.0866481451577166,-0.12571956042207585,-0.038875339079075553,-0.12601738548757657,0.005563517083463016,-0.10497649296493461,-0.16585650336649033,0.1934016514930654
436,9.040551800004325,0.06414876669660893,0.1094587342849717,-0.09705994871424815,0.054854178969166625,0.08608644209239462,-0.12569292414805275,-0.039339758436682165,-0.12674604427321862,0.006421488533214742,-0.10401506122522845,-0.16204398701642217,0.1926908850326207
437,9.044833899999505,0.06439216918631979,0.10984008053452843,-0.09761850829956702,0.05467831214603754,0.08552153826949281,-0.12566248177117473,-0.03979989719942805,-0.12745774501133744,0.007276287526284314,-0.10305030851159247,-0.15822568260557107,0.19197414746676358
438,9.049040700003388,0.06463478551836709,0.1102189091263909,-0.098176924146235,0.05450040983504818,0.084953509113613,-0.12562824744989767,-0.04025574116473073,-0.12815246405491285,0.008127888114654341,-0.10208248493728923,-0.15440252166253926,0.19125170117981785
439,9.05330949999916,0.0648766066887544,0.11059520633821714,-0.09873517943312478,0.05432049115409419,0.08438243014525115,-0.1255902354554085,-0.04070727723922983,-0.12883018188273332,0.0089762655032635,-0.1011118394304777,-0.1505754293520116,0.19052380237222868
440,9.057185600002413,0.0651176237785812,0.11096895878349716,-0.09929325740277993,0.05413857527680594,0.08380837696252717,-0.12554846016655885,-0.04115449343298928,-0.12949088307128506,0.009821396021381929,-0.10013861951571353,-0.14674532445543315,0.1897907012165381
441,9.061330600001384,0.06535782795427961,0.1113401534118576,-0.09985114136188236,0.053954681427653965,0.08323142522303192,-0.1255029360649375,-0.0415973788528189,-0.1301345562661243,0.010663257097655646,-0.09916307060335904,-0.14291311951064437,0.1890526427275482
442,9.065594999992754,0.06559721046782953,0.1117087775092857,-0.10040881468169806,0.05376882887709489,0.0826516506258115,-0.12545367773002597,-0.042035923690160404,-0.13076119415500748,0.011501827239216559,-0.09818543512003639,-0.1390797212854407,0.18830986709991715
