,time,x,y,z,vx,vy,vz,ax,ay,az,jx,jy,jz
0,10.298869300007937,0.0035510730729206665,-0.055233267594363256,0.011628282865708477,0.004133001418974705,-0.0018646952534168927,-0.0019909247971028367,-0.0189311962925505,-0.005788846170826183,-0.013852991065131845,0.01004459645228102,0.005184711820953401,0.018157686638350188
1,10.303525400013314,0.003568739968389709,-0.055241371956198056,0.011619558380228899,0.004051363750132629,-0.0018896390007117913,-0.002050562825094671,-0.01888722534945266,-0.005766388224036065,-0.013774128941317952,0.010323638969379321,0.005217505082242259,0.01837523310754914
2,10.307172600005288,0.0035860548209525143,-0.055249583797861865,0.011610577155608122,0.003969918516785621,-0.0019144854851383568,-0.002109858355702109,-0.018842056200603245,-0.005743795304155446,-0.013694328991262593,0.010599655533779603,0.00524724049106175,0.018592126735923958
3,10.311507700011134,0.0036030184725740384,-0.05525790269818575,0.011601340679243732,0.0038886708637212723,-0.0019392341524850426,-0.0021688073461456118,-0.01879570197560233,-0.0057210806051596255,-0.013613594086151965,0.010872616260007248,0.005273923016425229,0.018808342247277236
4,10.315535000001546,0.0036196317873083573,-0.05526632823373109,0.01159185045596038,0.0038076258787644855,-0.0019638845054541785,-0.002227405766278123,-0.0187481759306714,-0.005698257293382182,-0.013531927210042758,0.011142492361313868,0.005297560192709569,0.01902385262190476
5,10.319621100003133,0.0036358956510515626,-0.055274859979034995,0.0115821080079542,0.0037267885922411988,-0.0019884361035197302,-0.0022856495990861243,-0.018699491443971466,-0.005675338497742377,-0.013449331467424459,0.011409256102549496,0.005318161666913922,0.019238629023865046
6,10.32406820000324,0.003651810971292387,-0.0552834975068551,0.011572114874734994,0.003646163976461764,-0.002012888562746484,-0.002343534841228463,-0.018649662011204864,-0.005652337301276185,-0.013365810091339456,0.011672880769202771,0.005335739026212607,0.01945264090072041
7,10.328004599999986,0.00366737867686064,-0.05529224038841341,0.011561872613065991,0.0035657569452226525,-0.0020372415555746795,-0.0024010575036075236,-0.018598701241200687,-0.005629266732852701,-0.013281366450084127,0.011933340704412002,0.005350305970442303,0.01966585633922786
8,10.33209640000132,0.00368259971767353,-0.05530108819363922,0.011551382796901098,0.0034855723533279495,-0.00206149481056767,-0.002458213611965914,-0.01854662285119701,-0.0056061397572158235,-0.013196004052257711,0.0121906113521239,0.005361878258162869,0.01987824244257508
9,10.336389200005216,0.0036974750644799695,-0.0553100404914108,0.011540647017319513,0.0034056149961317955,-0.002085648112110569,-0.002514999207501233,-0.018493440662053672,-0.0055829692671663985,-0.013109726550206122,0.01244466925029296,0.005370473307890038,0.020089765659096863
10,10.340493499999866,0.003712005708602946,-0.0553190968497957,0.011529666882457665,0.003325889609101216,-0.002109701300090407,-0.0025714103474924936,-0.018439168593593215,-0.0055597680770470845,-0.013022537742232504,0.012695491983096692,0.0053761102519419846,0.02030039199522635
11,10.345146900013788,0.0037261926616800507,-0.05532825683628968,0.011518444017438418,0.0032464008673987925,-0.0021336542695385226,-0.002627443105933975,-0.018383820660226265,-0.005536548914459557,-0.012934441574202302,0.012943058129770828,0.005378809947241468,0.020510087139452227
12,10.34887400000298,0.0037400369554022486,-0.05533752001805395,0.011506980064297536,0.0031671533854832653,-0.0021575069702392015,-0.002683093574175506,-0.018327410966734264,-0.0055133244136561,-0.012845442140683502,0.013187347254419442,0.005378594792101736,0.020718816599683852
13,10.35326139999961,0.0037535396412509575,-0.05534688596215067,0.011495276681907363,0.003088151716728618,-0.0021812594063150064,-0.0027383578615661638,-0.018269953703982832,-0.005490107108838783,-0.012755543685365616,0.013428339923566382,0.005375488715389334,0.020926545924251996
14,10.357440000007044,0.003766701790233528,-0.05535635423577664,0.011483335545897725,0.003009400353061694,-0.002204911635777557,-0.002793232096098174,-0.01821146314455295,-0.005466909427644628,-0.012664750600291675,0.01366601771630296,0.005369517036448654,0.02113324096330769
15,10.361304800011569,0.0037795244926171947,-0.05536592440649493,0.011471158348574055,0.002930903724619004,-0.0022284637700566074,-0.0028477124250439784,-0.018151953638366698,-0.005443743685654278,-0.012573067424020149,0.01390036320602854,0.005360706378877584,0.021338868008916254
16,10.365517300000649,0.003792008857661593,-0.05537559604246449,0.011458746798832792,0.002852666199422111,-0.0022519159735034117,-0.0029017950155842626,-0.018091439608476107,-0.005420622080621672,-0.012480498839647292,0.014131359972635394,0.005349084659702759,0.02154339391634362
17,10.369717400011725,0.0038041560133499075,-0.05538536871266749,0.01144610262207408,0.002774692083070801,-0.0022752684628699767,-0.002955476055427949,-0.01802993554658368,-0.005397556687076178,-0.012387049671921809,0.01435899274597753,0.005334680733672163,0.021746786462446942
18,10.377558400010455,0.0038159671061187375,-0.055395241987134435,0.011433227560111817,0.0026969856184571464,-0.002298521506765818,-0.0030087517534153115,-0.01796745600759246,-0.005374559453623648,-0.012292724882172649,0.014583247628145177,0.0053175239406315095,0.02194901485225445
19,10.382124000010664,0.0038274433005867784,-0.055405215437166824,0.01142012337108115,0.0026195509855057326,-0.0023216754251139107,-0.0030616183400941706,-0.017904015603207302,-0.005351642201456761,-0.012197529561049584,0.014804112241741633,0.005297644040812364,0.022150050045046756
20,10.386519900013807,0.0038385857792824444,-0.05541528863555755,0.011406791829343541,0.0025423923009429725,-0.0023447305885945812,-0.003114072068260327,-0.017839628995204634,-0.005328816622214829,-0.012101468920635431,0.015021575682702844,0.005275070902163021,0.022349864668134607
21,10.390144100005273,0.0038493957423705568,-0.055425461156808783,0.011393234725389601,0.0024655136180954467,-0.002367687418082979,-0.0031661092134656487,-0.01777431088944112,-0.005306094279193904,-0.012004548287931122,0.015235628249453808,0.0052498339507415035,0.02254843259108046
22,10.393613100008224,0.003859874407378226,-0.055435732577347484,0.01137945386573977,0.0023889189267109496,-0.002390546384103418,-0.0032177260745022518,-0.01770807603146203,-0.005283486609952201,-0.011906773100644334,0.015446261126292904,0.005221962159924762,0.022745728472959643
23,10.396758800008683,0.0038700230089199943,-0.05544610247573859,0.01136545107284296,0.0023126121527947494,-0.0024133080062893426,-0.003268918973874224,-0.017640939203243746,-0.005261004927613377,-0.011808148904583761,0.015653466243963667,0.005191484298260229,0.022941727773185316
24,10.40291440000874,0.003879842798422305,-0.055456570432895876,0.011351228184973175,0.0022365971584587616,-0.002435972852848925,-0.0033196842582593053,-0.017572915220006025,-0.005238660421331866,-0.01170868134935428,0.01585723637057899,0.005158428951040459,0.02313640759497287
25,10.407419100010884,0.003889335043847342,-0.055467136032290504,0.011336787056124165,0.0021608777417853335,-0.0024585415400290482,-0.0033700182989434423,-0.01750401892616942,-0.005216464157409868,-0.011608376178468272,0.01605756527870311,0.005122824315543327,0.023329747976023333
26,10.411312399999588,0.003898501029416322,-0.05547779886015727,0.011322129555902286,0.0020854576367113236,-0.002481014731590547,-0.003419917492197084,-0.01743426519072486,-0.005194427081530696,-0.011507239213896302,0.016254447735242036,0.005084698308818877,0.023521732629593298
27,10.415556100007962,0.003907342055332336,-0.055488558505698615,0.01130725756941791,0.0020103405129318678,-0.0025033931382914764,-0.003469378259576338,-0.01736366890327837,-0.005172560018945075,-0.011405276339779636,0.01644787931954854,0.00504407890178712,0.023712348766666398
28,10.421225900005084,0.003915859437502808,-0.055499414561286424,0.011292172997175685,0.0019355299758186109,-0.0025256775173639603,-0.0035183970481586302,-0.017292244970991234,-0.0051508736738197,-0.011302493488516382,0.0166378563250757,0.0050009938821251486,0.02390158649503002
29,10.424790600009146,0.00392405450726163,-0.05551036662266151,0.011276877754963912,0.0018610295663498931,-0.002547868671991836,-0.0035669703307237227,-0.017220008315473875,-0.005129378631470898,-0.01119889662966272,0.01682437584491446,0.00495547035844752,0.02408943825876197
30,10.428331600007368,0.00393192861109102,-0.05552141428913089,0.011261373773743238,0.0017868427610558018,-0.002569967450806788,-0.00361509460589354,-0.01714697386898746,-0.005108085361994373,-0.01109449176085883,0.017007435941583784,0.004907534684874094,0.024275898606490397
31,10.43609230000584,0.003939483110343182,-0.055532557163762944,0.011245662999534825,0.001712972971981155,-0.0025919747473973354,-0.003662766398234834,-0.01707315656987172,-0.005087004223150194,-0.010989284898731097,0.01718703581543575,0.004857212213079242,0.024460964312670665
32,10.440559300011955,0.003946719380961844,-0.05554379485358043,0.011229747393308162,0.001639423546670032,-0.0026138914998298755,-0.003709982258320458,-0.016998571357292422,-0.005066145466133482,-0.010883282068770863,0.017363175874711825,0.004804526818036133,0.024644634401818893
33,10.444184200008747,0.003953638813203784,-0.05555512696975152,0.011213628930868701,0.0015661977681741108,-0.0026357186902074984,-0.0037567387627446378,-0.01692323316606431,-0.00504551924255439,-0.010776489296027387,0.017535857633832856,0.004749500962747706,0.024826909703909956
34,10.447600100000273,0.003960242811360439,-0.055566553127779,0.011197309602745538,0.0014932988550818995,-0.0026574573442513,-0.0038030325141038823,-0.016847156922276802,-0.005025135609649867,-0.010668912598825544,0.017705083562484736,0.004692156021512798,0.025007792151030803
35,10.450915600013104,0.003966532793479687,-0.0555780729476877,0.011180791414079213,0.0014207299615648442,-0.0026791085309041977,-0.0038488601409580117,-0.01677035753941998,-0.005005004534472376,-0.010560557985531868,0.017870857178590643,0.004632512765007209,0.0251872842842827
36,10.454756600011024,0.003972510191087853,-0.055589686054210254,0.011164076384509726,0.001348494177440011,-0.0027006733619484116,-0.0038942182977831433,-0.01669284991320754,-0.004985135894913195,-0.010451431452529941,0.01803318351583825,0.004570591813063609,0.025365389401967895
37,10.46096410001337,0.003978176448912028,-0.05560139207697124,0.01114716654806475,0.0012765945282608953,-0.002722152991618115,-0.003939103664915238,-0.016614648913665882,-0.00496553947998158,-0.010341538979706905,0.018192069584475844,0.0045064133758789295,0.025542112190149357
38,10.46548930001154,0.003983533024602863,-0.05561319065066961,0.011130063953048127,0.0012050339754484112,-0.0027435486162193275,-0.0039835129484641135,-0.016535769375978282,-0.00494622499306263,-0.010230886522984244,0.01834752432145984,0.00443999670432518,0.02571745920234477
39,10.469405800002278,0.00398858138845802,-0.05562508141525951,0.011112770661928825,0.0011338154164607565,-0.002764861473770694,-0.0040274428801925,-0.016456226093004445,-0.004927202056942769,-0.010119480005662351,0.018499558124255546,0.004371359928315828,0.025891438762455837
40,10.472781800010123,0.003993323023146429,-0.05563706401612963,0.011095288751230482,0.0010629416849889939,-0.002786092843666772,-0.004070890217355314,-0.016376033810150098,-0.004908480218463249,-0.010007325311789472,0.018648182586786573,0.004300520207672643,0.026064060274950118
41,10.47752080000646,0.003997759423433432,-0.05564913810428115,0.011077620311421746,0.0009924155511712139,-0.002807244046358991,-0.00411385174252146,-0.016295207220166502,-0.004890068952242963,-0.009894428283462549,0.018793410725782857,0.004227494346503857,0.026235333780277124
42,10.48183990000689,0.004001892095906885,-0.055661303336504264,0.01105976744680736,0.0009222397218330197,-0.002828316443051084,-0.004156324263389799,-0.016213760956065634,-0.004871977660027064,-0.009780794718034953,0.01893525729468372,0.004152299677072519,0.026405270189253923
43,10.486186000009184,0.00400572255870438,-0.055673559375553544,0.011041732275420092,0.0008524168407628654,-0.002849311435374425,-0.004198304612586836,-0.01613170958320928,-0.0048542156667779595,-0.00966643036339351,0.019073738748639074,0.004074953747220803,0.02657388155791214
44,10.490905300001032,0.004009252341241729,-0.05568590589032167,0.011023516928913565,0.0007829494890208472,-0.002870230465049705,-0.004239789647441913,-0.01604906759252642,-0.004836792222722886,-0.009551340912793048,0.01920887300602035,0.003995473371853055,0.026741181006736506
45,10.49466750001011,0.004012482983942843,-0.05569834255601183,0.011005123552456128,0.0007138401852726066,-0.00289107501357995,-0.004280776249740293,-0.015965849394661568,-0.004819716507634931,-0.009435532000830764,0.019340679410683743,0.003913874956272438,0.026907182399934643
46,10.498939800003429,0.004015416037971107,-0.05571086905430884,0.010986554304625822,0.0006450913861486487,-0.0029118466019491633,-0.00432126132546359,-0.01588206931351799,-0.004802997630088739,-0.00931900920105014,0.019469178934085955,0.0038301749919825655,0.02707189997356316
47,10.50301230000332,0.004018053064962359,-0.055723485073548906,0.010967811357306486,0.0005767054866339965,-0.002932546790308916,-0.0043612418045221694,-0.01579774157866088,-0.004786644627460501,-0.00920177802512627,0.0195943943841177,0.003744389787272958,0.027235347993345257
48,10.507036700000754,0.004020395636759627,-0.05573619030888807,0.010948896895585036,0.0005086848204931043,-0.002953177177676988,-0.004400714640488542,-0.015712880317057375,-0.004770666467509936,-0.009083843923424376,0.019716350494026962,0.0036565356288987706,0.02739754060640891
49,10.511417400004577,0.004022445335149782,-0.05574898446246937,0.010929813117649878,0.00044103166073083326,-0.0029737394016376207,-0.004439676810334585,-0.015627499544711924,-0.004755072046984254,-0.008965212285465313,0.019835073948020837,0.0035666292239487697,0.027558491887136934
50,10.51541150000412,0.004024203751602252,-0.055761867243588656,0.010910562234690448,0.00037374822008959046,-0.002994235138028102,-0.004478125314168956,-0.01554161315818525,-0.0047398701893847945,-0.008845888440088183,0.019950593416295296,0.0034746880340183715,0.027718215912634403
51,10.519533300001058,0.004025672487009967,-0.05577483836885908,0.010891146470797896,0.00030683665158353377,-0.0030146661006197344,-0.004516057174975718,-0.015455234925927241,-0.004725069640685553,-0.008725877655264214,0.020062939581982908,0.003380730727977602,0.027876726800386414
52,10.525951300005543,0.004026853151432687,-0.05578789756237417,0.010871568062866887,0.0002402990490705477,-0.0030350340407674535,-0.0045534694383501505,-0.015368378479563235,-0.00471067906319037,-0.008605185137934223,0.020172145091301576,0.003284777343570658,0.02803403868403864
53,10.530690800005686,0.004027747363842886,-0.055801044555869254,0.010851829260498557,0.00017413744786168764,-0.003055340747037754,-0.004590359172235965,-0.015281057305657354,-0.004696707029856114,-0.008483816034031609,0.02027824437166029,0.0031868495676776938,0.028190165756590804
54,10.53427940000256,0.004028356751874343,-0.05581427908888134,0.01083193232590459,0.00010835382536427551,-0.0030755880448092915,-0.004626723466661316,-0.01519328473856937,-0.004683162015729931,-0.008361775427946864,0.020381273343330012,0.0030869710273801515,0.02834512225949783
55,10.538299300009385,0.004028682951573575,-0.05582760090890711,0.010811879533812454,4.295010175302189e-05,-0.0030957777958268737,-0.004662559433471396,-0.015105073954707629,-0.00467005238975921,-0.008239068342644675,0.02048126917287702,0.0029851670096863185,0.02849892236679747
56,10.542384500004118,0.004028727607154226,-0.05584100977155891,0.010791673171371781,-2.207185933725488e-05,-0.0031159118977313444,-0.004697864206065457,-0.015016437967514912,-0.00465738640864888,-0.008115699740128938,0.02057827021792216,0.0028814644507580193,0.028651580228375113
57,10.54661690001376,0.004028492370754485,-0.055854505440718724,0.010771315538061878,-8.671025009721166e-05,-0.0031359922835605346,-0.004732634939133416,-0.014927389622198344,-0.004645172208764392,-0.00799167452118629,0.020672316136276077,0.0027758923239432757,0.028803110093782343
58,10.551253800003906,0.004027978902197635,-0.05586808768868984,0.010750808945600382,-0.00015096331780475647,-0.0031560209212092333,-0.004766868808390667,-0.014837941589772915,-0.00463341779663853,-0.007866997524782,0.020763448040885715,0.002668481618224464,0.02895352639035849
59,10.555039300001226,0.0040271888687558495,-0.05588175629634613,0.010730155717853056,-0.00021482936405919987,-0.003175999812848168,-0.00480056301030947,-0.014748106360453494,-0.004622131041060483,-0.007741673527128963,0.020851708662858993,0.002559265004073702,0.029102843631741877
60,10.560369500002707,0.004026123944917357,-0.055895511053278765,0.010709358190744771,-0.000278306743985974,-0.0031959309943156698,-0.0048337147618457196,-0.014657896236290708,-0.004611319666467844,-0.007615707241873552,0.020937142580517216,0.002448276671767299,0.029251076083678013
61,10.563848600009806,0.004024785812157102,-0.055909351757940186,0.010688418712171655,-0.00034139386540719773,-0.0032158165344795945,-0.0048663213001719436,-0.014567323322585184,-0.00460099124643177,-0.007489103322050208,0.021019796368953698,0.002335552223592776,0.029398237526832634
62,10.567608700002893,0.00402317615871107,-0.05592327821778532,0.010667339641914379,-0.00040408918797226167,-0.003235658534572736,-0.0048983798824209475,-0.01447639951923206,-0.004591153197979728,-0.0073618663623153035,0.02109971836154368,0.002221128404406,0.029544341197493013
63,10.572306500005652,0.004021296679354456,-0.055937290249409834,0.010646123351552527,-0.00046639122225365697,-0.0032554591275057282,-0.004929887785438101,-0.014385136514194477,-0.004581812777407169,-0.007234000901413748,0.02117695810427827,0.0021050425734468335,0.029689399776876818
64,10.57846060000884,0.004019149075183799,-0.055951387678685405,0.010624772224380016,-0.0005282985288212066,-0.0032752204771662914,-0.004960842305546279,-0.014293545779559682,-0.004572977079160918,-0.007105511424505165,0.021251565894970327,0.0019873324456335137,0.029833425636395086
65,10.582367599999998,0.004016735053403142,-0.055965570340891925,0.010603288655321494,-0.0005898097173038406,-0.003294944777722494,-0.004991240758318237,-0.014201638568991279,-0.00456465303388466,-0.006976402363512758,0.021323592547458723,0.0018680364041972098,0.029976431249789347
66,10.585685800004285,0.004014056327114267,-0.05597983808084674,0.01058167505084973,-0.0006509234454418285,-0.003314634252905124,-0.0050210804783445626,-0.014109425915821313,-0.004556847404602862,-0.006846678095890866,0.021393089231286414,0.0017471936839010345,0.030118429360192253
67,10.589371600013692,0.0040111146151110425,-0.05599419075303069,0.010559933828904012,-0.0007116384181320804,-0.003334291155277997,-0.005050358818995407,-0.014016918631886841,-0.004549566783184248,-0.006716342943531336,0.02146010732214663,0.0016248445326739619,0.03025943291291917
68,10.594810100010363,0.004007911641677897,-0.05600862822171102,0.010538067418809596,-0.0007719533864703341,-0.003353917765489795,-0.005079073152178997,-0.013924127306913345,-0.004542817585130082,-0.006585401172111389,0.02152469843151108,0.0015010303302344743,0.0303994548802993
69,10.598382200012566,0.0040044491363924375,-0.05602315036106097,0.010516078261198191,-0.0008318671467911319,-0.003373516391499372,-0.005107220868097735,-0.013831062307095472,-0.004536606045013378,-0.006453856991512502,0.02158691470305351,0.0013757937713160056,0.03053850794622616
70,10.60276020001038,0.004000728833932217,-0.056037757055275986,0.010493968807929509,-0.0008913785396977531,-0.003393089367788211,-0.005134799375010328,-0.013737733771920965,-0.004530938209685113,-0.006321714557892043,0.021646809103677975,0.0012491795447173199,0.030676604298762993
71,10.60861670000304,0.003996752473885724,-0.05605244819868654,0.010471741522013807,-0.0009504864490747671,-0.0034126390545270715,-0.005161806099005773,-0.013644151610238499,-0.0045258199278501365,-0.006188977975892912,0.021704435335937067,0.0011212343656738766,0.030813755702993127
72,10.612059400009455,0.003992521800567679,-0.05606722369586712,0.010449398877535388,-0.0010091898010840129,-0.0034321678366984357,-0.005188238483784566,-0.013550325497837842,-0.004521256842993868,-0.006055651300086143,0.02175984735299786,0.0009920059949286271,0.03094997359248411
73,10.615764600006514,0.003988038562838691,-0.05608208346174147,0.010426943359577036,-0.0010674875631562582,-0.0034516781232020828,-0.0052140939904451455,-0.01345626487770575,-0.004517254391428101,-0.005921738536390799,0.02181309889918825,0.0008615426998334199,0.031085269058562518
74,10.619035900002928,0.003983304513929262,-0.056097027421683876,0.010404377464145353,-0.0011253787429893886,-0.003471172345960662,-0.005239370097277362,-0.013361978961573307,-0.004513817799870854,-0.005787243643609178,0.021864243448010044,0.00072989342681399,0.03121965284232047
75,10.62263530000928,0.003978321411268096,-0.05611205551161666,0.010381703698096984,-0.001182862387553427,-0.0034906529590043684,-0.005264064299562173,-0.013267476730707045,-0.004510952082003016,-0.005652170534915725,0.021913334478349686,0.000597107499549297,0.03135313535876778
76,10.62763860000996,0.00397309101631469,-0.056127167678103586,0.010358924579065681,-0.0012399375820955545,-0.0035101224375467858,-0.005288174109377974,-0.013172766935071334,-0.004508662038654282,-0.005516523079183699,0.02196042586792913,0.0004632342848389679,0.03148572675607118
77,10.631374000004143,0.003967615094396236,-0.05614236387843936,0.010336042635390199,-0.001296603449137896,-0.003529583277071167,-0.005311697055411746,-0.013077858090722221,-0.004506952257244891,-0.005380305101962579,0.02200557231095928,0.0003283238069756396,0.03161743704773637
78,10.63668840000173,0.003961895414548869,-0.05615764408073514,0.010313060406042995,-0.0013528591474600393,-0.003549037992401456,-0.0053346306827738235,-0.012982758475363567,-0.004505827106666725,-0.005243520385663397,0.022048829553905618,0.00019242718968747203,0.03174827637121504
79,10.640525200011323,0.00395593374936335,-0.05617300826400004,0.010289980440559718,-0.0014087038710584496,-0.0035684891167443696,-0.005356972552810648,-0.012887476123705156,-0.004505290732909066,-0.0051061726683031845,0.022090254108543116,5.55964190080805e-05,0.03187825528427512
80,10.644750200008277,0.003949731874835299,-0.056188456418218354,0.010266805298969528,-0.0014641368480889075,-0.00358793920072265,-0.00537872024290869,-0.01279201882549647,-0.00450534705598721,-0.004968265641131281,0.02212990250821506,-8.21157106050866e-05,0.03200738484328337
81,10.64822100001038,0.003943291570220015,-0.05620398854442269,0.01024353755172628,-0.0015191573398089465,-0.003607390811390626,-0.005399871346286709,-0.012696394127306686,-0.004505999766033468,-0.0048298029466978445,0.022167830652993607,-0.00022065584421018857,0.03213567630937198
82,10.65228730000672,0.003936614617891835,-0.056219604654762736,0.010220179779640633,-0.0015737646395356602,-0.0036268465312337124,-0.005420423471782999,-0.012600609336212694,-0.004507252322366627,-0.004690788179017279,0.022204093670923554,-0.000359970713106317,0.03226314066340504
83,10.656009600003015,0.003929702803207953,-0.05623530477256973,0.010196734573813072,-0.0016279580716199843,-0.003646308957175938,-0.005440374243649055,-0.012504671522777195,-0.004509107955167143,-0.004551224885824799,0.022238746149778537,-0.000500007091712628,0.03238978812096667
84,10.66125460001058,0.00392255791437664,-0.056251088932416655,0.010173204535567805,-0.0016817369904302184,-0.003665780699593908,-0.005459721301356309,-0.012408587522735612,-0.004511569664174273,-0.004411116572927725,0.022271842347887132,-0.0006407110645731544,0.03251562766615033
85,10.664869400003226,0.003915181742329837,-0.05626695718017421,0.010149592276387445,-0.0017351007793408738,-0.0036852643813130833,-0.005478462299427363,-0.01231236393815379,-0.004514640214032169,-0.004270466710487566,0.022303436264218462,-0.0007820275952501867,0.032640666728245386
86,10.673976100006255,0.003907576080600105,-0.05628290957306232,0.010125900417848365,-0.001788048849726191,-0.003704762636581558,-0.00549659490729697,-0.012216007138509751,-0.004518322129264602,-0.004129278740162988,0.022333581657248927,-0.0009239004940057459,0.03276491114667295
87,10.678210700003548,0.0038997427252019106,-0.05629894617969726,0.010102131591556589,-0.0018405806399583292,-0.0037242781100229484,-0.005514116809204946,-0.012119523261688489,-0.004522617689341995,-0.003987556081694664,0.022362332106925443,-0.0010662726548743933,0.03288836542154206
88,10.682267399999546,0.0038916834745172245,-0.056315067080134125,0.010078288439084062,-0.001892695614409472,-0.003743813455567575,-0.005531025704114002,-0.012022918214528696,-0.00452752892570317,-0.0038453021378847914,0.022389741187128803,-0.0012090862820674007,0.03301103310445027
89,10.686383899999782,0.003883400129185424,-0.05633127236590471,0.010054373611905254,-0.0019443932624547385,-0.003763371335379636,-0.005547319305645658,-0.011926197672328416,-0.004533057618777278,-0.0037025202978075568,0.022415862749972655,-0.0013522829438429218,0.03313291732666795
90,10.69162560001132,0.003874894491997502,-0.05634756214005073,0.010030389771333987,-0.0019956730974700202,-0.0037829544187626776,-0.005562995342025795,-0.011829367076936976,-0.004539205295470691,-0.0035592139372280134,0.022440751269376353,-0.001495803712617295,0.033254021402650484
91,10.694863900003838,0.0038661683677946213,-0.05636393651715225,0.010006339588460502,-0.002046534655818417,-0.003802565381065064,-0.005578051556024182,-0.011732431633294032,-0.004545973227398737,-0.0034153864166014793,0.022464462112527735,-0.0016395891326751468,0.03337434908878437
92,10.699143700010609,0.003857223563371076,-0.05638039562335143,0.009982225744088814,-0.00209697749581819,-0.0038222069025701812,-0.005592485704882756,-0.011635396305177539,-0.004553362428093778,-0.003271041079258259,0.022487051465139955,-0.0017835795219487667,0.033493904343592756
93,10.703053400007777,0.0038480618873817565,-0.05639693959637142,0.009958050928674396,-0.002147001196692484,-0.003841881667377801,-0.005606295560239476,-0.011538265812388178,-0.00456137365384268,-0.0031261812514735603,0.022508575832274964,-0.0019277155755894155,0.033612690896553166
94,10.707114000004369,0.0038386851502541807,-0.0564135685855304,0.00993381784226219,-0.002196605357512967,-0.003861592362301515,-0.0056194789080572065,-0.011441044630807494,-0.004570007406106461,-0.002980810244375286,0.022529091517535755,-0.002071938355246248,0.03373071190312259
95,10.711605500007863,0.0038290951641050796,-0.056430282751750965,0.009909529194424909,-0.0022457895961500566,-0.00388134167577099,-0.005632033548564043,-0.011343736994079263,-0.004579263932265192,-0.002834931356992658,0.022548654462075865,-0.0022161890411626353,0.033847969699579046
96,10.715469700007816,0.003819293742661492,-0.05644708226756472,0.00988518770420156,-0.0022945535482310777,-0.003901132296735836,-0.0056439572962085184,-0.01124634689505772,-0.004589143225897107,-0.002688547880280843,0.022567320367917445,-0.0023604086626635803,0.0339644655821316
97,10.719421400004649,0.0038092827011863466,-0.05646396731711216,0.009860796100036134,-0.002342896866102991,-0.003920966913570271,-0.005655247979634683,-0.011148878086424124,-0.004599645025196377,-0.0025416631020768665,0.02258514491957984,-0.0025045376238758965,0.03408019962082717
98,10.72351900000649,0.003799063856408514,-0.056480938096137814,0.009836357119716343,-0.002390819217795878,-0.003940848212963327,-0.005665903441680099,-0.011051334080221322,-0.004610768809157026,-0.0023942803127310714,0.022602183959882196,-0.002648515477400179,0.034195170530241
99,10.72803080000449,0.003788639026457338,-0.056497994811980555,0.00981187351031233,-0.0024383202859816475,-0.003960778878790564,-0.005675921539399547,-0.010953718146952339,-0.004622513794036457,-0.0022464028111795617,0.022618493410433437,-0.0027922809782794196,0.034309375734276996
100,10.732137800005148,0.0037780100308016772,-0.05651513768355901,0.009787348028115197,-0.0024853997669297394,-0.003980761590973739,-0.0056853001441154564,-0.010856033315801468,-0.004634878930005368,-0.0020980339100161393,0.022634128928134344,-0.00293577229947336,0.03442281180263093
101,10.736301600001752,0.0037671786901934557,-0.05653236694135199,0.009762783438575284,-0.00253205736946774,-0.004000799024323598,-0.005694037141485401,-0.01075828237669882,-0.004647862899471804,-0.0019491769377960797,0.022649145610052036,-0.003078927462953662,0.03453547497615903
102,10.740392400010023,0.0037561468266156784,-0.056549682827373944,0.009738182516240115,-0.002578292813954911,-0.00402089384738507,-0.005702130431572424,-0.010660467883089697,-0.004661464117453386,-0.0017998352395717418,0.02266359805471215,-0.003221684523108956,0.0346473612828781
103,10.74458670000604,0.003744916263234844,-0.0565670855951454,0.00971354804469206,-0.0026241058312667185,-0.004041048721283274,-0.005709577928917159,-0.010562592153469899,-0.00467568073148499,-0.001650012178194733,0.022677540672034074,-0.0033639813187776777,0.03475846627928894
104,10.748728600010509,0.00373348882435773,-0.05658457550965845,0.00968888281648567,-0.0026694961617816176,-0.004061266298567914,-0.005716377562619395,-0.010464657271478951,-0.004690510619849887,-0.0014997111370850776,0.02269102782612408,-0.003505755257593701,0.034868784831952944
105,10.753103000010016,0.0037218663353925535,-0.05660215284733723,0.009664189633084632,-0.0027144635543663873,-0.004081549222044017,-0.005722527276434115,-0.010366665086202455,-0.00470595138962534,-0.0013489355234193724,0.022704113639908857,-0.003646943563982434,0.034978311168808375
106,10.759391700004926,0.0037100506228145164,-0.05661981789599329,0.009639471304798268,-0.0027590077653655257,-0.0041019001235994505,-0.005728025028880582,-0.010268617213952216,-0.004722000377055081,-0.0011976887704568619,0.022716851773489435,-0.0037874834838684942,0.035087039105598086
107,10.76350290000846,0.0036980435141356943,-0.05663757095477596,0.009614730650717556,-0.002803128557601955,-0.004122321623038873,-0.005732868793358465,-0.010170515040482412,-0.0047386546473624745,-0.0010459743387724893,0.022729295500987838,-0.003927312166209066,0.035194962247819914
108,10.76945470001374,0.0036858468378792096,-0.05665541233411765,0.009589970498650624,-0.002846825699385552,-0.004142816326909645,-0.0057370565582675745,-0.010072359722106183,-0.0047559109941000795,-0.000893795716839219,0.02274149793078055,-0.0040663662642007855,0.035302074025744035
109,10.773841800008086,0.00367346242355768,-0.056673342355674096,0.009565193685057732,-0.0028900989635234956,-0.004163386827330158,-0.005740586327129011,-0.009974152186010185,-0.004773765935519412,-0.0007411564219587284,0.022753512120015182,-0.004204581062038944,0.03540836758409026
110,10.777335700011465,0.0036608921016559382,-0.05669136135225951,0.009540403054985729,-0.002932948126331513,-0.004184035700784403,-0.005743456118712942,-0.00987589313038237,-0.004792215706380459,-0.0005880600017963175,0.02276539114136947,-0.004341890345677837,0.035513835606800534
111,10.782124700010172,0.0036481377036180177,-0.05670946966777642,0.009515601462001925,-0.002975372966645329,-0.004204765506879576,-0.005745663967173002,-0.009777583024150114,-0.00481125625320551,-0.00043451003682461436,0.02277718813491021,-0.004478226769340414,0.035618470050172206
112,10.786210400008711,0.0036352010618384075,-0.05672766765714014,0.009490791768127388,-0.003017373264829653,-0.004225578787099666,-0.005747207922195167,-0.009679222106660213,-0.004830883229253322,-0.0002805101441627616,0.02278895613153319,-0.004613521650683231,0.03572226204329652
113,10.790803800002324,0.0036220840096575953,-0.0567459556861978,0.009465976843769536,-0.0030589488017868645,-0.004246478063519667,-0.0057480860491653085,-0.00958081038894153,-0.0048510919880042904,-0.00012606398087979133,0.02280074757332649,-0.004747705380374025,0.03582520210355051
114,10.794126300010248,0.003608788381361882,-0.05676433413164171,0.00944115956765398,-0.0031000993579769023,-0.00426746583750291,-0.005748296429346589,-0.009482347657526447,-0.004871877581671136,2.882475402686611e-05,0.0228126138791027,-0.004880708198179145,0.03592728037910252
115,10.797570900002029,0.0035953160121873877,-0.05678280338091718,0.009416342826755589,-0.003140824712458947,-0.004288544588402417,-0.005747837160064098,-0.009383833479464943,-0.004893234761385251,0.00018415231842193577,0.022824605435603915,-0.005012460343841634,0.036028486719063724
116,10.801017000005231,0.00358166873832814,-0.05680136383212465,0.009391529516228736,-0.003181124641954603,-0.004309716772259843,-0.005746706354892695,-0.009285267206221994,-0.0049151579770101515,0.00033991492565951694,0.02283677194780533,-0.005142892164890984,0.03612881056563162
117,10.805054000011296,0.00356784839694817,-0.05682001589391626,0.009366722539336743,-0.0032209989199232366,-0.004330984820505216,-0.005744902143853496,-0.009186647975666934,-0.004937641378258715,0.0004961087424423435,0.02284916268414908,-0.005271934030472721,0.03622824098910764
118,10.809173800007557,0.003553856826197584,-0.056838759985386796,0.009341924807380431,-0.0032604473156423322,-0.0043523511386655295,-0.005742422673620198,-0.00908797471385336,-0.0049606788137625864,0.000652729887751364,0.02286182625960379,-0.0053995157815481245,0.036326767170278926
119,10.815487400002894,0.003539695865232601,-0.056857596535959065,0.009317139239625781,-0.0032994695932981994,-0.004373818105056446,-0.005739266107724815,-0.008989246138881688,-0.004984263827442133,0.0008097744348701573,0.02287481010481,-0.00552556672009851,0.03642437914959693
120,10.821847800005344,0.0035253673542394756,-0.056876525985263555,0.00929236876323071,-0.003338065511099683,-0.004395388069459543,-0.005735430626746517,-0.008890460767262751,-0.005008389657482635,0.0009672384167833412,0.022888160136031996,-0.005650016018784582,0.036521068371415874
121,10.826051200012444,0.0035108731344621865,-0.056895548783012416,0.009267616313171098,-0.003376234820423814,-0.004417063351805182,-0.005730914428470754,-0.00879161692063017,-0.005033049236241468,0.0011251178329002478,0.02290192091474362,-0.005772792688604295,0.03661682767588403
122,10.830672700001742,0.0034962150482337386,-0.05691466538886771,0.009242884832166193,-0.0034139772649874806,-0.004438846240848947,-0.005725715728020041,-0.008692712730726007,-0.005058235188945032,0.0012834086543833173,0.022916135955508395,-0.005893825255486396,0.03671165089756768
123,10.834024600000705,0.003481394939011003,-0.05693387627230399,0.009218177270603511,-0.0034512925800361267,-0.0044607389928432665,-0.005719832757967072,-0.008593746143454727,-0.005083939830803463,0.0014421068274060676,0.022930847839915787,-0.0060130416848689135,0.03680553253391254
124,10.838371100006045,0.0034664146514130243,-0.056953181912465074,0.009193496586463259,-0.0034881804915504262,-0.004482743830188937,-0.005713263768437376,-0.008494714922885052,-0.005110155165056334,0.0016012082756187971,0.022946098390959187,-0.00613036968352524,0.03689846761047844
125,10.841851900011534,0.00345127603126271,-0.05697258279801496,0.009168845745242349,-0.003524640715469538,-0.004504862940089868,-0.005706007027201136,-0.008395616653798251,-0.005136872882693494,0.0017607089022429162,0.022961928990351956,-0.006245736591707165,0.036990451654111814
126,10.8454858000041,0.003435980925631845,-0.05699207942698301,0.009144227719878033,-0.0035606729569197825,-0.004527098473202202,-0.005698060819757767,-0.008296448742950116,-0.005164084359569475,0.0019206045923050052,0.0229783803562829,-0.006359069264620679,0.037081480849128816
127,10.84905850001087,0.003420531182889442,-0.05701167230660321,0.009119645490671185,-0.0035962769094487926,-0.004549452542264136,-0.005689423449408443,-0.008197208423538223,-0.005191780655100932,0.002080891216079719,0.022995491507941623,-0.006470294805445264,0.037171552322958955
128,10.852710999999545,0.0034049286527533676,-0.05703136195314747,0.009095102045209306,-0.003631452254292764,-0.004571927220733799,-0.005680093237310942,-0.008097892765404784,-0.005219952515710342,0.002241564633790252,0.0230132988432073,-0.006579341211960578,0.03726066436177627
129,10.858493800013092,0.00338917518634502,-0.05705114889175319,0.009070600378289334,-0.0036661986596987026,-0.0045945245414488085,-0.005670068522511596,-0.007998498687467662,-0.005248590379106786,0.0024026207009131247,0.02303183611244327,-0.006686137376558709,0.037348816383532574
130,10.862116200005405,0.0033732726362468075,-0.05707103365624494,0.009046143491840377,-0.0037005157802990126,-0.004617246495301106,-0.005659347661954325,-0.007899022968149495,-0.005277684377729752,0.002564055272645801,0.02305113494330135,-0.006790612903058713,0.03743600875741339
131,10.86570510000456,0.0033572228565622256,-0.05709101678895059,0.009021734394846442,-0.0037344032565237934,-0.0046400950299262545,-0.00564792903047401,-0.007799462253277252,-0.005307224341448192,0.002725864207652555,0.023071225242144926,-0.006892698225242866,0.03752224266098684
132,10.870686600013869,0.003341027702978411,-0.057111098840511694,0.008997376103269224,-0.0037678607140436363,-0.004663072048401578,-0.005635811020773189,-0.007699813063045245,-0.005337199802027834,0.002888043371298636,0.023092135382078393,-0.00699232513500576,0.037607519921275145
133,10.874159000013606,0.0033246890328310296,-0.057131280369688356,0.008973071639971039,-0.003800887763242046,-0.00468617940797403,-0.005622992043387499,-0.007600071798291141,-0.005367600000390571,0.0030505886380238524,0.0231138922824355,-0.007089427245889642,0.03769184294193904
134,10.87839690000692,0.0033082087051713852,-0.05715156194315865,0.008948824034637908,-0.003833483998712427,-0.004709418918821017,-0.0056094705266418795,-0.007500234746772617,-0.005398413895084205,0.003213495893948009,0.02313652123560516,-0.007183940413423044,0.037775214792194416
135,10.882357200011027,0.003291588580835652,-0.05717194413531276,0.008924636323702871,-0.0038656489987847,-0.004732792342851398,-0.005595244916593518,-0.0074002980909386624,-0.005429630173171267,0.0033767610400122477,0.023160045660511917,-0.007275802918282847,0.037857639282361896
136,10.886425700009568,0.0032748305225160698,-0.05719242752804208,0.008900511550269566,-0.003897382325089392,-0.004756301392560329,-0.005580313676960929,-0.007300257916334819,-0.005461237260280288,0.0035403799952368185,0.023184487155782325,-0.007364955175380626,0.037939120839874406
137,10.890436100002262,0.0032579363948339406,-0.057213012710523425,0.008876452764036147,-0.003928683522156828,-0.004779947729917052,-0.0055646752890387684,-0.007200110218915412,-0.00549322332898271,0.0037043486987918036,0.023209865809005123,-0.007451339550665639,0.03801966413997529
138,10.894585600006394,0.0032409080644142853,-0.057233700278998566,0.008852463021219606,-0.003959552117044357,-0.0048037329652920666,-0.005548328251609035,-0.007099850910778471,-0.00552557630726233,0.003868663110066128,0.023236200508015316,-0.007534900242414893,0.03809927381212926
139,10.898761800010108,0.003223747399962058,-0.05725449083654917,0.008828545384480456,-0.003989987618985064,-0.004827658656418053,-0.005531271080855288,-0.006999475824790156,-0.005558283885867201,0.00403331920820327,0.023263509158328834,-0.007615582817767104,0.038177954380783
140,10.90556810000271,0.0032064562723398368,-0.057275384992867336,0.008804702922847794,-0.004019989519054927,-0.004851726307380523,-0.005513502310277857,-0.006898980718442224,-0.005591333522777248,0.0041983129916587664,0.023291808890101465,-0.00769333372776983,0.038255710205917004
141,10.910806700005196,0.003189036554646911,-0.057296383364021854,0.008780938711644714,-0.004049557289854835,-0.004875937367617316,-0.005495020490611883,-0.006798361276689456,-0.005624712446368822,0.004363640477222613,0.023321116286539847,-0.007768100361232347,0.03833254535113042
142,10.915272500002176,0.0031714901222997184,-0.057317486572220085,0.008757255832414077,-0.004078690385202243,-0.00490029323093658,-0.0054758241897509665,-0.006697613113834899,-0.0056584076603473045,0.004529297698437742,0.023351447550804823,-0.007839830936916007,0.038408463465057746
143,10.920991200007848,0.0031538188531135955,-0.057338695245565736,0.008733657372844589,-0.0041073882398294705,-0.004924795234558853,-0.005455911992678863,-0.00659673177492615,-0.005692405945980774,0.004695280703598508,0.023382818543862368,-0.007908474180185135,0.038483467622312986
144,10.924390900006983,0.003136024627385818,-0.057360010017812484,0.008710146426697155,-0.004135650269087415,-0.004949444658154334,-0.005435282501410416,-0.006495712737313775,-0.005726693864240636,0.004861585552795785,0.023415244719799836,-0.0079739797864842,0.038557560037950564
145,10.928359800003818,0.003118109327979911,-0.057381431528113425,0.00868672609373147,-0.004163475868657303,-0.004974242722903447,-0.00541393433494877,-0.00639455141260611,-0.005761257762037208,0.005028208313449949,0.023448741081302984,-0.008036298593820096,0.03863074177101412
146,10.932126600004269,0.0031000748404111777,-0.05740296042076659,0.008663399479632738,-0.004190864414271283,-0.004999190590587953,-0.0053918661292648665,-0.006293243148612113,-0.00579608377584966,0.0051951450547962534,0.02348332222082874,-0.008095382140830672,0.0387030125547068
147,10.937902600009693,0.003081923052933422,-0.05742459734495656,0.008640169695938449,-0.004217815261440954,-0.005024289362682859,-0.005369076537302278,-0.006191783230940657,-0.005831157834145714,0.0053623918419514,0.02351900239060484,-0.008151182882322968,0.038774370739851266
148,10.942152400006307,0.0030636558566268213,-0.05744634295449211,0.008617039859965049,-0.004244327745191765,-0.005049540079468418,-0.005345564229007937,-0.00609016688433897,-0.005866465662872665,0.005529944729910719,0.02355579550737647,-0.008203654448008179,0.038844813219468775
149,10.947424800004228,0.0030452751454869433,-0.05746819790754018,0.008594013094734449,-0.004270401179803104,-0.005074943719169457,-0.0053213278913888,-0.005988389274250938,-0.005901992790111141,0.005697799756963514,0.023593715086408312,-0.008252751394540105,0.03891433523746119
150,10.95275350000884,0.0030267828165148622,-0.0574901628663561,0.008571092528900216,-0.00429603485855615,-0.005100501197107556,-0.005296366228599434,-0.005886445508725408,-0.005937724549425084,0.005865952937038296,0.023632774156511292,-0.00829842894690768,0.038982930194525776
151,10.957636200007984,0.003008180769808352,-0.05751223849701021,0.008548281296673317,-0.004321228053490438,-0.005126213364869304,-0.005270677962064771,-0.005784330640708202,-0.005973646082282551,0.006034400251442285,0.023672985171893784,-0.00834064285827233,0.039050589615813126
152,10.961095000006026,0.0029894709086541065,-0.05753442546911091,0.008525582537747255,-0.004345980015171506,-0.005152081009479378,-0.005244261830639028,-0.005682039670711543,-0.006009742340195454,0.006203137640927386,0.023714360043107435,-0.008379349420624366,0.03911730326957975
153,10.965108500007773,0.002970655139620937,-0.05755672445552415,0.008502999397222436,-0.004370289972470506,-0.005178104852587276,-0.005217116590796963,-0.005579567548838866,-0.006045998087232365,0.006372160998454206,0.023756910435499566,-0.00841450542188903,0.039183059347686164
154,10.970133300012094,0.002951735372653897,-0.05757913613208946,0.008480535025529657,-0.0043941571323493364,-0.005204285549662094,-0.005189241016855276,-0.0054769091748772415,-0.006082397901787893,0.006541466162816545,0.023800648138351366,-0.008446067854792053,0.03924784457066052
155,10.976091200005612,0.0029327135211693334,-0.05760166117733248,0.008458192578352564,-0.004417580679641048,-0.005230623689194534,-0.005160633901218913,-0.005374059397134834,-0.006118926176581674,0.0067110489123126,0.023845585040622452,-0.008473993464039367,0.039311643826692104
156,10.98354910001217,0.002913591502150908,-0.0576243002721741,0.008435975216549004,-0.0044405597768249405,-0.0052571197918916766,-0.005131294054657117,-0.005271013012742764,-0.006155567116517833,0.006880904955252318,0.023891732581301988,-0.008498238929746361,0.039374439403559565
157,10.988687900011428,0.002894371236246593,-0.05764705409963603,0.00841388610607111,-0.004463093563809576,-0.0052837743098605025,-0.005101220306631696,-0.005167764771238546,-0.006192304740267814,0.007051029916996637,0.02393910116797726,-0.008518761805118137,0.03943621046583372
158,10.994665500009432,0.002875054647866561,-0.05766992334454291,0.008391928417883816,-0.004485181157738814,-0.005310587625816333,-0.005070411505684979,-0.005064309379888351,-0.0062291228862262965,0.007221419325950716,0.023987700110173114,-0.008535520656508082,0.03949693297150968
159,10.998957400006477,0.0028556436652818593,-0.05769290869322104,0.008370105327881582,-0.004506821652820783,-0.00533756005231778,-0.005038866519889033,-0.004960641507846033,-0.006266005215303368,0.007392068599883331,0.024037537979671227,-0.008548474697070946,0.03955657986316078
160,11.004318800012696,0.002836140220723777,-0.057716010833193845,0.008348420016803044,-0.004528014120169826,-0.005364691830999294,-0.005006584237351745,-0.004856755788364188,-0.006302935213717199,0.007562973033570638,0.02408862297572875,-0.008557584012981689,0.0396151213482079
161,11.010303500006556,0.0028165462504838807,-0.05773923045287404,0.008326875670143364,-0.004548757607654563,-0.005391983131830228,-0.004973563566772724,-0.004752646819799684,-0.006339896197739515,0.007734127787535567,0.024140963115116505,-0.008562809423341335,0.03967252501761836
162,11.015813600010006,0.002796863695014696,-0.05776256824125267,0.008305475478064076,-0.004569051139748518,-0.005419434052388359,-0.004939803438046616,-0.00464830916618382,-0.006376871315278618,0.007905527876716497,0.02419456629597556,-0.008564112016851397,0.03972875577836045
163,11.019942900005844,0.002777094499031033,-0.05778602488758498,0.008284222635300233,-0.004588893717383107,-0.005447044617132625,-0.004905302802916851,-0.00454373735767648,-0.006413843546624247,0.008077168158623431,0.02424944034500417,-0.008561453151569764,0.03978377576190353
164,11.023892900004284,0.002757240611611936,-0.05780960108107322,0.008263120341064606,-0.004608284317802186,-0.005474814776683075,-0.00487006063568122,-0.00443892589072886,-0.006450795706028493,0.008249043321216606,0.024305593051916968,-0.008554794519675425,0.039837544329616247
165,11.0280277000129,0.0027373039863032647,-0.05783329751054625,0.008242171798948735,-0.004627221894416443,-0.0055027444071072545,-0.0048340759339502845,-0.004333869228240077,-0.006487710443009871,0.008421147871109277,0.024363032126923367,-0.008544097921250653,0.039890018201948305
166,11.032438800000818,0.0027172865812209036,-0.057857114864136215,0.008221380216820583,-0.004645705376659296,-0.005530833309211419,-0.004797347719454818,-0.00422856180008705,-0.006524570241980946,0.008593476122561757,0.024421765109728846,-0.008529325167080508,0.039941151612228214
167,11.036327800000436,0.0026971903591545853,-0.057881053828952034,0.008200748806718616,-0.004663733669845864,-0.005559081207823704,-0.00475987503889925,-0.004122998004066849,-0.006561357422713123,0.008766022187012177,0.024481799306339744,-0.008510438251193374,0.03999089648716063
168,11.039847200008808,0.0026770172876723172,-0.05790511509074986,0.008180280784742087,-0.004681305655037004,-0.00558748775108935,-0.0047216569648595025,-0.0040171722069722365,-0.00659805414145408,0.008938779963629042,0.024543141843579776,-0.008487399232312853,0.04003920260031071
169,11.044212799999514,0.0026567693392253807,-0.0579292993336005,0.008159979370937362,-0.0046984201889075615,-0.005616052509763521,-0.004682692596718006,-0.0039110787450632855,-0.006634642390368951,0.009111743130167261,0.024605799775480126,-0.00846017000743018,0.04008601745636028
170,11.04853530001128,0.002636448491253894,-0.05795360723955376,0.00813984778918013,-0.004715076103614484,-0.005644774976501708,-0.004642981061640495,-0.0038047119242242944,-0.0066711039967026564,0.009284905132521304,0.024669780003122817,-0.008428712193337793,0.040131285981160426
171,11.05349030000798,0.0026160567262929505,-0.057978039488299764,0.008119889267053298,-0.004731272206666427,-0.005673654565145308,-0.004602521515601225,-0.0036980660211275228,-0.006707420621198176,0.009458259172904973,0.02473508895736571,-0.008392987202039091,0.040174950349250615
172,11.057360700011486,0.0025955960320793083,-0.05800259675682709,0.008100107035720347,-0.004747007280801915,-0.005702690609998377,-0.0045613131444618305,-0.003591135286129633,-0.0067435737579100135,0.009631798197915264,0.024801732276249662,-0.008352956704202608,0.04021695009977725
173,11.061478200004784,0.0025750684016585795,-0.05802727971907786,0.008080504329793913,-0.004762280083883957,-0.005731882365111595,-0.004519355165099608,-0.0034839139472208763,-0.006779544736624193,0.009805514887713042,0.024869714751623227,-0.008308582812427535,0.0402572223493789
174,11.065673500008415,0.0025544758334928295,-0.05805208904559972,0.008061084387199397,-0.004777089348812305,-0.005761229003579912,-0.004476646826579789,-0.0033763962133824058,-0.0068153147242541404,0.009979401645925071,0.024939040521797358,-0.008259827585402819,0.04029570189456386
175,11.070134900000994,0.0025338203315685252,-0.05807702540319482,0.008041850449033426,-0.004791433783447064,-0.005790729616838571,-0.00443318741137102,-0.0032685762768719733,-0.006850864722979308,0.01015345058970868,0.025009713240118477,-0.00820665268304719,0.04033232124132952
176,11.07425570000487,0.002513103905504793,-0.058102089454565756,0.008022805759416971,-0.004805312070540678,-0.005820383213944679,-0.004388976236603419,-0.003160448315125689,-0.006886175568663346,0.010327653539909545,0.02508173612272511,-0.008149019592797107,0.040367010637481354
177,11.07800270000007,0.0024923285706619546,-0.05812728185795832,0.00800395356534294,-0.004818722867677969,-0.005850188720859572,-0.0043440126553690415,-0.0030520064926313605,-0.006921227930946622,0.010502002011405403,0.025155111964683848,-0.008086889478706285,0.040399698196682814
178,11.082422900013626,0.002471496348250302,-0.058152603266801245,0.00798529711651807,-0.004831664807224295,-0.005880144979731184,-0.004298296058063313,-0.002943244962690924,-0.006956002310361433,0.010676487204334959,0.025229843203346737,-0.008020222642546081,0.040430310170592794
179,11.086864300013984,0.0024506092654390816,-0.05817805432934279,0.007966839665198937,-0.0048441364962808035,-0.005910250748151505,-0.004251825873761227,-0.002834157868746722,-0.006990479033771364,0.010851099996791392,0.025305931992434916,-0.007948978340539379,0.04045877119128901
180,11.090561000004527,0.0024296693554656562,-0.05820363568828404,0.007948584466021966,-0.00485613651664405,-0.00594050469839957,-0.004204601571621874,-0.002724739345504254,-0.007024638249904077,0.011025830938144474,0.025383380164368703,-0.007873114751065863,0.040485004406080244
181,11.094899300005636,0.0024086786577448365,-0.058229347980408956,0.00793053477582731,-0.0048676634247709375,-0.0059709054166603446,-0.00415662266232229,-0.0026149835205837167,-0.00705845992451182,0.011200670242898121,0.025462189107578075,-0.007792589017694601,0.040508931558372686
182,11.098799600003986,0.0023876392179783463,-0.05825519183621096,0.007912693853476482,-0.004878715751752598,-0.006001451402225926,-0.004107888699515031,-0.0025048845167021266,-0.00709192383627578,0.011375607784710761,0.02554235968565945,-0.00770735755104497,0.04053047294182126
183,11.10288920000312,0.0023665530882643797,-0.05828116787951606,0.007895064959663653,-0.004889292003298176,-0.0060321410666790655,-0.0040583992813136485,-0.002394436454022904,-0.007125009574573034,0.011550633089857,0.02562389221598155,-0.007617376255156585,0.04054954741650006
184,11.107003299999633,0.0023454223272072064,-0.05830727672710238,0.007877651356720446,-0.0048993906597289945,-0.006062972733075089,-0.004008154051806719,-0.002283633452522726,-0.007157696537335502,0.011725735331387613,0.02570678648835743,-0.007522600419643978,0.0405660725193768
185,11.111351900006412,0.002324249000026779,-0.05833351898831626,0.007860456308414171,-0.004909010175982777,-0.006093944635106932,-0.0039571527025937525,-0.002172469634179885,-0.007189963927885704,0.011900903323545112,0.025791041813568776,-0.007422984859918607,0.040579964496649606
186,11.11562640000193,0.0023030351786683017,-0.05835989526468454,0.007843483079739356,-0.004918148981626709,-0.006125054916259736,-0.0039053949743474304,-0.0020609391249221554,-0.007221790754006467,0.012076125516202948,0.025876657067958397,-0.007318484111100005,0.04059113841294534
187,11.11953770001128,0.0022817829419117253,-0.058386406149523354,0.007826734936702487,-0.004926805480878479,-0.006156301628967854,-0.003852880658397536,-0.0019490360564301166,-0.00725315582645102,0.012251389990223962,0.025963630731716324,-0.0072090523633551295,0.04059950831291424
188,11.123850500007393,0.002260494375481134,-0.05841305222754317,0.007810215146099867,-0.004934978052634908,-0.006187682733756581,-0.0037996095983332707,-0.001836754567754435,-0.0072840377574543876,0.01242668445329488,0.02605196093406578,-0.007094643612905021,0.04060498733442521
189,11.12719320000906,0.0022391715721539933,-0.058439834074450164,0.007793926975288522,-0.0049426650505069595,-0.006219196098386304,-0.003745581691623148,-0.0017240888067290264,-0.007314414960547354,0.012601996236262158,0.026141645477461315,-0.00697521185591236,0.04060748783390844
190,11.130714600003556,0.002217816631870234,-0.058466752256543846,0.00777787369195007,-0.00494986480286057,-0.006250839496992631,-0.00369079689124895,-0.001611032931379398,-0.0073442656507419985,0.012777312290048764,0.026232681859867168,-0.006850711142438824,0.040606921461782415
191,11.13589520000096,0.0021964316618411483,-0.05849380733031102,0.007762058563847518,-0.004956575612863815,-0.00628261060923214,-0.0036352552073522443,-0.0014975811111434462,-0.007373567844811553,0.012952619182641288,0.026325067391351004,-0.00672109542561412,0.04060319917324375
192,11.140160599999945,0.002175018776658066,-0.058520999842016065,0.007746484858574915,-0.004962795758538287,-0.0063145070194249205,-0.0035789567088943537,-0.0013837275272730635,-0.0074022993601735795,0.013127903096099897,0.02641879941357774,-0.006586318367444864,0.04059623124978584
193,11.144450700012383,0.0021535800984008066,-0.05854833032728744,0.007731155843299817,-0.004968523492809725,-0.006346526215690687,-0.003521901525328692,-0.0012694663721597031,-0.007430437813493073,0.013303149823731252,0.026513875493220537,-0.0064463332311323,0.040585927372017785
194,11.149039800002356,0.00213211775674592,-0.05857579931070054,0.007716074784498502,-0.004973757043553571,-0.0063786655890792545,-0.003464089848285145,-0.001154791848065967,-0.007457960618635848,0.013478344767727215,0.026610293473847593,-0.006301092762571705,0.040572196779960955
195,11.15318050001224,0.0021106338890747437,-0.05860340730535669,0.007701244947683884,-0.004978494613634646,-0.0064109224326889805,-0.003405521933262793,-0.0010396981660031504,-0.007484844984248443,0.013653472937721862,0.02670805140182659,-0.006150549373455885,0.04055494846973628
196,11.158896600012667,0.002089130640581301,-0.05863115481245836,0.007686669597126119,-0.004982734380943013,-0.006443293940776346,-0.003346198101326753,-0.000924179545102613,-0.007511067913292525,0.013828518950128496,0.026807147456242925,-0.0059946554862385015,0.04053409133239356
197,11.162329000013417,0.0020676101643800487,-0.05865904232088053,0.007672351995565865,-0.004986474498428231,-0.006475777207870373,-0.0032861187408066254,-0.0008082302120984489,-0.007536606203603398,0.014003467027895393,0.026907580011477854,-0.005833363512635163,0.04050953419702722
198,11.165686600012124,0.0020460746216134805,-0.058687070306738205,0.007658295403920222,-0.004989713094130746,-0.006508369227887034,-0.0032252843089954453,-0.0006918444001585219,-0.0075614364472387785,0.014178301000215096,0.027009347845475793,-0.005666625638038774,0.04048118595873028
199,11.170876200005296,0.0020245261815596024,-0.058715239232950134,0.007644503080981324,-0.0049924482712060516,-0.006541066893238042,-0.0031636953338506388,-0.0005750163465688398,-0.007585535029175822,0.01435300430338499,0.027112450324336936,-0.005494393627386882,0.04044895610405481
200,11.174288600013824,0.002002967021739328,-0.058743549548798665,0.007630978283107589,-0.004994678107936087,-0.006573866993934009,-0.0031013524156855436,-0.0004577402899707132,-0.007608878124983648,0.014527559985053718,0.027216887334236696,-0.005316618771378696,0.040412755384741865
201,11.179781900005764,0.001981399328023855,-0.0587720016894857,0.007617724263907709,-0.004996400657729542,-0.006606766216673145,-0.0030382562288337007,-0.00034001046863297506,-0.007631441699055976,0.014701950710899116,0.027322659131164103,-0.005133252209858645,0.04037249606022489
202,11.18307180001284,0.001959825294742059,-0.058800596075684684,0.007604744273917529,-0.004997613949118336,-0.006639761143929149,-0.0029744075232827124,-0.00022182111898658304,-0.007653201505075925,0.01487615877096854,0.027429766528516045,-0.004944244996395268,0.04032809170762788
203,11.186496800000896,0.0019382471247878998,-0.058829333113088675,0.007592041560269928,-0.004998315985745269,-0.006672848253043925,-0.0029098071262837885,-0.00010316647227704513,-0.007674133084806259,0.015050166084716217,0.027538211265759168,-0.004749547818105719,0.04027945708298797
204,11.190754900002505,0.0019166670297279206,-0.05885821319195451,0.007579619366357797,-0.004998504746331598,-0.006706023915305027,-0.0028444559439421094,1.5959250084212247e-05,-0.007694211766134993,0.015223954206145295,0.02764799597395906,-0.0045491112003630384,0.04022650842983226
205,11.194781100013644,0.0018950872299089365,-0.058887236686642905,0.007567480931490195,-0.004998178184624546,-0.0067392843950215,-0.002778354962781973,0.00013556183956977785,-0.007713412663633202,0.015397504331509614,0.027759123528967065,-0.00434288605663059,0.04016916409758907
206,11.199006500013638,0.0018735099545659853,-0.05891640395515465,0.00755562949054181,-0.004997334229338546,-0.00677262584860614,-0.0027115052512706552,0.0002556470995999394,-0.0077317106813481985,0.015570797309795468,0.02787159616741812,-0.004130824281282756,0.0401073448676411
207,11.202258000004804,0.001851937441930524,-0.058945715338662774,0.007544068273595954,-0.004995970784110834,-0.0068060443236754534,-0.002643907961293053,0.00037622084095964694,-0.00774908051848009,0.0157438136532387,0.02798541496956406,-0.00391287923451182,0.04004097361112277
208,11.205958700011251,0.001830371939338763,-0.058975171161040965,0.007532800505581296,-0.004994085727482264,-0.006839535758180934,-0.002575564329584734,0.0004972888763966886,-0.007765496676361917,0.015916533544851702,0.028100579953879292,-0.0036890055700201816,0.03996997450472122
209,11.209246500002337,0.0018088157033400278,-0.05900477172838825,0.007521829405902477,-0.004991676912899546,-0.006873095979569287,-0.0025064756791415856,0.0006188570168555329,-0.0077809334626484095,0.016088936842169284,0.028217090571320623,-0.0034591584912277503,0.03989427236646809
210,11.21317750000162,0.0017872709998050745,-0.05903451732855015,0.007511158188064678,-0.00498874216872858,-0.006906720703949881,-0.0024366434206205233,0.000740931070343221,-0.0077953649918737974,0.01626100307904053,0.02833494628636327,-0.0032232933847514494,0.03981379262612638
211,11.21764630000689,0.0017657401040343363,-0.05906440823063617,0.007500790059292137,-0.004985279298266482,-0.006940405535259785,-0.002366069053733666,0.0008635168431801996,-0.007808765186475826,0.016432711469118986,0.028454146929922316,-0.0029813658420552026,0.03972846218338358
212,11.222551300001214,0.0017442253008661344,-0.05909444468453376,0.007490728220140679,-0.004981286079744124,-0.00697414596444006,-0.0022947541686189087,0.0009866201419135362,-0.007821107777540505,0.016604040915064615,0.028574692641404994,-0.0027333315515938724,0.03963821078618371
213,11.229673900001217,0.0017227288847849033,-0.059124626920418685,0.007480975864104398,-0.004976760266321638,-0.007007937368607232,-0.002222700447154643,0.0011102467740673977,-0.007832366304894834,0.016774970023935288,0.028696583630986656,-0.002479146438952389,0.039542972072319924
214,11.23314750001009,0.0017012531600294407,-0.05915495514826182,0.0074715361772168375,-0.0049716995860844704,-0.007041775010230381,-0.0021499096641974303,0.0012344025480036233,-0.00784251411906159,0.016945477125382438,0.02881982015369067,-0.0022187669255343927,0.03944268385636207
215,11.240561500002514,0.001679800440701166,-0.059185429557332435,0.007462412337646986,-0.004966101742040099,-0.007075654036319491,-0.0020763836887396124,0.001359093273448395,-0.007851524383585719,0.017115540289520035,0.028944402732628598,-0.0019521500363500904,0.039337287817022164
216,11.244647700004862,0.0016583730508723995,-0.05921605031569796,0.007453607515290455,-0.004959964412109536,-0.007109569477622629,-0.002002124484992693,0.0014843247632803907,-0.00785937007791982,0.017285137342420785,0.029070332430485405,-0.0016792535401891362,0.039226728816823736
217,11.248829000003752,0.0016369733246946936,-0.059246817569720354,0.007445124871356131,-0.0049532852491086,-0.007143516247839213,-0.001927134113411144,0.0016101028364016107,-0.007866024000960871,0.017454245878110747,0.029197611123459127,-0.001400035798604323,0.039110954132738275
218,11.25332950000302,0.0016156036065072736,-0.05927773144354908,0.007436967557948506,-0.004946061880714639,-0.007177489142847721,-0.0018514147316722217,0.0017364333218908795,-0.007871458772631753,0.017622843267422413,0.029326241748443383,-0.0011144555827845865,0.03898991287681479
219,11.257108200006767,0.0015942662509456573,-0.05930879203861079,0.007429138717645868,-0.0049382919094119355,-0.00721148283993262,-0.0017749685956233291,0.0018633220640089851,-0.007875646835836752,0.017790906664986717,0.02945622823227085,-0.0008224723861184367,0.03886355577388164
220,11.26152440000442,0.001572963623050566,-0.059339999433095626,0.007421641483074458,-0.004929972912415209,-0.007245491897028962,-0.001697798060201458,0.0019907749257412287,-0.007878560460741937,0.017958413016166668,0.02958757493933113,-0.00052404670437036,0.03873183522351197
221,11.265411100001074,0.0015516980983772048,-0.059371353681440406,0.007414478976478716,-0.004921102441584437,-0.007279510751986266,-0.0016199055803206841,0.0021187977890329873,-0.007880171749149857,0.018125339064584405,0.029720286033925035,-0.00021914028366506108,0.038594705370102435
222,11.26968900000793,0.0015304720631049101,-0.059402854813808546,0.007407654309287777,-0.0049116780233463215,-0.007313533721850893,-0.0015412937117266162,0.002247396552826472,-0.007880452640921154,0.018291661359659924,0.02985436524518117,9.228363163176054e-05,0.03845212199103964
223,11.273896600003354,0.001509287914147107,-0.059434502835567046,0.007401170581678341,-0.004901697158626064,-0.007347555002185372,-0.0014619651118187972,0.002376577131266449,-0.007879374920489606,0.018457356263172506,0.029989816012559584,0.00041026056833980433,0.03830404227032199
224,11.277993900002912,0.0014881480592615457,-0.059466297726760556,0.007395030882134063,-0.004891157322784321,-0.007381568666407033,-0.0013819225404484979,0.0025063454529933573,-0.00787691022095736,0.018622399954844764,0.03012664168015848,0.0007348250401069818,0.03815042462746449
225,11.282497600011991,0.001467054917160804,-0.05949823944158263,0.007389238287001538,-0.004880055965555086,-0.00741556866514269,-0.0013011688606929027,0.0026367074610267834,-0.007873030028747986,0.018786768437426736,0.030264845569867024,0.0010660103964846208,0.03799122857874873
226,11.286350100010168,0.0014460109176230604,-0.059530327907844245,0.007383795860043007,-0.00486839051098365,-0.007449548825607454,-0.0012197070396090047,0.0027676691126902217,-0.007867705689004894,0.018950437541081895,0.030404430978620153,0.0014038487582098498,0.03782641460110118
227,11.29069820001314,0.001425018501603131,-0.05956256302643966,0.007378706651985829,-0.004856158357365131,-0.007483502851006029,-0.0011375401489699198,0.002899236379470845,-0.007860908410803186,0.019113382927295884,0.0305454011491628,0.001748371017239551,0.03765594404450796
228,11.29509080000571,0.0014040801213437736,-0.05959494467080979,0.007373973700068832,-0.0048433568771836496,-0.007517424319956523,-0.0010546713659850314,0.0030314152466918267,-0.00785260927254778,0.019275580092506267,0.030687759223212333,0.002099606610439109,0.03747977907682359
229,11.299041900012526,0.0013831982404872514,-0.059627472686403074,0.007369600027585567,-0.004829983417053685,-0.007551306685938359,-0.0009711039740049638,0.0031642117129676906,-0.007842779229139363,0.019437004371534713,0.030831508199553964,0.0024575832177105173,0.037297882602901976
230,11.303204700001515,0.0013623753341871418,-0.059660146890134096,0.007365588643424571,-0.004816035297663955,-0.007585143276777959,-0.0008868413632120908,0.0032976317895148047,-0.007831389119979047,0.01959763094051848,0.03097665091168051,0.002822326955984504,0.03711021817833805
231,11.307211100007407,0.0013416138892203848,-0.059692967069840015,0.007361942541606657,-0.004801509813724722,-0.007618927294165772,-0.0008018870313001974,0.0034316814994136595,-0.007818409674459285,0.019757434819597793,0.031123190049268456,0.0031938625086810717,0.03691674994080016
232,11.311544700001832,0.0013209164040995475,-0.059725932983734985,0.007358664700819311,-0.004786404233918047,-0.007652651813189369,-0.0007162445841417842,0.003566366877104799,-0.007803811518850689,0.019916390875254413,0.031271128216032354,0.003572212662151559,0.03671744247932346
233,11.316705200006254,0.0013002853891853018,-0.05975904435986259,0.0073557580839482195,-0.004770715800849447,-0.007686309781909937,-0.0006299177364475362,0.0037016939681506463,-0.007787565185795568,0.020074473821870425,0.03142046797194405,0.003957398337961502,0.036512260739973615
234,11.32015740001225,0.001279723366799106,-0.05979230089554658,0.007353225637605972,-0.004754441731000204,-0.007719894020977345,-0.0005429103124201682,0.0038376688290959787,-0.007769641120915996,0.02023165822325225,0.03157121181936491,0.004349438927151973,0.03630117002318031
235,11.324067700013984,0.0012592328713360945,-0.05982570225684001,0.007351070291657944,-0.00473757921468023,-0.007753397223263695,-0.0004552262464007338,0.003974297527110012,-0.007750009689421153,0.02038791849416641,0.03172336213701291,0.004748352225497959,0.03608413592713445
236,11.328024500005997,0.0012388164493781666,-0.059859248077972785,0.007349294958745415,-0.0047201254159834624,-0.007786811953535445,-0.00036686958350921076,0.004111586139276709,-0.007728641183274407,0.020543228901374805,0.03187692110996218,0.0051541545951473994,0.035861124304669936
237,11.332114300006651,0.001218476659807261,-0.059892937960797976,0.007347902533805925,-0.004702077472746861,-0.007820130648148838,-0.0002778444802818708,0.004249540751632441,-0.007705505826404969,0.020697563564798162,0.032031890667984286,0.005566861072524061,0.03563210131582397
238,11.336169200003496,0.0011982160739187986,-0.05992677147423675,0.007346895893590887,-0.004683432496514109,-0.007853345614767027,-0.00018815520530181856,0.004388167457923902,-0.007680573780943287,0.02085089645900515,0.032188272429543224,0.005986485271209426,0.035397033453423085
239,11.340594600012992,0.0011780372755352709,-0.059960748153722224,0.0073462778961805,-0.004664187572505338,-0.007886449032109345,-9.780613982350395e-05,0.00452747235816219,-0.007653815153271272,0.021003201414596762,0.03234606768942867,0.0064130395867313325,0.0351558875525208
240,11.344495000012104,0.001157942861119944,-0.059994867500642236,0.0073460513804959665,-0.004644339759593313,-0.007919432949720672,-6.801778391307491e-06,0.00466746155727394,-0.007625199998489427,0.021154452119776908,0.03250527751105867,0.006846535444688447,0.034908630807914114
241,11.34863680000126,0.001137935439890652,-0.06002912898178121,0.007346219165809067,-0.004623886090284802,-0.007952289287759278,8.48532705495086e-05,0.004808141164452397,-0.007594698324324633,0.021304622121888047,0.032665902884057976,0.007286983397508551,0.0346552307094679
242,11.353137199999765,0.001118017633933663,-0.06006353202876111,0.007346784051249103,-0.004602823570702369,-0.007985009836799924,0.00017715428404747476,0.004949517293169172,-0.00756228009476181,0.02145368482842334,0.032827944706086847,0.007734393092083012,0.034395655058283674
243,11.3574462000106,0.0010981920783176289,-0.06009807603748156,0.007347748815307241,-0.004581149180565637,-0.008017586257653071,0.00027009642404270237,0.005091596060368412,-0.007527915234231166,0.021601613508701892,0.032991403468589794,0.008188772838934794,0.03412987226985347
244,11.361306000006152,0.0010784614212076132,-0.06013276036755928,0.007349116215338259,-0.004558859873180041,-0.008050010081204135,0.0003636747367760232,0.005234383583765136,-0.007491573634959903,0.021748381297498495,0.0331562789159266,0.008650129148473065,0.03385785170685401
245,11.365816400008043,0.0010588283239791386,-0.060167584341766826,0.007350888987059785,-0.0045359525754414196,-0.008082272708296171,0.00045788415221811884,0.00537788597809615,-0.007453225165163702,0.021893961199592412,0.033322569964134525,0.009118466827972493,0.033579563739778454
246,11.36966600001324,0.0010392954613321743,-0.06020254724547096,0.007353069844049121,-0.00451242418785714,-0.008114365409639862,0.0005527194835179369,0.00552210935171693,-0.007412839675561058,0.02203832609392065,0.033490274823942685,0.009593789003282295,0.0332949796431897
247,11.373730800012709,0.0010198655214050014,-0.06023764832607065,0.007355661477237712,-0.004488271584580071,-0.008146279325752447,0.0006481754264676821,0.005667059803914714,-0.007370387007377316,0.022181448737230925,0.033659391115271886,0.01007609709718669,0.033004071506795525
248,11.377925400011009,0.0010005412058879076,-0.060272886792434914,0.007358666554403353,-0.004463491613452912,-0.008178005466936825,0.0007442465589827744,0.005812743422494038,-0.007325836999045853,0.02232330176746712,0.03382991585927746,0.010565391163596434,0.03270681223948962
249,11.382127600008973,0.000981325230136669,-0.06030826181434064,0.007362087719660169,-0.004438081096063011,-0.008209534713278344,0.000840927340596072,0.005959166281021123,-0.007279159491326519,0.022463857707457142,0.034001845358707025,0.011061669930663551,0.03240317565423336
250,11.38646080000035,0.0009622203232857714,-0.06034377252191038,0.007365927592946451,-0.004412036827810487,-0.0082408578146681,0.0009382121119696719,0.0061063344353763545,-0.00723032433363454,0.022603088969031283,0.03417517503932135,0.011564930736004354,0.03209313652734924
251,11.39046620001318,0.0009432292283613047,-0.06037941800505039,0.0073701887695104265,-0.004385355577992821,-0.008271965390854372,0.0010360950944246943,0.006254253919629405,-0.007179301389718281,0.02274096785722206,0.03434989931717662,0.012075169731546749,0.03177667060928329
252,11.394616600009613,0.0009243547023934531,-0.060415197312888864,0.00737487381939403,-0.004358034089908587,-0.00830284793151495,0.001134570389489346,0.006402930741445755,-0.007126060542219381,0.02287746657447552,0.03452601155120483,0.012592381991398146,0.03145375453569316
253,11.39792390000366,0.0009055995165284942,-0.0604511094532146,0.007379985286914773,-0.004330069080981711,-0.008333495796347942,0.0012336319784650677,0.006552370877552369,-0.007070571697419127,0.023012557224083328,0.03470350415905116,0.013116561350159614,0.031124365640159142
254,11.401624300007825,0.0008869664561402161,-0.06048715339191602,0.007385525690145769,-0.004301457242904353,-0.00836389921518508,0.0013332737220042323,0.006702580270144422,-0.0070128047911946715,0.023146211812776943,0.03488236895273142,0.013647700499811939,0.030788481746692693
255,11.405771500008996,0.0008684583209406825,-0.060523328052420805,0.007391497520393958,-0.004272195241792191,-0.008394048288133968,0.0014334893596986914,0.006853564825249229,-0.006952729792928839,0.02327840225236811,0.03506259761219496,0.014185791679597184,0.03044608096900253
256,11.410006700010854,0.0008500779250903096,-0.06055963231513615,0.007397903241676577,-0.004242279718341431,-0.008423932985725135,0.0015342725096716392,0.007005330413221976,-0.006890316705509523,0.02340910036060976,0.03524418194203486,0.014730826988663483,0.030097141690248685
257,11.414143100002548,0.0008318280973072751,-0.06059606501688966,0.007404745290195859,-0.004211707287979811,-0.008453543149054287,0.0016356166681735917,0.0071578828693262386,-0.006825535566539935,0.023538277862661713,0.035427113539193596,0.01528279773934515,0.02974164277458705
258,11.418419500012533,0.0008137116809762916,-0.06063262495037086,0.007412026073812019,-0.004180474541018597,-0.008482868489939809,0.0017375152091869063,0.0073112279913604885,-0.00675835645392215,0.023665906393778163,0.03561138306403883,0.015841693778054323,0.029379563902684567
259,11.423568400001386,0.0007957315342567025,-0.060669310863573425,0.007419747971514536,-0.00414857804282408,-0.008511898591113218,0.001839961384044967,0.007465371533944673,-0.006688749492931155,0.023791957503670406,0.03579697980480704,0.016407503151066455,0.029010885841174554
260,11.427408000003195,0.000777890530189775,-0.06070612145923833,0.00742791333289185,-0.004116014334018909,-0.008540622906437761,0.001942948321074374,0.007620319202385889,-0.006616684864684189,0.023916402661520956,0.03598389179601169,0.016980211953840304,0.028635590435901883
261,11.43200240000442,0.0007601915568050581,-0.06074305539429799,0.007436524477599555,-0.0040827799307065525,-0.00856903076117199,0.002046469025257423,0.007776076647987357,-0.006542132814515852,0.024039213260287944,0.0361721058744721,0.017559804535561878,0.028253660388263064
262,11.43636650001281,0.0007426375172257365,-0.06078011127932167,0.007445583694827184,-0.004048871324713136,-0.008597111352260673,0.0021505163779114616,0.007932649462397886,-0.006465063658681294,0.024160360619788036,0.036361607078593046,0.01814626334832492,0.027865078979026663
263,11.44049459999951,0.0007252313297729009,-0.06081728767796214,0.007455093242763631,-0.004014284983860693,-0.008624853748656252,0.002255083136377989,0.008090043167733887,-0.006385447794033583,0.024279815988616137,0.036552377785837316,0.01873956832214254,0.02746982990531884
264,11.444627300006688,0.0007079759280685428,-0.06085458310640388,0.007465055348061249,-0.003979017352294299,-0.008652246891693312,0.0023601619337185876,0.008248263203481295,-0.006303255710123397,0.02439755054582075,0.03674439743925268,0.01933969691853253,0.027067897226668816
265,11.4489978000056,0.0006908742611369997,-0.06089199603281294,0.0074754722052986534,-0.003943064850868414,-0.008679279595514516,0.0024657452784184884,0.00840731491425626,-0.00621845799841371,0.024513535402357813,0.03693764300716163,0.01994662486369897,0.026659265308450992
266,11.45312710000144,0.0006739292935046139,-0.06092952487678881,0.007486345976442255,-0.003906423877579697,-0.008705940547524639,0.0025718255540950565,0.008567203540676287,-0.006131025358048775,0.024627741602277698,0.03713208960453091,0.020560326428743194,0.026243918786878935
267,11.457178600001498,0.0006571440052974412,-0.06096716800881825,0.0074976787903065474,-0.0038690908080321767,-0.008732218308866313,0.002678395019211605,0.008727934212486188,-0.006040928602649312,0.024740140123876788,0.03732771082994401,0.021180774623575045,0.025821842523157706
268,11.461443100008182,0.0006405213923368926,-0.061004923749731245,0.007509472742013169,-0.003831061995929416,-0.008758101314932735,0.0027854458067958247,0.00888951194233882,-0.005948138664407158,0.024850701880488605,0.03752447884250518,0.021807941347941846,0.025393021453943725
269,11.465614300002926,0.0006240644662331932,-0.06104279037015925,0.00752172989244876,-0.003792333773593386,-0.008783577875878771,0.0028929699241604283,0.00905194161958508,-0.005852626599576386,0.02495939772034417,0.03772236436416718,0.02244179698175829,0.024957440360958955
270,11.469973500003109,0.0006077762544765444,-0.06108076608999557,0.007534452267721613,-0.0037529024525102513,-0.008808636177181075,0.003000959252620375,0.009215228004074736,-0.005754363596105269,0.025066198425373856,0.03792133669952558,0.023082310525222586,0.024515083729510646
271,11.473955200010096,0.0005916598005258696,-0.061118849077858424,0.007547641858617084,-0.0037127643239027687,-0.00883326428021509,0.003109405547203168,0.009379375720117336,-0.005653320977917563,0.025171074709846118,0.03812136378088128,0.023729449512726892,0.024065935736338202
272,11.47808710001118,0.0005757181638950338,-0.06115703745055634,0.007561300620051746,-0.0036719156593282187,-0.008857450122852134,0.0032183004363543276,0.009544389250672141,-0.005549470213287819,0.025273997219064415,0.038322412213380966,0.02438317970014251,0.023609980248315336
273,11.482286300000853,0.0005599544202364273,-0.06119532927255635,0.007575430470526258,-0.003630352711300973,-0.008881181520108724,0.0033276354216364348,0.009710272931698797,-0.005442782921822815,0.025374936527994742,0.038524447282474075,0.025043465441939205,0.023147200815692052
274,11.486297100011145,0.000544371661421809,-0.061233722555455,0.007590033291576915,-0.003588071713939203,-0.008904446164803938,0.0034374018774227535,0.009877030946411654,-0.005333230879580614,0.025473863139904185,0.03872743290604408,0.025710269551393834,0.02267758059797005
275,11.49250700000266,0.0005289729956203059,-0.06127221525745221,0.007605110927225873,-0.00354506888363706,-0.008927231628252938,0.0035475910505845215,0.010044667319217116,-0.005220786027259027,0.025570747484348424,0.038931331584728564,0.0263835530740351,0.02220110223323156
276,11.496381800010568,0.0005137615473734529,-0.061310805282828285,0.007620665183430003,-0.003501340419763733,-0.008949525360995044,0.003658194060167193,0.010213185909538998,-0.005105420477270882,0.025665559914682005,0.039136104414959946,0.02706327551394326,0.0217177477667386
277,11.50023710000096,0.0004987404576671564,-0.06134949048142407,0.007636697827528316,-0.0034568825053889417,-0.008971314693548341,0.0037692018970562325,0.010382590405868468,-0.004987106519978486,0.025758270705429326,0.039341711146359926,0.027749394866301194,0.021227498553917742
278,11.50429760001134,0.00048391288400046904,-0.06138826864812444,0.007653210587687932,-0.003411691308033373,-0.008992586837191587,0.0038806054236306575,0.010552884320084988,-0.004865816630487828,0.025848850048957223,0.03954811021606042,0.028441867487794217,0.020730335091897967
279,11.508495300004142,0.00046928200045107414,-0.06142713752234525,0.007670205152348514,-0.0033657629804432084,-0.009013328884777487,0.003992395373400102,0.010724070981802603,-0.004741523476002085,0.025937268051391363,0.039755258741285555,0.02914064817225301,0.020226236887521103
280,11.511971700005232,0.0004548509977373729,-0.06146609478752383,0.007687683169665106,-0.0033190936613893786,-0.009033527811578092,0.0041045623506230965,0.010896153532626823,-0.004614199921962678,0.026023494728149153,0.03996311253941524,0.02984569036620401,0.01971518240616941
281,11.51545890000125,0.00044062308327706695,-0.06150513807061322,0.007705646246949266,-0.0032716794764916807,-0.009053170476151104,0.004217096829905564,0.011069134920674158,-0.0044838190375416,0.026107499999414287,0.04017162622833137,0.03055694609317958,0.0191971490959521
282,11.51959720000741,0.0004266014812421303,-0.061544264941580155,0.007724095950108439,-0.0032235165390653527,-0.009072243621232693,0.004329989155780021,0.011243017895695444,-0.004350354102436014,0.026189253685878492,0.04038075336096792,0.03127436586788443,0.018672113473936013
283,11.52431210000941,0.0004127894326100819,-0.06158347291290703,0.007743033803083462,-0.0031746009509873003,-0.00909073387466247,0.004443229542267308,0.01141780500475716,-0.004213778613101722,0.02626872550496064,0.04059044653875275,0.0319978988576959,0.018140051205684977
284,11.528474500009906,0.00039919019521147796,-0.06162275943909784,0.007762461287284142,-0.00312492880357996,-0.009108627750330132,0.004556808072423145,0.011593498588344272,-0.004074066288153275,0.02634588506723528,0.040800657491774195,0.03272749273154082,0.01760093715916855
285,11.532405900012236,0.00038580704377355276,-0.061662121916188334,0.007782379841022854,-0.0030744961785111767,-0.009125911649147063,0.004670714697869017,0.011770100776733754,-0.003931191075902326,0.02642070187311723,0.041011337128870985,0.03346309341237579,0.01705474547473711
286,11.537959300010698,0.00037264326995994115,-0.06170155768126035,0.0078027908589460675,-0.0030232991487093804,-0.009142571860058063,0.004784939238310112,0.01194761348652994,-0.0037851271618949646,0.026493145309894314,0.041222435578763476,0.03420464536791544,0.016501449637923674
287,11.542217700000036,0.00035970218240641706,-0.06174106401196069,0.007823695691463779,-0.002971333779293379,-0.009158594561078034,0.004899471381040582,0.012126038417393192,-0.003635848973939757,0.026563184649040564,0.04143390223686223,0.0349520916214977,0.01594102256978991
288,11.545996300003026,0.00034698710675258755,-0.06178063812602441,0.007845095644176769,-0.0029185961285157808,-0.009173965820347126,0.005014300680438275,0.012305377048979419,-0.0034833311895512663,0.026630789044029057,0.041645685804944065,0.035705373428898,0.015373436708981631
289,11.55097540000861,0.00033450138566948546,-0.061820277180802824,0.00786699197730167,-0.002865082248719214,-0.009188671597231692,0.005129416557451122,0.012485630638011338,-0.003327548743768657,0.026695927528353623,0.041857734305397985,0.03646443034268786,0.014798664081893136
290,11.556231599999592,0.0003222483788830068,-0.06185997827279628,0.007889385905093792,-0.0028107881873050385,-0.009202697743446946,0.005244808299074781,0.012666800215341,-0.0031684768360435095,0.02675856901394753,0.04206999505476465,0.03722920008312316,0.01421667638345859
291,11.561845600008382,0.00031023146319313907,-0.061899738437191855,0.007912278595267675,-0.002755709987714927,-0.009216030004217387,0.005360465057825367,0.012848886582792568,-0.0030060909391732477,0.02681868228990279,0.04228241460665495,0.0379996183332272,0.01362744498657929
292,11.569573000000672,0.0002984540324889231,-0.06193955464740617,0.007935671168415367,-0.0026998436904268393,-0.0092286540194766,0.005476375851206046,0.01303189030973198,-0.00284036680795832,0.026876236020970234,0.04249493873895276,0.03877561860949343,0.013030941001467275
293,11.573165500012692,0.0002869194977590815,-0.06197942381463343,0.007959564697422367,-0.0026431853339662238,-0.009240555325102427,0.005592529561166809,0.013215811729799224,-0.0026712804892520528,0.026931198746791233,0.04270751254961353,0.03955713218649858,0.012427135514042396
294,11.576636700003291,0.00027563128709824945,-0.06201934278739891,0.00798396020688124,-0.002585730955930205,-0.009251719354203542,0.0057089149335644305,0.013400650938305173,-0.002498808331268764,0.026983538882456228,0.042920080605419096,0.040344088258402314,0.011815999868925006
295,11.58205190001172,0.00026459284570875944,-0.06205930835111809,0.008008858672502898,-0.0025274765940212635,-0.009262131438434996,0.005825520577627068,0.013586407790248304,-0.0023229269922391384,0.02703322472017996,0.04313258702982927,0.04113641370203789,0.011197505965839417
296,11.58690550000756,0.0002538076358979468,-0.062099317227661543,0.008034261020525589,-0.0024684182870885487,-0.009271776809359531,0.005942334965428687,0.01377308189847009,-0.0021436134517639482,0.02708022443241932,0.04334497550313995,0.041934032710262525,0.010571626547990837
297,11.591156900001806,0.00024327913707094335,-0.06213936607492577,0.008060168127121644,-0.0024085520761774853,-0.009280640599861154,0.006059346431380577,0.013960672631673075,-0.001960845022635288,0.027124506076038588,0.04355718927776312,0.0427368669968278,0.009938335309761102
298,11.595035800011829,0.00023301084571891975,-0.062179451486410305,0.008086580817802072,-0.002347874005588199,-0.00928870784560852,0.006176543171741745,0.014149179112708216,-0.0017745993604213288,0.02716603759635719,0.043769171343612794,0.04354483625986861,0.009297606802428145
299,11.598984399999608,0.00022300627540274023,-0.06221956999080123,0.00811349986681908,-0.0022863801239399115,-0.009295963486551272,0.00629391324414538,0.014338600218020983,-0.0015848544712855298,0.027204786830500857,0.04398086474976093,0.044357858580637795,0.008649416321071149
300,11.602678300012483,0.00021326895673201443,-0.06225971805156115,0.00814092599656658,-0.0022240664852341487,-0.009302392368450943,0.006411444567138185,0.014528934578716061,-0.001391588718128494,0.027240721510472864,0.044192212852020324,0.04517585088715788,0.007993739904481736
301,11.607105200004298,0.0002038024373395717,-0.06229989206652595,0.008168859876978731,-0.0021609291499099428,-0.009307979244430317,0.00652912491973336,0.014720180582141225,-0.0011947808244037491,0.027273809266504426,0.04440315916870409,0.045998728835510275,0.00733055457498145
302,11.61136140000599,0.00019461028185140174,-0.06234008836750814,0.00819730212492659,-0.002096964185893364,-0.009312708776537284,0.006646941940978857,0.014912336371706579,-0.000994409881284621,0.027304017632196646,0.04461364683504919,0.04682640563496614,0.0066598389366952955
303,11.615771500000848,0.00018569607185206667,-0.06238030321990711,0.008226253303612919,-0.002032167669654283,-0.009316565537356086,0.006764883129554772,0.015105399843757623,-0.0007904553616244924,0.027331314053036748,0.04482361807370955,0.04765879095936986,0.005981573897732838
304,11.61979200001224,0.00017706340584551703,-0.06242053282232642,0.008255713921965361,-0.001966535687282904,-0.00931953401169171,0.006882935843415125,0.015299368642822435,-0.000582897136523403,0.02735566589777574,0.04503301408665204,0.04849579103339159,0.0052957430500976885
305,11.623980600008508,0.0001687158992112084,-0.062460773306198564,0.008285684434028162,-0.001900064335587564,-0.00932159859832418,0.007001087299483496,0.015494240157551303,-0.0003717154885435556,0.027377040470225,0.04524177532570158,0.04933730926847472,0.004602332591566935
306,11.628137300009255,0.00016065718415543838,-0.0625010207354174,0.00831616523835271,-0.0018327497232063254,-0.009322743611807063,0.007119324573396667,0.015690011518299945,-0.00015689112278478783,0.027395405019959396,0.045449841794883254,0.05018324667229721,0.003901331201734581
307,11.63223790000484,0.00015289090965786516,-0.06254127110597847,0.008347156677387044,-0.0017645879717256448,-0.009322953284317387,0.007237634599292668,0.015886679595679735,6.159482343543977e-05,0.02741072675304357,0.04565715317562093,0.051033502377013665,0.0031927300689420118
308,11.636642000012216,0.00014542074141318524,-0.06258152034562742,0.008378659036864569,-0.0016955752168044819,-0.009322211767537732,0.007356004169647042,0.01608424099922196,0.00028376077406771057,0.02742297284296758,0.04586364882622596,0.05188797397353952,0.0024765229926919504
309,11.640534700010903,0.0001382503617679458,-0.06262176431351651,0.008410672545192148,-0.0016257076093045026,-0.009320503134562398,0.007474419935155312,0.01628269207592362,0.0005096247075370612,0.0274321104422575,0.04606926777391599,0.0527465575545261,0.0017527066396817459
310,11.644592100012233,0.0001313834696524637,-0.06266199879986956,0.008443197372837798,-0.0015549813164267444,-0.009317811381838155,0.007592868404669498,0.016482028908842785,0.0007392041505997195,0.027438106695621786,0.04627394877563829,0.05360914788670298,0.001021280705398614
311,11.648784800010615,0.0001248237805078231,-0.06270221952565516,0.008476233631718242,-0.001483392522853948,-0.009314120431123457,0.007711335945194098,0.016682247316169577,0.0009725161730376135,0.02744092875295717,0.04647763048332606,0.05447563858354613,0.00028224771476155453
312,11.653006500011545,0.00011857502620793099,-0.06274242214226856,0.008509781374586562,-0.0014109374318952437,-0.009309414131474994,0.007829808781934908,0.01688334285124843,0.0012095773830060241,0.027440543780773676,0.04668025162717571,0.055345922417853514,-0.0004643872285035827
313,11.657322900005964,0.00011264095497663105,-0.06278260223122208,0.008543840594420178,-0.0013376122666282917,-0.00930367626124709,0.00794827299839365,0.017085310803231595,0.001450403924427047,0.027436918973036472,0.04688175100574669,0.05621989117069235,-0.001218616360974261
314,11.661179300004733,0.00010702533129989717,-0.06282275530384414,0.00857841122380932,-0.0012634132710383254,-0.009296890530100754,0.008066714536510405,0.01728814619701593,0.0016950114710329702,0.02743002156328933,0.04708206721954743,0.05709743483385927,-0.001980428911880628
315,11.667558000001009,0.00010173193583311218,-0.06286287680098714,0.008613493134346225,-0.0011883367111608372,-0.009289040581054507,0.008185119196862925,0.01749184379159602,0.0019434152168733307,0.027419818838498287,0.04728113840468202,0.057978441221871284,-0.0027498108931621685
316,11.671512200002326,9.676456530339484e-05,-0.06290296209274415,0.008649086136015345,-0.001112378876234842,-0.009280109992575409,0.008303472638928599,0.017696398077701132,0.002195629867008004,0.02740627815298788,0.047478902260160764,0.05886279610128654,-0.0035267452285457244
317,11.674777000007452,9.212703240692062e-05,-0.06294300647817484,0.0086851899765848,-0.0010355360798659677,-0.009270082280710244,0.008421760381404098,0.01790180327638415,0.0024516696291308885,0.027389366941170265,0.04767529635434728,0.059750383492437505,-0.004311211996071561
318,11.678411400003824,8.782316570120589e-05,-0.06298300518504059,0.008721804340999341,-0.0009578046611919012,-0.00925894090124887,0.008539967802577252,0.01810805333930455,0.0027115482068683283,0.027369052729387364,0.04787025839196079,0.06064108575572978,-0.005103188498386288
319,11.682971900008852,8.385680949236561e-05,-0.06302295336954905,0.00875892885077502,-0.0008791809860430362,-0.009246669251913269,0.008658080140748946,0.018315141949622808,0.00297527879214795,0.02734530314803302,0.04806372609388086,0.06153478320372664,-0.00590264911166859
320,11.686449100001482,8.023182371737585e-05,-0.06306284611610823,0.008796563063395796,-0.0007996614481001972,-0.009233250674586795,0.008776082494709665,0.01852306252124553,0.0032428740551476076,0.027318085944699606,0.048255636696416734,0.062431353626678,-0.0067095651724295
321,11.690703800006304,7.695208382133501e-05,-0.06310267843709025,0.008834706471712315,-0.0007192424700618038,-0.009218668457590005,0.008893959824274909,0.018731808195396264,0.0035143461325673675,0.02728736899727761,0.04844592650081634,0.06333067171041414,-0.007523905077283663
322,11.694705000001704,7.402148062964839e-05,-0.0631424452726051,0.008873358503343141,-0.0006379205048312051,-0.009202905838011173,0.009011696950874844,0.018941371835970847,0.003789706612552222,0.02725312032624077,0.04863453081046359,0.06423260879952916,-0.008345634420417532
323,11.699062100000448,7.144392021503731e-05,-0.06318214149028452,0.008912518520078634,-0.0005556920367239486,-0.009185946004112312,0.009129278558195794,0.01915174602556594,0.004068966520919269,0.027215308106558676,0.048821384136484534,0.06513703358702953,-0.009174716066227247
324,11.702977000008104,6.922332375929946e-05,-0.06322176188507651,0.008952185817287711,-0.0004725535826894062,-0.0091677720977786,0.009246689192872757,0.01936292306260969,0.004352136312035236,0.027173900679354705,0.049006420420353754,0.06604381237292947,-0.01001111009550031
325,11.707131200004367,6.736362740976981e-05,-0.0632613011790504,0.008992359623327706,-0.00038850169354281825,-0.009148367217003184,0.009363913265231548,0.019574894959312382,0.004639225857276517,0.027128866564283333,0.04918957321719053,0.06695280876261038,-0.010854773614158758
326,11.712629900008324,6.586878213044274e-05,-0.06330075402121278,0.00903303909895754,-0.0003035329552046154,-0.009127714418436239,0.009480935050088197,0.01978765344037978,0.004930244433302167,0.027080174472839474,0.04937077585771891,0.06786388409787505,-0.011705660607534604
327,11.716254700004356,6.474275354773202e-05,-0.06334011498733458,0.009074223336754485,-0.00021764398994357227,-0.00910579671997103,0.00959773868760601,0.02000118994236223,0.005225200714235897,0.027027793321994068,0.04954996154797267,0.06877689750015573,-0.012563721913682052
328,11.720609600000898,6.398952179085887e-05,-0.06337937857978934,0.009115911360534733,-0.00013083145762174907,-0.009082597103360483,0.0097143081842127,0.020215495613228905,0.005524102760312153,0.026971692247733856,0.049727063372510226,0.0696917053745898,-0.013428905255553989
329,11.724729700013995,6.361308132686231e-05,-0.06341853922740291,0.009158102124778078,-4.3092056941321816e-05,-0.009058098516901274,0.009830627413574365,0.020430561311744682,0.005826958005776026,0.026911840618419138,0.04990201421722018,0.07060816179809869,-0.014301155200519696
330,11.728198000011616,6.361744079022149e-05,-0.06345759128531486,0.009200794514056896,4.5577473305095516e-05,-0.009032283878154886,0.009946680117627952,0.020646377606377837,0.006133773250880215,0.026848208048673095,0.0500747466502078,0.07152611875657727,-0.015180413071691566
331,11.73235950000526,6.400662280707003e-05,-0.06349652903485167,0.00924398734246974,0.00013518035297818958,-0.009005136076700797,0.010062449907675164,0.020862934773648426,0.006444554651832972,0.0267807644135052,0.050245192800406825,0.0724454259291805,-0.016066616936917934
332,11.7362584000075,6.478466381397107e-05,-0.06353534668341194,0.00928767935307977,0.0002257197593273643,-0.008976637976944334,0.010177920265536874,0.021080222795987855,0.006759307710932467,0.026709479862295587,0.050413284253705726,0.07336593081776016,-0.01695970166271916
333,11.74076810000406,6.595561387121249e-05,-0.06357403836436382,0.009331869217358311,0.0003171988257159977,-0.008946772420955044,0.010293074544767784,0.02129823135919035,0.007078037267632366,0.02663432483245274,0.050578951957855924,0.07428747859602229,-0.01785959900593749
334,11.744580300000962,6.75235364705751e-05,-0.06361259813695469,0.009376555534633773,0.0004096206403348532,-0.008915522231351695,0.010407895971928764,0.02151694984945145,0.007400747487373736,0.02655527006260651,0.05074212612750415,0.07520991223877767,-0.018766237751271588
335,11.748719600000186,6.949250833751877e-05,-0.06365101998623356,0.009421736831546195,0.0005029882449017653,-0.00888287021423708,0.010522367647915424,0.021736367349999487,0.007727441853766645,0.026472286605078256,0.05090273616962751,0.07613307293149692,-0.019679543875497574
336,11.753042500000449,7.186661922772295e-05,-0.06368929782298606,0.009467411561507636,0.000597304633345965,-0.008848799162150523,0.010636472549338133,0.02195647263749023,0.008058123160958396,0.026385345837655883,0.0510607106801438,0.0770567994452749,-0.020599440660573547
337,11.757092200001352,7.464997171791252e-05,-0.06372742548368232,0.009513578104168637,0.0006925727504766345,-0.00881329185706858,0.010750193529952263,0.022177254178609086,0.008392793500418216,0.026294419475087375,0.05121597759055665,0.07798092809364669,-0.02152584883675721
338,11.761076500013589,7.784668099090189e-05,-0.0637653967304379,0.00956023476489096,0.0007887954906378949,-0.008776331073471656,0.010863513322137442,0.022398700127731992,0.008731454252932619,0.026199479579620072,0.05136846450302468,0.07890529365949504,-0.022458686835709556
339,11.765281900006812,8.146087461480724e-05,-0.06380320525098813,0.009607379774226823,0.0008859756963571631,-0.008737899581413822,0.010976414538418808,0.02262079832642077,0.009074106083393528,0.02610049857030877,0.05151809902059652,0.07982972928736827,-0.023397870984384353
340,11.769788700010396,8.549669231641975e-05,-0.06384084465867555,0.00965501128740477,0.0009841161569957822,-0.008697980149634433,0.011088879673026634,0.022843536303935447,0.009420748931863858,0.02599744923188084,0.05166480868481144,0.08075406618165411,-0.0243433155780634
341,11.773888200012152,8.99582857487667e-05,-0.0638783084924511,0.00970312738382238,0.0010832196074018023,-0.00865655554870509,0.01120089110349412,0.02306690127619084,0.009771382005759497,0.02589030472341371,0.051808520454741526,0.08167813334789172,-0.02529493286411579
342,11.777882900001714,9.484981825285199e-05,-0.06391559021688878,0.009751726066545934,0.0011832887265516012,-0.008613608554208764,0.011312431092291953,0.023290880141770613,0.010126003768681231,0.025779038587340212,0.05194916024796193,0.08260175707530262,-0.026252633006747992
343,11.781756200012753,0.00010017546461348824,-0.06395268322221424,0.009800805261817227,0.0012843261361682487,-0.00856912194998319,0.011423481788503852,0.023515459476920356,0.01048461192812861,0.025663624758430422,0.05208665307851972,0.08352476119550187,-0.02721632418158776
344,11.785092900012389,0.0001059394108091075,-0.06398958082434748,0.00985036281856771,0.0013863343993198941,-0.008523078531406074,0.01153402522953868,0.023740625532752944,0.010847203426565727,0.02554403757198033,0.05222092378366871,0.08444696796654694,-0.028185912731922825
345,11.79004310000164,0.00011214585375549107,-0.0640262762649598,0.009900396507940088,0.0014893160190140007,-0.00847546110871563,0.0116440433428767,0.023966364236516633,0.011213774436768461,0.02542025177144462,0.05235189794283459,0.08536819893506827,-0.02916130329516037
346,11.794188500003656,0.000118799001043442,-0.06406276271154512,0.009950904022817536,0.0015932734368066825,-0.008426252510335967,0.011753517947847594,0.0241926611967353,0.011584320360334374,0.025292242515533424,0.05247950252688337,0.08628827500085966,-0.03014239888652227
347,11.797682500007795,0.00012590307067050712,-0.06409903325750574,0.01000188297736065,0.001698209031441322,-0.008375435586210485,0.011862430757437986,0.024419501710082676,0.011958835823587663,0.025159985385122423,0.05260366593118137,0.08720701617992209,-0.031129100907255663
348,11.80113930000516,0.00013346229076689468,-0.06413508092225237,0.010053330906552266,0.0018041251175172635,-0.008322993211162625,0.011970763380129134,0.024646870766808052,0.012337314674043044,0.025023456390278705,0.05272431731641992,0.08812424177687629,-0.03212130922253494
349,11.805590800009668,0.0001414808993157011,-0.0641708986513189,0.01010524526575029,0.0019110239441752792,-0.008268908288259798,0.012078497321765122,0.02487475305191882,0.012719749977799413,0.02488263197649823,0.05284138539297298,0.08903976971664981,-0.03311892254679367
350,11.811143000013544,0.00014996314386747815,-0.06420647931649157,0.01015762343024864,0.0020189076937764732,-0.008213163752196637,0.012185613987444402,0.02510313294010963,0.013106134010233141,0.0247374890284045,0.052954796964695725,0.08995341533726649,-0.03412183907997269
351,11.81566730000486,0.00015891328124905264,-0.06424181571595282,0.010210462694846403,0.0021277784805439634,-0.00815574257273929,0.012292094683419926,0.025331994484371286,0.013496458242967998,0.02458800487049231,0.05306447592984577,0.09086499113108809,-0.035129957013848495
352,11.818994800007204,0.00016833557726636514,-0.06427690057444028,0.010263760273425196,0.002237638349143428,-0.008096627758221175,0.01239792061899711,0.025561321402293294,0.013890713332334185,0.0244341572664545,0.053170343430524895,0.09177430706832665,-0.036143174669470486
353,11.823523000013664,0.00017823430640103328,-0.06431172654342085,0.010317513298534706,0.002348489273206515,-0.008035802359086928,0.012503072908428153,0.025791097065963112,0.01428888910913165,0.024275924418738975,0.05327231889045684,0.09268117115748749,-0.03716139037335547
354,11.82770540000638,0.00018861375150044078,-0.06434628620128016,0.010371718820986406,0.002460333153824176,-0.007973249471476547,0.012607532572806172,0.02602130449722946,0.014690974571928295,0.024113284968944482,0.05337032084812401,0.09358539007035803,-0.03818450234427026
355,11.831945400001132,0.00019947820346129133,-0.0643805720535277,0.01042637380945545,0.0025731718180291734,-0.007908952240827206,0.012711280541962945,0.026251926364795345,0.015096957882219793,0.023946217998355213,0.05346426700031878,0.094486768948213,-0.039212408782016706
356,11.836687300004996,0.00021083196090659477,-0.06441457653301734,0.010481475150090777,0.0026870070172643145,-0.007842893865499191,0.01281429765636766,0.026482944979857405,0.015506826356054467,0.023774703027569948,0.05355407393215258,0.09538511105695457,-0.04024500802656056
357,11.84053010000207,0.0002226793298559948,-0.06444829200018379,0.010537019646133402,0.002801840425827308,-0.007775057600450035,0.012916564669021453,0.02671434229086769,0.015920566456215392,0.02359872001566266,0.05363965713741713,0.0962802181964013,-0.041282198593119136
358,11.844975700005309,0.0002350246233893272,-0.06448171074329484,0.010593004017542875,0.0029176736392937668,-0.007705426760927951,0.013018062247348909,0.026946099879348817,0.016338163787379307,0.02341824935950869,0.05372093131408992,0.09717189076510781,-0.04232387918805203
359,11.848911300010514,0.0002478721613033309,-0.06451482497871967,0.010649424900631905,0.00303450817292593,-0.0076339847261877695,0.013118770975086786,0.027178198957207307,0.0167596030888584,0.023233271892808143,0.053797810648455555,0.09805992756652601,-0.0433699487468566
360,11.85411140001088,0.0002612262697614661,-0.06454762685121325,0.010706278847709132,0.0031523454600724684,-0.007560714943247046,0.01321867135416708,0.027410620365002004,0.017184868228085515,0.02304376888508399,0.05387020902880117,0.09894412606744958,-0.04442030634254145
361,11.858242500005872,0.0002750912809368084,-0.064580108434217,0.010763562326730003,0.0032711868505622553,-0.007485600930658249,0.013317743806597102,0.02764334457110258,0.017613942195587484,0.022849722041496618,0.05393804027475717,0.09982428269989412,-0.04547485107496604
362,11.861753700010013,0.0002894715326479981,-0.06461226173017584,0.010821271720955783,0.0033910336090969048,-0.007408626282308269,0.013415968676340935,0.027876351671938204,0.01804680710107694,0.022651113502797426,0.05400121823447879,0.10070019314140434,-0.046533482205675485
363,11.866109100010362,0.0003043713679882542,-0.0646440786708716,0.010879403328620677,0.003511886913646691,-0.007329774671224356,0.013513326231199115,0.028109621391995177,0.018483444170845985,0.022447925843979148,0.054059656395039755,0.10157165205627361,-0.04759609961599171
364,11.869653800007654,0.0003197951349474732,-0.06467555111777294,0.010937953362607064,0.003633747853843065,-0.00724902985339613,0.013609796664678436,0.02834313308070152,0.018923833741623534,0.022240142070274034,0.05411326704246886,0.10243845281541096,-0.04866260440526566
365,11.873964800004616,0.00033574718602736366,-0.06470667086240181,0.010996917950128774,0.0037566174293476745,-0.007166375671634556,0.013705360097837072,0.028576865705171886,0.01936795525555017,0.02202774561063852,0.05416196059964292,0.10330038771180043,-0.04973289927353797
366,11.87904189999972,0.0003522318778494617,-0.06473742962671662,0.011056293132422249,0.003880496548182236,-0.007081796059437349,0.013799996581098128,0.028810797841375146,0.01981578725589588,0.021810720310447305,0.05420564561784241,0.10415724785271538,-0.050806888542918066
367,11.882447700001649,0.00036925357075584476,-0.06476781906351213,0.011116074864445474,0.00400538602502129,-0.00699527504488492,0.013893686096031678,0.02904490766680639,0.02026730738110422,0.02158905042479342,0.054244229203722016,0.10500882331075774,-0.05188447792339886
368,11.886496400009491,0.00038681662840240623,-0.06479783075683623,0.011176259014584534,0.004131286579458801,-0.006906796754557212,0.013986408557110466,0.029279172955341222,0.020722492361814223,0.0213627206132044,0.05427761742925298,0.10585490359801554,-0.05296557422450349
369,11.89118980000785,0.00040492541734460163,-0.06482745622242367,0.011236841364367704,0.0042581988342564785,-0.006816345417455356,0.014078143813446317,0.029513571073447424,0.021181318018998703,0.02113171593543214,0.05430571557573022,0.10669527755825302,-0.05405008518515004
370,11.89495370000077,0.0004235843066155984,-0.06485668690814668,0.01129781760818699,0.004386123313577669,-0.006723905368934582,0.01416887165050949,0.02974807897714615,0.02164375926005526,0.02089602184763813,0.05432842828605284,0.10752973336693314,-0.055137919344706146
371,11.898957600002175,0.00044279766729677245,-0.06488551419448267,0.011359183353027075,0.0045150604412094375,-0.006629461054659633,0.014258571791832146,0.02998267320953846,0.02210979007694479,0.020655624199296695,0.054345659681503164,0.10835805885464755,-0.05622898595408342
372,11.90299740000046,0.0004625698720805066,-0.06491392939499903,0.011420934118201564,0.004645010538775102,-0.006532997034553743,0.014347223900700966,0.03021732989877486,0.022579383545075167,0.02041050923014787,0.054357313453747017,0.10918004103283417,-0.05732319511017563
373,11.907358600001317,0.0004829052948252531,-0.06494192375685487,0.011483065335096543,0.0047759738239387855,-0.006434497986763691,0.014434807581834306,0.030452024756376213,0.02305251181734452,0.02016066356593985,0.05436329294198189,0.10999546581341188,-0.05842045790421312
374,11.912089000004926,0.0005038083101028287,-0.0649694884613201,0.011545572346921313,0.004907950408603446,-0.006333948711660214,0.014521302383038049,0.03068673307586941,0.023529146120604093,0.01990607421410088,0.054363501192316734,0.11080411854781982,-0.05952068649189181
375,11.915676900011022,0.0005252832927379187,-0.06499661462431171,0.01160845040846624,0.005040940297103652,-0.006231334135833605,0.014606687796845397,0.03092142973162101,0.024009256754355897,0.019646728558876166,0.054357840991288084,0.11160578407015881,-0.06062379424958976
376,11.920123100004275,0.0005473346173397671,-0.06502329329694732,0.011671694685867645,0.005174943384393546,-0.006126639316105366,0.014690943262130728,0.031156089177762317,0.02449281308758806,0.019382614355650918,0.05434621487350286,0.11240024658934092,-0.06172969585247697
377,11.926029900001597,0.0005699666578260341,-0.06504951546611615,0.0117353002563796,0.005309959454230331,-0.006019849443551136,0.014774048165700368,0.03139068544708899,0.02497978355654125,0.019113719725412804,0.05432852510059481,0.11318728992624617,-0.06283830734471382
378,11.930310300012934,0.000593183786938802,-0.06507527205506725,0.011799262108152547,0.005445988177352734,-0.005910949847531627,0.014855981843858636,0.031625192149804436,0.025470135663591763,0.01884003314846886,0.054304673621366276,0.11396669759990738,-0.06394954616355562
379,11.934380400009104,0.0006169903757527047,-0.06510055392401529,0.01186357514001861,0.005583029109653646,-0.005799925999725195,0.014936723583944366,0.03185958247207525,0.025963835975762118,0.018561543458699828,0.05427456201624722,0.11473825256889972,-0.06506333100198085
380,11.938021699999808,0.0006413907931751543,-0.06512535187076365,0.011928234161283495,0.005721081690346111,-0.005686763518171643,0.015016252625847337,0.03209382917429504,0.02646085012137116,0.01827823983846319,0.05423809142184153,0.11550173736068668,-0.06617958179259067
381,11.942296200009878,0.0006663894054386353,-0.0651496566313451,0.011993233891524882,0.005860145240120973,-0.005571448171333708,0.015094548163500785,0.03232790458898837,0.026961142789661493,0.017990111812986535,0.05419516246351827,0.11625693452423143,-0.06729821978560128
382,11.946807900007116,0.0006919905755850237,-0.06517345888067994,0.012058568960397222,0.006000218959294767,-0.005453965882144088,0.01517158934634943,0.03256178061849251,0.027464677731357686,0.017697149244597175,0.054145675200316386,0.11700362634977407,-0.0684191676460099
383,11.950799600002938,0.0007181986629418881,-0.06519674923325161,0.012124233907442803,0.006141301925947349,-0.0053343027320621045,0.01524735528079215,0.032795428732385695,0.027971417755874108,0.017399342326276507,0.05408952907620926,0.11774159465335145,-0.06954234956132256
384,11.95490170000994,0.0007450180225907285,-0.06521951824379994,0.012190223181908997,0.006283393094047584,-0.005212444965144841,0.015321825031594365,0.03302881996474803,0.02848132473001256,0.017096681574959458,0.05402662299013041,0.11847062105699524,-0.07066769115800037
385,11.958351000008406,0.0007724530048270938,-0.06524175640803186,0.012256531142571529,0.006426491291567322,-0.005088378992115052,0.015394977623272849,0.03326192491219441,0.028994359577589487,0.016789157825810294,0.05395685559851987,0.11919048709646224,-0.07179511931275939
386,11.963217700002131,0.0008005079546125353,-0.06526345416334972,0.012323152057563678,0.006570595218590099,-0.004962091394435516,0.015466792041458684,0.03349471373374777,0.029510482279063825,0.016476762227151408,0.053880125668463064,0.11990097450155979,-0.07292456213654122
387,11.967515200012713,0.0008291872110183936,-0.06528460188959728,0.012390080104211318,0.006715703445424027,-0.004833568928380162,0.015537247234238294,0.03372715615192122,0.030029651873584695,0.016159486234877538,0.05379633207418387,0.12060186534697744,-0.07405594916588759
388,11.971840100013653,0.0008584951066614581,-0.06530518990982315,0.012457309368873692,0.006861814410719828,-0.00470279852909074,0.015606322113468163,0.033959221452561,0.030551826459921612,0.015837321605732115,0.05370537337995849,0.12129294131937346,-0.07518921156208482
389,11.975734300009208,0.0008884359671315036,-0.06532520849106174,0.012524833846789808,0.0070089264195823744,-0.004569767314639917,0.01567399555605781,0.03419087848232725,0.0310769631921838,0.015510260390001961,0.05360714750487875,0.12197398335092238,-0.07632428208447892
390,11.980111900003976,0.0009190141104106437,-0.06534464784513189,0.012592647441930293,0.007157037641666973,-0.0044344625901249065,0.015740246405221436,0.03442209564564237,0.03160501827758624,0.015178294925024044,0.05350155189887109,0.1226447723091255,-0.07746109467535854
391,11.983488800004125,0.0009502338462844302,-0.0653634981294531,0.012660743966854595,0.007306146109264547,-0.0042968718517498545,0.015805053471704827,0.034652840903691626,0.03213594697812519,0.014841417831464533,0.05338848411906546,0.12330508916927109,-0.07859958380232256
392,11.987080300008529,0.0009820994757446723,-0.06538174944787939,0.01272911714257343,0.0074562497153893,-0.004156982790905004,0.015868395535004874,0.03488308177634819,0.03266970360983337,0.014499622012503923,0.05326784226427334,0.12395471499282626,-0.07973968420533964
393,11.992614800008596,0.001014615290384024,-0.06539939185155084,0.012797760598416514,0.007607346211880513,-0.00401478329825551,0.015930251344589443,0.035112785344925276,0.0332062415442689,0.014152900652300114,0.0531395247763718,0.12459343131557071,-0.08088133124150176
394,11.996476500004064,0.0010477855717824136,-0.0654164153397627,0.012866667871905544,0.007759433207513975,-0.0038702614678077477,0.015990599621103618,0.035341918252386244,0.03374551321112181,0.013801247212196742,0.05300342980063514,0.12522102010446046,-0.08202446114622583
395,12.000224000003072,0.0010816145908853231,-0.06543280986085198,0.012935832408632345,0.007912508166105597,-0.003723405600975623,0.016049419057556837,0.035570446700573445,0.03428747009933058,0.013444655426930898,0.05285945487505754,0.12583726373598597,-0.08316901083662054
396,12.005068100013888,0.0011161066073738443,-0.06544856531310178,0.0130052475621421,0.008066568404598906,-0.003574204210637238,0.016106688320496387,0.035798336447735786,0.03483206275950174,0.013083119302539302,0.05270749723140951,0.12644194523338442,-0.08431491742668357
397,12.009253100011849,0.0011512658690264442,-0.06546367154566288,0.013074906593821631,0.00822161109114732,-0.00342264602518031,0.016162386051176467,0.03602555280835706,0.03537924080707464,0.012716633116752077,0.052547454038604106,0.12703484859000277,-0.08546211788754988
398,12.01354880000872,0.0011870966110724618,-0.06547811835949292,0.013144802672792728,0.008377633243200159,-0.0032687199925315116,0.016216490866735073,0.03625206065278486,0.03592895292753317,0.01234519141983253,0.05237922207237918,0.12761575900638314,-0.0866105491983131
399,12.017210600010005,0.0012236030555373481,-0.0654918955083129,0.013214928875810583,0.008534631725581705,-0.0031124152841568863,0.016268981361370317,0.03647782440420677,0.036481146881617604,0.011968789033668657,0.05220269729603025,0.1281844625238358,-0.08776014854845055
400,12.021354900003644,0.0012607894105795758,-0.06550499269958082,0.013285278187167278,0.008692603248551116,-0.002953721299046189,0.016319836107509474,0.03670280803465911,0.03703576950737245,0.011587421050865063,0.052017774939496206,0.12874074557171045,-0.08891085331060132
401,12.02562320001016,0.001298659869819127,-0.0655173995954826,0.013355843498600318,0.00885154436584702,-0.0027926276676956195,0.01636903365697745,0.03692697506268597,0.03759276672144916,0.01120108283406952,0.051824349895895294,0.12928439509670062,-0.09006260109989926
402,12.02924950000306,0.0013372186116575202,-0.06552910581394013,0.013426617609206208,0.009011451472727213,-0.0026291242560809126,0.016416552542160016,0.03715028855277185,0.03815208352227042,0.010809770014552574,0.0516223170219571,0.12981519871380753,-0.09121532991404142
403,12.0328748000029,0.0013764697985893706,-0.06554010092963647,0.013497593225359025,0.009172320804008358,-0.00246320116961275,0.016462371277160017,0.037372711115594856,0.03871366399263642,0.010413478490324675,0.051411571324671806,0.13033294438296897,-0.09236897830044315
404,12.037126900002477,0.0014164175765054906,-0.06555037447505808,0.01356876296063398,0.00933414843210786,-0.002294848757087348,0.016506468358944346,0.03759420490907093,0.03927745130009698,0.01001220442327247,0.051192008211530624,0.13083742030124143,-0.09352348553711963
405,12.044950200011954,0.0014570660739875434,-0.06555991594155412,0.013640119335735897,0.009496930265092596,-0.0021240576146386546,0.016548822268475424,0.03781473164076775,0.03984338769862682,0.009605944235714096,0.0509635237165282,0.1313284155064169,-0.09467879175870228
406,12.048965900001347,0.001498419401594295,-0.06556871478041279,0.013711654778432539,0.009660662044741624,-0.0019508185896744722,0.01658941147182843,0.038034252570900436,0.04041141453420966,0.009194694606447387,0.05072601434147534,0.13180572028662302,-0.09583483818297057
407,12.053287000002456,0.001540481651139539,-0.06557676040395462,0.013783361623492741,0.009825339344620777,-0.0017751227847804388,0.01662821442128866,0.038252728513375224,0.04098147225005025,0.00877845246534916,0.05047937646635423,0.13226912600788662,-0.09699156728107822
408,12.05706080001255,0.001583256894961725,-0.06558404218664254,0.013855232112629207,0.009990957568154392,-0.0015969615616111476,0.016665209556422127,0.038470119833693854,0.04155350039066951,0.008357214987953587,0.05022350584894941,0.13271842481230114,-0.0981489224778204
409,12.061238900001626,0.0016267491851852335,-0.06559054946620878,0.013927258394445884,0.010157511946681802,-0.001416326544758767,0.01670037530512611,0.038686386445676776,0.042127437604510376,0.007930979592639551,0.04995829766656838,0.13315340961801927,-0.09930684749716585
410,12.06564490000892,0.0016709625529732215,-0.06559627154479829,0.013999432524389836,0.010324997537500775,-0.0012332096256216613,0.01673369008467545,0.03890148780972778,0.042703221648032905,0.00749974394086006,0.04968364692999521,0.13357387476599486,-0.10046528584232152
411,12.071673500002362,0.0017159010077720048,-0.06560119769012906,0.014071746464707652,0.010493409221909025,-0.0010476029662376508,0.0167651323027751,0.03911538293313152,0.043280789393904416,0.007063505938819008,0.04939944881299989,0.1339796161062167,-0.1016241805797163
412,12.07593460001226,0.0017615685365469926,-0.06560531713666871,0.014144192084406404,0.01066274170325021,-0.0008594990030819135,0.016794680358620893,0.03932803037116329,0.043860076835839215,0.006622263739565804,0.04910559879299405,0.13437043054499567,-0.10278347423415897
413,12.079965900004026,0.0018079691030101978,-0.06560861908682751,0.014216761159219214,0.010832989504965033,-0.0006688904508584577,0.01682231264397017,0.03953938822860105,0.044441019092879744,0.0061760157455773975,0.048801992793847684,0.13474611608806927,-0.10394310860302258
414,12.08410810001078,0.0018551066468393434,-0.06561109271216772,0.014289445371575463,0.011004146968650298,-0.0004757703062610566,0.01684800754422486,0.0397494141620684,0.045023550414608496,0.005724760612457337,0.04848852741581566,0.13510647173282508,-0.10510302448932048
415,12.088940700006788,0.0019029850828886138,-0.06561272715462915,0.014362236310575704,0.011176208252130235,-0.00028013185171971893,0.01687174343953403,0.039958065383531874,0.045607604184498565,0.005268497253822574,0.04816510023287338,0.13545129725272356,-0.1062631614455776
416,12.092563600002904,0.0019516083003911081,-0.0656135115277708,0.014435125471971394,0.011349167327545756,-8.196865913269309e-05,0.01689349870591916,0.0401652986652113,0.04619311292326415,0.0048072248472140755,0.04783161011655822,0.13578039343443243,-0.10742345756661004
417,12.096576100011587,0.002000980162153093,-0.06561343491802862,0.014508104258149522,0.01152301797946818,0.00011872540641599294,0.016913251716427748,0.04037107034587332,0.046780008294258636,0.004340942840772889,0.047487957477014904,0.13609356229339717,-0.1085838495055796
418,12.100865400003386,0.0020511045037401683,-0.06561248638598932,0.014581163978122298,0.01169775380304283,0.00032195618297113686,0.01693098084231622,0.04057533633782306,0.047368221108686485,0.003869650959012131,0.047134044279284075,0.13639060698761366,-0.10974427265715546
419,12.104731500003254,0.0021019851326554914,-0.0656106549676799,0.014654295847522003,0.011873368202163127,0.000527729208033825,0.016946664454253357,0.040778052133338315,0.04795768133025677,0.0033933492079115273,0.04676977383671604,0.13667133224877911,-0.11090466106607298
420,12.109058800007915,0.002153625827510177,-0.06560792967587316,0.014727490988601067,0.012049854387669746,0.0007360497149162183,0.016960280923547223,0.04097917280987742,0.04854831808411784,0.0029120378814789594,0.04639505062375175,0.13693554444696743,-0.11206494703084185
421,12.113398700006655,0.0022060303371859704,-0.06560429950140875,0.014800740430237505,0.012227205375569674,0.0009469226291461627,0.016971808623405228,0.0411786530348969,0.04914005966206933,0.0024257175702668116,0.046009780300196125,0.13718305083610674,-0.11322506073728263
422,12.11730019999959,0.002259202379990272,-0.06559975341452971,0.014874035107945884,0.012405413985276968,0.0011603525648669784,0.016981225930234593,0.0413764470712689,0.049732833524981854,0.001934389171097767,0.04561386983472132,0.13741365985578888,-0.1143849301481459
423,12.1213975000137,0.002313145642803619,-0.06559428036623459,0.014947365863893987,0.012584472837878589,0.0013763438212629632,0.016988511224986402,0.04157250878316524,0.05032656631061499,0.0014380538965342443,0.045207227561289656,0.1376271817133408,-0.11554448120246835
424,12.126115100007157,0.002367863780219735,-0.06558786928964484,0.015020723446925378,0.012764374354425963,0.0015949003790266861,0.01699364289453782,0.04176679164196208,0.0509211838410629,0.0009367132828828433,0.04478976315244289,0.13782342829756009,-0.11670363805001574
425,12.1306295000104,0.0024233604136782634,-0.06558050910138749,0.015094098512588012,0.012945110754251803,0.0018160258968487814,0.01699659933310526,0.04195924873189327,0.05151661112982749,0.0004303691976394685,0.044361387560618804,0.138002213157182,-0.11786232302973744
426,12.13510590000078,0.00247963913059028,-0.0655721887029928,0.015167481623168994,0.013126674053310484,0.002039723707946315,0.016997358943690897,0.04214983275544835,0.052112772389078084,-8.097615232019032e-05,0.04392201294616866,0.13816335180268255,-0.1190204564702244
427,12.14003870000306,0.0025367034834566974,-0.06556289698230694,0.015240863247735678,0.013309056062541473,0.002265996816615263,0.01699590013956655,0.04233849603840435,0.0527095910393305,-0.0005973202115725752,0.04347155258111585,0.1383066622452107,-0.1201779564878402
428,12.144453200002316,0.002594556988979648,-0.06555262281491939,0.015314233762183245,0.013492248386253153,0.0024948478948424524,0.016992201345799353,0.04252519053439279,0.05330698972136019,-0.0011186600662127307,0.04300992082205145,0.13843196484568981,-0.12133473887894596
429,12.148774300003424,0.002653203127166932,-0.06554135506560486,0.015387583449288974,0.013676242420525682,0.0027262792789609046,0.016986241000821415,0.04270986782969746,0.0539048903045784,-0.00164499243375563,0.04253703325425433,0.13853908212078703,-0.12249071703320574
430,12.153021000005538,0.00271264534042961,-0.06552908258977966,0.015460902498773368,0.01386102935163625,0.0029602929663341006,0.016977997558042687,0.0428924791490658,0.05450321389726989,-0.0021763136524540765,0.04205280696868811,0.13862783908786908,-0.12364580185591967
