,time,x,y,z,vx,vy,vz,ax,ay,az,jx,jy,jz
0,10.197105600003852,0.00029006516146938956,0.00515603959293069,-0.04488211780501588,-0.003893317614221342,-0.026603065980094848,0.024517630729657073,0.03859784027696163,0.05332702610198613,0.0359916075716313,0.05376728950596014,0.11488861162201512,-0.018378370882809074
1,10.201326399997924,0.00027139343262250177,0.0050259134775207555,-0.044761163770804496,-0.0037029359893564436,-0.0263395429360896,0.024694329545409153,0.03886391489372,0.05389424114004883,0.035899265577055015,0.05449255124450262,0.11589583134237218,-0.019199385284067085
2,10.205617400002666,0.00025366076069864015,0.0048970895921961605,-0.04463934226903037,-0.003511237681600857,-0.026073219512498,0.024870564524677875,0.03913356886644509,0.05446642421850074,0.035802854074827084,0.05522349488794299,0.11690975898051618,-0.0200341543827841
3,10.20996880000166,0.00023687366124925424,0.004769581762566735,-0.04451665562889937,-0.003318205027574038,-0.02580407120730485,0.025046315497157454,0.03940682955539405,0.05504360740837531,0.035702305276539344,0.05595988774436856,0.1179300259401161,-0.020882749523576587
4,10.213983800000278,0.0002210387369827198,0.004643403935072246,-0.04439310627958579,-0.003123820232214025,-0.025532073365299668,0.025221561958460863,0.03968372317275439,0.05562582096194134,0.0355975510436549,0.056701495410195736,0.11895626091463028,-0.021745241978155236
5,10.218299200001638,0.00020616267839776317,0.004518570177713472,-0.04426869675187874,-0.002928065374442334,-0.025257201187050354,0.025396283068396957,0.03996427477430865,0.05621309329983374,0.03548852288707728,0.057448081929200444,0.11998809007188059,-0.02262170285756069
6,10.222603999995044,0.0001922522643889338,0.004395094680739003,-0.044143429679837164,-0.0027309224128679406,-0.02497942973793674,0.02557045764924692,0.04024850825250537,0.05680545099909266,0.035375151969160884,0.05819941016465061,0.12102513717172077,-0.023512202885804516
7,10.22624239999277,0.00017931436282395146,0.004272991757287504,-0.044017307802453116,-0.002532373191520298,-0.024698733957241842,0.025744064184061156,0.040536446331782265,0.05740291878145109,0.0352573691055055,0.05895524225504707,0.12206702362526244,-0.02441681263351422
8,10.230461600003764,0.0001673559310928163,0.004152275843985139,-0.04389033396532352,-0.002332399445599298,-0.024415088667300543,0.025917080814953367,0.0408281105661177,0.058005519501956225,0.03513510476466972,0.059715340019215524,0.12311336857894442,-0.025335602612987746
9,10.23472490000131,0.00015638401662862672,0.004032961501497891,-0.04376251112233026,-0.0021309828072323604,-0.024128468582702723,0.026089485341394637,0.04112352133833643,0.0586132741380836,0.035008289069030994,0.06047946527850352,0.12416378903841231,-0.026268643102731953
10,10.242749099998036,0.00014640575740009035,0.003915063415038506,-0.04363384233732868,-0.001928104811231219,-0.023838848319548963,0.02626125521851597,0.04142269786082865,0.05922620177957635,0.03487685179622404,0.06124738012297415,0.1252179000645046,-0.027216004373895715
11,10.246843500004616,0.00013742838237574555,0.00379859639482782,-0.04350433078584436,-0.0017237469008419425,-0.023546202404753563,0.0264323675554165,0.041725658177472744,0.05984431961948608,0.03474072237777475,0.06201884711281357,0.12627531500403152,-0.028177757289407152
12,10.251262099991436,0.00012945921195994263,0.003683575376510244,-0.04337397975677827,-0.0015178904334828176,-0.023250505285388325,0.02660279911345261,0.04203241916633442,0.06046764294628102,0.034599829894648375,0.06279362936367375,0.1273356456569066,-0.029153973493325363
13,10.256063799999538,0.000122505658400655,0.0035700154215232266,-0.04324279265412036,-0.0013105166864678334,-0.022951731338063164,0.02677252630450237,0.042342996542428485,0.06109618513652998,0.03445410307402187,0.06357149047864932,0.12839850234197556,-0.030144725126221718
14,10.259651200001828,0.00011657522616919146,0.003457931717420519,-0.043110772998671734,-0.001101606862717414,-0.02264985487834181,0.02694152518922293,0.04265740485974924,0.06172995764765766,0.03430347028763022,0.06435219431850829,0.12946349386679712,-0.031150084840004543
15,10.263826599999447,0.00011167551231186386,0.0033473395781490685,-0.042977924429775445,-0.0008911420964619403,-0.022344850170193643,0.027109771475298697,0.04297565751177332,0.06236897001033155,0.03414785954839305,0.06513550462048287,0.1305302274306859,-0.03217012603867432
16,10.26960820000386,0.00010781420677362678,0.0032382544442793614,-0.04284425070705585,-0.00067910345894754,-0.02203669143548425,0.02727724051566556,0.043297766729742344,0.06301322982026403,0.03398719850639401,0.06592118451259914,0.1315983085341446,-0.033204922929508454
17,10.27648479999334,0.0001049990926936503,0.003130691883189012,-0.042709755712166855,-0.00046547196415649283,-0.021725352863507845,0.027443907306719542,0.04362374357839103,0.06366274272970884,0.03382141444500422,0.06670899602581494,0.13266734100141142,-0.03425455063254445
18,10.281380899992657,0.00010323804667272104,0.0030246675891993893,-0.0425744434505489,-0.0002502285745550183,-0.02141080862056143,0.027609746486502915,0.04395359794943355,0.0643175124394849,0.03365043427578526,0.06749869974938841,0.13373692711858426,-0.03531908510032043
19,10.285375499996007,0.00010253903901230718,0.0029201973836650817,-0.04243831805319503,-3.3354206877717844e-05,-0.02109303285955563,0.027774732332862744,0.044287338553903495,0.06497754069183068,0.03347418453540167,0.06829005475160864,0.13480666777060024,-0.036398602511733526
20,10.28889270000218,0.0001029101339250913,0.0028172972150160365,-0.04230138377842598,0.00018517026204932925,-0.020771999729659107,0.027938838761606643,0.04462497291486093,0.06564282726377467,0.03329259138648308,0.06908281876644212,0.13587616253259135,-0.03749317841039318
21,10.292905900001642,0.00010435948971678723,0.002715983158752209,-0.042163645013674395,0.0004053639894524257,-0.020447683385974573,0.028102039324669797,0.0449665073615673,0.06631336996088796,0.03310558062300772,0.06987674851012343,0.136945009768777,-0.03860288679911386
22,10.30543320000288,0.00010689535893909989,0.0026162714173905734,-0.042025106277277915,0.0006272461607298922,-0.020120057999244614,0.028264307208323645,0.04531194702530498,0.0669891646116269,0.03291307768006682,0.07067159996594835,0.13801280678642197,-0.03972779915403391
23,10.30957209999906,0.00011052608851373091,0.002518178320364354,-0.041885772220281,0.0008508359835548285,-0.01978909776558333,0.0284256152314389,0.045661295836352034,0.06767020506259927,0.03271500764894055,0.07146712854766543,0.13907915000820575,-0.04086798347538523
24,10.317807400002494,0.0001152601198273614,0.00242172032387436,-0.04174564762824513,0.0010761526819650074,-0.0194547769162287,0.028585935843842444,0.04601455652140811,0.06835648317460154,0.03251129529619449,0.0722630891349228,0.14014363507550123,-0.042023503958753546
25,10.323611400002846,0.000121105988797554,0.0023269140106923405,-0.041604737423066744,0.0013032154904403291,-0.019117069727313172,0.028745241124768086,0.046371730600917684,0.06904798881890041,0.03230186508198748,0.073059236031858,0.1412058568469699,-0.04319442098061726
26,10.327436199993826,0.0001280723259095097,0.0022337760899162618,-0.041463046664802675,0.0015320436479664,-0.01877595052965259,0.028903502781393454,0.04673281838608884,0.06974470987325629,0.032086641179310295,0.07385532290089322,0.14226540932590834,-0.04438079106177067
27,10.330924499998218,0.0001361678562236077,0.002142323396677424,-0.041320580553502496,0.0017626563920826771,-0.01843139371855588,0.029060692147479892,0.047097818975565635,0.0704466322174905,0.03186554749265308,0.07465110268430304,0.1433218855850505,-0.04558266735646982
28,10.335161199996946,0.00014540139935364808,0.0020525728917993005,-0.04117734443104732,0.001995072952913333,-0.018083373763657554,0.029216780182092866,0.04746673025167581,0.07115373972876952,0.0316385076724351,0.07544632751894087,0.14437487774631694,-0.04680010041228569
29,10.33879719999095,0.00015578186941570777,0.0019645416614079854,-0.04103334378299471,0.0022293125471785098,-0.017731865218773762,0.029371737468383733,0.047839548876264806,0.07186601427697308,0.03140544512620189,0.07624074867608642,0.1454239770562706,-0.048033138498225256
30,10.343079600002966,0.00016731827494750662,0.0018782469164941372,-0.04088858424042947,0.002465394372184228,-0.017376842731780327,0.029525534212420226,0.04821627028635208,0.07258343572072018,0.031166283029829215,0.077034116564597,0.14646877405249834,-0.04928182762673349
31,10.34721379999246,0.00018001971879817662,0.0017937059924263141,-0.040743071581820035,0.0027033375997909366,-0.017018281054507867,0.02967814024207837,0.04859688868999613,0.07330598190437303,0.03092094433850386,0.07782618081930567,0.14750885876874914,-0.05054621162710339
32,10.351302800001577,0.00019389539798833155,0.0017109363484156352,-0.04059681173488019,0.00294316137036277,-0.016656155052649287,0.029829525005980923,0.048981397062819856,0.07403362865607975,0.030669351797205886,0.07861669048568504,0.14854382096621122,-0.05182633184563598
33,10.355586099991342,0.00020895460354034996,0.0016299555669317136,-0.04044981077843587,0.003184884786701938,-0.016290439715674145,0.029979657572492345,0.049369787145691076,0.07476634978705204,0.03041142795463726,0.07940539429468987,0.14957325038540276,-0.05312222659819354
34,10.360169199993834,0.00022520672027881238,0.0015507813530698466,-0.040302074944296745,0.0034285269079751797,-0.015921110166743246,0.030128506628794176,0.04976204944394991,0.07550411709208434,0.030147095179086137,0.08019204098955163,0.1505967369894855,-0.05443393083421194
35,10.36395270000503,0.00024266122660107395,0.001473431533869477,-0.04015361061913216,0.003674106743640557,-0.0155481416726179,0.030276040480035966,0.05015817322830207,0.07624690035122347,0.02987627567565868,0.08097637964859232,0.15161387119573533,-0.05576147577874711
36,10.36810369999148,0.00026132769421799456,0.0013979240575839626,-0.04000442434635103,0.003921643247382691,-0.015171509653558101,0.03042222704858007,0.050558146537219954,0.07699466733256354,0.02959889150566246,0.08175815994500744,0.1526242440673777,-0.05710488851655115
37,10.37214490000042,0.0002812157878648874,0.0013242769929017266,-0.03985452282798519,0.004171155311063163,-0.014791189693204313,0.030567033873343134,0.05096195618038987,0.0777473837958015,0.029314864607927316,0.0825371322789045,0.15362744743098625,-0.05846419164872566
38,10.376677299995208,0.0003023352649827741,0.001252508528118877,-0.03970391292657581,0.0044226617586896385,-0.014407157548440689,0.030710428109250502,0.051369587742411245,0.07850501349618622,0.029024116821564284,0.08331304772520073,0.15462307396077546,-0.05983940307343454
39,10.381233099993551,0.00032469597537004244,0.0011826369702633889,-0.039552601667062086,0.0046761813404026355,-0.014019389159238034,0.030852376526801454,0.05178102558573163,0.07926751818890279,0.02872656990944231,0.0840856577771758,0.15561071727633147,-0.061230535657528416
40,10.384972899992135,0.00034830786080458404,0.001114680744170956,-0.03940059623867191,0.0049317327264735075,-0.013627860658473923,0.03099284551175441,0.05219625285182471,0.08003485763398237,0.02842214558417551,0.08485471395178404,0.15658997204115183,-0.06263759687148365
41,10.389036799999303,0.0003731809546364448,0.0010486583915126294,-0.039247903996813695,0.0051893345013027895,-0.013232548381727391,0.031131801064947666,0.05261525146024504,0.08080698960165526,0.028110765535188886,0.08561996743313444,0.1575604339808736,-0.06406058851163841
42,10.392957299991394,0.000399325381350959,0.0009845885697743748,-0.03909453246496877,0.005449005157408889,-0.012833428877046424,0.031269208802250675,0.05303800210630103,0.08158386987743997,0.02779235145743635,0.08638116891563534,0.1585216997080327,-0.06549950640100204
43,10.397019700001692,0.0004267513561023014,0.0009224900511886848,-0.038940489336583714,0.005710763089403553,-0.01243047891469262,0.03140503395466712,0.053464484258567625,0.08236545226577346,0.027466825081407843,0.08713806864933733,0.15947336635134443,-0.06695434058643013
44,10.4011526999966,0.0004554691842173925,0.0008623817216183344,-0.03878578247696172,0.0059746265879561085,-0.012023675496872988,0.03153924136858122,0.053894676157005016,0.08315168859145557,0.02713410819990889,0.08789041659527022,0.160415031124617,-0.06842507579837985
45,10.405345799998033,0.00048548926067011177,0.0008042825793923179,-0.038630419925152495,0.006240613833750433,-0.011612995867470409,0.031671795506124034,0.054328554811998504,0.08394252869904115,0.026794122693547757,0.08863796264862879,0.16134629100719414,-0.06991169131999747
46,10.411897199999656,0.0005168220695257928,0.0007482117340939418,-0.03847440989584007,0.006508742891439754,-0.01119841752178141,0.031802660445670386,0.05476609600467141,0.08473792045114285,0.026446790558802044,0.0893804569380728,0.16226674263009244,-0.07141416043180748
47,10.415917599995735,0.0005494781833560045,0.0006941884053010275,-0.03831776078122777,0.006779031703606698,-0.010779918216263314,0.031931799882481085,0.0552072742888674,0.0855378097267039,0.026092033938965222,0.09011765019054173,0.16317598230624078,-0.07293244949855944
48,10.422763399998075,0.0005834682626236662,0.0006422319212781778,-0.038160481152919715,0.007051498084737576,-0.010357475978288991,0.03205917712950406,0.055652062995049996,0.08634214041959808,0.025729775161190637,0.0908492941281791,0.16407360605383367,-0.07446651667029695
49,10.427148799994027,0.0006188030550385887,0.0005923617176210784,-0.038002579763797936,0.007326159715220774,-0.009931069115907774,0.032184755118380814,0.05610043423618713,0.08715085443713215,0.025359936780208144,0.09157514182933028,0.16495920952654894,-0.07601631099063048
50,10.436351500000455,0.0006554933948835864,0.0005445973358528025,-0.03784406554989397,0.007603034135378887,-0.009500676227614932,0.03230849640067732,0.05655235891519971,0.08796389169795982,0.024982441624134873,0.09229494793238417,0.1658323879002607,-0.07758177199528031
51,10.44094000000041,0.0006935502023113465,0.0004989584219720666,-0.03768494763225386,0.007882138739540337,-0.009066276212133094,0.03243036314934084,0.05700780673285022,0.08878119012947035,0.024597212842138682,0.09300846857214953,0.16669273580425778,-0.07916282955197915
52,10.445009699993534,0.0007329844826122581,0.0004554647249533721,-0.037525235318795445,0.008163490770149068,-0.008627848278207399,0.03255031716039946,0.05746674619456574,0.08960268566502634,0.024204173951822873,0.09371546103925775,0.167539847343681,-0.08075940434169299
53,10.44875250000041,0.0007738073254533726,0.00041413609519896184,-0.03736493810615667,0.008447107311903236,-0.008185371954414069,0.03266831985488471,0.05792914461497808,0.09042831224157295,0.023803248882158658,0.09441568323595884,0.16837331624948912,-0.0823714086331111
54,10.452812599993194,0.0008160299040886087,0.0003749924829425318,-0.03720406568153392,0.008733005285909541,-0.007738827098979069,0.03278433228095319,0.058394968119396616,0.09125800179835,0.023394362013255687,0.09510889298178285,0.16919273621928763,-0.08399874669853535
55,10.463598699992872,0.0008596634745402428,0.00033805393660465863,-0.03704262792450952,0.009021201443836398,-0.007288193909599341,0.0328983151162002,0.05886418164152222,0.09209168427785196,0.02297743821520581,0.0957948472718562,0.1699977014882895,-0.08564131482895829
56,10.472159400000235,0.0009047193747516325,0.00030334060109995603,-0.03688063490886731,0.009311712362045792,-0.006833452933252023,0.03301022867016322,0.05933674891762842,0.09292928763015329,0.022552402887705377,0.09647330179494444,0.17078780749043249,-0.08729900114424372
57,10.477886599997872,0.0009512090237110162,0.00027087271609606576,-0.036718096904395515,0.009604554435689248,-0.006374585075973161,0.03312003288702511,0.05981263247953711,0.09377073782036806,0.022119182000765146,0.09714401104202276,0.17156265131260612,-0.08897168555565124
58,10.481930599999032,0.000999143920546192,0.00024067061422467745,-0.03655502437867578,0.009899743872770622,-0.005911571612593593,0.03322768734851778,0.0602917936498671,0.09461595883744087,0.021677702134701018,0.09780672896300605,0.17232183177950605,-0.09065924022681345
59,10.486392199993134,0.0010485356435899484,0.00021275471924480377,-0.036391427998857445,0.01019729668819536,-0.005444394196431234,0.033333151277018594,0.06077419254146628,0.09546487270244067,0.02122789051631198,0.09846120973513725,0.17306494929974517,-0.09236153026020841
60,10.490583399994648,0.0010993958494162391,0.00018714554415851322,-0.03622731863341619,0.01049722869782771,-0.004973034868945419,0.03343638353880967,0.061259788060214364,0.09631739947583881,0.02076967505212196,0.09910720825828215,0.1737916057064231,-0.094078414083684
61,10.494732499995736,0.001151736271847189,0.00016386368927929134,-0.03606270735389624,0.01079955551256753,-0.004497476069357641,0.0335373426475011,0.061748537909324414,0.09717345726423544,0.02030298436075778,0.09974448031475108,0.17450140420528074,-0.09580974359677454
62,10.49999989999924,0.0012055687209310375,0.0001429298402531898,-0.03589760543663534,0.011104292532449798,-0.004017700644239761,0.033635986767608594,0.062240398593716835,0.09803296222712786,0.019827747804752528,0.10037278247774868,0.17519394944171757,-0.09755536398059267
63,10.50503069999104,0.0012609050818911344,0.00012436476603292377,-0.03573202436447182,0.01141145494076441,-0.003533691857068206,0.03373227371828934,0.06273532542342083,0.09889582858429576,0.019343895524792497,0.1009918718377248,0.17586884765909438,-0.09931511334755683
64,10.509602899997844,0.0013177573140460742,0.00010818931680509148,-0.035565975828432836,0.011721057698189138,-0.0030454333977395736,0.03382616097725634,0.06323327251525812,0.0997619686241259,0.018851358474964188,0.10160150562980588,0.17652570683035557,-0.10108882268317024
65,10.51372000000265,0.001376137449701012,9.44244218707216e-05,-0.03539947172940293,0.012033115536925983,-0.0025529093920429883,0.033917605684860797,0.06373419279258155,0.10063129271229138,0.01835006845757362,0.10220144085415989,0.17716413661757793,-0.1028763159697893
66,10.5187300999969,0.0014360575930101504,8.30910874793679e-05,-0.03523252417977214,0.012347642954831555,-0.0020561044110903775,0.034006564648348774,0.06423803798322655,0.1015037092996786,0.01783995815717653,0.1027914339374092,0.17778374818198903,-0.10467741047881585
67,10.52229019999504,0.0014975299188103501,7.421039461694543e-05,-0.035065145505062754,0.012664654209533293,-0.0015550034807108963,0.03409299434627812,0.06474475861592105,0.10237912492919879,0.0173209611725251,0.10337124045959624,0.17838415401382207,-0.10649191698226604
68,10.52630009999848,0.001560566671425772,6.780349674746649e-05,-0.03489734824553394,0.012984163312524548,-0.0010495920908142385,0.03417685093308922,0.06525430401555261,0.10325744424204224,0.016793012048518154,0.10394061503478098,0.17896496785806876,-0.10831963956331497
69,10.5308068000013,0.0016251801634434352,6.389161750882397e-05,-0.03472914515776359,0.013306184023234274,-0.0005398562047235733,0.034258090243836026,0.06576662229840452,0.10413856998375987,0.016256046310010458,0.10449931148898049,0.17952580463346718,-0.11016037541197556
70,10.534803100003046,0.001691382774459557,6.249604836277314e-05,-0.034560549216206445,0.013630729843075276,-2.5782268479068162e-05,0.0343366677990892,0.06628166036917227,0.10502240300972103,0.01571000049577167,0.10504708332836943,0.18006628023504118,-0.11201391508713843
71,10.53871569999319,0.001759186949796598,6.363814619924992e-05,-0.034391573614727715,0.013957814009484565,0.000492642779882832,0.03441253881000099,0.06679936392080262,0.1059088422892538,0.015154812189719443,0.10558368428590634,0.18058601125420215,-0.11388004303569872
72,10.54293389999657,0.001828605199191011,6.733933089512597e-05,-0.034222231768111434,0.014287449489970029,0.0010154315010665858,0.03448565818351544,0.0673196774368841,0.10679778490835104,0.01459042004977474,0.10610886876271652,0.18108461473714468,-0.11575853785560096
73,10.54713730000367,0.001899650095451758,7.362108282746213e-05,-0.03405253731354284,0.01461964897617429,0.0015425959452648802,0.03455598052771696,0.06784254419582544,0.10768912607143538,0.01401676383650887,0.10662239213642137,0.1815617080600142,-0.11764917233173597
74,10.55149349999556,0.0019723342730896994,8.250494034129834e-05,-0.033882504112064143,0.014954424877962448,0.002074147642913163,0.03462346015732215,0.06836790627627727,0.10858275910283807,0.013433784441645894,0.10712401099318476,0.1820169089285528,-0.11955171351656177
75,10.556007499995758,0.002046670426917986,9.401249717201282e-05,-0.03371214625000293,0.015291789317539248,0.0026100975954515076,0.034688051099308594,0.06889570456359184,0.10947857544856049,0.012841423915917067,0.10761348333698881,0.18244983547817464,-0.12146592259901277
76,10.560571299996807,0.002122671310623614,0.0001081653998222898,-0.0335414780403726,0.015631754123600326,0.0031504562660964624,0.034749707098680534,0.06942587875730225,0.11037646467873681,0.012239625498852017,0.10809056876299,0.18286010643160694,-0.12339155466299147
77,10.564331300003689,0.0022003497353103147,0.0001249853448937546,-0.03337051402424405,0.015974330825522902,0.0036952335706271267,0.03480838162439054,0.06995836737928637,0.11127631449094535,0.01162833364900752,0.10855502849971203,0.18324734126374945,-0.12532835891387187
78,10.568989999999758,0.0022797185680129973,0.00014449407637335727,-0.033199268972087914,0.016319530647597297,0.0042444388681895555,0.03486402787540237,0.07049310778166096,0.11217801071429202,0.011007494071531865,0.10900662524086603,0.18361116035380312,-0.12727607915340275
79,10.572622399995453,0.002360790730183929,0.00016671338287460366,-0.03302775788508667,0.016667364503295232,0.004798080952122979,0.03491659878688363,0.07103003615329212,0.11308143731421724,0.010377053743724749,0.10944512277954628,0.18395118513816064,-0.12923445409329296
80,10.57662479999999,0.002443579196150827,0.00019166509483374957,-0.032855995996415956,0.017017842989565345,0.005356168040811468,0.034966047036519926,0.0715690875240931,0.11398647639808251,0.009736960939518716,0.10987028557386598,0.18426703827677943,-0.13120321771352583
81,10.581137699991814,0.0025280969915469553,0.0002193710816610924,-0.032683998772494616,0.017370976381143745,0.005918707768565072,0.03501232505094821,0.0721101957672645,0.11489300822161301,0.009087165251516382,0.11028187840439922,0.18455834383250747,-0.13318209983181084
82,10.585717499998282,0.0026143571917132844,0.00024985324884751586,-0.03251178191420278,0.017726774624871558,0.006485707176534829,0.03505538501228756,0.07265329360022421,0.11580091119624711,0.008427617609873464,0.11067966617763793,0.1848247274586656,-0.13517082640252495
83,10.589447699996526,0.0027023729200727226,0.00028313353502646484,-0.032339361358067684,0.01808524733401462,0.007057172703666154,0.0350951788647582,0.0731983125849154,0.11671006189742315,0.007758270301397049,0.11106341387513316,0.1850658165898086,-0.13716911940026658
84,10.59312890000001,0.0027921573464764296,0.00031923390899155096,-0.03216675327741669,0.01844640378258405,0.007633110177695316,0.03513165832140003,0.07374518312823646,0.11762033507380441,0.007079076989573424,0.11143288665989476,0.18528124063179066,-0.13917669679810196
85,10.599360699998217,0.002883723685522213,0.00035817636667001177,-0.031993974083497065,0.01881025289966017,0.008213524806193528,0.03516477487088852,0.07429383448339502,0.11853160365743441,0.006389992733880214,0.1117878501277201,0.18547063116443324,-0.14119327264043477
86,10.603377999999791,0.0029770851948450403,0.00039998292805226867,-0.03182104042656196,0.019176803263726387,0.008798421167663256,0.035194479784443136,0.07484419475280879,0.11944373877495436,0.005690974009097816,0.11212807067359974,0.18563362219543872,-0.14321855686754614
87,10.609822899990832,0.0030722551733797284,0.0004446756340778519,-0.031647969196922296,0.019546063097021643,0.009387803202692587,0.035220724122833086,0.07539619089306174,0.12035660976025477,0.004981978726346519,0.11245331591277026,0.18576985047155561,-0.14525225493947772
88,10.613878899996052,0.003169246959595934,0.0004922765434779952,-0.03147477752596387,0.01991804025992301,0.009981674205175928,0.035243458743492544,0.07594974872194442,0.12127008416875201,0.0042629662560956325,0.11276335501321318,0.18587895573967855,-0.14729406759926267
89,10.61832239999785,0.0032680739297056187,0.0005428077295752492,-0.03130148278712928,0.02029274224536736,0.010580036813608727,0.03526263430775261,0.07650479292667905,0.1221840277926069,0.003533897451528335,0.11305795882118734,0.1859605808101234,-0.1493436908945342
90,10.622483999992255,0.003368749495843195,0.000596291277040493,-0.03112810259686392,0.020670176173314823,0.011182893002457783,0.035278201288186255,0.07706124707219397,0.12309830467562327,0.002794734671338362,0.11333689979267023,0.1860143714229188,-0.15140081614428647
91,10.626269600004887,0.0034712871042185617,0.0006527492786077066,-0.03095465481552572,0.021050348785251798,0.011790244073602449,0.03529010997606439,0.07761903360867467,0.12401277712715207,0.00204544180342164,0.11359995181527711,0.18603997606531697,-0.1534651298114442
92,10.63037319999421,0.0035757002332432084,0.0007122038317468391,-0.030781157548257842,0.02143326643872866,0.012402090647841627,0.035298310488933726,0.0781780738780875,0.12492730573519586,0.0012859842889257668,0.11384688998060208,0.18603704585016853,-0.15553631352849195
93,10.634627299994465,0.003682002391629549,0.0007746770352950851,-0.030607629145823875,0.021818935101926902,0.013018432656463807,0.035302752778309285,0.0787382881194926,0.12584174937911716,0.0005163291456896804,0.11407749028858874,0.18600523447738304,-0.1576140441046538
94,10.639943499991205,0.003790207116463614,0.0008401909860468752,-0.03043408820540495,0.022207360348249067,0.013639269332879005,0.0353033866374827,0.07929959547266112,0.12675596524236404,-0.00026355500777744336,0.11429152921426275,0.1859441982813573,-0.15969799347118752
95,10.65131050000491,0.0039003279712511974,0.0009087677753028847,-0.030260553571358165,0.02259854735092146,0.014264599204313904,0.03530016170945045,0.07986191397912863,0.1276698088256448,-0.001053697928318702,0.11448878318605418,0.18585359635219967,-0.16178782856436424
96,10.658244199992623,0.0040123785439374875,0.0009804294853783767,-0.03008704433593573,0.02299250087759443,0.014894420083573319,0.03529302749495793,0.08042516058068366,0.1285831339608453,-0.001854127723000111,0.11466902829286021,0.185733090662245,-0.16388321093492086
97,10.665762599994196,0.004126372444900127,0.0010551981860712162,-0.02991357983996433,0.023389225284930232,0.015528729060872161,0.03528193336067471,0.08098925111754111,0.12949579282544746,-0.002664870821293555,0.11483204057608044,0.18558234609480748,-0.16598379641595132
98,10.669974299991736,0.0042423233049156345,0.0011330959310899113,-0.029740179673483896,0.023788724513185346,0.016167522495738655,0.03526682854751204,0.08155410032970188,0.13040763595672925,-0.0034859519466823954,0.11497759692013361,0.1854010303777902,-0.16808923514085433
99,10.679675499995938,0.004360244773099205,0.0012141447544420261,-0.029566863676345184,0.024191002080811697,0.016810796008985905,0.035247662179077356,0.08211962186388115,0.13131851226553046,-0.004317394089020872,0.11510547610528052,0.18518881404320606,-0.17019917162007886
100,10.684267100004943,0.004480150514818055,0.0012983666667832924,-0.029393651938765444,0.024596061079107105,0.017458544474750447,0.03522438327026346,0.08268572828521856,0.13222826905005483,-0.00515921847689421,0.11521545949502954,0.1849453704636591,-0.17231324480336788
101,10.68915299999935,0.004602054209578626,0.0013857836517277519,-0.029220564801841546,0.025003904166931618,0.018110762012599507,0.035196940735974756,0.08325233109096451,0.1331367520099944,-0.006011444550589956,0.11530733119820832,0.1846703759077472,-0.17443108843046104
102,10.693350200002897,0.004725969548887987,0.0014764176621192724,-0.029047622858019862,0.025414533565492517,0.018767441979708414,0.03516528339998219,0.08381934072378373,0.13404380526087628,-0.006874089937905922,0.1153808778297155,0.1843635095890956,-0.1765523315745589
103,10.699116799994954,0.004851910234089773,0.0015702906162647847,-0.02887484695152234,0.025827951053191443,0.019428576963108905,0.0351293600038873,0.08438666658308946,0.13494927134866916,-0.0077471704324644395,0.11543588808465559,0.18402445375199009,-0.17867659894183793
104,10.703249099999084,0.004979889974174921,0.00166742439412959,-0.028702258178728252,0.026244157960520827,0.02009415877201013,0.03508911921619036,0.08495421703416023,0.1358529912649719,-0.008630699972464906,0.11547215234865045,0.18365289382505573,-0.18080351107641668
105,10.707309199991869,0.005109922483567436,0.0017678408334951023,-0.028529877888511124,0.02666315516500065,0.020764178430196293,0.035044509641463314,0.08552189941564294,0.1367548044631309,-0.009524690621013104,0.11548946242503151,0.1832485186091552,-0.18293268467401397
106,10.711314600004698,0.005242021479885355,0.0018715617260794165,-0.028357727682530302,0.027084943086148634,0.0214386261685061,0.03499547982961133,0.0860896200459876,0.13765454887527595,-0.010429152547957397,0.11548761138952512,0.1828110204798351,-0.1850637325927169
107,10.716178300004684,0.005376200681677055,0.001978608813621114,-0.028185829415476822,0.027509521680480264,0.022117491417397887,0.03494197828522426,0.0866572842295218,0.13855206093042788,-0.011344094010323907,0.11546639355552142,0.18234009563424664,-0.18719626357579416
108,10.72206020000158,0.005512473806133067,0.0020890037839267355,-0.028014205195273048,0.027936890436538703,0.022800762799607088,0.034883953477030584,0.08722479626254402,0.13944717557396202,-0.012269521331427627,0.11542560450715958,0.18183544436567392,-0.18932988202181783
109,10.726355799997693,0.005650854566773521,0.002202768266882403,-0.027842877383225596,0.02836704836995471,0.02348842812290271,0.034821353847454224,0.0877920594397233,0.14033972628841473,-0.013205438879047614,0.11536504126617073,0.18129677129685234,-0.19146418773554544
110,10.735619099999894,0.00579135667111139,0.002319923830430078,-0.027671868594131014,0.02879999401853948,0.024180474372949366,0.03475412782228303,0.08835897606183286,0.1412295451152407,-0.014151849042088967,0.11528450269172581,0.18072378547658988,-0.19359877551999957
111,10.73934200000076,0.005933993818291696,0.00244049197650901,-0.027501201696333657,0.02923572543742059,0.024876887706277634,0.034682223820455056,0.0889254474460808,0.1421164626765693,-0.015108752204747663,0.11518378995889278,0.1801162003123518,-0.19573323487695216
112,10.743964799999958,0.006078779696706932,0.002564494136962883,-0.027330899811735154,0.029674240194236395,0.02557765344335999,0.03460559026398104,0.08949137393854747,0.14300030819629925,-0.016076146720227925,0.11506270670358418,0.17947373343917913,-0.1978671502467808
113,10.755418200002168,0.006225727981589023,0.002691951669413192,-0.02716098631575473,0.030115535364394264,0.026282756061788558,0.03452417558798905,0.09005665492594125,0.1438809095205662,-0.017054028887265146,0.11492105862468702,0.17879610663602885,-0.20000010146994723
114,10.759678699992946,0.00637485233257813,0.002822885853099322,-0.026991484837239926,0.03055960752638054,0.026992179189552257,0.0344379282508778,0.09062118884412433,0.14475809313801488,-0.018042392928380148,0.11475865272450178,0.17808304580192869,-0.2021316642463204
115,10.76377340000181,0.0065261663912685045,0.002957317884685825,-0.026822419258327103,0.03100645275710259,0.027705905598413856,0.03434679674457506,0.09118487318240107,0.14563168420003234,-0.01904123097091782,0.11457529650643387,0.17733428093496723,-0.2042614106643534
116,10.768058000001474,0.0066796837787314964,0.0030952688740373915,-0.026653813714251302,0.03145606662724094,0.028423917197386035,0.03425072960487739,0.09174760448415611,0.14650150654081345,-0.02005053303050384,0.11437079739280623,0.17654954612504078,-0.20638890952702105
117,10.772316699993098,0.006835418093015716,0.003236759839961988,-0.0264856925931051,0.03190844419659758,0.029146195026305707,0.034149675421871216,0.09230927834541916,0.14736738269752295,-0.02107028699528767,0.11414496239241695,0.17572857961947053,-0.20851372659188777
118,10.781315799991717,0.006993382906624311,0.003381811705922655,-0.026318080535546025,0.032363580009434005,0.029872719249508305,0.034043582850427426,0.09286978941223473,0.14822913393100595,-0.022100478611759435,0.11389759791043728,0.17487112394383567,-0.21063542487794873
119,10.786022100000991,0.007153591763969291,0.0035304452957184576,-0.02615100243445222,0.03282146808979366,0.030603469149605707,0.03393240062076192,0.09342903137735797,0.14908658024713795,-0.02314109147200956,0.11362850981561241,0.17397692601830647,-0.21275356497619993
120,10.789601900003618,0.007316058178802826,0.00368268132913511,-0.02598448343452605,0.03328210193680747,0.03133842312137042,0.03381607754905547,0.09398689697828518,0.14993954041867905,-0.024192107002598925,0.11333750395033855,0.1730457372769952,-0.21486770529803742
121,10.797390499996254,0.007480795631625413,0.0038385404175658015,-0.025818548931845358,0.033745474519996974,0.03207755866572835,0.03369456254812364,0.0945432779989642,0.1507878320077973,-0.025253504454260566,0.11302438689399427,0.17207731385545105,-0.2169774022358584
122,10.804994699996314,0.0076478175670709955,0.003998043059602763,-0.025653224573362166,0.03421157827459662,0.03282085238386445,0.03356780463813794,0.09509806527532946,0.1516312713897663,-0.026325260892348743,0.11268896665288831,0.17107141685558958,-0.21908221030118424
123,10.80926969999564,0.007817137391269153,0.004161209636600145,-0.025488536256348535,0.03468040509691134,0.033568279971448435,0.033435752957389625,0.09565114870379546,0.15246967377809298,-0.02740735118789855,0.11233105318261899,0.17002781258331087,-0.2211816821291867
124,10.813544699994964,0.00798876846918457,0.004328060408208812,-0.025324510127789444,0.035151946339722344,0.03431981621298746,0.03329835677309873,0.09620241725192713,0.15330285325055143,-0.028499748008119496,0.11195045873878413,0.16894627266575843,-0.2232753684492521
125,10.81811619999644,0.008162724121934063,0.004498615507883704,-0.025161172583722382,0.03562619280774959,0.03507543497630781,0.03315556549227137,0.09675175897038131,0.15413062277546344,-0.029602421807165713,0.11154699801746949,0.1678265741134071,-0.22536281820114012
126,10.82225599999947,0.008339017624081442,0.00467289493836438,-0.024998550268523486,0.036103134753175004,0.035835109207165934,0.03300732867259945,0.09729906100495828,0.15495279423834263,-0.03071534081777152,0.11112048810384798,0.1666684994301852,-0.22744357867820986
127,10.826768099999754,0.008517662200910518,0.004850918567129394,-0.02483667007413998,0.03658276187122338,0.03659881092399209,0.03285359603340026,0.09784420960803784,0.15576917846925775,-0.03183847104342973,0.11067074831869048,0.1654718367758425,-0.22951719564781342
128,10.830548900004942,0.008698671025676527,0.0050327061218251685,-0.02467555913926876,0.03706506329579809,0.037366511212770355,0.03269431746659306,0.09838709014912195,0.15657958527107305,-0.032971776251210824,0.11019760003916988,0.16423638014816874,-0.23158321337635146
129,10.835047999993549,0.008882057216836228,0.005218277185670032,-0.024515244848480916,0.03755002759516558,0.038138180222059954,0.03252944304770926,0.09892758712450901,0.15738382344860297,-0.03411521796418757,0.10970086660668486,0.16296192955199598,-0.2336411744690337
130,10.844625099998666,0.009067833835256901,0.005407651192834143,-0.02435575483129208,0.038037642767686224,0.038913787158161885,0.03235892304694348,0.09946558416693033,0.15818170083851404,-0.03526875545267888,0.10918037344022001,0.16164829116156995,-0.2356906196800624
131,10.849159000004876,0.009256013881404472,0.005600847423796015,-0.024197116961178305,0.03852789623759355,0.03969330028043419,0.032182707940249834,0.10000096405633889,0.15897302434007593,-0.03643234572480827,0.10863594841819861,0.16029527746875413,-0.23773108763099188
132,10.853583299991442,0.009446610292511018,0.00579788500067638,-0.02403935935453731,0.039020774850831136,0.04047668689676094,0.03200074842048581,0.10053360873329986,0.15975759994652028,-0.03760594351497884,0.10806742246201524,0.15890270739832105,-0.23976211432563138
133,10.85998269999982,0.009639635939721964,0.0059987828825501695,-0.02388251036959481,0.03951626487096353,0.041263913359175786,0.03181299540862182,0.10106339931551625,0.16053523277692525,-0.038789501269662685,0.10747463012946103,0.15747040641942925,-0.24178323259854184
134,10.868169099994702,0.009835103625223383,0.006203559860737353,-0.02372659860525556,0.04001435197517558,0.0420549450596444,0.031619400065024846,0.10159021611705346,0.16130572710867033,-0.03998296913045387,0.10685741004805885,0.15599820660623495,-0.24379397153086577
135,10.872080000001006,0.010033026079349867,0.006412234554073452,-0.023571652899898748,0.04051502125037235,0.0428497464260071,0.03141991380083456,0.1021139386691252,0.16206888640991676,-0.04118629491411474,0.10621560503137387,0.15448594660349388,-0.24579385608167303
136,10.87662779999664,0.010233415957673483,0.006624825404160494,-0.0234177023301172,0.04101825718938282,0.04364828091808063,0.03121448828944314,0.1026344457404615,0.16282451337172416,-0.042399424092004596,0.10554906191072498,0.15293347143372793,-0.24778240714209587
137,10.880691700003808,0.010436285838074318,0.006841350670599199,-0.023264776209399908,0.04152404368726002,0.04445051102391652,0.031003075478073662,0.10315161535644014,0.16357240993863512,-0.0436222997706582,0.10485763130947232,0.15134063216304236,-0.24975914171153996
138,10.884926200000336,0.010641648217793065,0.007061828426203148,-0.02311290408675741,0.04203236403767286,0.045256398256203534,0.03078562759945082,0.10366532481723564,0.16431237733750648,-0.044854862672946826,0.10414116739304362,0.14970728568186412,-0.25172357310893295
139,10.888776099993263,0.010849515510466094,0.007286276552195606,-0.022962115745289582,0.042543200929384656,0.0460659031488095,0.03056209718356453,0.10417545071449313,0.16504421610593828,-0.0460970511207336,0.1033995275960487,0.1480332946472978,-0.25367521142885213
140,10.893559399992228,0.011059900043143415,0.007514712733389686,-0.02281244120069536,0.043056536442808865,0.046878985253463235,0.030332437069511206,0.10468186894679456,0.1657677261205383,-0.04734880102051883,0.10263257249836899,0.1463185274514662,-0.2556135639000527
141,10.897334499997667,0.011272814053289894,0.007747154453352554,-0.02266391069972412,0.04357235204663972,0.04769560313657426,0.030096600417398447,0.10518445473511434,0.1664827066250398,-0.048610045849620157,0.10184016594296287,0.1445628582156888,-0.257538134848391
142,10.901287100001356,0.011488269685770085,0.007983618989554332,-0.022516554718568376,0.04409062859455987,0.04851571437619116,0.029854540720322186,0.10568308263944377,0.1671889562585088,-0.04988071664145333,0.10102217533610935,0.14276616679889204,-0.25944842564958065
143,10.905362299992705,0.01170627898981708,0.008224123408502391,-0.02237040396119739,0.04461134632203447,0.049339275559098596,0.02960621181641611,0.10617762657719844,0.16788627308354448,-0.05116074197124791,0.10017847208899136,0.1409283387866894,-0.26134393471451295
144,10.909612699993886,0.011926853915985821,0.008468684560861719,-0.02222548935763141,0.045134484843199776,0.05016624227805291,0.02935156790096921,0.1066679598441839,0.16857445461437917,-0.05245004794118374,0.09930893222124783,0.13904926550136112,-0.26322415724828796
145,10.913854700003869,0.012150006313091367,0.008717319076562036,-0.022081842062156177,0.04566002314786336,0.0509965691291554,0.029090563538621352,0.10715395513893677,0.16925329784517684,-0.0537485581637376,0.09841343693352399,0.13712884411313397,-0.265088585038645
146,10.918057300004875,0.01237574792513271,0.008970043359892337,-0.02193949345147723,0.04618793959863202,0.05183020970936616,0.028823153675644538,0.10763548458931932,0.16992259927922707,-0.055056193744739725,0.09749187304703893,0.13516697786122395,-0.2669367064885188
147,10.92718359999708,0.012604090388202802,0.009226873584583569,-0.021798475122813694,0.04671821192817344,0.052667116614164323,0.028549293652305043,0.10811241978118198,0.17058215495941667,-0.05637287326704049,0.09654413337676832,0.13316357628293105,-0.2687680066599385
148,10.930788600002415,0.01283504522738546,0.009487825688880167,-0.02165881889193105,0.047250817236625886,0.053507241435361494,0.028268939215305277,0.1085846317886268,0.17123176049967598,-0.05769851277399854,0.09557011680618019,0.13111855538952502,-0.27058196749683927
149,10.934596099992632,0.013068623853639917,0.009752915370601233,-0.02152055679111259,0.047785731989157386,0.05435053475907116,0.027982046530308235,0.10905199120340475,0.17187121111717962,-0.05903302575533797,0.09456972798383635,0.12903183780817357,-0.27237806844580403
150,10.938983699990786,0.013304837560673738,0.010022158082192114,-0.02138372106706907,0.04832293201366446,0.05519694616383867,0.027688572194518403,0.10951436816219633,0.17250030166518812,-0.0603763231367391,0.09354287692725005,0.1269033528841762,-0.2741557869487729
151,10.94296289999329,0.013543697521804744,0.010295569025767195,-0.02124834417878648,0.048862392498599486,0.05604642421893354,0.02738847324930855,0.10997163237211433,0.17311882666625378,-0.061728313270539625,0.09248947872753621,0.12473303683274554,-0.2759145986659601
152,10.947090200003004,0.013785214786812564,0.010573163148144684,-0.021114458795311555,0.04940408799092016,0.05689891648280589,0.027081707192892046,0.1104236531350808,0.17372658034655444,-0.0630889019275169,0.09140945333574987,0.1225208330271606,-0.27765397773515677
153,10.952103899995564,0.014029400278780406,0.010854955135874235,-0.02098209779347495,0.04994799239415651,0.05775436950171628,0.02676823199303045,0.11087029937122929,0.17432335667193233,-0.06445799229013836,0.09030272539777515,0.1202666923348977,-0.2793733970122804
154,10.956720200003474,0.014276264790927605,0.01114095941025826,-0.02085129425555184,0.05049407896659043,0.058612728808546434,0.02644800609977218,0.11131143964165849,0.17490894938553234,-0.06583548494670874,0.08916922417312706,0.11797057340416887,-0.28107232819230454
155,10.96157640000456,0.014525818983433494,0.011431190122367861,-0.020722081466859846,0.051042320319546405,0.05947393892179915,0.026120988458217642,0.11174694217103623,0.1754831520466579,-0.06722127788580932,0.088008883494886,0.11563244292299629,-0.2827502418238609
156,10.965914200001862,0.014778073380253146,0.01172566114805431,-0.02059449291329414,0.051592688415793245,0.060337943344791,0.025787138521312574,0.11217667486995928,0.17604575807095635,-0.06861526649058876,0.08682164172684145,0.11325227587882852,-0.2844066071556151
157,10.969848900000216,0.015033038365925537,0.012024386082957042,-0.020468562278799604,0.05214515456805465,0.06120468456504731,0.025446416262669296,0.11260050535713594,0.17659656077182706,-0.07001734353169199,0.08560744189350908,0.11083005568984791,-0.2860408918260158
158,10.97372069999983,0.015290724182374642,0.01232737823750919,-0.020344323442779873,0.05269968943762903,0.062074104053901964,0.025098782189429573,0.11301830098302411,0.17713535340189776,-0.07142739915850091,0.08436623208912437,0.10836577427932248,-0.28765256151287416
159,10.981029599992326,0.015551140925704029,0.01263465063194164,-0.020221810477443043,0.05325626303313245,0.06294614226630013,0.024744197355171985,0.1134299288560348,0.17766192919516366,-0.07284532088861824,0.08309796593977037,0.10585943229524859,-0.28924107950613376
160,10.987091399991186,0.0158142985429856,0.012946215991286633,-0.020101057645083825,0.05381484470937607,0.06382073864081236,0.024382623372878172,0.11383525587071344,0.17817608141062308,-0.07427099359490798,0.08180260305221942,0.10331103939355231,-0.29080590637174397
161,10.992965400000683,0.01608020682904314,0.013262086740381953,-0.01998209939530177,0.054375403166386144,0.0646978315998663,0.024014022427967612,0.11423414873835609,0.17867760337720082,-0.07570429949167476,0.08048010937697912,0.10072061443451963,-0.29234649988636346
162,10.99777040000481,0.016348875423231435,0.013582274998876804,-0.019864970362155277,0.054937906448582444,0.06557735855020246,0.023638357291399743,0.11462647401875993,0.17916628853931493,-0.07714511812106234,0.07913045720844333,0.0980881855488341,-0.2938623151576442
163,11.002093000002787,0.01662031380621174,0.013906792576240489,-0.01974970536125101,0.05550232194411043,0.06645925588355384,0.023255591332842458,0.11501209815084093,0.17964193050244934,-0.0785933263404155,0.07775362501373677,0.0954137901342059,-0.2953528049343056
164,11.006270400001084,0.016894531296724326,0.01423565096677496,-0.019636339386768446,0.05606861638432067,0.0673434589775498,0.022865688533898473,0.11539088748270171,0.18010432307868743,-0.08004879831172697,0.07634959728999198,0.09269747479084746,-0.2968174200774787
165,11.009951100000762,0.017171537048358835,0.014568861344632384,-0.019524907608419254,0.0566367558433966,0.06822990219684336,0.022468613501377577,0.11576270830084605,0.18055326033165034,-0.08151140549363316,0.07491836434287605,0.08993929527816269,-0.2982556100317368
166,11.013982299991769,0.017451340046323163,0.014906434558838782,-0.01941544536834136,0.057206705738121186,0.06911851889445676,0.02206433148060169,0.11612742685806939,0.18098853662160477,-0.08298101663549193,0.0734599221087581,0.08713931660276887,-0.2996668232521083
167,11.018286399994397,0.01773394910421153,0.015248381128324818,-0.019307988177927535,0.057778430827778865,0.07000924141335232,0.021652808368735333,0.11648490940092503,0.1814099466512666,-0.08445749777357642,0.0719742721760994,0.08429761308311416,-0.30105050760572
168,11.024044099991444,0.018019372860772393,0.015594711236964879,-0.01920257171458839,0.05835189521419223,0.07090200108822829,0.021234010728128107,0.11683502219782493,0.18181728551154402,-0.0859407122291014,0.07046142190557377,0.08141426832463347,-0.3024061107078531
169,11.028896299991176,0.018307619776676873,0.015945434728625526,-0.019099231818449792,0.05892706234190024,0.07179672824753937,0.02080790579966457,0.11717763156768686,0.18221034872709682,-0.08743052060772095,0.06892138458390673,0.07848937523597616,-0.30373308027232315
170,11.033935799991012,0.018598698131288425,0.016300561102224435,-0.018998004488984623,0.05950389499847655,0.07269335221574051,0.020374461516111643,0.11751260390954757,0.1825889323022391,-0.08892678080099954,0.06735417977055834,0.0755230361259239,-0.3050308644656649
171,11.038902999993295,0.018892616019434396,0.016660099506800908,-0.018898925881578967,0.060082355314998864,0.07359180131575872,0.01993364651545404,0.11783980573461829,0.18295283276745145,-0.09042934798939171,0.06575983372517756,0.0725153626874481,-0.3062989120204166
172,11.043076799993289,0.019189381348180306,0.017024058736599113,-0.018802032304032767,0.060662404766682367,0.07449200287169412,0.019485430154212374,0.11815910370010033,0.1833018472251268,-0.09193807464482688,0.06413837974702936,0.06946647589032066,-0.30753667191378814
173,11.047604999999749,0.019489001833607633,0.01739244722616515,-0.018707360212995083,0.06124400417368156,0.07539388321174147,0.019029782520753165,0.11847036464457751,0.1836357733950269,-0.09345281053052999,0.06248985849217481,0.06637650598038858,-0.3087435928052009
174,11.051407199993264,0.01979148499759598,0.01776527304545902,-0.018614946210333886,0.061827113702071654,0.07629736767133813,0.018566674448608725,0.11877345562495008,0.18395440966002108,-0.0949734026980766,0.06081431807978876,0.0632455925000985,-0.30991912255086873
175,11.056952999992063,0.020096838164610505,0.018142543894982627,-0.018524827039440372,0.06241169286501348,0.07720238059653528,0.01809607752981611,0.11906824395287234,0.1842575551117444,-0.09649969548244126,0.05911181397212846,0.06007388437523696,-0.31106270786422363
176,11.062715899999604,0.020405068458495542,0.018524267100924897,-0.01843703958146762,0.06299770052409313,0.07810884534759474,0.017617964128285684,0.11935459723050652,0.18454500959718928,-0.09803153049571423,0.05738240891142782,0.05686154011192529,-0.31217379422078984
177,11.06887000000279,0.020716182799275205,0.018910449610325147,-0.018351620851503467,0.06358509489083837,0.07901668430281822,0.01713230739320185,0.11963238338634002,0.18481657376630028,-0.09956874662121458,0.05562617279641744,0.053608728038393214,-0.31325182598271206
178,11.07393339999544,0.02103018789996191,0.01930109798625584,-0.018268607994677433,0.06417383352841038,0.07992581886261207,0.01663908127244948,0.11990147070972529,0.1850720491209427,-0.1011111800084312,0.05384318239795439,0.0503156266154384,-0.3142962464751012
179,11.08080830000108,0.021347090263373614,0.01969621840302592,-0.01818803828220159,0.06476387335345979,0.08083616945379798,0.01613826052606439,0.12016172788390136,0.18531123806554953,-0.1026586640678865,0.05203352108742695,0.04698242458486777,-0.31530649803336347
180,11.090759600003366,0.021666896178960587,0.020095816641405945,-0.018109949107345244,0.06535517063814301,0.08174765553417562,0.01562982073971027,0.12041302401786366,0.18553394395754944,-0.10421102946654268,0.0501972785971308,0.04360932083912754,-0.3162820220073098
181,11.095190599997297,0.021989611719642473,0.02049989808387628,-0.01803437798134333,0.06594768101229162,0.0826601955973291,0.015113738338174308,0.12065522867702971,0.18573997115673205,-0.10576810412270586,0.04833455100173607,0.040196524227916405,-0.31722225845791113
182,11.101155299998936,0.022315242738656385,0.020908467709899486,-0.017961362529238405,0.06654135946573017,0.08357370717767494,0.01458999059889422,0.12088821191492673,0.1859291250737746,-0.10732971319845107,0.04644544103488307,0.03674425329065854,-0.31812664574453003
183,11.106339399993884,0.022643794866416756,0.021321530091218135,-0.017890940485656044,0.06713616035075708,0.08448810685574565,0.014058555665528358,0.12111184430696988,0.1861012122169772,-0.10889567909046836,0.044530058455906844,0.033252735878033124,-0.3189946201855374
184,11.112690099995234,0.022975273507387827,0.021739089387179146,-0.01782314969051344,0.06773203738479455,0.08540331026369712,0.01351941256157273,0.1213259969857552,0.18625604023706863,-0.11046582141915125,0.042588520282870246,0.029722208946368664,-0.31982561567127393
185,11.11805849999655,0.023309683836969547,0.022161149340085742,-0.017758028084660926,0.06832894365321643,0.08631923209103266,0.012972541204038375,0.12153054167712891,0.18639341797192022,-0.11203995701563775,0.0406209507446005,0.026152918649092336,-0.32061906348511754
186,11.122686300004716,0.02364703079839786,0.022587713270578066,-0.017695613705456095,0.06892683161235272,0.08723578609055009,0.012417922417195786,0.12172535073500873,0.18651315549225073,-0.1136178999091397,0.03862748110925848,0.02254512051693518,-0.3213743926832008
187,11.126408700001775,0.02398731909966015,0.0230187840730436,-0.01763594468227021,0.06952565309265976,0.08815288508451502,0.01185553794637686,0.12191029717576782,0.18661506414811188,-0.11519946131771691,0.03660824959689131,0.018899079726435956,-0.32209103106195874
188,11.13127660000464,0.02433055321042669,0.02345436421105847,-0.017579059231926635,0.07012535930206283,0.08907044097106497,0.01128537047181002,0.12208525471219643,0.18669895661723293,-0.11678444964511861,0.034563401153865296,0.015215071407055093,-0.32276840664057443
189,11.139867399993818,0.024676737358998946,0.02389445571286084,-0.017524995654071222,0.07072590082946016,0.08998836473085796,0.010707403622453213,0.12225009778566823,0.18676464695452552,-0.1183726704861319,0.03249308712664162,0.011493380876085217,-0.3234059494463817
190,11.147111800004495,0.025025875529275477,0.024339060166857555,-0.017473792326474752,0.07132722764838179,0.09090656643396332,0.010121621989776458,0.12240470159689473,0.1868119506427377,-0.11996392664097588,0.030397464984658954,0.007734304042273592,-0.32400309313607106
191,11.15146759999334,0.025377971457736216,0.0247881787171653,-0.017425487700267816,0.07192928912079592,0.09182495524700826,0.009528011141453326,0.12254894213536725,0.1868406846459269,-0.12155801813658856,0.028276698188962616,0.003938147833684626,-0.32455927596314477
192,11.155566799992812,0.025733028630445787,0.025241812059187508,-0.01738012029510866,0.07253203400105726,0.09274343944059438,0.008926557634934211,0.1226826962088198,0.18685066746432036,-0.12315474225053225,0.02613095629801408,0.00010523037359125111,-0.32507394085101365
193,11.159914899995783,0.0260910502800766,0.025699960435228406,-0.017337728694284616,0.073135410440003,0.09366192639698359,0.008317249030902796,0.12280584147371125,0.1868417191895173,-0.12475389353299905,0.023960415242518796,-0.003764119024386642,-0.32554653488556423
194,11.163862000001243,0.026452039382952434,0.026162623630145508,-0.017298351539747663,0.07373936598920083,0.09458032261805734,0.00770007390663298,0.12291825646739014,0.18681366155930162,-0.12635526382572765,0.021765257728746563,-0.00766955998668326,-0.32597650887679214
195,11.168502500004251,0.026815998656113307,0.026629800967041903,-0.01726202752708454,0.07434384760536117,0.09549853373354139,0.007075021869259366,0.123019820642542,0.18676631801156202,-0.12795864227969908,0.019545673564901184,-0.011610741094987047,-0.326363317282326
196,11.17216329999792,0.02718293055440243,0.027101491302999606,-0.017228795400421826,0.07494880165492379,0.09641646450949516,0.0064420835689602204,0.1231104144025627,0.18669951373895521,-0.12956381537330164,0.017301859847636988,-0.015587299813305987,-0.32670641843739284
197,11.176408500003165,0.027552837267576166,0.02757769302485531,-0.017198693947266475,0.07555417391881787,0.09733401885707392,0.005801250712049381,0.12318991913783955,0.18661307574354322,-0.13117056693228754,0.015034021186760595,-0.01959886255647269,-0.3270052751900411
198,11.182534799998392,0.027925720717437784,0.028058404045019872,-0.017171761993282172,0.07615990959740528,0.09825109984155524,0.00515251607396301,0.1232582172633337,0.186506832890783,-0.13277867815418282,0.012742369677954534,-0.02364504464344292,-0.3272593558688943
199,11.186717100004898,0.028301582554996013,0.02854362179734282,-0.01714803839700219,0.07676595331561008,0.099167609691632,0.004495873512111528,0.12331519225459303,0.18638061596462283,-0.1343879276377582,0.010427124569232386,-0.027725450100625434,-0.327468135327248
200,11.190561800001888,0.028680424157649237,0.029033343233023187,-0.0171275620444794,0.07737224912821591,0.10008344980898054,0.003831317978576629,0.12336072868205548,0.18623425772342558,-0.13599809141770375,0.00808851196888943,-0.03183967159121712,-0.3276310960274879
201,11.195763399999125,0.029062246626396115,0.029527564816568094,-0.017110371843874296,0.07797874052533274,0.1009985207781034,0.003158845532622324,0.1233947122441907,0.18606759295575975,-0.13760894300476093,0.005726764529190654,-0.03598729019307599,-0.3277477292241802
202,11.200920499992208,0.02944705078307353,0.030026282521800347,-0.017096506719982023,0.07858537043802001,0.10191272237644595,0.002478453352997407,0.12341702979869364,0.18588045853850646,-0.13922025343202843,0.0033421213023477193,-0.04016787492434072,-0.32781753636605293
203,11.206129400001371,0.02983483716762248,0.030529491827916474,-0.017086005608699432,0.0791920812440601,0.10282595358481052,0.0017901397499912547,0.12342756939421026,0.1856726934973143,-0.14083179130887746,0.0009348278574039332,-0.04438098253134293,-0.3278400302096348
204,11.209998299993458,0.030225606035382806,0.031037187715596715,-0.017078907451433593,0.0797988147738934,0.10373811259806723,0.001093904177206239,0.12342622030268031,0.1854441390667914,-0.14244332287820602,-0.0014948635250661888,-0.048626157324491416,-0.32781473481564183
205,11.214139200004864,0.03061935735441742,0.03154936466316835,-0.017075251189453116,0.0804055123167097,0.10464909683615993,0.00038974724305064674,0.12341287305297712,0.18519463875257378,-0.1440546120703186,-0.003946693228374837,-0.05290293079102429,-0.3277411845740363
206,11.218025299996953,0.031016090802866905,0.0320660166428239,-0.01707507575818367,0.08101211462671398,0.1055588029554273,-0.000322329278018608,0.12338741946939075,0.1849240383953244,-0.1456654205505957,-0.006420393392550028,-0.05721082152969127,-0.32761892302107576
207,11.22240279999096,0.031415805766335375,0.03258713711689575,-0.017078420081448782,0.08161856192959618,0.10646712686023789,-0.0010423224344717184,0.12334975271418647,0.18463218623344377,-0.14727550776174356,-0.008915687391268957,-0.061549335359300315,-0.32744750197764494
208,11.226357799998368,0.03181850133530866,0.03311271903418874,-0.017085323065656962,0.08222479392921538,0.10737396371492779,-0.0017702280868786369,0.12329976733123027,0.1843189329660019,-0.14888463096299245,-0.011432289549139328,-0.06591796518832503,-0.32722648114393094
209,11.230707599999732,0.032224176302605885,0.03364275482637214,-0.017095823593936063,0.0828307498144984,0.10827920795605435,-0.002506040897270177,0.12323735929132677,0.18398413181673073,-0.15049254526836167,-0.013969904844911245,-0.0703161909201579,-0.3269554279935443
210,11.234759899991332,0.03263282916086547,0.03417723640443272,-0.017109960520215815,0.08343636826656978,0.10918275330496299,-0.003249754318686858,0.12316242603876257,0.18362763859788758,-0.15209900368481677,-0.016528228968479147,-0.0747434793314978,-0.32663391789038615
211,11.238735899998574,0.03304445810006681,0.03471615515519028,-0.017127772663259433,0.08404158746610796,0.11008449278066879,-0.004001360584915138,0.12307486653608371,0.18324931177544318,-0.15370375715168355,-0.01910694876556216,-0.07919928390104362,-0.3262615344391374
212,11.2430258999957,0.0334590610050886,0.035259501937877344,-0.017149298800645245,0.08464634510091543,0.1109843187130641,-0.004760850700423746,0.12297458130626732,0.18284901253462932,-0.15530655458225107,-0.0217057429188618,-0.08368304481753183,-0.3258378699489621
213,11.24703289999161,0.033876635453304944,0.035807267080784536,-0.017174577662699364,0.08525057837368952,0.11188212275644466,-0.005528214430508929,0.12286147247080244,0.1824266048450478,-0.15690714290774435,-0.02432428268780828,-0.08819418885554933,-0.3253625259958165
214,11.251379799999995,0.03429717871222006,0.03635944037797327,-0.017203647926380433,0.08585422400996695,0.11277779590335722,-0.00630344029166308,0.12273544378458905,0.18198195552743904,-0.15850526712445562,-0.026962232467243316,-0.09273212892913098,-0.32483511395187675
215,11.255969499994537,0.034720687737142486,0.036916011086057264,-0.017236548209117606,0.08645721826623773,0.1136712284987821,-0.007086515542183351,0.12259640066852637,0.18151493432317967,-0.1601006703429219,-0.02961925040870611,-0.0972962637195735,-0.32425525528854743
216,11.25951659999555,0.03514715916889959,0.03747696792105464,-0.017273317062602964,0.08705949693821005,0.1145623102546641,-0.007877426173023755,0.12244425023830387,0.1810254139647102,-0.16169309383803526,-0.03229498879992305,-0.10188597750818035,-0.32362258160567936
217,11.264089499993132,0.035576589331593016,0.03804229905531232,-0.017313992966539564,0.08766099536920727,0.11545093026478737,-0.00867615689889642,0.12227890133325874,0.18051327024667696,-0.16328227709850757,-0.03498909390413905,-0.10650063991335619,-0.3229367343103646
218,11.268035200002489,0.036008974230395716,0.03861199211450434,-0.017358614322346366,0.0882616484587165,0.11633697702000581,-0.009482691149609998,0.12210026454674644,0.17997838209894443,-0.1648679578738229,-0.037701205930685655,-0.11113960571442204,-0.322197364185935
219,11.272083299991207,0.03644430954939147,0.039186034174706,-0.01740721944682113,0.08886139067108415,0.11722033842383571,-0.010297011061632512,0.12190825225528756,0.17942063165946928,-0.1664498722194652,-0.040430959005973974,-0.11580221497624564,-0.32140413101593324
220,11.276332800000093,0.03688259064945742,0.039764411759545475,-0.017459846565762396,0.0894601560443511,0.11810090180840258,-0.01111909746987441,0.12170277864922353,0.17883990434608746,-0.1680277545401736,-0.043177980837651786,-0.1204877932104973,-0.3205567031242158
221,11.28111949999584,0.037323812566190405,0.04034711083743471,-0.017516533807551596,0.09005787819924964,0.11897855395073953,-0.011948929899676669,0.1214837597651652,0.17823608892780288,-0.16960133763064889,-0.04594189251775124,-0.12519565146237036,-0.3196547569512122
222,11.28482279999298,0.03776797000787798,0.0409341168188813,-0.017577319196696268,0.09065449034835757,0.11985318108943502,-0.012786486558994037,0.12125111351858389,0.17760907759572192,-0.17117035271464295,-0.04872230828075425,-0.1299250863766188,-0.3186979767290051
223,11.28880379999464,0.03821505735351475,0.04152541455388305,-0.01764224064733532,0.0912499253054156,0.12072466894162856,-0.013631744330767437,0.12100475973863846,0.17695876603369293,-0.17273452948247078,-0.05151883515381844,-0.1346753803148755,-0.3176860541747158
224,11.29365069999767,0.038665068650864956,0.0421209883294069,-0.01771133595670726,0.09184411549482391,0.12159290272035293,-0.014484678765476001,0.12074462020420507,0.1762850534880873,-0.17429359612708561,-0.05433107267951574,-0.13944580136914725,-0.3166186882896109
225,11.297474099992542,0.03911799761457221,0.04272082186695404,-0.017784642798582228,0.09243699296131364,0.12245776715221596,-0.015345264073864133,0.12047061868143008,0.17558784283830628,-0.17584727937961583,-0.057158612593347466,-0.1442356032239745,-0.3154955852569303
226,11.301630400004797,0.03957383762431714,0.04332489832021265,-0.017862198716658728,0.0930284893798127,0.12331914649543585,-0.016213473119842912,0.12018268096293024,0.17486704066791728,-0.1773953045444357,-0.06000103889080108,-0.14904402506224074,-0.3143164584344789
227,11.306299399991984,0.04003258172302413,0.043933200272800274,-0.017944041117925878,0.0936185360655027,0.12417692455822237,-0.017089277413561952,0.1198807349046863,0.17412255733608661,-0.17893739553462937,-0.06285792794349973,-0.15387029149711062,-0.3130810285921125
228,11.309962600003928,0.04049422261511784,0.044545709736097346,-0.018030207265992023,0.09420706398404739,0.12503098471751442,-0.017972647104659453,0.11956471046410135,0.17335430704938493,-0.18047327490939644,-0.06572884814886497,-0.15871361258811953,-0.31178902422196497
229,11.313746400002856,0.04095875266483048,0.04516240814717374,-0.018120734274380625,0.09479400376202377,0.12588120993806717,-0.0188635509757018,0.11923453974033865,0.17256220793306182,-0.18200266391256587,-0.06861335979888004,-0.16357318388652825,-0.3104401817100093
230,11.318314699994517,0.04142616389456091,0.045783276366809934,-0.018215659099794383,0.0953792856975471,0.12672748279189036,-0.019761956435812265,0.1188901570136702,0.17174618210240533,-0.18352528251168815,-0.07151101504993662,-0.1684481864395098,-0.3090342455188941
231,11.322635399992578,0.04189644798328636,0.04640829467761469,-0.018315018535348483,0.09596283977108888,0.12756968547803693,-0.02066782951449492,0.11853149878611102,0.17090615573397544,-0.18504084943834678,-0.07442135769755567,-0.17333778668144476,-0.30757096841027365
232,11.32649369999126,0.04236959626502786,0.04703744278224074,-0.018418849203774,0.09654459565650135,0.1284076998427417,-0.021581134855659653,0.11815850382298246,0.17004205913803222,-0.1865490822294362,-0.07734392306624857,-0.1782411363115833,-0.30605011154005457
233,11.330659100000048,0.0428455997273704,0.04767069980170048,-0.018527187550592402,0.09712448273224403,0.12924140739992201,-0.02250183571185189,0.11777111319462931,0.16915382683097208,-0.18804969726840962,-0.08027823802489363,-0.18315737228586917,-0.30447144437067314
234,11.334895299994969,0.04332444901003868,0.04830804427378318,-0.018640069837262234,0.09770243009281838,0.1300706893520286,-0.02342989393868314,0.11736927031783193,0.1682413976078363,-0.18954240982569456,-0.08322382116850834,-0.18808561666315673,-0.3028347446088548
235,11.338679499996942,0.04380613440352969,0.04894945415157566,-0.01875753213429886,0.09827836656040152,0.130895426611259,-0.024365269989458035,0.11695292099573631,0.16730471461625915,-0.19102693409932883,-0.08618018300762843,-0.19302497640679345,-0.3011397982351816
236,11.343632599993724,0.04429064584780289,0.04959490680208809,-0.01887961031436832,0.09885222069667339,0.13171549982113548,-0.025307922910004384,0.1165220134574044,0.16634372543092713,-0.19250298325566667,-0.08914682606452151,-0.19797454314624222,-0.29938639941977746
237,11.347465800005011,0.044777972931028975,0.05024437900498679,-0.019006340045356257,0.09942392081483929,0.1325307893784505,-0.026257810333700417,0.11607649839679823,0.16535838212987058,-0.19397026946918583,-0.09212324507692075,-0.20293339278913644,-0.2975743503508063
238,11.35126450000098,0.045268104888398324,0.050897846951435746,-0.01913775678341287,0.09999339499184037,0.1333411754555946,-0.027214888476696165,0.1156163290103273,0.16434864137273697,-0.19542850396150768,-0.09510892720307015,-0.20790058533003875,-0.29570346109955736
239,11.355983799992828,0.045761030600989794,0.05155528624304896,-0.01927389576597488,0.10056057108074526,0.13414653802327142,-0.028179112133324337,0.11514146103381688,0.16331446447896258,-0.1968773970398779,-0.09810335229094409,-0.21287516465571027,-0.29377354965301583
240,11.361725499999013,0.04625673859470096,0.05221667189095529,-0.01941479200476535,0.10112537672332399,0.13494675687359414,-0.02915043467170001,0.11465185277740861,0.16225581750796025,-0.19831665813650673,-0.1011059935506417,-0.21785615808193853,-0.2917844422425242
241,11.3675804999948,0.04675521703924057,0.05288197831497781,-0.0195604802787724,0.10168773936278276,0.13574171164358884,-0.030128808029518273,0.11414746515591837,0.16117267134184465,-0.1997459958502809,-0.10411631845308261,-0.22284257596182874,-0.2897359738516002
242,11.371581799990963,0.04725645374718396,0.05355117934292978,-0.019710995127207708,0.10224758625663634,0.13653128183910415,-0.031114182710063984,0.11362826171490155,0.16006500176947094,-0.20116511799109638,-0.10713378951742154,-0.22783341132884902,-0.2876279887013226
243,11.377659199992197,0.04776043617309205,0.05422424821002904,-0.019866370842445996,0.10280484448969904,0.13731534685914093,-0.032106507778445266,0.11309420865326973,0.1589327895726694,-0.20257373162634204,-0.11015786480855798,-0.23282763973919093,-0.28546034048745483
244,11.382765999995172,0.04826715141269451,0.05490115755843315,-0.020026641462946512,0.10335944098717947,0.13809378602060965,-0.03310573085806026,0.11254527484446479,0.15777602061183385,-0.20397154312756383,-0.11318799790067302,-0.23782421945009186,-0.2832328923112369
245,11.389564500001145,0.04877658620213748,0.055581879436897234,-0.02019184076615776,0.10391130252787974,0.13886647858350148,-0.034111798127289386,0.11198143185943404,0.15659468591040315,-0.205358258216268,-0.1162236377309153,-0.24282209156657655,-0.28094551668711826
246,11.396624000000884,0.04928872691729646,0.056266385300556526,-0.020362002261406484,0.104460355757516,0.13963330377647631,-0.03512465431641239,0.11140265398924283,0.155388781739007,-0.2067335820106612,-0.11926422884750863,-0.24782018019968094,-0.2785980957723268
247,11.404121500003384,0.04980355957315505,0.056954646010835795,-0.02053715918277207,0.10500652720214,0.14039414082286103,-0.03614424270476011,0.11080891826561044,0.15415830969839187,-0.20809721907371076,-0.12230921136582705,-0.25281739270969683,-0.27619052133733524
248,11.41042240000388,0.05032106982324976,0.05764663183548751,-0.020717344481947543,0.10554974328166156,0.1411488689670528,-0.037170505118104054,0.11020020448395454,0.1529032768011754,-0.2094488734595944,-0.1253580201877192,-0.25781262002606936,-0.2737226941130372
249,11.414947299999769,0.050841242959181694,0.05834231244876081,-0.0209025908210883,0.10608993032349659,0.14189736750132118,-0.03820338192626478,0.10957649523160208,0.15162369555162744,-0.2107882487553424,-0.1284100836720704,-0.26280473701956303,-0.2711945228739391
250,11.41856469999766,0.05136406391019553,0.05904165693170317,-0.02109293056564959,0.10662701457636699,0.1426395157929956,-0.03924281204091088,0.10893777592390375,0.15031958402376547,-0.21211504811827406,-0.13146482221778355,-0.26779260265762034,-0.26860592368945735
251,11.422351999994136,0.05188951724282688,0.059744633772596686,-0.021288395777213615,0.10716092222430369,0.14337519331203538,-0.04028873291353542,0.1082840348463759,0.1489909659396083,-0.2134289743102791,-0.134521647402553,-0.27277506011837094,-0.26595681931462556
252,11.426348099994357,0.05241758716061895,0.06045121086753076,-0.021489018206307112,0.10769157940086085,0.1441042796589865,-0.04134108053359194,0.10761526319928193,0.14763787074615078,-0.21472972972926407,-0.1375799615885897,-0.27775093694569364,-0.26324713888669554
253,11.43082539999159,0.05294825750390962,0.06116135552111323,-0.021694829285210136,0.10821891220355721,0.14482665459330832,-0.04239978942678004,0.10693145514365039,0.14626033369209288,-0.21601701644045104,-0.1406391579226283,-0.28271904487491706,-0.26047681792886984
254,11.437056900002062,0.053481511749690104,0.061875034447321564,-0.021905860120756772,0.10874284670854267,0.14554219806208477,-0.04346479265348912,0.10623260784585631,0.144858395906528,-0.21729053620786057,-0.143698620890289,-0.28767817970703197,-0.2576457984599294
255,11.440834299995911,0.054017333011536196,0.06259221377049624,-0.02212214148712863,0.10926330898547797,0.1462507902291246,-0.04453602180739345,0.10551872151818925,0.1434321044769088,-0.21854999052668825,-0.1467577275939779,-0.2926271211840664,-0.2547540294868748
256,11.451741600001696,0.05455570403961323,0.06331285902647805,-0.022343703818641748,0.10978022511260006,0.14695231150443916,-0.045613407014214215,0.10478979945087129,0.14198151252896066,-0.21979508065963094,-0.1498158497261636,-0.2975646325224323,-0.2518014677684988
257,11.455456399999091,0.05509660722075545,0.06403693516389126,-0.022570577202527902,0.11029352119191661,0.1476466425741282,-0.04669687693067173,0.10404584803322536,0.14050667930923527,-0.22102550767677015,-0.15287235543753813,-0.3024894602032995,-0.24878807837011266
258,11.459614999999758,0.05564002457862031,0.06476440654557473,-0.02280279137171122,0.11080312336447946,0.14833366443066934,-0.047786358743639575,0.10328687676732692,0.139007670267085,-0.22224097249735192,-0.1559266100368357,-0.30740033394789573,-0.24571383473262676
259,11.463807799998904,0.05618593777391803,0.06549523695016288,-0.023040375697581175,0.11130895782571332,0.14901325840360968,-0.04888177816950757,0.10251289828229222,0.13748455713745927,-0.22344117593034934,-0.15897797545269182,-0.3122959667536888,-0.24257871820568022
260,11.468338099992252,0.056734328104716625,0.0662293895738185,-0.02328335918276293,0.11181095084082972,0.14968530619066933,-0.049983059453734664,0.10172392835322053,0.1359374180225233,-0.22462581871165255,-0.16202580948830406,-0.317175055283794,-0.23938271756907356
261,11.473067999992054,0.05728517650682293,0.06696682703211958,-0.02353177045388594,0.11230902876034193,0.15034968988923547,-0.051090125370577576,0.10091998592281003,0.13436633747062604,-0.2257946015399263,-0.16506946533107933,-0.32203628036979026,-0.23612582909487342
262,11.481131799999275,0.0578384635542402,0.06770751136210167,-0.023785637754351628,0.11280311803569146,0.15100629202824212,-0.05220289722299617,0.1001010931251208,0.13277140655297565,-0.2269472251144106,-0.168108291480278,-0.3268783076101914,-0.23280805702963606
263,11.486856799994712,0.05839416945970278,0.06845140402445812,-0.02404498893710106,0.1132931452349965,0.1516549956004181,-0.053321294842753726,0.0992672753079021,0.13115272293672375,-0.22808339017551904,-0.17114163200991647,-0.33169978802718325,-0.2294294141561095
264,11.490492099997937,0.05895227407528848,0.06919846590589959,-0.0243098514573836,0.11377903705889802,0.15229568409488525,-0.05444523659072147,0.0984185610537706,0.12951039095518432,-0.2292027975481617,-0.1741688261018271,-0.3364993588129752,-0.2259899223596675
265,11.494012299997848,0.05951275689310909,0.06994865732167464,-0.024580252365527584,0.1142607203565164,0.15292824153009682,-0.055574639357404754,0.09755498220712834,0.12784452167358046,-0.23030514818791226,-0.17718920692772114,-0.34127564419074197,-0.22248961313573556
266,11.49838920000184,0.06007559704607958,0.07070193801825311,-0.02485621829971415,0.11473812214156208,0.15355255248708197,-0.05670941856370144,0.09667657390633166,0.12615523295079908,-0.23139014322931942,-0.18020210110845003,-0.3460272561437238,-0.21892852827223896
267,11.504134499991778,0.06064077330876702,0.07145826717617358,-0.025137775478755356,0.11521116960860858,0.15416850214299127,-0.05784948816190306,0.09578337461592522,0.12444264949796983,-0.2324574840387834,-0.18320682875894673,-0.35075279564430084,-0.2153067210407104
268,11.509116899993389,0.061208264098319795,0.0722176034130565,-0.02542494969487787,0.11567979014952,0.1547759763049172,-0.05899476063697306,0.09487542615836914,0.12270690292813642,-0.23350687227457742,-0.18620270377281464,-0.355450854506815,-0.21162425779824492
269,11.513994699998875,0.061778047475477965,0.07297990478678415,-0.025717766306513644,0.1161439113700359,0.15537486144392795,-0.060145147008138014,0.09395277374347515,0.12094813179662,-0.23453800995547328,-0.18918903448596322,-0.3601200173167399,-0.20788121960518546
270,11.5180088999914,0.062350101145665575,0.0737451287988484,-0.026016250231099245,0.11660346110648824,0.15596504472928466,-0.061300556830840555,0.09301546599360941,0.11916648163172447,-0.2355505995366667,-0.19216512393993956,-0.36475886347532177,-0.2040777034781126
271,11.526308500004234,0.06292440246016535,0.07451323239786703,-0.02632042593788574,0.11705836744263408,0.15654641406277714,-0.062460898199077027,0.09206355497053975,0.11736210495499845,-0.2365443439907215,-0.19513026958314156,-0.36936596881805234,-0.20021382355752246
272,11.533232999994652,0.0635009284173765,0.07528417198326906,-0.026630317440760994,0.11750855872663639,0.15711885811314039,-0.06362607774814619,0.09109709620357595,0.11553516129602905,-0.23751894689497438,-0.19808376334317376,-0.37393990721073905,-0.19628971245171503
273,11.538234999999986,0.06407965566415635,0.07605790340914945,-0.026945948291086593,0.11795396358817341,0.15768226635053564,-0.06479600065784617,0.09011614871570561,0.11368581719701253,-0.2384741125256913,-0.20102489174343885,-0.3784792527239452,-0.19230552253348707
274,11.542685899999924,0.06466056049724633,0.07683438198829337,-0.027267341570551565,0.11839451095567645,0.15823652908101188,-0.06597057065614886,0.08912077505058823,0.11181424620617061,-0.23940954595822045,-0.203952935918507,-0.3829825805803449,-0.18826142688491235
275,11.547856799996223,0.06524361886478311,0.07761356249636976,-0.02759451988404542,0.1188301300737046,0.15878153748092214,-0.06714969002338148,0.08811104129853994,0.10992062887300755,-0.24032495317043673,-0.20686717172337693,-0.38744846622287155,-0.18415761953821466
276,11.55153430000064,0.06582880636789538,0.07839539917629393,-0.027927505352553,0.11926075052043802,0.15931718363133837,-0.06833325959691791,0.08708701712245345,0.1080051527508876,-0.24122004114526296,-0.20976686947761145,-0.3918754839989166,-0.1799943151486684
277,11.555490700004157,0.066416098262387,0.07917984574275942,-0.028266319606073616,0.11968630222530745,0.15984336055249315,-0.06952117877636826,0.08604877578629823,0.10606801240522806,-0.24209451797089862,-0.21265129378313066,-0.39626220631318226,-0.1757717488182132
278,11.559982499995384,0.06700546946050703,0.07996685538693928,-0.028610983776566935,0.12010671548676767,0.16035996223827503,-0.07071334552925554,0.08499639418283172,0.1041094094244053,-0.24294809294160682,-0.2155197037796457,-0.40060720314581866,-0.1714901764231913
279,11.563983799991547,0.06759689453280769,0.080756380781357,-0.02896151849092793,0.12052192099019951,0.16086688369077748,-0.07190965639719601,0.08392995285958839,0.10212955243268503,-0.2437804766611652,-0.21837135361159726,-0.40490904167307507,-0.1671498751053907
280,11.568361999990884,0.06819034771009037,0.08154837408492746,-0.0293179438639935,0.12093184982593878,0.16136402095492136,-0.07311000650259301,0.08284953604200028,0.10012865710485777,-0.24459138114848045,-0.2212054931005501,-0.4091662864574074,-0.16275114382670622
281,11.572172500003944,0.06878580288544078,0.0823427869481683,-0.029680279491583264,0.12133643350740557,0.16185127115314776,-0.07431428955585559,0.08175523165277562,0.09810694617730023,-0.24538051994649215,-0.22402136816905774,-0.4133775000740707,-0.1582943043426572
282,11.57683299999917,0.06938323361635328,0.08313957051858184,-0.030048544443577126,0.1217356039893237,0.16232853252014923,-0.07552239786316295,0.08064713133085231,0.09606464945645055,-0.24614760823735826,-0.22681822127830623,-0.41754124414981036,-0.15377970302545574
283,11.58619849999377,0.06998261312694506,0.08393867544620798,-0.030422757257032404,0.12212929368603638,0.16279570443764588,-0.07673422233481555,0.0795253304464739,0.09400200381965802,-0.24689236296928188,-0.22959529277104232,-0.42165608162573204,-0.1492077136536814
284,11.591017999991893,0.07058391431026063,0.084740051889348,-0.03080293592934351,0.12251743548987386,0.16325268746912502,-0.07794965249424642,0.07838992810694047,0.09191925320141164,-0.24761450299912266,-0.2323518224059212,-0.4257205789768219,-0.144578740431285
285,11.595843300005072,0.07118710973066653,0.08554364952045894,-0.031189097911447652,0.1228999627895256,0.1636993833944819,-0.07916857648777423,0.07724102715660007,0.08981664857236918,-0.24831374924890412,-0.23508705022014967,-0.42973330719090413,-0.13989322025506606
286,11.600762499991106,0.07179217162633637,0.08634941753221805,-0.03158126010108042,0.1232768094884079,0.16413569524455307,-0.08039088109515333,0.0760787341741188,0.08769444791596134,-0.2489898248707171,-0.23780021735967946,-0.43369284210461534,-0.1351516242116554
287,11.605196100004832,0.07239907191182626,0.0871573046437566,-0.0319794388360852,0.12364791002300918,0.1645615273355272,-0.08161645174094803,0.0749031594643104,0.08555291620411787,-0.2496424554179443,-0.24049056667954785,-0.43759776440484877,-0.1303544586259858
288,11.609574999994948,0.07300778218074012,0.08796725910706264,-0.032383649887780565,0.12401319938117729,0.1649767853032398,-0.08284517250676594,0.07371441704950427,0.08339232537385746,-0.2502713690204714,-0.24315734245210224,-0.44144665926089305,-0.12550226533464906
289,11.616845500000636,0.07361827370848488,0.08877922871355204,-0.03279390845438998,0.12437261312037995,0.16538137613735385,-0.08407692614435483,0.07251262466424352,0.0812129543066304,-0.25087629655859917,-0.24579979024897597,-0.4452381161205392,-0.12059562182778186
290,11.62447599999723,0.07423051745511536,0.08959316080080719,-0.03321022915453795,0.12472608738593992,0.16577520821545141,-0.0853115940895457,0.07129790374781335,0.07901508880691303,-0.2514569718396493,-0.24841715765700254,-0.44897073027456974,-0.11563514325435499
291,11.630637399997797,0.07484448406826871,0.09040900225948324,-0.0336326260208168,0.12507355892922198,0.16615819133700388,-0.08654905647708591,0.07007037943190082,0.07679902156616948,-0.2520131317915912,-0.2510086954911989,-0.4526431062734748,-0.11062148632200605
292,11.634632500004956,0.07546014388618814,0.09122669954038082,-0.03406111249342863,0.1254149651257468,0.1665302367571093,-0.08778919215648588,0.06883018052119805,0.07456505210785566,-0.2525445166779878,-0.2535736587875192,-0.4562538603514298,-0.10555535203479828
293,11.638839599996572,0.07607746694083539,0.09204619866168387,-0.03449570141390791,0.12575024399318718,0.16689125721992182,-0.08903187870896535,0.06757743947130203,0.07231348672755034,-0.2530508703185378,-0.2561113063926201,-0.45980161972474687,-0.10043748491096373
294,11.642977399998928,0.07669642296109139,0.09286744521636107,-0.034936405018930056,0.12607933420926473,0.16724116699180058,-0.09027699246546828,0.06631229237335093,0.07004463844485617,-0.2535319402963313,-0.25862089915600694,-0.46328501993529075,-0.09526866991005263
295,11.647075699991548,0.07731698137604469,0.09369038437972958,-0.03538323493421108,0.126402175129595,0.16757988189426623,-0.0915244085256467,0.06503487894969735,0.0677588269696483,-0.2539874781481818,-0.2611016981009224,-0.46670270287792714,-0.09004972991420451
296,11.651286699998307,0.07793911131836757,0.09451496091718041,-0.03583620216850285,0.12671870680554162,0.16790731933681793,-0.0927740007777468,0.06374534255652702,0.06545637867336797,-0.25441723954711964,-0.2635529635635593,-0.47005331634708336,-0.0847815247836447
297,11.655464900002698,0.07856278162778,0.09534111919206482,-0.03629531710768821,0.1270288700020872,0.16822339834960776,-0.09402564191938699,0.06244383018799461,0.06313762655972896,-0.2548209844834386,-0.2659739548747422,-0.473335514286588,-0.0794649512633774
298,11.659683799996856,0.07918796085460142,0.09616880317374096,-0.03676058950898054,0.12733260621572814,0.16852803961596965,-0.09527920347922376,0.06113049248197195,0.060802910233555024,-0.2551984774462719,-0.268363930151437,-0.4765479574177029,-0.07410094330508185
299,11.66377349999675,0.0798146172633906,0.09699795644578002,-0.03723202849523188,0.12762985769240204,0.16882116550478748,-0.09653455583951494,0.05980548372623354,0.05845257586531197,-0.2555494876078033,-0.2707221462545401,-0.4796893143906611,-0.06869047262779557
300,11.668281199992634,0.08044271883667375,0.09782852221433108,-0.03770964254935426,0.12792056744544325,0.1691027001026753,-0.09779156825959659,0.0584689618646197,0.056086976148624054,-0.2558737890103557,-0.27304785874551557,-0.4827582631444106,-0.06323454928136395
301,11.672435600004974,0.08107223327876087,0.09866044331664368,-0.03819343950885871,0.128204679273571,0.16937256924592772,-0.09905010890028552,0.05712108850364848,0.05370647025143815,-0.2561711607561411,-0.27534032171093903,-0.4857534918422013,-0.0577342220404075
302,11.676543699999456,0.08170312801965064,0.09949366222974676,-0.03868342656051645,0.12848213777890982,0.16963070055222007,-0.10031004484922174,0.05576202892040368,0.05131142376434215,-0.25644138719822274,-0.27759878730934395,-0.48867369961534474,-0.05219057846222008
303,11.6810603000049,0.08233537021902404,0.10032812107928285,-0.03917961023514706,0.12875288838505533,0.16987702345205066,-0.10157124214714824,0.05439195207360186,0.04890220864441706,-0.25668425813083434,-0.27982250561040883,-0.49151759779028625,-0.04660474534060492
304,11.68493750000198,0.08296892677032679,0.10116376164849616,-0.039681996402538014,0.12901687735520342,0.17011146921988898,-0.10283356581512464,0.053011030613061345,0.0464792031514918,-0.25689956898480365,-0.2820107259101834,-0.4942839123407209,-0.04097789052377644
305,11.69276419999369,0.08360376430494118,0.10200052538737302,-0.04019059026650041,0.12927405181030907,0.17033397100499123,-0.10409687988272816,0.051619440877838915,0.04404279176788799,-0.2570871210357442,-0.2841626990089017,-0.4969713880681776,-0.03531122568111332
306,11.6971937000053,0.0842398491964471,0.10283835342193284,-0.040705396360065774,0.1295243597471973,0.1705444638617595,-0.10536104741731403,0.05021736288330516,0.04159336509357445,-0.25724672162667933,-0.2862776789201967,-0.4995787924256473,-0.02960600846580767
307,11.701658499994664,0.08487714756497187,0.1036771865636671,-0.04122641854082941,0.1297677500565949,0.1707428847795266,-0.10662593055440521,0.048804980302477464,0.039131319728321054,-0.2573781843974954,-0.2883549236878075,-0.502104916100822,-0.023863542178564744
308,11.70540659999824,0.08551562528162857,0.10451696531912312,-0.04175365998644601,0.13000417254105787,0.1709291727117566,-0.10789139052920851,0.04738248044506614,0.03665705816111931,-0.2574813295042595,-0.2903936953287185,-0.5045485710914995,-0.018085173109147992
309,11.709690399991814,0.08615524797304208,0.10535762989963006,-0.04228712319028282,0.13023357793279705,0.17110326860474254,-0.10915728770916054,0.04595005423936643,0.03417098867125729,-0.2575559838225371,-0.2923932599345284,-0.5069085897547718,-0.012272288244122216
310,11.718311699994956,0.08679598102596271,0.1061991202311649,-0.04282680995723524,0.1304559179114277,0.1712651154258345,-0.11042348162744266,0.044507896210308026,0.03167352522708788,-0.2576019811441737,-0.2943528896431451,-0.5091838266759111,-0.006426314959671799
311,11.722509799990805,0.08743778959196674,0.10704137596435594,-0.043372721399709484,0.1306711451215792,0.171414658191142,-0.11168983101746152,0.04305620444196294,0.029165087368730254,-0.2576191623775927,-0.29627186523879245,-0.5113731616032161,-0.0005487213864662076
312,11.728604999996604,0.0880806385922431,0.10788433648462109,-0.04392485793377712,0.13087921319027612,0.1715518439926088,-0.11295619384833325,0.04159518053003375,0.026646100077985013,-0.2576073757481641,-0.29814947689548715,-0.5134755000935677,0.005358984925942268
313,11.732589599996572,0.08872449272246488,0.1087279409224376,-0.04448321927550664,0.1310800767440808,0.17167662202443662,-0.1142224273613338,0.04012502953705215,0.02411699365468905,-0.2575664769853717,-0.29998502305565466,-0.515489771188094,0.01129526017831962
314,11.736751899996309,0.08936931645774449,0.10957212816374008,-0.04504780443747634,0.13127369142603382,0.1717889436089442,-0.11548838810722323,0.03864595995589184,0.021578203609481716,-0.25749632949202483,-0.30177780915625113,-0.5174149246949965,0.017258527616696804
315,11.74104539999098,0.0900150740576717,0.1104168368604445,-0.04561861172547278,0.13146001391243814,0.17188876222193675,-0.11675393198435964,0.0371581836774908,0.019030170566872878,-0.2573968044990319,-0.30352714742401476,-0.5192499305775948,0.02324717967046265
316,11.745188899993082,0.09066172957143388,0.1112620054410956,-0.04619563873537846,0.13163900192948208,0.1719760335176122,-0.11801891427754505,0.035661915956377126,0.016473340164025334,-0.25726778121359234,-0.30523235723011694,-0.5209937817292253,0.02925957873333037
317,11.751318499998888,0.09130924684301742,0.11210757212163573,-0.04677888235025211,0.1318106142696845,0.17205071535293545,-0.11928318969759621,0.03415737537490469,0.013908162926542223,-0.25710914696629217,-0.30689276600708704,-0.522645499376865,0.03529405732571706
318,11.755745899994508,0.0919575895164896,0.11295347491629194,-0.047368338737605424,0.13197481080816623,0.17211276781132348,-0.12054661242163668,0.03264478379976442,0.011335094114125184,-0.2569207973576995,-0.3085077105476715,-0.5242041376806904,0.04134891868487845
319,11.759953699991456,0.09260672104136004,0.11379965164857762,-0.04796400334687948,0.13213155251866773,0.1721621532255022,-0.1218090361341088,0.03112436633345061,0.00875459355114247,-0.2567026363996585,-0.3100765362765754,-0.5256687847575412,0.04742243859088508
320,11.76642709999578,0.09325660467802008,0.11464603996240434,-0.048565870907124636,0.13228080148934337,0.17219883619952595,-0.12307031406845485,0.029596351277931896,0.006167125462225204,-0.2564545766439332,-0.3115985947538321,-0.5270385606793648,0.05351286808375474
321,11.77036870000302,0.0939072035032594,0.11549257733329994,-0.049173935424886774,0.13242252093842186,0.1722227836300179,-0.12433029904939381,0.02806097011066246,0.0035731583225132356,-0.2561765392967886,-0.3130732420368008,-0.5283126149472928,0.0596184357118593
322,11.774276299998746,0.09455848041585942,0.11633920107972921,-0.04978819018230279,0.13255667522976472,0.17223396472671734,-0.12558884353572894,0.026518457464356597,0.0009731647180843192,-0.2558684543255301,-0.31449983809606874,-0.5294901255856286,0.06573734902100774
323,11.778518499995698,0.0952103981422629,0.11718584837451398,-0.050408627735407704,0.13268322988832792,0.17223235103234807,-0.12684579966367196,0.024969051108742334,-0.0016323787948928133,-0.25553026055844524,-0.31587774673016145,-0.530570300237104,0.0718677959501093
324,11.78314459999092,0.0958629192423193,0.11803245625634913,-0.05103523991265609,0.13280215161554096,0.1722179164417808,-0.1281010192906332,0.023412991931174475,-0.004242991840496988,-0.25516190577762154,-0.317206336586424,-0.5315523796545444,0.07800794580364366
325,11.789097599990782,0.09651600611510561,0.11887896164141105,-0.05166801781365969,0.13291340830457782,0.17219063722042358,-0.12935435403945827,0.021850523908351717,-0.006858190398228868,-0.25476334680932794,-0.3184849831025572,-0.5324356439203374,0.08415595003791823
326,11.792952000003424,0.09716962100482182,0.11972530133505449,-0.05230695180814372,0.13301696905545807,0.17215049202166205,-0.1306056553431068,0.02028189406784201,-0.009477487014494494,-0.25433454960910296,-0.3197130703327143,-0.5332194177636205,0.0903099436053319
327,11.79790669999784,0.09782372600676024,0.12057141204359245,-0.05295203153512377,0.13311280418993957,0.17209746190317074,-0.13185477448972563,0.01870735244184691,-0.012100391030054034,-0.25387548933892007,-0.3208899912857851,-0.5339030704462763,0.09646804674482407
328,11.801491199992595,0.09847828307334736,0.12141723038615339,-0.053603245902305204,0.13320088526616497,0.1720315303421172,-0.1331015626680861,0.01712715202540118,-0.014726408790384515,-0.2533861504346737,-0.3220151468993461,-0.5344860120923608,0.10262836689398681
329,11.805674200004432,0.09913325402025713,0.12226269290661061,-0.05426058308570678,0.13328118509314352,0.17195268324940519,-0.1343458710133208,0.015541548740224481,-0.017355043837042356,-0.25286652666454623,-0.32308794662548157,-0.5349676923898207,0.1087890007845387
330,11.815251699998043,0.09978860053259528,0.12310773608557948,-0.05492403052950972,0.13335367774504214,0.1718609089829974,-0.13558755065293468,0.013950801387161635,-0.01998579710526239,-0.25231662117589276,-0.3241078122302937,-0.5353476047704981,0.11494803741508151
331,11.82434700000158,0.10044428417115304,0.12395229635247781,-0.055593574946133616,0.1334183385751997,0.17175619836021613,-0.1368264527530027,0.012355171572680458,-0.022618167156414962,-0.2517364465243824,-0.3250741832515167,-0.5356252936361214,0.12110356139601214
332,11.828533099993365,0.10110026637872924,0.12479631009764398,-0.05626920231653972,0.13347514422969542,0.17163854466878062,-0.13806242856446743,0.010754923607657006,-0.025251650446645308,-0.2511260246879984,-0.32598652094534103,-0.5358003582000279,0.12725365544585196
333,11.832763200000043,0.10175650848651743,0.12563971368450585,-0.056950897890762034,0.13352407266036814,0.17150794367646657,-0.13929532946947434,0.009150324395071269,-0.027885741597099497,-0.2504853870716375,-0.32684430907440176,-0.5358724497418441,0.133396401779437
334,11.839857500002836,0.10241297172055598,0.12648244346179385,-0.05763864618866608,0.13356510313728065,0.17136439363948702,-0.14052500702771464,0.007541643321045534,-0.03051993363557394,-0.24981457450746244,-0.32764705352728185,-0.5358412669048362,0.13952988353917614
335,11.845971899994764,0.10306961720823776,0.12732443577579228,-0.05833243100093562,0.13359821626066762,0.171207895309776,-0.14175131302276403,0.005929152146280828,-0.033153718220508534,-0.24911363724543026,-0.3283942849920386,-0.5357065566019217,0.14565218814625
336,11.851814499998,0.10372640598487765,0.128165626982624,-0.059032235390287006,0.13362339397233272,0.17103845194116735,-0.1429740995083324,0.004313124870811236,-0.03578658589154337,-0.24838263492069843,-0.32908556498585406,-0.5354681218435626,0.15176141285099162
337,11.858115099996212,0.1043832990003343,0.12900595346056246,-0.05973804169291059,0.1336406195662669,0.17085606929421504,-0.14419321885428216,0.0026938375661614894,-0.03841802637046967,-0.24762163648958602,-0.32972049009391063,-0.5351258286874984,0.15785567048745522
338,11.864020799999707,0.10504025712568205,0.12984535162236385,-0.06044983152013746,0.13364987769839543,0.17066075563941333,-0.14540852379224836,0.0010715681984279377,-0.04104752888011088,-0.24683072014040555,-0.3302986917201297,-0.5346796061393846,0.1639330934897174
339,11.86936309999146,0.10569724115992848,0.13068375792761075,-0.061167585760329386,0.13365115439545674,0.1704525217588821,-0.1466198674607804,-0.0005534035371133188,-0.043674582444296776,-0.24600997318993886,-0.33081983202404286,-0.534129441318911,0.16999183563612166
340,11.87361169999349,0.10635421183677364,0.13152110889506077,-0.06189128458098934,0.1336444370631236,0.1702313809466378,-0.14782710344994435,-0.0021807963529799127,-0.04629867615922156,-0.24515949197712092,-0.33128359806717467,-0.5334753723147896,0.17603007138537022
341,11.87799009999435,0.10701112983140744,0.13235734111499298,-0.06262090743108992,0.13362971449353528,0.16999734900761118,-0.14903008584541944,-0.003810327477326853,-0.04891929942317375,-0.24427938176604272,-0.3316896969498661,-0.5327174802715751,0.18204599424137988
342,11.882668899997952,0.1076679557673429,0.13319239126154683,-0.06335643304361743,0.13360697687235845,0.16975044425565952,-0.15022866927214681,-0.005441712743109013,-0.05153594213009801,-0.2433697566557106,-0.33203785382321577,-0.5318558860300995,0.1880378169060568
343,11.888727099998505,0.108324650223283,0.13402619610504907,-0.06409783943832942,0.13357621578544288,0.16949068751068147,-0.15142270893753884,-0.007074666676379722,-0.05414809486629638,-0.24243073948154711,-0.33232781346735085,-0.5308907544499092,0.19400377504061436
344,11.897502699997858,0.10898117374001935,0.13485869252432428,-0.06484510392472352,0.1335374242250141,0.16921810209469557,-0.15261206067415947,-0.00870890260096959,-0.056755249146485005,-0.24146246168817206,-0.33255934382559377,-0.5298223021791486,0.19994213294573626
345,11.902581899994402,0.10963748682735994,0.13568981751898324,-0.06559820310521462,0.13349059659530013,0.16893271382663422,-0.15379658098168283,-0.010344132761530291,-0.059356897686882806,-0.24046506317506036,-0.3327322376990371,-0.528650801277176,0.2058511864970164
346,11.906228799998644,0.11029354997108305,0.1365195082216823,-0.06635711287851623,0.13343572871751438,0.1686345510157375,-0.15497612706805625,-0.01198006844487314,-0.06195253467688297,-0.23943869214046404,-0.3328463100589448,-0.5273765747450948,0.21172926090532349
347,11.910570299995015,0.11094932363991408,0.13734770191034676,-0.06712180844322227,0.13337281783428948,0.1683236444536762,-0.15615055688992435,-0.013616420076590481,-0.06454165600820129,-0.23838350494908855,-0.3329013935479898,-0.5259999877326905,0.21757470516585894
348,11.914918499998748,0.11160476829252303,0.13817433602035287,-0.06789226430158592,0.1333018626137103,0.16800002740569292,-0.15731972919249124,-0.015252897298165913,-0.06712375946010103,-0.23729966603058733,-0.33289733586703346,-0.5245214409396114,0.2233858877845457
349,11.919987400004176,0.11225984438454091,0.13899934815666404,-0.06866845426349327,0.13322286315298967,0.16766373560090406,-0.15848350354894664,-0.016889209037904522,-0.06969834486366681,-0.2361873477892529,-0.33283399981791306,-0.5229413687433355,0.22916119664764706
350,11.926406700004009,0.11291451237559345,0.13982267610591753,-0.06945035145062979,0.13313582098180413,0.16731480722182585,-0.1596417403994402,-0.018525063588463755,-0.07226491426862508,-0.23504673050379327,-0.3327112660791997,-0.5212602415364169,0.23489904209043333
351,11.930598899998586,0.11356873273635028,0.14064425784845772,-0.07023792830083714,0.1330407390652073,0.1669532828930364,-0.16079430108952242,-0.020160168705072756,-0.07482297213059598,-0.23387800220685426,-0.33252903637480175,-0.5194785684448068,0.24059786003593467
352,11.93458030000329,0.11422246595558722,0.14146403157031126,-0.07103115657265753,0.13293762180600013,0.16657920566886078,-0.16194104790793437,-0.0217942317142145,-0.07737202550463827,-0.23268135855393812,-0.3322872341892986,-0.5175968959230444,0.24625611211093534
353,11.939959800001816,0.11487567254725882,0.14228193567509934,-0.07183000735006212,0.13282647504657577,0.16619262102013024,-0.16308184412376,-0.023426959618877738,-0.07991158421869021,-0.23145700270178554,-0.33198580348430395,-0.515615802352345,0.25187228322257893
354,11.94365960000141,0.11552831305757881,0.14309790879588263,-0.07263445104736058,0.132707306070255,0.1657935768201622,-0.16421655402302027,-0.025058059194619398,-0.08244116101400703,-0.23020514520111912,-0.3316247070911892,-0.51353589222776,0.2574448790014415
355,11.947700499993516,0.11618034807210571,0.14391188980693573,-0.07344445741428925,0.13258012360218674,0.16538212333013874,-0.16534504294477084,-0.02668723707901504,-0.08496027166145448,-0.22892600390016316,-0.331203926504611,-0.5113577927698962,0.2629724240655847
356,11.9513891999959,0.11683173822283216,0.14472381783544835,-0.07425999554127562,0.1324449378098041,0.16495831318394338,-0.16646717731674782,-0.02831419986569138,-0.08746843506863536,-0.2276198038544536,-0.3307234628784066,-0.509082152259342,0.2684534612021478
357,11.955472899993763,0.11748244419527501,0.1455336322731507,-0.07508103386487691,0.1323017603028004,0.16452220137248635,-0.16758282469057872,-0.029938654203567616,-0.08996517337980843,-0.2262867772384038,-0.3301833382517995,-0.5067096391585125,0.27388655149656316
358,11.959671899996463,0.11813242673556441,0.14634127278786055,-0.07590754017339073,0.13215060413260948,0.16407384522755894,-0.1686918537765588,-0.03156030690294305,-0.09245001207438161,-0.22492716325384407,-0.3295835971107273,-0.5042409420869504,0.2792702755174104
359,11.963947099997313,0.11878164665752883,0.1471466793349499,-0.07673948161263552,0.13199148379133893,0.1636133044051906,-0.16979413447796282,-0.033178865050088185,-0.09492248006658804,-0.22354120802993893,-0.32892430931091443,-0.5016767711626882,0.2846032365154673
360,11.972343999994337,0.11943006484977359,0.14794979216872847,-0.07757682469189858,0.1318244152101237,0.16314064086852326,-0.1708895379248375,-0.034794036142069745,-0.09738210981716655,-0.22212916450027606,-0.3282055759754274,-0.4990178631120973,0.28988406692113206
361,11.98004409999703,0.12007764228274974,0.1487505518537419,-0.07841953529004872,0.13164941575673378,0.16265591887007055,-0.17197793650710488,-0.03640552825932196,-0.09982843748327377,-0.22069129223890585,-0.32742753646393785,-0.49626498831266475,0.2951114365967754
362,11.984471499992653,0.12072434001580909,0.14954889927598086,-0.0792675786618097,0.13146650423223138,0.16215920493311828,-0.17305920390674284,-0.038013050268987984,-0.10226100309940375,-0.2192278572562997,-0.3265903713517929,-0.49341895379877837,0.3002840574397379
363,11.988740400003737,0.12137011920424018,0.15034477565399648,-0.0801209194441893,0.13127570086657944,0.1616505678322049,-0.17413321512888252,-0.03961631202677911,-0.10467935075685063,-0.21773913179013643,-0.32569429868851363,-0.49048060107235625,0.3054006808661507
364,11.99332520000462,0.12201494110628015,0.1511381225499175,-0.08097952166305847,0.13107702731331425,0.1611300785727578,-0.17519984653193194,-0.04121502454353262,-0.10708302876310402,-0.2162253941259977,-0.3247395662747203,-0.48745080128447255,0.31046009175057643
365,11.997985699999845,0.12265876709009836,0.15192888188036538,-0.08184334873987656,0.13087050664351652,0.1605978103700066,-0.1762589758569107,-0.042808900111143716,-0.10947158977394121,-0.21468692844773518,-0.323726445439793,-0.48433045096919985,0.31546110349391676
366,12.001567400002386,0.12330155864074896,0.15271699592726437,-0.08271236349855884,0.13065616333924596,0.1600538386273208,-0.1773104822561025,-0.04439765240795016,-0.11184459091088095,-0.2131240247066545,-0.3226552278859037,-0.48112047087397464,0.3204025553027762
367,12.00577329999942,0.12394327736708996,0.15350240734854353,-0.08358652817248345,0.13043402328647627,0.15949824091396858,-0.17835424632110378,-0.04598099659363715,-0.1142015938817767,-0.21153697849862962,-0.3215262236014577,-0.4778218068380478,0.3252833114445565
368,12.00972649999312,0.12458388500866638,0.1542850591887281,-0.08446580441163465,0.1302041137675967,0.1589310969422686,-0.1793901501102681,-0.047558649394108525,-0.1165421651069067,-0.20992609094061007,-0.3203397596771067,-0.4744354308736636,0.3301022614099913
369,12.013859700004105,0.12522334344255556,0.15506489488941694,-0.08535015328987958,0.1299664634535126,0.15835248854410922,-0.1804180771755407,-0.04913032918475162,-0.1188658758501965,-0.20829166854613743,-0.3190961800711293,-0.4709623422736643,0.33485832010268224
370,12.017977499999688,0.12586161469017268,0.1558418582996431,-0.08623953531237535,0.12972110239532844,0.1577624996468104,-0.18143791258867906,-0.05069575607300186,-0.12117230235619819,-0.2066340230999892,-0.31779584526052507,-0.4674035692785014,0.3395504282327948
371,12.02390440000454,0.12649866092403428,0.1566158936861139,-0.08713391042310359,0.12946806201563668,0.15716121624829615,-0.18244954296685503,-0.05225465197817746,-0.12346102599770163,-0.20495347152982482,-0.31643913259107204,-0.46376017173252365,0.34417755411301265
372,12.032460999995235,0.12713444447447814,0.1573869457433274,-0.08803323801252919,0.12920737509941582,0.15654872639150513,-0.18345285649761356,-0.05380674071748549,-0.12573163343882826,-0.203250335763173,-0.3150264379713218,-0.46003324520426275,0.34873869755912706
373,12.036917299992638,0.12776892783633734,0.158154959603561,-0.08893747692538023,0.12893907578447378,0.15592512013795978,-0.18444774296306882,-0.055351748102510624,-0.12798371682314985,-0.2015249425607302,-0.31355817725991036,-0.45622392455016614,0.3532328934241965
374,12.041084700002102,0.12840207367556616,0.1589198808467279,-0.08984658546854468,0.12866319955139735,0.15529048954032754,-0.185434093763224,-0.05688940203886019,-0.1302168739718181,-0.1997776233386029,-0.3120347852719557,-0.4523333825683652,0.35765921164221304
375,12.044811999992817,0.12903384483581537,0.15968165551009608,-0.0907605214190795,0.12837978321301594,0.154644928614042,-0.18641180193841997,-0.05841943261288458,-0.13243070855844835,-0.19800871400117676,-0.31045671300530986,-0.44836282535662625,0.3620167543360162
376,12.049467399992864,0.1296642043449545,0.16044023009786576,-0.09167924203232806,0.12808886490349844,0.15398853330814488,-0.18738076219101185,-0.05994157216405295,-0.13462483026161207,-0.19621855479179157,-0.3088244268227102,-0.4443134890702075,0.3663046540354432
377,12.05554289999418,0.1302931154215399,0.16119555159060162,-0.09260270405014238,0.12779048406710544,0.153321401475408,-0.18834087090634968,-0.06145555536363319,-0.13679885490784635,-0.19440749014312822,-0.30713841040795503,-0.4401866385770773,0.3705220757518179
378,12.059674899996024,0.1309205414812266,0.16194756745451658,-0.09353086370920678,0.1274846814465126,0.15264363284176918,-0.18929202617298416,-0.06296111930629922,-0.13895240461092562,-0.19257586850748898,-0.30539916645962406,-0.43598356696139373,0.37466822023470525
379,12.063874600004056,0.1315464461431214,0.16269622565060357,-0.09446367674945878,0.12717149907066216,0.15195532897508518,-0.19023412780197865,-0.06445800360546229,-0.14108510790998963,-0.19072404217516642,-0.3036072169251178,-0.43170559353802906,0.3787423236063652
380,12.068272999997134,0.1321707932360753,0.16344147464361208,-0.09540109842260262,0.12685098024214922,0.15125659325320953,-0.19116707734532937,-0.06594595048717922,-0.14319659988929553,-0.18885236710831754,-0.30176310168858345,-0.427354058506956,0.3827436533899231
381,12.07215749999159,0.1327935468049128,0.1641832634108661,-0.09634308350071125,0.12652316952414994,0.1505475308315681,-0.1920907781136441,-0.06742470487258434,-0.145286522263792,-0.18696120279838066,-0.29986737611420733,-0.4229303174028732,0.3866715043020948
382,12.077651200001128,0.1334146711165955,0.16492154145092183,-0.09728958628491362,0.12618811272699737,0.1498282486103958,-0.19300513519316068,-0.06889401444764533,-0.1473545234443042,-0.18505091214131217,-0.2979206100244724,-0.41843573802855655,0.39052519530340307
383,12.081405299992184,0.1340341306663196,0.16565625879206367,-0.09824056061416403,0.12584585689442399,0.1490988552016711,-0.19391005546219905,-0.07035362973555016,-0.14940025859295908,-0.18312186132400343,-0.2959233876723033,-0.41387169861525325,0.3943040682852479
384,12.08577589999186,0.13465189018354437,0.16638736600063675,-0.09919595987409116,0.12549645028942577,0.148359460895808,-0.19480544760706314,-0.07180330416618909,-0.1514233896702848,-0.18117441971242526,-0.29387630697949363,-0.4092395862444188,0.39800748746972997
385,12.089340299993635,0.13526791463795038,0.16711481418921542,-0.10015573700592371,0.12513994237982168,0.1476101776281275,-0.1956912221373933,-0.0732427941410544,-0.1534235854751196,-0.17920895974394527,-0.29177997930582866,-0.404540795532493,0.40163483856163573
386,12.093210799997903,0.13588216924532617,0.1678385550246063,-0.10111984451549041,0.12477638382347969,0.14685111894515704,-0.19656729140100934,-0.0746718591004526,-0.15540052167878116,-0.17722585682380937,-0.2896350299440186,-0.3997767275522938,0.4051855281649259
387,12.099536800000353,0.13649461947338132,0.16855854073568527,-0.10208823448229157,0.12440582645321549,0.1460823999707662,-0.19743356959824548,-0.07609026159326995,-0.1573538808543713,-0.17522548922319578,-0.28744209835244344,-0.39494878924863946,0.4086589838283895
388,12.104276500002015,0.13710523104748448,0.16927472412106775,-0.10306085856863999,0.12402832326133263,0.145304137372178,-0.19828997279579103,-0.07749776734647285,-0.1592833525052002,-0.17320823797524768,-0.28520183771837543,-0.3900583936996585,0.4120546546866048
389,12.108511899990845,0.13771396995632454,0.1699870585566115,-0.10403766802886863,0.12364392838383795,0.14451644932582522,-0.1991364189400031,-0.07889414533057929,-0.16118863309666026,-0.17117448676682576,-0.282914915454202,-0.3851069604091301,0.4153720132995261
390,12.113932499996736,0.13832080245749348,0.17069549800275113,-0.1050186137186024,0.12325269708433806,0.1437194554830482,-0.19997282786968332,-0.0802791678340377,-0.16306942608752417,-0.16912462181645552,-0.28058201541823613,-0.3800959166208669,0.41861055984512263
391,12.118074600002728,0.1389256950829892,0.17139999701166378,-0.10600364610409138,0.12285468573752353,0.14291327693564354,-0.20079912132819042,-0.08165261055053176,-0.16492544197474088,-0.16705903172486103,-0.27820383943210053,-0.3750266998908451,0.4217698263694719
392,12.122149699993315,0.13952861464463598,0.17210051073426488,-0.10699271527160176,0.1224499518122071,0.14209803618112155,-0.20161522297474754,-0.08301425266827692,-0.16675639835002085,-0.16497810731112858,-0.27578110614168827,-0.3699007582916775,0.42484937704949605
393,12.126577699993504,0.14012952823942063,0.1727969949270323,-0.10798577093686018,0.12203855385392988,0.14127385708769852,-0.20242105839494426,-0.08436387694612707,-0.16856201994664222,-0.16288224146065744,-0.2733145474547088,-0.3647195489776491,0.4278488049930695
394,12.131270199999562,0.1407284032547419,0.1734894059586579,-0.10898276245454794,0.12162055146725143,0.14044086485909416,-0.20321655511054887,-0.08570126976784781,-0.17034203868192863,-0.16077182899278236,-0.2708049047720385,-0.3594845369608001,0.4307677286634992
395,12.13483450000058,0.14132520737357246,0.1741777008165256,-0.1099836388278418,0.12119600529782236,0.13959918599910615,-0.20400164258870906,-0.08702622118117265,-0.17209619369202275,-0.1586472665438761,-0.2682529264172974,-0.3541971936819753,0.43360578951211143
396,12.139215599992896,0.14191990857953218,0.1748618371130147,-0.11098834871799865,0.12076497701429041,0.13874894827606574,-0.204776252250615,-0.08833852492680584,-0.1738242313603158,-0.15650895245824645,-0.26565936608829827,-0.34885899688821415,0.43636265134907454
397,12.143707299997914,0.14251247516187215,0.1755417730916285,-0.11199684045398146,0.12032752929008797,0.13789028068713283,-0.20554031747962728,-0.08963797846225448,-0.17552590535101564,-0.1543572866774244,-0.26302498186473755,-0.3434714315712245,0.4390380002144579
398,12.147850399996967,0.14310287572036892,0.17621746763294652,-0.11300906204212388,0.1198837257851038,0.13702331342242152,-0.20629377362885168,-0.09092438298107568,-0.17720097664680265,-0.15219267063232883,-0.26035053530203967,-0.33803599049487587,0.44163154389407444
399,12.15141959999164,0.14369107917012833,0.17688888026040048,-0.11402496117583066,0.11943363112728136,0.13614817782892502,-0.20703655802820692,-0.09219754342780005,-0.17884921358758374,-0.15001550713731443,-0.25763679064279593,-0.3325541732550438,0.44414301194933614
400,12.15552430000389,0.14427705474629884,0.1775559711458719,-0.1150444852453117,0.11897731089414385,0.13526500637426017,-0.20776860999095773,-0.0934572685094264,-0.18047039189890532,-0.14782620028204296,-0.25488451394104983,-0.32702748534860354,0.44657215587950916
401,12.159722900003544,0.14486077200869377,0.1782187011151116,-0.11606758134734675,0.11851483159427945,0.13437393261031302,-0.20848987081971965,-0.0947033707017358,-0.18206429472155441,-0.14562515532393602,-0.2520944720972702,-0.321457438671659,0.4489187493385223
402,12.164022600001772,0.14544220084632253,0.17887703165297986,-0.11709419629507845,0.11804626064880433,0.13347509113669237,-0.20920028381193473,-0.09593566625129893,-0.1836307126448698,-0.14341277857791476,-0.24926743221710254,-0.3158455510767417,0.4511825885731846
403,12.168017100004365,0.14602131148183067,0.17953092490850667,-0.11812427662783087,0.1175716663728282,0.1325686175640478,-0.20989979426479236,-0.09715397517548587,-0.18516944373198985,-0.14118947730454445,-0.24640416161037626,-0.3101933450894557,0.4533634925860169
404,12.172084999998331,0.1465980744758489,0.1801803436997713,-0.11915776862095097,0.11709111795691715,0.13165464847727507,-0.21058834947960525,-0.09835812126446367,-0.18668029354054672,-0.13895565959817338,-0.2435054276740704,-0.3045023472100862,0.4554613032366158
405,12.177432299999056,0.14717246073125087,0.18082525151860068,-0.12019461829567012,0.11660468544853958,0.13073332139863061,-0.2112658987656306,-0.09954793208005559,-0.18816307514104816,-0.13671173427408087,-0.24057199757227074,-0.2987740870052871,0.4574758856043375
406,12.181220899990876,0.14774444149731977,0.1814656125350865,-0.1212347714289831,0.11611243973354027,0.12980477475075627,-0.21193239344333653,-0.10072323895459225,-0.18961760912864187,-0.13445811075305056,-0.23760463832246942,-0.2930100957351365,0.4594071283412317
407,12.184977400000207,0.148313988373824,0.18210139160192,-0.12227817356354183,0.11561445251759761,0.12886914781967818,-0.2125877868470885,-0.10188387699061924,-0.19104372362799957,-0.13219519894504864,-0.2346041168548538,-0.28721190550657494,0.4612549438630291
408,12.188870800004224,0.14888107331500153,0.1827325542585452,-0.12332477001756068,0.11511079630770053,0.12792658071778334,-0.21323203432727222,-0.10302968506033121,-0.19244125429675862,-0.1299234091319195,-0.23157120036251663,-0.28138104851498313,0.4630192686385706
409,12.193083899997871,0.14944566863345332,0.18335906673512994,-0.12437450589473109,0.11460154439361131,0.12697721434678483,-0.21386509325182668,-0.10416050580872249,-0.1938100443229499,-0.1276431518482185,-0.228506656447046,-0.27551905572954416,0.46470006321997637
410,12.197200599999633,0.15000774700394556,0.18398089595635486,-0.12542732609414203,0.1140867708293115,0.12602119036072357,-0.21448692300719557,-0.10527618565445246,-0.1951499444155149,-0.1253548377636111,-0.22541125291477737,-0.26962745554728607,0.4662973123891133
411,12.20163159999356,0.15056728146712067,0.18459800954502065,-0.1264831753202039,0.11356655041445625,0.12505865112902675,-0.21509748499870424,-0.10637657479099309,-0.19646081278850114,-0.12305887756226552,-0.22228575821472638,-0.2637077727146114,0.4678110252589443
412,12.205771299995831,0.15112424543311714,0.18521037582547398,-0.12754199809257266,0.11304095867580896,0.12408973969966508,-0.21569674265032526,-0.10746152719179974,-0.19774251514097668,-0.12075568182425563,-0.21913094240247238,-0.2577615270428175,0.469241234923771
413,12.209986899993964,0.15167861268509808,0.18581796382685248,-0.12860373875607153,0.11251007184864475,0.12311459976240856,-0.2162846614038895,-0.10853090062093487,-0.1989949246285975,-0.11844566090839212,-0.21594757810402068,-0.25179023194469086,0.47058799838714466
414,12.214242400004878,0.1522303573826882,0.18642074328614944,-0.12966834149060733,0.11197396685808068,0.1221333756122633,-0.21686120871769976,-0.10958455664771474,-0.20021792182913484,-0.11612922483433402,-0.2127364409245957,-0.24579539347234394,0.47185139594705366
415,12.217972099999317,0.15277945406531881,0.1870186846510993,-0.13073575032107845,0.11143272130033521,0.12114621211306624,-0.21742635406458286,-0.1106223606613521,-0.20141139470458344,-0.11380678317146438,-0.20949831006217443,-0.23977850888683266,0.4730315303619854
416,12.222769400003015,0.1533258776554806,0.1876117590828845,-0.1318059091272722,0.11088641342391448,0.12015325466129445,-0.2179800689294108,-0.11164418189163466,-0.20257523855262646,-0.11147874492920029,-0.20623396944724284,-0.23374106490328525,0.4741285269416653
417,12.227484000002733,0.15386960346188366,0.1881999384586651,-0.1328787616537483,0.11033512211066845,0.11915464915013702,-0.21852232680607442,-0.112649893434773,-0.20370935595149114,-0.10914551844497657,-0.2029442084716391,-0.22768453652386247,0.475142534013997
418,12.232236700001522,0.15441060718252395,0.18878319537393243,-0.13395425151970647,0.10977892685672312,0.11815054193384647,-0.21905310319390336,-0.11363937228124442,-0.2048136566999403,-0.10680751126996516,-0.19962982274939609,-0.22161038595813806,0.4760737245288886
419,12.241017699998338,0.15494886490765591,0.18936150314468833,-0.13503232222883485,0.10921790775326289,0.11714107979240065,-0.21957237559351617,-0.1146124993491209,-0.20588805775151406,-0.10446513004129122,-0.19629161563585504,-0.21552006174464994,0.47692229947841436
420,12.245314100000542,0.1554843531226701,0.18993483580945128,-0.13611291717913665,0.10865214546713507,0.11612640989650062,-0.22008012350198397,-0.11556915952684774,-0.20693248314588503,-0.1021187803341282,-0.19293039945229312,-0.20941499799150856,0.4776884908170219
421,12.249418699997475,0.15601704871087493,0.19050316813109153,-0.13719597967273106,0.1080817212212118,0.11510667977290737,-0.22057632840722652,-0.11650924171861099,-0.20794686393563433,-0.09976886650520465,-0.1895469950202822,-0.20329661338536695,0.4783725615195334
422,12.254225900003805,0.15654692895618139,0.1910664755984965,-0.13828145292562485,0.10750671677454847,0.1140820372701596,-0.22106097378163736,-0.11743263888253837,-0.2089311381078638,-0.09741579154432908,-0.18614223040633765,-0.19716631121941833,0.4789748029239933
423,12.259376799993332,0.15707397154568967,0.19162473442806882,-0.13936928007745059,0.10692721440237003,0.11305263052468113,-0.22153404507502014,-0.11833924806372505,-0.20988525051124712,-0.09505995694401988,-0.18271693943093958,-0.19102547988876448,0.47949553321082766
424,12.26369259999774,0.15759815457217705,0.1921779215650586,-0.14045940420116876,0.10634329687590482,0.11201860792721584,-0.22199552970693212,-0.11922897041777636,-0.21080915278251225,-0.09270176256598185,-0.17927196041218357,-0.18487549265867276,0.4799350986032016
425,12.26924280000094,0.1581194565364864,0.19272601468473147,-0.14155176831273075,0.1057550474421394,0.11098011808965778,-0.22244541705830775,-0.12010171123148218,-0.21170280327121416,-0.09034160649893519,-0.17580813616707225,-0.1787177083358301,0.4802938723435608
426,12.273961099999724,0.15863785634981495,0.1932689921933746,-0.14264631538069864,0.10516254980344907,0.10993730981222578,-0.2228836984624045,-0.12095737994637232,-0.21256616697281647,-0.08797988493515385,-0.17232631363144832,-0.17255347205603988,0.4805722514489267
427,12.281096499995328,0.15915333333590254,0.1938068332291422,-0.14374298833581908,0.10456588809712117,0.10889033205095142,-0.2233103671952126,-0.12179589017565437,-0.21339921546120832,-0.08561699206019394,-0.16882734321616105,-0.1663841151686316,0.4807706570066721
428,12.289067999998224,0.15966586723311907,0.19433951766274188,-0.1448417300805489,0.1039651468748191,0.10783933388551702,-0.22372541846531685,-0.12261715972143944,-0.21420192682064956,-0.08325331992652425,-0.16531207986011495,-0.16021095587871761,0.4808895376785437
429,12.293090899998788,0.16017543819645091,0.1948670260979639,-0.14594248349852929,0.10336041108193623,0.10678446448741276,-0.22412884940306393,-0.12342111060203276,-0.21497428558460177,-0.08088925830880585,-0.161781383526636,-0.15403529968456114,0.4809293705170807
430,12.297497099993052,0.16068202679938534,0.19538933987205456,-0.14704519146400483,0.10275176603679163,0.10572587308837601,-0.22452065904900143,-0.12420766907403928,-0.21571628267197332,-0.07852519456949618,-0.1582361174500293,-0.1478584389696234,0.4808906568777762
431,12.301245800001196,0.1611856140356924,0.19590644105593502,-0.14814979685118412,0.10213929740976666,0.10466370894917522,-0.2249008483417239,-0.12497676564241583,-0.21642791532193975,-0.0761615135543171,-0.15467714644200833,-0.14168165376185876,0.48077391610916737
432,12.3056030000007,0.16168618132110424,0.1964183124542679,-0.1492562425435393,0.10152309120240184,0.10359812132869003,-0.22526942010528425,-0.12572833506592682,-0.2171091870376536,-0.07379859751989322,-0.151105335752355,-0.13550621231738474,0.4805796798861567
433,12.309555300002105,0.1621837104948915,0.19692493760537222,-0.15036447144304288,0.10090323372647989,0.10252925945324862,-0.22562637903632832,-0.12646231635599525,-0.21776010752680303,-0.07143682608493022,-0.14752155036853729,-0.12933337065381142,0.48030848952327154
434,12.314077200004249,0.16267818382133697,0.19742630078098833,-0.15147442647934076,0.10027981158313382,0.10145727248629215,-0.22597173169102627,-0.12717865277527288,-0.2183806926407336,-0.06907657618426723,-0.14392665530673232,-0.1231643725492591,0.47996089635315725
435,12.319993500001146,0.16316958399110662,0.19792238698589473,-0.15258605061886063,0.09965291164194402,0.10038230949831062,-0.2263054864717556,-0.1278772918393523,-0.2189709643149973,-0.06671822201633407,-0.14032151590401834,-0.11700044893010657,0.47953746362733596
436,12.327136499996412,0.16365789412251772,0.1984131819573775,-0.1536992868738541,0.09902262102002961,0.09930451943709184,-0.22662765361351583,-0.12855818531820964,-0.21953095050245522,-0.06436213497851681,-0.13670699854966273,-0.11084281749078707,0.47903877019481955
437,12.331054499998572,0.1641430977627043,0.1988986721645545,-0.15481407831137142,0.09838902706113123,0.09822405109831492,-0.2269382451699761,-0.12922128924510629,-0.22006068511008858,-0.06200868357844981,-0.13308397214507786,-0.10469268318987085,0.47846541377265306
438,12.335604499996409,0.16462517888867972,0.19937884480755577,-0.15593036806216656,0.09775221731461493,0.09714105309642046,-0.22723727499901777,-0.12986656393238458,-0.22056020793697856,-0.05965823333722775,-0.12945330827883464,-0.0985512375209326,0.47781801048156597
439,12.33916400000453,0.16510412190829563,0.19985368781656132,-0.15704809932952976,0.09711227951439971,0.0960556738358138,-0.2275247587478305,-0.13049397398209012,-0.22102956460394904,-0.057311146705262814,-0.12581587970726946,-0.09241965824809058,0.47709719256615474
440,12.344130600002243,0.16557991166109734,0.20032318985069844,-0.158167215398046,0.0964693015578569,0.09496806148242692,-0.22780071383762762,-0.1311034882868301,-0.22146880648894648,-0.054967782987910135,-0.12217255836944572,-0.08629911022500159,0.47630360614550243
441,12.349610599994776,0.16605253341907544,0.20078734029679993,-0.15928765964227745,0.09582337148472932,0.09387836393555696,-0.22806515944801092,-0.13169508002088018,-0.2218779906647344,-0.052628498283439136,-0.11852421415978774,-0.08019074475274263,0.4754379097222015
442,12.354066100000637,0.16652197288731388,0.2012461292680245,-0.16040937553536808,0.09517457745611804,0.09278672880004064,-0.2283181165010763,-0.13226872662897626,-0.2222571798279604,-0.05029364542331711,-0.11487171469405949,-0.0740956985562209,0.47450077655062606
443,12.359111999991,0.16698821620453494,0.20169954760234143,-0.16153230665756987,0.09452300773351179,0.0916933033587902,-0.2285596076451915,-0.1328244098151207,-0.2226064422267875,-0.04796357388689753,-0.11121592490099354,-0.06801509317120494,0.47349290059565036
444,12.36870629999612,0.1674512499435412,0.20214758686088108,-0.16265639670468807,0.09386875065788373,0.09059823454567924,-0.22878965723826294,-0.1333621155273593,-0.22292585158393496,-0.04563862968312214,-0.1075577069634272,-0.06195003424349197,0.4724150031033232
445,12.37206999999762,0.16791106111155507,0.20259023932615286,-0.16378158949644273,0.09321189462887053,0.08950166891883526,-0.22900829133035047,-0.13388183394600878,-0.2232154870174196,-0.04331915520061148,-0.10389792052321084,-0.05590161053560811,0.4712678366329818
446,12.37834440000006,0.1683676371504559,0.20302749800013317,-0.1649078289847431,0.09255252808398488,0.08840375263430479,-0.22921553764546043,-0.1343835594704483,-0.2234754329538312,-0.04100548904972631,-0.10023742113234345,-0.0498708925249878,0.47005218362399787
