,time,x,y,z,vx,vy,vz,ax,ay,az,jx,jy,jz
0,11.097415600001112,0.025959039520662763,-0.006772017913263215,0.03513001521876956,-0.0015493275375273033,-0.005690807284056694,0.005789430375711654,0.016398059355457396,0.026477746189770213,-0.00811949932040571,0.06547303433560568,0.09477845967397072,-0.07811833637514787
1,11.10152830000152,0.025952294682585232,-0.00679712773930586,0.03515574724157533,-0.0014755644821480137,-0.0055718117106794305,0.005752452363544241,0.01669103637875576,0.026901455567094376,-0.008469766521735471,0.06594772874281102,0.09528334883585145,-0.079000595303916
2,11.106555799997295,0.025945881636056396,-0.006821702800927901,0.03518131091293872,-0.0014004904427819492,-0.0054509219707562125,0.0057139038827090345,0.01698612759330677,0.027327405641497646,-0.008823962411933933,0.06642134490060451,0.09578351620578318,-0.07988056719803006
3,11.111471299998811,0.025939806247236328,-0.006845734630537826,0.03520669919172739,-0.001324096003822755,-0.0053281281208584184,0.005673767439508843,0.0172833279405109,0.02775557510485468,-0.009182076487310665,0.06689376918827035,0.09627884645902676,-0.08075811423098683
4,11.116056500002742,0.02593407442421521,-0.006869214716422193,0.03523190495891612,-0.0012463717733462406,-0.00520342031370806,0.0056320255884504235,0.017582631850838717,0.028185942131816157,-0.009544097628615399,0.06736488593002878,0.09676922288371821,-0.08163309820443013
5,11.121389399995678,0.02592869211690266,-0.006892134503179467,0.03525692101780785,-0.0011673083854105875,-0.005076788800497239,0.005588660934989018,0.01788403323418812,0.0286184843735152,-0.009910014099817102,0.06783457753202946,0.09725452736734375,-0.08250538037205139
6,11.125099199998658,0.025923665316906718,-0.0069144853921642635,0.035281740094266933,-0.0010868965023981855,-0.004948223933236996,0.005543656138283769,0.01818752547242331,0.0290531789513711,-0.01027981354443871,0.06830272493252587,0.09773464046894884,-0.0833748213415825
7,11.128879399999278,0.025919000057402285,-0.006936258741942125,0.035306354836964794,-0.0010051268173823713,-0.004817716167132019,0.005496993913974937,0.018493101413746306,0.029490002451439637,-0.01065348298346225,0.0687692077682243,0.09820944149007418,-0.08424128131957084
8,11.133076899990556,0.025914702412989005,-0.006957445868754939,0.03533075781763792,-0.0009219900565194555,-0.004685256062979868,0.005448657036957996,0.018800753366719297,0.029928930918849354,-0.01103100881384628,0.06923390440364109,0.09867880849063736,-0.08510461992543071
9,11.137009600002784,0.025910778499538382,-0.006978038046997115,0.03535494153135825,-0.0008374769814687651,-0.0045508342895953045,0.005398628344174072,0.01911047309489794,0.0303699398522935,-0.011412376804772879,0.06969669212683763,0.09914261831222125,-0.08596469614242187
10,11.141296400004649,0.02590723447403007,-0.006998026509702616,0.035378898396816065,-0.0007515783918325262,-0.0044144416262586255,0.005346890737417506,0.019422251812599097,0.030813004198673968,-0.011797572095727942,0.0701574471787698,0.09960074659636707,-0.08682136860152084
11,11.145405699993717,0.025904076534377242,-0.007017402449042968,0.035402620756615405,-0.0006642851276136463,-0.004276068965187755,0.0052934271861434104,0.019736080179795872,0.031258098347756356,-0.01218657919527951,0.07061604463585332,0.10005306778342904,-0.08767449544443712
12,11.149894999995013,0.02590131091924096,-0.007036157016836336,0.035426100877581995,-0.0005755880717011194,-0.0041357073140342445,0.005238220730286122,0.02005194829683815,0.0317051961268037,-0.01257938197793656,0.07107235847846764,0.1004994551528462,-0.08852393428442064
13,11.154921900000772,0.025898943907833386,-0.007054281325067792,0.035449330951083796,-0.00048547815237488524,-0.00399334779840321,0.005181254483094775,0.0203698456999585,0.03215427079559064,-0.012975963682577836,0.07152626159585014,0.1009397808647722,-0.08936954247045445
14,11.162113700003829,0.025896981819709803,-0.007071766446420863,0.035472303093364216,-0.00039394634583131015,-0.0038489816643937965,0.005122511633965761,0.020689761356036344,0.03260529504140838,-0.013376306911666502,0.07197762568823654,0.10137391587329816,-0.09021117693079972
15,11.166359099996043,0.025895431014549317,-0.007088603414820449,0.035495009345887917,-0.00030098367873473476,-0.0037026002811636556,0.005061975451285304,0.021011683657231245,0.03305824097330506,-0.013780393628283835,0.07242632113474691,0.10180172979911961,-0.09104869408479525
16,11.17454340000404,0.02589429789192413,-0.007104783225987238,0.035517441675699375,-0.00020658123079081065,-0.0035541951435207686,0.004999629285288377,0.02133560041456899,0.033513080115955204,-0.014188205154557374,0.07287221688084948,0.10222309084762349,-0.09188195015603622
17,11.178576899998006,0.025893588891057275,-0.007120296838003744,0.035539591975794184,-0.0001107301373552424,-0.0034037578745425936,0.0049354565709152885,0.021661498851571353,0.03396978340316973,-0.014599722171487292,0.0733151805508976,0.10263786575508389,-0.0927108011431075
18,11.183813399999051,0.02589331049056865,-0.007135135171892068,0.03556145206550308,-1.3421592063928806e-05,-0.0032512802282257587,0.004869440830672147,0.02198936559884571,0.034428321171285595,-0.015014924717113562,0.07375507847748655,0.10304591985102057,-0.0935351024965225
19,11.18728729999566,0.02589346920820929,-0.007149289112203568,0.035583013690888766,8.535315051004974e-05,-0.0030967540921641563,0.0048015656775037925,0.022319186687976573,0.03488866315323183,-0.015433792183461534,0.07419177577974617,0.10344711720135093,-0.09435470906986583
20,11.191194400002132,0.02589407160058369,-0.007162749507620504,0.03560426852515554,0.00018560277217181972,-0.00294017149025155,0.0047318148176815015,0.02265094754681336,0.035350778473195746,-0.015856303314273436,0.07462513659330974,0.1038413207624992,-0.09516947522742322
21,11.196226899992324,0.025895124262860173,-0.0071755071715698,0.035625208169071866,0.00028733588840570707,-0.002781524585407232,0.004660172053696143,0.0229846329954126,0.035814635642063164,-0.0162824362029137,0.07505502407031164,0.10422839251593055,-0.09597925474631401
22,11.199731899992912,0.025896633828469122,-0.007187552882849002,0.03564582415140583,0.0003905610456544418,-0.002620805682319289,0.00458662128716456,0.023320227241325688,0.03628020255328429,-0.016712168289227766,0.07548130039896671,0.10460819348899056,-0.09678390081647015
23,11.204002500002389,0.02589860696878908,-0.007198877386264497,0.03566610792937361,0.0004952867185781304,-0.0024580072302071263,0.004511146521750743,0.023657713875715674,0.036747446478499785,-0.017145476357447217,0.07590382690631738,0.10498058374633713,-0.09758326608962319
24,11.208073000001605,0.02590105039282057,-0.007209471393282108,0.035686050889100956,0.0006015213072988333,-0.002293121825603735,0.004433731866090886,0.02399707586956124,0.03721633406333022,-0.01758233653348541,0.07632246400440754,0.10534542242171771,-0.09837720255209659
25,11.211993399992934,0.02590397084684759,-0.0072193255826901205,0.035705644346097784,0.0007092731346256873,-0.002126142215155763,0.004354361536738677,0.02433829556929351,0.03768683132328552,-0.018022724281708275,0.07673707117561454,0.10570256773876915,-0.09916556173016912
26,11.216407200001411,0.02590737511408671,-0.007228430601274849,0.03572487954574591,0.0008185504432605756,-0.0019570612984422596,0.004273019861119151,0.024681354692869233,0.0381589036397399,-0.018466614404061214,0.07714750687478333,0.10605187707586551,-0.09994819484680079
27,11.22027550000348,0.025911270014323643,-0.0072367770645087965,0.03574374766379995,0.0009293613929882343,-0.0017858721308106362,0.004189691280481763,0.0250262343245349,0.03863251575641956,-0.018913981038237455,0.07755362842646422,0.10639320704930212,-0.10072495263569672
28,11.224682200001553,0.025915662403537286,-0.007244355557251511,0.03576223980690144,0.001041714057835233,-0.001612567926226733,0.004104360352870579,0.02537291490998357,0.03910763177611938,-0.019364797655146912,0.07795529232828959,0.10672641349249173,-0.10149568539012938
29,11.228830199994263,0.025920559173510962,-0.007251156634463159,0.035780347013106194,0.0011556164232168933,-0.0014371420601400572,0.004017011756099913,0.025721376253824275,0.03958421515700513,-0.01981903705751991,0.07835235435862754,0.10705135141681907,-0.10226024297278549
30,11.23282219999237,0.025925967251431006,-0.007257170821930932,0.035798060252424935,0.0012710763830737048,-0.0012595880723668227,0.003927630290736973,0.02607159751569879,0.04006222870898108,-0.020276671377463848,0.07874466930255665,0.10736787506912256,-0.10301847471794018
31,11.237187699996866,0.025931893599472487,-0.007262388617008329,0.03581537042737729,0.001388101736983615,-0.0010798996699875796,0.003836200883099289,0.02642355720530752,0.04054163459050478,-0.020737672074194587,0.07913209100569665,0.1076758380430303,-0.10377022952928676
32,11.241095999997924,0.025938345214372036,-0.0072668004893674,0.03583226837355915,0.0015067001872540904,-0.000898070730258657,0.003742708588257581,0.026777233179006286,0.04102239430594748,-0.021202009932465484,0.07951447266290108,0.10797509340251751,-0.10451535593860183
33,11.245374199992511,0.02594532912698764,-0.007270396881763995,0.0358487448602234,0.0016268793360040598,-0.0007140953035333302,0.0036471385930471993,0.027132602637406526,0.041504468703510704,-0.02166965506082191,0.07989166687695577,0.10826549375282078,-0.10525370201774714
34,11.24953089999326,0.025952852401845444,-0.00727316821081605,0.03586479059087417,0.0017486466822345752,-0.0005279676161918416,0.003549476219086559,0.02748964212249552,0.04198781797321902,-0.022140576889245582,0.08026352566349315,0.1085468912698108,-0.10598511534931165
35,11.25361800000246,0.025960922136673434,-0.007275104867794967,0.035880396203874475,0.0018720096188850766,-0.0003396820735804672,0.003449706925809584,0.027848327515280408,0.04247240164509853,-0.022614744167147295,0.08062990051949895,0.10881913775138755,-0.10670944310482401
36,11.258202700002585,0.02596954546192198,-0.007276197219430108,0.03589555227306749,0.0019969754298830435,-0.0001492332629577796,0.0033478163135020407,0.028208634033519305,0.04295817858762794,-0.02309212496170869,0.08099064244775266,0.10908208467005891,-0.10742653204481008
37,11.26189739999245,0.02597872954027121,-0.0072764356087264455,0.03591024930841129,0.002123551287180027,4.338404355247307e-05,0.0032437901263487703,0.028570536229583256,0.0434451070063859,-0.023572686655875495,0.08134560215743256,0.10933558320597547,-0.10813622857752803
38,11.26624240000092,0.025988481566125127,-0.007275810355795392,0.03592447775662727,0.002251744247782238,0.0002381748860030422,0.003137614255487916,0.02893400798997618,0.04393314444279669,-0.024056395947223048,0.08169463025499084,0.10957948428852177,-0.1088383787882667
39,11.271115700001246,0.025998808765092505,-0.007274311758698827,0.03593822800186215,0.002381561250782296,0.00043514411365911445,0.0030292747420682707,0.029299022534898897,0.04442224777314838,-0.024543218846210794,0.0820375771658478,0.10981363865135622,-0.10953282849809083
40,11.274657699992533,0.026009718393454537,-0.007271930094306357,0.03595149036636364,0.002513009114385931,0.0006342963820312325,0.0029187577803190716,0.029665552417070813,0.044912373207829336,-0.025033120675571657,0.08237429310009024,0.1100378968593336,-0.1102194234204313
41,11.279010199999902,0.02602121773761921,-0.007268655619165803,0.03596425511116982,0.002646094532933226,0.0008356361499044219,0.0028060497206127914,0.030033569520988065,0.04540347629058649,-0.025526066069962872,0.08270462818464895,0.1102521093500946,-0.11089800904364851
42,11.282806200004416,0.026033314113562404,-0.007264478570386952,0.0359765124368121,0.0027808240739187018,0.0010391676763644977,0.002691137072538046,0.03040304506292385,0.045895511898132665,-0.02602201897430816,0.08302843258561539,0.11045612649766008,-0.1115684306310161
43,11.287455900004716,0.02604601486625568,-0.007259389166538558,0.03598825248403205,0.002917204175012563,0.0012448950178236898,0.0025740065079771705,0.030773949591277307,0.04638843423997193,-0.02652094264344841,0.08334555650820284,0.11064979865158905,-0.11223053342622327
44,11.291298900003312,0.02605932736908083,-0.007253377608558621,0.03599946533451177,0.0030552411410838943,0.0014528220250453923,0.0024546448641822407,0.03114625298657349,0.04688219685835612,-0.027022799642316363,0.08365585018207437,0.11083297618713808,-0.11288416264361215
45,11.298550499996054,0.02607325902323111,-0.00724643408067792,0.03601014101161812,0.0031949411412219063,0.0016629523401694012,0.0023330391468510915,0.03151992446168141,0.04737675262855748,-0.027527551845500233,0.08395916395924133,0.1110055095810833,-0.11352916343879917
46,11.302281700001911,0.026087817257099234,-0.00723854875135681,0.03602026948116059,0.003336310205761075,0.001875289393739095,0.00220917653320723,0.031894932562687016,0.047872053759501265,-0.02803516043715641,0.08425534833363021,0.11116724944598537,-0.11416538102614199
47,11.307321300002512,0.026103009525652084,-0.007229711774235274,0.03602984065216295,0.003479354223310174,0.002089836401732313,0.0020830443750766317,0.03227124516928568,0.04836805179434397,-0.02854558591162058,0.08454425390188235,0.11131804652895536,-0.1147926607569952
48,11.312294200004544,0.026118843309792198,-0.007219913289096191,0.036038844377648545,0.0036240789377809126,0.0023065963625936927,0.0019546302019622054,0.032648829495305634,0.048864697611094916,-0.029058788074018217,0.08482573138787172,0.11145775178018393,-0.11541084818818187
49,11.316101000003982,0.026135326115705994,-0.007209143422841851,0.03604727045543939,0.0037704899454216348,0.0025255720542710905,0.0018239217241151444,0.03302765208931911,0.04936194142380555,-0.029574726041486296,0.08509963164759338,0.11158621643364462,-0.11601978904292315
50,11.320294000004653,0.0261524654741988,-0.007197392290483654,0.03605510862896884,0.003918592691851409,0.002746766031258524,0.0016909068355984971,0.03340767883520934,0.04985973278391071,-0.03009335824343539,0.08536580570340654,0.11170329202665888,-0.1166193291520927
51,11.324848499993095,0.026170268940016644,-0.007184649996144987,0.036062348588108,0.004068392469098782,0.0029701806216445538,0.001555573617356182,0.03378887495308706,0.05035802058159235,-0.030614642422247523,0.08562410480762805,0.1118088304525572,-0.11720931462055371
52,11.328983600003994,0.02618874409115486,-0.007170906634077249,0.036068979970005785,0.004219894412644041,0.003195817924167386,0.0014179103402703344,0.03417120500042456,0.05085675304759041,-0.031138535635021534,0.08587438049634911,0.11190268402299326,-0.1177895917391188
53,11.33291779999854,0.026207898528153514,-0.007156152289688987,0.036074992359942555,0.0043731034984680825,0.003423679805279402,0.0012779054682147582,0.034554632873452125,0.05135587775512223,-0.03166499425348586,0.0861164846237648,0.11198470545451389,-0.11836000674964924
54,11.33701000000292,0.026227739873379695,-0.0071403770405880935,0.036080375292197424,0.004528024540107122,0.003653767896219376,0.0011355476611130504,0.03493912180859819,0.051855341621573646,-0.032193973963649244,0.08635026942080368,0.11205474787226297,-0.11892040598209147
55,11.341321400002926,0.026248275770296668,-0.007123570957637054,0.03608511825092917,0.004684662185714407,0.003886083590092086,0.0009908257779951673,0.035324634384408575,0.052355090910451416,-0.0327254297669355,0.08657558750980215,0.11211266486740576,-0.11947063606977838
56,11.345270199992228,0.026269513882719978,-0.007105724106021186,0.0360892106710708,0.0048430209151320465,0.0041206280389579405,0.0008437288800454302,0.03571113252311751,0.0528550712335864,-0.033259315981754106,0.08679229187522738,0.11215831050208333,-0.12001054388088138
57,11.349659200001042,0.02629146189406048,-0.007086826546329836,0.03609264193923762,0.005003105036966725,0.004357402150932235,0.0006942462336450865,0.036098577492305786,0.05335522755313015,-0.0337955862440237,0.08700023591254966,0.1121915392898172,-0.12053997625421894
58,11.3541494999954,0.02631412750655437,-0.007066868335650487,0.036095401394648945,0.005164918685676319,0.004596406587292585,0.0005423673134156468,0.03648692990690762,0.05385550418358338,-0.03433419350638684,0.08719927339400387,0.11221220621629374,-0.12105878004818857
59,11.35798960000102,0.02633751844048024,-0.007045839528675751,0.03609747833006332,0.005328465818663513,0.004837641759596269,0.0003880818052684489,0.03687614973056346,0.054355844793977884,-0.034875090039169845,0.08738925848323353,0.11222016675407732,-0.12156680247348114
60,11.362615899997763,0.026361642433363183,-0.0070237301788231765,0.036098861992727396,0.005493750213374474,0.005081107826807116,0.00023137960943943512,0.03726619627775744,0.05485619241003617,-0.03541822743256441,0.08757004584297712,0.11221527689681626,-0.12206389101479924
61,11.366757399999187,0.026386507239165986,-0.007000530339367865,0.036099541585338235,0.005660775464411527,0.005326804692432113,7.225084351926246e-05,0.03765702821613044,0.055356489416658446,-0.03596355659688941,0.08774149058617779,0.1121973931984116,-0.12254989323512949
62,11.371238799998537,0.026412120627467485,-0.0069762300645878125,0.036099506267019195,0.005829544980652459,0.005574732001670461,-8.931415451425373e-05,0.038048603568181606,0.05585667756043152,-0.03651102776302716,0.08790344831994412,0.1121663727803364,-0.12302465688339397
63,11.37885819999792,0.026438490382628067,-0.0069508194109219445,0.036098745154309275,0.006000061982378365,0.005824889138572561,-0.0002533248232699211,0.03844087971397339,0.05635669795218104,-0.03706059048364518,0.08805577519940341,0.1121220733757428,-0.1234880299923116
64,11.383542900002794,0.026465624302942418,-0.006924288438140795,0.036097247322165994,0.006172329498417073,0.006077275223211828,-0.0004197903749216205,0.03883381339331328,0.056856491069873706,-0.03761219363450511,0.08819832777109074,0.1120643533685296,-0.12393986080010799
65,11.387242900003912,0.02649353019977955,-0.00689662721052976,0.03609500180498167,0.006346350363290446,0.0063318891088695525,-0.0005887197921937594,0.03922736070706234,0.05735599676151789,-0.03816578541498633,0.08833096291430156,0.11199307184837536,-0.12437999774072937
66,11.391309799990267,0.026522215896710107,-0.006867825798084879,0.036091997597613196,0.006522127214369475,0.006588729379232584,-0.000760121825344391,0.039621477118793956,0.05785515424855659,-0.03872131334930762,0.08845353782639861,0.11190808875518138,-0.12480828953191574
67,11.395538199998557,0.026551689228621035,-0.006837874277721076,0.036088223656425195,0.006699662489036374,0.006847794345608447,-0.0009340049891615621,0.040016117455971355,0.05835390213005607,-0.039278724287836124,0.0885659100325381,0.11180926496825598,-0.1252245849990515
68,11.399484699999448,0.026581958040817574,-0.006806762734492778,0.036083668900346595,0.00687895842185017,0.007109082044160376,-0.001110377559958104,0.04041123591169307,0.058852178386894084,-0.03983796440673829,0.08866793756187036,0.11169646230394746,-0.12562873302623698
69,11.403974999993808,0.026613030188112646,-0.00677448126282681,0.0360783222119406,0.007060017041724365,0.007372590233159775,-0.0012892475725648678,0.04080678604744171,0.059349920385927415,-0.04039897920885252,0.08875947896218862,0.11156954357190575,-0.1260205828205165
70,11.40778439999849,0.026644913533903695,-0.006741019967767512,0.036072172438488044,0.007242840169117037,0.007638316390258422,-0.0014706228173332967,0.04120272079496,0.0598470648846818,-0.04096171352569625,0.08884039321189702,0.11142837261292293,-0.1263999839901679
71,11.41203520000272,0.026677615949237007,-0.006706368966233959,0.03606520839308411,0.0074274294132252285,0.007906257709782743,-0.0016545108371465594,0.041598992458214586,0.06034354803585688,-0.04152611151903674,0.08891053994018454,0.1112728142452341,-0.12676678628045576
72,11.416283800004749,0.026711145311859537,-0.0066705183882892075,0.03605741885574833,0.007613786169192564,0.00817641110004619,-0.001840918924436129,0.041995552717235415,0.06083930539153729,-0.04209211668054185,0.08896977955907215,0.11110273425588137,-0.12712083941707739
73,11.420330900000408,0.02674550950525833,-0.006633458378421481,0.036048792574547905,0.007801911615337871,0.008448773180681069,-0.002029854118189802,0.042392352631257,0.06133427190762063,-0.042659671831954765,0.08901797311178046,0.11091799941652203,-0.1274619934095402
74,11.425055200001225,0.026780716417687627,-0.006595179096837206,0.036039318266734406,0.00799180671039081,0.008723340279990398,-0.0022213232009698357,0.04278934264120568,0.06182838194816946,-0.04322871912745004,0.089054982297278,0.11071847746657072,-0.12779009864899132
75,11.430823599992436,0.026816773941183647,-0.006555670720765816,0.03602898461989366,0.008183472190742674,0.009000108432318549,-0.002415332695941977,0.04318647257305979,0.06232156928968899,-0.043799200054680736,0.08908066958755821,0.1105040371031979,-0.12810500561464946
76,11.434719800003222,0.026853689970567172,-0.006514923445776232,0.03601778029310893,0.008376908567711984,0.009279073375441243,-0.002611888863902936,0.043583691641382705,0.06281376712538989,-0.04437105543451662,0.0890948982472528,0.11027454796048244,-0.1284065647955326
77,11.439002899991465,0.02689147240243394,-0.006472927487104936,0.03600569391813736,0.008572116124826792,0.009560230547974209,-0.002810997700307081,0.04398094845285789,0.06330490806928003,-0.044944225421393334,0.0890975322505938,0.11002988058277252,-0.12869462688616534
78,11.443263599998318,0.026930129134133007,-0.006429673080995567,0.035992714100599635,0.008769094915121798,0.009843575086799668,-0.0030126649322970264,0.04437819100908149,0.06379492416018984,-0.0455186495047958,0.08908843627629355,0.10976990641458764,-0.12896904297249875
79,11.447367799992207,0.026969668062733033,-0.006385150486049941,0.03597882942118288,0.008967844758445555,0.010129101824510883,-0.0032168960157435544,0.04477536671005173,0.0642837468657739,-0.04609426651126521,0.08906747582513054,0.10949449779221919,-0.12922966448300607
80,11.451208099999349,0.027010097083976628,-0.006339349984590427,0.035964028436856754,0.009168365238788705,0.010416805286874326,-0.0034236961322940997,0.04517242235801003,0.06477130708646145,-0.046671014605446384,0.08903451723952457,0.10920352797562527,-0.12947634305166492
81,11.455523099997665,0.02705142409122282,-0.006292261884033605,0.035948299682102676,0.009370655701625435,0.010706679690309456,-0.003633070186422011,0.045569304161104954,0.06525753515974242,-0.047248831290872935,0.0889894277621103,0.10889687122897214,-0.12970893057667773
82,11.4596634000045,0.027093656974377687,-0.006243876518275117,0.0359316316701562,0.009574715251274379,0.010998718939389108,-0.003845022802482038,0.04596595773775566,0.06574236086483608,-0.047827653411538225,0.08893207557020376,0.10857440285740014,-0.1299272793281241
83,11.46410329999344,0.0271368036188133,-0.0061941842490856065,0.0359140128942625,0.009780542748278992,0.011292916624360898,-0.0040595583217735995,0.046362328120623165,0.06622571342730496,-0.04840741715364053,0.08886232969737666,0.1082359992009106,-0.13013124211429758
84,11.468578999993042,0.027180871904274994,-0.0061431754675176755,0.03589543182894495,0.009988136806803861,0.01158926601868876,-0.004276680799611834,0.04675835976027448,0.06670752152366899,-0.04898805804863723,0.08878006001870666,0.10788153766381559,-0.13032067239913156
85,11.473284499996224,0.02722586970377708,-0.00609084059532375,0.03587587693128673,0.010197495792047753,0.01188776007661549,-0.004496394002418102,0.04715399652902235,0.06718771328628201,-0.04956951097603706,0.08868513724113912,0.1075108967121965,-0.13049542415549711
86,11.480553899993538,0.02727180488248707,-0.006037170086384766,0.03585533664222532,0.010408617817674163,0.012188391430747774,-0.004718701404815936,0.04754918172450341,0.06766621630792324,-0.05015171016514617,0.08857743283497904,0.10712395582002514,-0.13065535195321248
87,11.484963399998378,0.027318685296598456,-0.005982154428149576,0.035833799387860035,0.010621500743256273,0.012491152389659671,-0.004943606186737111,0.04794385807290707,0.0681429576461934,-0.05073458919864516,0.08845681903869446,0.10672059551699324,-0.13080031123295668
88,11.489319300002537,0.027366518792192162,-0.0059257841430849995,0.03581125358077231,0.010836142171736294,0.01279603493551684,-0.0051711112305494935,0.04833796773259647,0.06861786382853259,-0.05131808101677765,0.08832316896657956,0.10630069749610715,-0.13093015821839005
89,11.493110800001888,0.02741531320408667,-0.005868049790136417,0.035787687621358845,0.011052539446902706,0.013103030721724779,-0.005401219118200464,0.048731452298297444,0.06909086085757593,-0.05190211792014372,0.08817635671156676,0.10586414472375064,-0.13104474976924146
90,11.497157899997546,0.02746507635467697,-0.005808941966198796,0.03576308989917737,0.011270689650886961,0.013412131070600795,-0.00563393212836967,0.04912425280563625,0.06956187421715289,-0.052486631572578414,0.08801625745282972,0.10541082159139577,-0.13114394360636675
91,11.501475400000343,0.027515816052762362,-0.0057484513075980355,0.03573744879430516,0.011490589601681186,0.013723326971075749,-0.005869252233638122,0.04951630973628805,0.07003082887899569,-0.05307155300595205,0.08784274756342242,0.10494061403066933,-0.13122759847823112
92,11.505722100002458,0.027567540092363275,-0.005686568491582492,0.035710752678710087,0.011712235850680793,0.014036609076425845,-0.00610718109768375,0.0499075630234745,0.07049764930976476,-0.053656812624533305,0.08765570465432064,0.10445340958784642,-0.13129557400419553
93,11.509709099991596,0.02762025625152716,-0.005623284237824551,0.03568298991763409,0.011935624680251205,0.01435196770203702,-0.006347720072489403,0.050297952057504924,0.07096225947842144,-0.054242340208392074,0.08745500761849642,0.10394909748131367,-0.13134773072348951
94,11.513720100003413,0.0276739722911236,-0.005558589309932084,0.03565414887098916,0.01216075210131988,0.014669392823202482,-0.006590870195568755,0.050687415691666945,0.07142458286376578,-0.05482806491819924,0.08724053666518837,0.10342756865432765,-0.13138393022252093
95,11.517160399991552,0.02772869595362874,-0.005492474516969664,0.03562421789476553,0.012387613850995566,0.014988874072954305,-0.0068366321872171025,0.051075892248073254,0.07188454246227971,-0.055413915299764804,0.08701217338342744,0.10288871579577588,-0.13140403513478552
96,11.520621399991796,0.027784434961899165,-0.005424930714989355,0.035593185342452184,0.012616205390212458,0.015310400739930917,-0.0070850064477777355,0.05146331952411871,0.07234206079585002,-0.05599981928883682,0.08676980087411433,0.10233243334124445,-0.13140790928761656
97,11.524578099997598,0.02784119701793532,-0.005355948808570944,0.03556103956646942,0.012846521901407034,0.01563396176627756,-0.00733599305493553,0.05184963479950485,0.07279705991962102,-0.05658570421694814,0.0865133037550152,0.10175861756003679,-0.13139541776100813
98,11.531500900004175,0.027898989801634678,-0.005285519752371457,0.03552776891961349,0.01307855828622485,0.015959545745583798,-0.007589591761035457,0.05223477484274157,0.07324946143049345,-0.05717149681673988,0.08624256815593641,0.10116716661379314,-0.13136642691694964
99,11.536199299996952,0.0279578209695347,-0.005213634552683776,0.03549336175651308,0.013312309163255355,0.016287140920859765,-0.007845801990423642,0.052618675918128584,0.0736991864754999,-0.05775712322806974,0.0859574817968739,0.10055798053205824,-0.131320804565703
100,11.540802799994708,0.028017698153545812,-0.005140284269004207,0.035457806435097654,0.01354776886580094,0.01661673518254836,-0.008104622836820346,0.053001273792953975,0.07414615576008589,-0.0583425090048182,0.08565793404178948,0.09993096125284306,-0.1312584198973365
101,11.54515540000284,0.028078628959674477,-0.005065460015608819,0.035421091318077365,0.01378493143967594,0.016948316066575334,-0.008366053060721718,0.053382503744955206,0.07459028955684688,-0.058927579120386334,0.08534381598680697,0.09928601271136181,-0.13117914342314957
102,11.549832000004244,0.02814062096673653,-0.004989152963138398,0.03538320477443456,0.01402379064104222,0.0172818707524394,-0.008630091086821794,0.053762300570304115,0.07503150771460071,-0.059512257973979646,0.08501502040155456,0.09862304090792837,-0.13108284720056862
103,11.553673399990656,0.02820368172506096,-0.004911354340191824,0.035344135180926696,0.01426433993427938,0.017617386061343224,-0.008896735001470292,0.054140598590544875,0.07546972966773006,-0.06009646939811133,0.08467144157734731,0.09794195399474483,-0.130969404784242
104,11.557974399998784,0.028267818755184256,-0.004832055434927685,0.035303870923600496,0.014506572489882203,0.01795484845436683,-0.009165982550161517,0.0545173316592252,0.07590487444602878,-0.06068013666445003,0.0843129753906926,0.09724266237921461,-0.130838690952169
105,11.562614499998745,0.02833303954653543,-0.004751247596673943,0.035262400399317266,0.014750481182389995,0.018294244030686406,-0.009437831135044296,0.05489243316940059,0.07633686068496559,-0.061263182488880935,0.08393951941614194,0.09652507878712036,-0.13069058186205804
106,11.566281999999774,0.0283993515561119,-0.004668922237545434,0.035219712017289254,0.014996058588350951,0.018635558525839223,-0.009712277812456021,0.05526583606127187,0.0767656066360938,-0.0618455290387478,0.08355097280383988,0.09578911830634965,-0.13052495536466513
107,11.570561300002735,0.028466762207146373,-0.004585070834069002,0.035175794200626956,0.0152432969843196,0.01897877731003527,-0.00998931929049716,0.05563747282859751,0.07719103017770496,-0.06242709794070814,0.08314723614223694,0.09503469845522261,-0.13034169074933466
108,11.574540899993735,0.02853527888776486,-0.00449968492881606,0.035130635387897104,0.015492188344878349,0.019323885386517182,-0.010268951926635341,0.056007275525106946,0.07761304882584778,-0.0630078102857062,0.08272821156622966,0.09426173925142657,-0.13014066861668505
109,11.579692899991642,0.028604908949635913,-0.0044127561320423435,0.03508422403469134,0.015742724340692116,0.019670867389970117,-0.010551171725324219,0.05637517577187721,0.07803157974559657,-0.06358758663569289,0.08229380287426874,0.09347016323360961,-0.12992177120163056
110,11.583311700000197,0.028675659706611307,-0.004324276123334652,0.03503654861520542,0.01599489633659566,0.020019707584982175,-0.010835974335667473,0.05674110476479051,0.0784465397622627,-0.06416634703147914,0.08184391550375328,0.09265989548106934,-0.12968488238307158
111,11.587098499992862,0.02874753843335821,-0.004234236653264334,0.034987597623828755,0.016248695389714702,0.020370389864554254,-0.011123355049107704,0.057104993281691475,0.0788578453728385,-0.06474401099954226,0.08137845647775407,0.09183086369341811,-0.12942988773298558
112,11.591377699995064,0.02882055236398311,-0.004142629545047314,0.03493735957674419,0.016504112247617088,0.020722897748662508,-0.011413308797151132,0.057466771689369645,0.07926541275791929,-0.06532049756031712,0.08089733442896498,0.09098299825036037,-0.12915667454564908
113,11.59584329999052,0.02889470869064751,-0.0040494466962103974,0.03488582301353783,0.016761137346496174,0.021077214382874517,-0.011705830149130422,0.057826369950930274,0.07966915779368021,-0.06589572523526299,0.0804004596879527,0.09011623227107474,-0.1288651317495526
114,11.599706599998171,0.02897001456217564,-0.003954680080263636,0.0348329764988188,0.017019760809387708,0.02143332253701855,-0.0120009133099924,0.05818371763356379,0.08006899606432774,-0.06646961205436931,0.07988774445456581,0.08923050173904146,-0.12855514986841565
115,11.604177699991851,0.02904647708265427,-0.003858321748378502,0.034778808623848786,0.017279972444422503,0.021791204603910756,-0.012298552118127807,0.05853874391744506,0.08046484287518976,-0.06704207556287488,0.07935910291490596,0.0883257456066426,-0.12822662098187146
116,11.608144099998754,0.029124103310024824,-0.003760363831071599,0.03472330800818114,0.017541761743122674,0.022150842598141166,-0.012598740043218934,0.05889137760454593,0.08085661326609972,-0.06761303282842301,0.07881445123692664,0.08740190586953436,-0.12787943904851987
117,11.612740299999132,0.029202900254668002,-0.0036607985398936656,0.0346664633013096,0.017805117878732894,0.022512218154920226,-0.01290147018413318,0.05924154712749522,0.0812442220251499,-0.06818240045066151,0.07825370756549975,0.08645892763166922,-0.1275134998862449
118,11.616317699998037,0.029282874877981032,-0.003559618169123571,0.03460826318432621,0.018070029704595637,0.02287531252898744,-0.013206735266856286,0.05958918055834728,0.08162758370265542,-0.06875009456822227,0.07767679191940126,0.08549675914710417,-0.1271287011428382
119,11.62046229999396,0.02936403409094778,-0.003456815097467049,0.03454869637158846,0.018336485752560625,0.023240106593582423,-0.01351452764244814,0.059934205616523385,0.08200661262528032,-0.06931603086805929,0.07708362621094926,0.08451535184279899,-0.1267249426975544
120,11.62497340000118,0.029446384752701834,-0.0033523817897598705,0.03448775161239542,0.018604474231430884,0.02360658083947951,-0.013824839285059277,0.06027654967775541,0.08238122291020482,-0.06988012459600905,0.07647413437327014,0.08351466033050008,-0.1263021265726547
121,11.628798699995968,0.02952993366908275,-0.003246310798675185,0.03442541769267259,0.01887398302545195,0.023974715374085142,-0.014137661789980846,0.060616139783162104,0.0827513284793574,-0.07044229056533971,0.07584824238487098,0.08249464245578252,-0.1258601569921116
122,11.63304829999106,0.02961468759118566,-0.003138594766434743,0.0343616834366654,0.01914499969283885,0.024344489920599382,-0.014452986371737354,0.06095290264841182,0.0831168430740194,-0.071002443167835,0.07520587830860143,0.08145525937718928,-0.12539894059727913
123,11.636977399990428,0.0297006532139044,-0.0030292264265237134,0.03429653770864107,0.019417511464347025,0.024715883817243538,-0.014770803862235466,0.061286764673146275,0.08347768026976275,-0.07156049638426655,0.0745469723456206,0.08039647562828078,-0.12491838628024766
124,11.64123949999339,0.029787837174468364,-0.0029181986054087933,0.03422996941459864,0.01969150524188333,0.02508887601655487,-0.015091104708950134,0.061617651950624505,0.08383375349160792,-0.07211636379399182,0.07387145706041578,0.0793182591708244,-0.12441840515442835
125,11.645770899995114,0.029876246050973235,-0.0028055042242593154,0.03416196750398698,0.019966967597162967,0.0254634450847494,-0.015413878973158981,0.06194549027915314,0.08418497602943592,-0.0726699585851641,0.07317926755196472,0.07822058143995514,-0.12389891067209709
126,11.64944409999589,0.029965886360905875,-0.00269113630067104,0.034092520971430576,0.02024388477042241,0.025839569201154027,-0.015739116328219477,0.06227020517325665,0.08453126105354897,-0.0732211935653786,0.07247034131206279,0.07710341738910433,-0.12335981873219606
127,11.654047999996692,0.030056764559663586,-0.0025750879503923245,0.03402161885846291,0.020522242669175933,0.026217226157708107,-0.016066806057898255,0.0625917218738443,0.08487252163048314,-0.07376998117284372,0.07174461835229587,0.07596674557090681,-0.12280104773885986
128,11.658234300004551,0.030148887039067897,-0.002457352389052362,0.03394925025526712,0.02080202686701921,0.02659639335853658,-0.016396937054747904,0.06290996536051267,0.08520867073929049,-0.07431623348754908,0.0710020414732461,0.07481054821377074,-0.12222251859144427
129,11.66211399999156,0.030242260125873163,-0.002337922933891156,0.033875404302423875,0.02108322260249554,0.026977047819596717,-0.016729497818535874,0.06322486036411311,0.08553962128803448,-0.07485986224234785,0.07024255622064016,0.07363481124430073,-0.12162415478278771
130,11.6663736999908,0.03033689008027024,-0.0022167930054909093,0.033800070192666044,0.021365814778011517,0.02735916616839837,-0.017064476454720087,0.06353633137866323,0.08586528613027206,-0.07540077883500095,0.06946611093396096,0.07243952430397191,-0.12100588254587975
131,11.670484999995097,0.030432783094385418,-0.0020939561295084943,0.03372323717264015,0.02164978795880946,0.027742724643797668,-0.017401860672985246,0.06384430267434789,0.08618557808169779,-0.07593889434056732,0.06867265682498071,0.07122468081566022,-0.12036763073618646
132,11.675116999991587,0.03052994529077493,-0.0019694059384086798,0.0336448945446741,0.021935126371999028,0.028127699095865693,-0.017741637785828934,0.06414869831013095,0.08650040993721916,-0.07647411952239876,0.06786214804133325,0.06999027809403814,-0.11970933095916236
133,11.6786632000003,0.030628382720915254,-0.0018431361731977734,0.03356503166855125,0.022221813905642117,0.02851406498583445,-0.018083794707195965,0.06444944214732315,0.08680969448858519,-0.07700636484566725,0.06703454183257725,0.06873631745242857,-0.11903091784409023
134,11.682953800001997,0.030728101363689454,-0.00171514068515733,0.03348363796329032,0.022509834107905444,0.028901797386122727,-0.018428317951185106,0.06474645786367465,0.08711334454241451,-0.07753554049080168,0.06618979851633723,0.06746280426737707,-0.11833232882888102
135,11.687202200002504,0.03082910712386993,-0.0015854134375775635,0.03340070290893096,0.02279917018627112,0.02929087098044283,-0.018775193630803245,0.06503966896664103,0.08741127293839979,-0.07806155636509617,0.06532788145876288,0.0661697480080161,-0.11761350416989101
136,11.691235999998751,0.030931405830597725,-0.0014539485074901036,0.03331621604832481,0.02308980500680753,0.029681260063988777,-0.019124407456775634,0.06532899880730154,0.08770339256759768,-0.07858432211623434,0.06444875710353364,0.06485716225107548,-0.11687438723522303
137,11.6956274999975,0.03103500323585876,-0.0013207400873997293,0.033230166988931664,0.023381721093504018,0.030072938543706126,-0.01947594473642065,0.06561437059388378,0.0879896163907671,-0.07910374714651311,0.06355239485449533,0.0635250647025289,-0.11611492443666024
138,11.69951669999864,0.031139905012957228,-0.0011857824870147194,0.03314254540462054,0.023674900627662362,0.030465879938643692,-0.019829790372586868,0.06589570740463538,0.0882698574568522,-0.07961974062575994,0.06263876703193909,0.06217347723096566,-0.11533506503366146
139,11.70345339999767,0.03124611675498638,-0.00104907013497545,0.03305334103747536,0.023969325447346243,0.0308600573803882,-0.020185928862643022,0.06617293220095877,0.08854402892161818,-0.08013221150380884,0.06170784905345857,0.06080242588783489,-0.11453476113327876
140,11.70712989999447,0.03135364397329702,-0.0009105975805808686,0.03296254369960502,0.024264977046889853,0.03125544361358217,-0.020544344297526322,0.06644596784189567,0.08881204406631484,-0.08064106852341689,0.060759619585306054,0.05941194092342098,-0.11371396776874722
141,11.712012899995898,0.03146249209596392,-0.0007703594955124746,0.03287014327495751,0.024561836576476512,0.03165201099652501,-0.020905020360847588,0.0667147370986115,0.08907381631645482,-0.08114622023344105,0.05979406032763595,0.0580020568148507,-0.11287264304607882
142,11.716641599996365,0.03157266646625054,-0.0006283506755554321,0.03277612972113803,0.024859884841776442,0.03204973150185833,-0.021267940328057074,0.06697916266696484,0.08932925926072692,-0.08164757500306187,0.05881115596546278,0.056572812285293185,-0.11201074814406083
143,11.72035999999207,0.031684172341072216,-0.00048456604231643976,0.032680493071230526,0.02515910230363747,0.032448576717335705,-0.021633087065676435,0.0672391671815545,0.08957828666994554,-0.08214504103496029,0.057810894422644116,0.055124250300207775,-0.11112824714802311
144,11.728345399998943,0.03179701488945814,-0.00033900064493798003,0.03258322343562261,0.025459469077848053,0.032848517846676965,-0.022000443030582056,0.06749467323055383,0.08982081251593049,-0.08263852637805902,0.05679326680865366,0.05365641802698295,-0.11022510713771444
145,11.732602100004442,0.03191119919101241,-0.00019164966180857022,0.032484311003833546,0.025760964934960277,0.0332495257105063,-0.022369990269350628,0.06774560336928317,0.09005675099009662,-0.08312793894148296,0.05575826734496067,0.052169366779396806,-0.10930129827543708
146,11.73716589999094,0.03202673023437444,-4.250840226864728e-05,0.03238374604634499,0.0260635693001739,0.033651570747372336,-0.02274171041766697,0.06799188013438764,0.0902860165218383,-0.0836131865080865,0.05470589333044281,0.05066315200272954,-0.10835679373784528
147,11.741606800002046,0.03214361291567899,0.00010842769168827785,0.032281518916434236,0.026367261253285777,0.034054623014850155,-0.023115584699790227,0.06823342605710116,0.09050852379698632,-0.08409417674780573,0.05363614510756935,0.04913783330667286,-0.10739156966655919
148,11.745468599998276,0.03226185203701611,0.00026116304371956217,0.032177620052009734,0.026672019528692182,0.03445865219072597,-0.023491593928080763,0.06847016367712269,0.09072418777648582,-0.0845708172307454,0.05254902630712575,0.04759347451445294,-0.10640560518784124
149,11.74994959999458,0.032381452304891194,0.00041570194144284033,0.032072039977448556,0.026977822515461967,0.0348636275742657,-0.023869718502583053,0.06870201555806256,0.09093292371529123,-0.0850430154407066,0.051444543828241644,0.046030143703843535,-0.10539888254986612
150,11.75368169999274,0.03250241832868556,0.0005720485347512784,0.03196476930543562,0.027284648257476632,0.035269518087568126,-0.0242499384106732,0.06892890430114057,0.09113464718140996,-0.08551067878949771,0.05032270766232239,0.04444791324862723,-0.10437138719112934
151,11.758166200001142,0.0326247546191178,0.0007302068341350506,0.03185579873880431,0.027592474453625622,0.035676292277003294,-0.024632233226769447,0.06915075255906226,0.09132927407516699,-0.08597371463107216,0.049183531098867715,0.042846859890743834,-0.103323107769592
152,11.761991899998977,0.03274846558670605,0.0008901807090094186,0.03174511907237827,0.02790127845807014,0.036083918314737444,-0.025016582112105765,0.06936748305155241,0.09151672064889196,-0.08643203027609926,0.048027030813354216,0.041227064843801196,-0.10225403633892359
153,11.766313899992385,0.03287355554023171,0.0010519738860498072,0.03163272119481408,0.028211037280576952,0.03649236400034697,-0.025402963814572292,0.06957901858001489,0.09169690352710681,-0.08688553300767352,0.04685322674972098,0.0395886138883657,-0.10116416847593473
154,11.770507699999143,0.03300002868520473,0.0012155899475342752,0.03151859609044441,0.028521727586912935,0.03690159676252338,-0.025791356668629,0.06978528204201831,0.09186973972706254,-0.08733413009702183,0.045662142286611605,0.03793159744839199,-0.1000535032165775
155,11.77450709999539,0.033127889122330764,0.0013810323296937945,0.031402734841121514,0.02883332569930805,0.03731158366087036,-0.02618173859528621,0.0699861964474383,0.0920351466796084,-0.08777772881864211,0.04445380447268785,0.03625611066899109,-0.09892204306122286
156,11.779507300001567,0.03325714084598066,0.001548304321070746,0.03128512862806056,0.02914580759699382,0.03772229138779485,-0.026574087102153233,0.07018168493504143,0.09219304225042214,-0.08821623646605754,0.04322824404603813,0.03456225349356672,-0.09776979410669226
157,11.78516810000292,0.03338778774266239,0.0017174090608860616,0.031165768733682635,0.029459148916814212,0.03813368627049342,-0.026968379283559392,0.07037167078880062,0.09234334476156707,-0.08864956036813253,0.04198549545337607,0.0328501307440953,-0.09659676611441395
158,11.788780599992606,0.03351983358949598,0.0018883495374154328,0.031044646543457073,0.02977332495390958,0.03854573427303556,-0.027364591820748144,0.07055607745465024,0.09248597301343811,-0.08907760790543473,0.04072559705585912,0.031119852193465664,-0.09540297252061844
159,11.793342099990696,0.033653282052691545,0.00206112858637503,0.03092175354774268,0.030088310662476955,0.038958400998545764,-0.027762700982143996,0.07073482855863683,0.09262084630696395,-0.08950028652664194,0.039448591227079215,0.029371532628837536,-0.09418843052920726
160,11.797442399998545,0.03378813668603099,0.002235748889317169,0.030797081343627682,0.030404080656615862,0.03937165169148481,-0.02816268262369295,0.070907847924548,0.0927478844661181,-0.08991750376573222,0.038154524176745315,0.027605291931751843,-0.09295316126331762
161,11.801576199999545,0.03392440092935362,0.0024122129720363737,0.030670621636767936,0.03072060921124579,0.039785451240032556,-0.02856451218928269,0.07107505959049092,0.09286700786083539,-0.09032916725974234,0.036843446038653,0.02582125516722248,-0.0916971898045489
162,11.805814499995904,0.03406207810704598,0.002590523202986289,0.030542366243223113,0.031037870263099853,0.040199764178573585,-0.028968164711241393,0.07123638782730563,0.09297813743031746,-0.09073518476630768,0.03551541106645418,0.02401955267483725,-0.09042054522717306
163,11.810079399991082,0.034201171426536336,0.00277068179170791,0.030412307091290475,0.03135583741180645,0.04061455469028783,-0.029373614810914318,0.07139175715688925,0.09308119470676163,-0.09113546418172572,0.03417047757523215,0.02220032014189135,-0.08912326077431842
164,11.81486600000062,0.034341683976794185,0.002952690787269594,0.030280436223335906,0.03167448392104632,0.04102978660984779,-0.029780836699323687,0.07154109237008836,0.09317610183931854,-0.09152991356006704,0.03280870805862224,0.020363698656354356,-0.087805373965614
165,11.81921180000063,0.03448361872683504,0.0031365520767193435,0.030146745797621808,0.03199378271979377,0.0414454234262228,-0.030189804177915704,0.07168431854606752,0.09326278161829334,-0.09191844113219867,0.031430169227804824,0.018509834736800946,-0.08646692659731235
166,11.824641400002292,0.03462697852423098,0.0033222673835498237,0.030011228090131473,0.03231370640364644,0.04186142828559207,-0.03060049063939006,0.07182136107054937,0.09334115749937022,-0.09230095532489621,0.03003493189470216,0.01663888030526906,-0.08510796486930534
167,11.829685599994264,0.034771766093627345,0.0035098382661766197,0.029873875496389576,0.032634227236229156,0.04227776399436495,-0.031012869068617378,0.07195214565414164,0.09341115362757156,-0.09267736478099976,0.02862307124539324,0.014750992643896819,-0.08372853948775084
168,11.833758599997964,0.03491798403526577,0.00369926611643019,0.029734680533278376,0.03295531715068714,0.042694393022307604,-0.03142691204364846,0.0720765983530153,0.09347269486109583,-0.09304757837944122,0.027194667123965156,0.012846334355823694,-0.08232870569962884
169,11.837377999996534,0.035065634823514186,0.003890552158062001,0.0295936358408492,0.033276947751274266,0.04311127750577589,-0.03184259173681032,0.07219464558976275,0.09352570679492801,-0.09341150525570835,0.02574980395446017,0.01092507328848375,-0.08090852343470992
170,11.84156119999534,0.035214720805404054,0.004083697445265311,0.02945073418412887,0.03359909031503224,0.04352837925105253,-0.03225987991589789,0.07230621417337996,0.09357011578399356,-0.09376905482313802,0.024288570740970634,0.00898738245821397,-0.07946805735438867
171,11.845411499991314,0.03536524419917531,0.004278702861211062,0.029305968454920575,0.03392171579355706,0.04394565973778647,-0.03267874794545996,0.07241123132012545,0.09360584896609651,-0.09412013679381576,0.022811061429512208,0.007033440044316998,-0.07800737678763435
172,11.849577799992405,0.035517207092829364,0.004475569116599335,0.029159331673598812,0.034244794814864185,0.04436308012253459,-0.033099166788177245,0.07250962467672939,0.0936328342850205,-0.09446466119929782,0.0213173750546363,0.005063429416206042,-0.07652655571174108
173,11.85403229999065,0.03567061144269067,0.0046742967482268204,0.029010816990897977,0.034568297685361966,0.04478060124240708,-0.033521107006333074,0.07260132234255995,0.09365100051370895,-0.09480253841133911,0.01980761562213669,0.0030775391724866125,-0.07502567282624252
174,11.857852400004049,0.03582545907197731,0.004874886117570781,0.028860417689694197,0.03489219439191448,0.04519818361881582,-0.03394453876337633,0.07268625289178642,0.09366027727771453,-0.09513367916327435,0.01828189226578259,0.0010759632505758173,-0.073504811723384
175,11.86211610000464,0.035981751669381,0.005077337409389952,0.028708127186779977,0.03521645460401258,0.04561578746132888,-0.03436943182558279,0.0727643453969432,0.09366059507935691,-0.09545799457226614,0.016740319286767665,-0.00094109891300531,-0.07196406104004813
176,11.866112199990312,0.036139490787657005,0.005281650630342867,0.028553939034631222,0.03554104767604685,0.04603337267163434,-0.034795755563816436,0.07283552945144471,0.09365188532260155,-0.09577539616204088,0.01518301608449215,-0.0029734422301801143,-0.07040351445322136
177,11.870480300000054,0.036298677842224396,0.00548782560762411,0.028397846923166173,0.03586594264967945,0.04645089884761658,-0.03522347895539356,0.07289973519253216,0.09363408033857686,-0.09608579588509637,0.013610107322731792,-0.005020855785124867,-0.06882327070869361
178,11.874703199995563,0.036459314109777145,0.00569586198761899,0.02823984468149581,0.03619110825632167,0.04686832528754768,-0.03565257058604209,0.0729568933252702,0.09360711341202417,-0.09638910614569371,0.012021723057820632,-0.00708312265660351,-0.06722343391496802
179,11.878807400004009,0.03662140072690647,0.005905759234577167,0.02807992627966532,0.03651651291971977,0.04728561099439959,-0.036082998651970725,0.07300693514663667,0.09357091880839916,-0.0966852398246857,0.010417998680089132,-0.00916001981028749,-0.06560411359274802
180,11.883090100003756,0.03678493868873498,0.006117516629305778,0.02791808583038604,0.03684212475864733,0.047702714680277154,-0.03651473096204966,0.07304979256899714,0.09352543180128199,-0.09697411030295004,0.008799074755932754,-0.011251317996128897,-0.06396542450283901
181,11.887267700003576,0.036949928847563034,0.006331133267882597,0.02775431759075748,0.037167911589700425,0.048119594770974716,-0.036947734940088656,0.07308539814278633,0.09347058870039392,-0.09725563148468312,0.007165096999004909,-0.013356781658123273,-0.06230748675863897
182,11.893447199996444,0.0371163719115278,0.00654660806038979,0.02758861596397897,0.03749384093019226,0.048536209410659,-0.037381977627225525,0.07311368507972571,0.09340632687981208,-0.09752971782183628,0.0055162164569616525,-0.015476168905269122,-0.06063042590546451
183,11.897257999997237,0.03728426844327544,0.0067639397296688315,0.027420975501050358,0.03781988000115531,0.04895251646667726,-0.037817425684422076,0.0731345872771702,0.09333258480624505,-0.09779628433811699,0.003852589559457869,-0.01760923148537388,-0.05893437294889875
184,11.90136989999155,0.03745361885864694,0.00698312681009714,0.02725139090246141,0.03814599573045314,0.049368473534492356,-0.03825404539506661,0.07314803934175379,0.09324930206748124,-0.09805524665367789,0.0021743779717184443,-0.01975571475485865,-0.05721946441859486
185,11.905575199998566,0.03762442342537803,0.007204167646386996,0.02707985701986932,0.03847215475599334,0.04978403794274455,-0.03869180266769005,0.07315397661243046,0.09315641940093364,-0.09830652100968691,0.00048174867290557604,-0.021915357656865767,-0.05548584236862465
186,11.909814300001017,0.03779668226181367,0.007427060392407319,0.02690636885776386,0.038798323429044816,0.05019916675844112,-0.039130663038787525,0.07315233518481863,0.09305387872228352,-0.09855002429301944,-0.0012251258191815697,-0.0240878926840789,-0.053733654440819845
187,11.91386309999507,0.03797039533563757,0.007651803010028861,0.02673092157511974,0.039124467817667846,0.050613816792273586,-0.03957059167575466,0.07314305193624579,0.09294162315435668,-0.09878567406139326,-0.0029460675260368522,-0.02627304583849587,-0.05196305380142925
188,11.918624199999613,0.03814556246261723,0.007878393267993394,0.02655351048703559,0.039450553710254646,0.05102794460406482,-0.04001155337993333,0.07312606454939799,0.09281959705612584,-0.09901338856749584,-0.004680892979031595,-0.028470536620693328,-0.050174199130817644
189,11.923299399990356,0.03832218330536504,0.008106828740807481,0.026374131066359142,0.03977654661917034,0.05144150650834489,-0.04045351258976309,0.07310131153762682,0.09268774605168266,-0.09923308678402747,-0.006429412818349178,-0.030680077973277157,-0.04836725480008986
190,11.928051399998369,0.03850025737211582,0.008337106807661386,0.02619277894529811,0.040102411784519204,0.05185445858005652,-0.040896433384050204,0.07306873227217525,0.09254601705974434,-0.09944468842940353,-0.008191431793079967,-0.03290137618463644,-0.04654239087100518
191,11.932716099996467,0.03867978401552146,0.008569224651373716,0.026009449917016234,0.040428114178028385,0.052266756660394056,-0.04134027948534832,0.07302826700748377,0.09239435832348394,-0.09964811399279684,-0.009966748839585522,-0.035134130832048346,-0.04469978312005483
192,11.937044899998,0.038860762431463115,0.0088031792573624,0.025824139937214007,0.04075361850703982,0.052678356362774896,-0.04178501426345078,0.07297985690771744,0.09223271944054431,-0.09984328476005465,-0.011755156924759293,-0.037378034640039595,-0.042839613215087606
193,11.941138099995442,0.03904319165788144,0.009038967412642583,0.025636845125693575,0.04107888921863051,0.05308921307894614,-0.042230600739002394,0.07292344407346969,0.0920610513941314,-0.10003012284031597,-0.013556443309921609,-0.03963277331712316,-0.04096206866653556
194,11.945782099995997,0.039227070573625525,0.009276585704852057,0.025447561767907263,0.04140389050384255,0.05349928198523326,-0.04267700158722913,0.07285897156593621,0.09187930658448405,-0.10020855119149366,-0.015370389648822789,-0.04189802553878482,-0.03906734268961793
195,11.949637400000938,0.039412397897320844,0.009516030521304873,0.02525628631648921,0.04172858630201897,0.05390851804892738,-0.043124179141777096,0.0727863834327448,0.09168743886011904,-0.10037849364566301,-0.017196771733868743,-0.04417346290279103,-0.03715563426847768
196,11.954696200002218,0.03959917218625686,0.009757298048073728,0.025063015392769665,0.04205294030526409,0.05431687603481256,-0.04357209539866861,0.0727056247343922,0.09148540354969939,-0.10053987493511571,-0.019035359534780954,-0.046458749797434355,-0.035227148137077974
197,11.958558600003016,0.03978739183529475,0.01000038426910179,0.02486774578827135,0.042376915963015106,0.05472431051183726,-0.04402071202037354,0.07261664156972926,0.09127315749445426,-0.1006926207175781,-0.020885917335348236,-0.04875354331513883,-0.033282094748742316
198,11.961935799990895,0.03997705507579576,0.01024528496534457,0.024670474466187448,0.042700476486729706,0.055130775859930696,-0.044469990339990245,0.0725193811011783,0.0910506590808177,-0.10083665760199356,-0.022748203724076516,-0.0510574932089054,-0.0313206904723242
199,11.966345299995735,0.040168159974570766,0.010491995713942525,0.024471198562840673,0.04302358485468252,0.05553622627696537,-0.044919891365546805,0.07241379158030162,0.09081786827323692,-0.10097191317548998,-0.024621971427349176,-0.05337024183856993,-0.029343157636889924
200,11.970447799991234,0.040360704432851356,0.010740511887425025,0.024269915389122917,0.043346203816880736,0.05594061578586599,-0.04537037578442245,0.07229982237450665,0.0905747466472902,-0.10109831602956061,-0.026506967280366316,-0.055691424072540144,-0.02734972437463848
201,11.974558699992484,0.04055468618528324,0.010990828652946344,0.024066622431914896,0.04366829590009868,0.05634389824186729,-0.045821403967882236,0.0721774239928736,0.0903212574233715,-0.10121579578563086,-0.028402932266584434,-0.05802066719276509,-0.025340624620289912
202,11.978790299996035,0.04075010279894225,0.011242940971554344,0.023861317355485342,0.04398982341302374,0.056746027339923365,-0.04627293597572648,0.07204654811250887,0.09005736550065574,-0.10132428312123366,-0.03030960138045728,-0.060357590811306726,-0.02331609829801055
203,11.982781099999556,0.040946951672373604,0.01149684359749254,0.023653998002869207,0.04431074845152596,0.05714695662226831,-0.04672493156105883,0.07190714760559672,0.08978303749152726,-0.1014237097972431,-0.032226703578210204,-0.06270180672103506,-0.021276391375254652
204,11.98751039999479,0.041145230034654916,0.011752531077536202,0.02344466239722433,0.04463103290404518,0.0575466394861326,-0.04717735017517854,0.07175917656619162,0.08949824175687661,-0.10151400868452994,-0.03415396176833585,-0.06505291875164737,-0.019221755714584732
205,11.991206299993792,0.04134493494448349,0.012009997750363228,0.023233308743166016,0.04495063845709954,0.05794502919161849,-0.04763015097258625,0.07160259033735464,0.08920294844181287,-0.10159511378987385,-0.036091092840910124,-0.06741052265935478,-0.017152449080128623
206,11.995709299997545,0.041546063289288455,0.012269237745960474,0.023019935428079064,0.04526952660091459,0.05834207886973478,-0.04808329281610733,0.07143734553768442,0.08889712951194409,-0.10166696028267655,-0.03803780770660697,-0.06977420597775949,-0.015068735220399383
207,11.99990959999559,0.04174861178436825,0.012530244985066274,0.02280454102340666,0.04558765863516841,0.05873774153059582,-0.048536734282135834,0.07126340008810567,0.0885807587904194,-0.10172948452161258,-0.03999381114074346,-0.07214354790484584,-0.012970883931121406
208,12.005508699992788,0.041952576972053984,0.01279301317864988,0.022587124285915652,0.04590499567485955,0.05913197007178654,-0.04899043366599552,0.07108071323979075,0.08825381199521719,-0.10178262408190261,-0.04195880175300985,-0.07451811922033791,-0.010859171144417127
209,12.009876700001769,0.04215795522089927,0.013057535827428576,0.02236768415893763,0.04622149865630116,0.059524717286893944,-0.04944434898742702,0.07088924560121815,0.08791626677692409,-0.10182631778275955,-0.0439324720660127,-0.07689748216841534,-0.008733878878885682
210,12.01393420000386,0.04236474272489701,0.013323806221423195,0.022146219773585267,0.04653712834323024,0.05991593587420907,-0.049898437996193555,0.07068895916539371,0.08756810275706904,-0.10186050571421669,-0.045914508232348,-0.0792811903541388,-0.006595295176341022
211,12.017991300002905,0.04257293550272371,0.01359181743955283,0.02192273044994342,0.046851845333044456,0.06030557844560028,-0.05035265817780737,0.07047981733943194,0.08720930156682591,-0.1018851292640097,-0.0479045896421,-0.08166878863165801,-0.004443714121886573
212,12.022567799998797,0.0427825293970119,0.01386156234926948,0.02169721569823441,0.0471656100631752,0.06069359753556035,-0.050806966759375155,0.0702617849752773,0.08683984688634434,-0.10190013114458375,-0.049902388942477054,-0.08405981303797891,-0.0022794358092596313
213,12.027541000003112,0.042993520073651266,0.014133033606233428,0.021469675219956984,0.04747838281759834,0.06107994561043048,-0.051261320715565314,0.07003482839911039,0.08645972448404304,-0.10190545541966654,-0.051907572302564105,-0.08645379085632827,-0.00010276630628779574
214,12.032788299999083,0.04320590302111911,0.014406223654030138,0.021240108908998395,0.04779012373346953,0.06146457507779778,-0.051715676774690335,0.06979891543970841,0.08606892225537559,-0.10190104753096735,-0.053919799442470544,-0.08885024074362526,0.0020859821737285317
215,12.036993699992308,0.04341967354984067,0.014681124723929444,0.021008516852719126,0.04810079280788783,0.06184743829606495,-0.052169991424912125,0.06955401545759143,0.085667430260987,-0.10188685432627827,-0.055938723584465645,-0.09124867282343593,0.004286491173679996
216,12.041437499996391,0.04363482679157991,0.014957728834687774,0.020774899333009633,0.0484103499047909,0.062228487584187996,-0.05262422092057499,0.06930009937381856,0.08525524076465069,-0.10186282408705022,-0.057963991403931873,-0.0936485886418118,0.006498436075969291
217,12.045423999996274,0.043851357698861275,0.015236027792394167,0.020539256827318598,0.04871875476197545,0.06260767523158424,-0.05307832128865686,0.0690371396995716,0.0848323482718188,-0.10182890655575116,-0.059995242863130585,-0.09604948110358431,0.008721485961065596
218,12.05013639999379,0.04406926104442313,0.015516013190360858,0.02030159000965214,0.04902596699825621,0.06298495350821379,-0.05353224833534622,0.06876511056643356,0.08439874956812728,-0.1017850529647034,-0.06203211116189549,-0.09845083447254077,0.010955303382364476
219,12.054400299995905,0.044288531420703346,0.01579767640905919,0.020061899751543433,0.04933194612075637,0.06336027467483087,-0.053985957652750494,0.06848398775641194,0.08395444375794457,-0.10173121606544941,-0.06407422280622327,-0.10085212430598046,0.013199544365831505
220,12.05834029999096,0.04450916323935772,0.016081008616101608,0.01982018712299208,0.04963665153233429,0.06373359099340907,-0.05443940462573483,0.06819374873160568,0.08349943230346031,-0.10166735015759232,-0.06612119760905799,-0.10325281730906717,0.01545385848820304
221,12.062272199997096,0.04473115073081181,0.016366000766270542,0.019576453393372762,0.04994004253913848,0.06410485473774125,-0.05489254443888766,0.06789437266422141,0.08303371906453282,-0.10159341111746442,-0.06817264862117903,-0.10565237111020877,0.01771788881362006
222,12.06626829999732,0.04495448794384673,0.016652643601594918,0.019330700032312496,0.05024207835830197,0.06447401820422007,-0.055345332083615126,0.06758584046685666,0.08255731033978068,-0.1015093564275327,-0.07022818215040429,-0.10805023412005062,0.019991271766752645
223,12.071140999993077,0.045179168745219586,0.01694092765147517,0.01908292871053601,0.05054271812576732,0.06484103372280434,-0.05579772236536887,0.06726813482234494,0.08207021490768773,-0.1014151452061987,-0.07228739758565235,-0.11044584550083052,0.022273637122414803
224,12.078653799995664,0.045405186819319036,0.01723084323285755,0.018833141300678573,0.050841920904247155,0.06520585366816611,-0.05624966991100617,0.06694124021560774,0.08157244406796783,-0.10131073823729665,-0.07434988729974248,-0.11283863497702716,0.024564608133056286
225,12.083478999993533,0.04563253566785674,0.017522380450458525,0.018581339878065716,0.05113964569133318,0.06556843047102587,-0.05670112917628077,0.06660514296436643,0.08106401168435834,-0.10119609799875652,-0.07641523691310749,-0.11522802261842179,0.026863801695090235
226,12.08701899999869,0.0458612086095952,0.017815529197040183,0.01832752672145927,0.05143585142773058,0.0659287166296812,-0.05715205445345864,0.06625983124864264,0.0805449342279194,-0.10107118869061892,-0.07848302522510504,-0.11761341887482069,0.02917082835883791
227,12.091485199998717,0.04609119878011267,0.018110279153737426,0.01807170431376919,0.051730497005630094,0.06628666472172809,-0.05760239987905858,0.06590529514208268,0.08001523081951778,-0.10093597626360945,-0.08055282403819193,-0.1199942246558232,0.03148529222547229
228,12.095276399995782,0.046322499131605625,0.018406619790437884,0.017813875342730545,0.05202354127722175,0.0666422274159685,-0.05805211944172281,0.06554152664302582,0.07947492327241483,-0.10079042844807266,-0.08262419823593344,-0.12236983123570241,0.03380679095181147
229,12.09958490000281,0.04655510243272959,0.018704540366215314,0.01755404270154518,0.052314943063344,0.06699535748451134,-0.058501166990215576,0.06516851970513302,0.07892403613559852,-0.10063451478250361,-0.0846967057538586,-0.12473962022512412,0.0361349158001575
230,12.103776299991296,0.04678900126847876,0.019004029929817402,0.01729220948948737,0.05260466116227052,0.06734600781506649,-0.058949496241548154,0.06478627026871515,0.07836259673662363,-0.10046820664203737,-0.08676989742299476,-0.12710296363538456,0.03846925159326181
231,12.107843299992965,0.04702418804010514,0.019305077320208797,0.01702837901247303,0.052892654358638755,0.06769413142342778,-0.059397060789231515,0.06439477629275699,0.07779063522437091,-0.10029147726738222,-0.08884331707746532,-0.12945922375483734,0.04080937663604665
232,12.1122086999967,0.04726065496507784,0.01960767116717023,0.016762554783591784,0.05317888143252227,0.0680396814661483,-0.05984381411165932,0.06399403778528587,0.07720818461298921,-0.10010430179400714,-0.09091650171060332,-0.13180775291921518,0.04315486271630694
233,12.116130900001735,0.047498394077083075,0.019911799891954563,0.016494740523601413,0.053463301168630094,0.06838261125341524,-0.060289709580620875,0.06358405683400364,0.07661528082670277,-0.09990665728106879,-0.09298898119160441,-0.13414789353642015,0.04550527514851692
234,12.120404300003427,0.04773739722606547,0.020217451708000732,0.016224940161384024,0.05374587236565222,0.0687228742621247,-0.06073470046994204,0.06316483763918203,0.07601196274353222,-0.09969852274020832,-0.09506027827530805,-0.13647897814550108,0.0478601727635337
235,12.125015900004655,0.04797765607831146,0.020524614621706377,0.015953157834363435,0.05402655384575227,0.06906042414914645,-0.06117873996425499,0.06273638654420727,0.075398272239576,-0.09947987916457018,-0.09712990884687701,-0.13880032923497934,0.050219107987394096
236,12.128826600004686,0.048219162116575204,0.020833276433260068,0.01567939788888315,0.05430530446418542,0.06939521476479361,-0.06162178116789791,0.06229871206629367,0.07477425423435138,-0.09925070955689633,-0.09919738188235375,-0.1411112593165021,0.052581627042108024
237,12.133414900003118,0.048461906640247736,0.021143424737534052,0.015403664880544374,0.05458208311906488,0.0697272001664917,-0.062063777113935244,0.06185182492738,0.07413995673441909,-0.09901099895675444,-0.10126219963453824,-0.14341107113583715,0.05494727004261422
238,12.13698260000092,0.04870588076557,0.021455046925038364,0.015125963574503569,0.05485684876125535,0.0700563346326373,-0.0625046807733002,0.061395738083185485,0.07349543087684286,-0.09876073446776763,-0.10332385769267591,-0.14569905777393116,0.05731557107086151
239,12.141172599993295,0.04895107542589022,0.02176813018293716,0.01484629894572893,0.05512956040439863,0.07038257267665471,-0.0629444450640578,0.06093046675357398,0.0728407309719129,-0.09849990528418204,-0.1053818448245923,-0.14797450301062234,0.05968605833305858
240,12.145438799998374,0.04919748137196631,0.022082661496128163,0.014564676179215339,0.05540017713507778,0.07070586906123554,-0.06338302286078434,0.060456028453017674,0.07217591454336217,-0.09822850271669428,-0.10743564312382224,-0.15023668156444397,0.06205825435898887
241,12.149851399997717,0.0494450891723139,0.022398627648385988,0.014281100670157216,0.055668658123114424,0.07102617881275396,-0.06382036700406071,0.05997244301964929,0.07150104236895141,-0.09794652021724178,-0.10948472817689851,-0.15248485908180345,0.06443167630751626
242,12.154548399994384,0.04969388921360055,0.022716015223570123,0.013995578024078806,0.05593496263199198,0.07134345723586825,-0.06425643031007289,0.05947973264423404,0.070816178520782,-0.0976539534021059,-0.11152856910121967,-0.15471829235269435,0.06680583629147444
243,12.158482799990452,0.04994387170108676,0.023034810606898454,0.01370811405692143,0.056199050029411265,0.07165765992829552,-0.06469116558031132,0.05897792189888414,0.07012139040395737,-0.09735080007380524,-0.1135666287414803,-0.1569362294475354,0.06918024159687126
244,12.162553999994998,0.05019502665911428,0.023354999986287005,0.013418714795087274,0.05646087979796982,0.07196874279575796,-0.06512452561136664,0.05846703776427919,0.06941674879567569,-0.09703706024224404,-0.11559836394359795,-0.15913790985468634,0.07155439489973539
245,12.166320899996208,0.05044734393164234,0.023676569353756734,0.013127386475439292,0.05672041154596024,0.07227666206710619,-0.06555646320481762,0.05794710965593798,0.06870232788266502,-0.09671273614467178,-0.11762322579930924,-0.16132256484748642,0.07392779441900521
246,12.170286699998542,0.05070081318283228,0.023999504506908135,0.012834135545256826,0.05697760501828374,0.07258137430959934,-0.06598693117720485,0.057418169449257817,0.06797820529700298,-0.09637783226546835,-0.11964065978343442,-0.1634894176156776,0.0762999338568434
247,12.17456260000472,0.05095542389768108,0.02432379105046429,0.012538968662146566,0.05723242010747181,0.07288283644434779,-0.06641588237009516,0.056880251504562294,0.06724446215238007,-0.09603235535663579,-0.12165010601707206,-0.16563768334341214,0.07867030232603095
248,12.178904400003375,0.05121116538270429,0.024649414397883172,0.012241892693908428,0.05748481686482309,0.07318100576191663,-0.06684326966023801,0.05633339268979364,0.0665011830792237,-0.09567631445823091,-0.12365099987564798,-0.1677665695731414,0.081038384392202
249,12.182947099994635,0.051468026766668826,0.02497635977303984,0.011942914718355945,0.057734755511627406,0.07347583993808161,-0.06726904596981212,0.055777632400138444,0.06574845625771662,-0.09530972091848045,-0.1256427721061106,-0.1698752767372341,0.08340366012306169
250,12.18723909999244,0.05172599700137604,0.02530461221197924,0.011642042023090774,0.05798219645047766,0.07376729704972701,-0.0676931642767612,0.05521301257967491,0.06498637344818042,-0.09493258841377478,-0.12762484860074588,-0.17196299861768008,0.0857656051337662
251,12.191196600004332,0.05198506486249537,0.025634156564740163,0.011339282105230924,0.05822710027668687,0.07405533559087252,-0.06811557762521889,0.05463957774301555,0.06421503001999472,-0.09454493296837842,-0.1295966506527717,-0.17402892260246972,0.0881236907809883
252,12.196206599997822,0.052245218950449195,0.02596497749725096,0.011034642671092299,0.05846942778979307,0.07433991448882903,-0.06853623913602028,0.05405737499467523,0.06343452497969446,-0.09414677297269322,-0.13155759545540016,-0.17607223010481063,0.09047738464811612
253,12.200070599996252,0.052506447691349094,0.026297059493297567,0.010728131635823193,0.05870914000514904,0.07462099312047603,-0.06895510201728966,0.05346645404626365,0.06264496099615086,-0.09373812919864226,-0.13350709674689143,-0.17809209733174505,0.09282615124842064
254,12.204198199993698,0.05276873933798405,0.02663038685656437,0.010419757122991423,0.05894619816558055,0.07489853132864195,-0.06937211957508925,0.052866867230101325,0.06184644442181482,-0.09331902481166275,-0.13544456532000282,-0.18008769608157366,0.09516945268773143
255,12.20842470000207,0.05303208197086068,0.026964943712748293,0.010109527464123863,0.05918056375309747,0.075172489438571,-0.06978724522411388,0.05225866951186919,0.061039085310787104,-0.09288948538018074,-0.1373694093841295,-0.18205819451700747,0.09750674910007054
256,12.211907699995209,0.05329646349929583,0.027300714011746496,0.009797451198198213,0.059412198500664835,0.0754428282744646,-0.0702004324984242,0.05164191850099532,0.06022299743316738,-0.0924495388837194,-0.13928103522083385,-0.18400275845213782,0.09983749911991378
257,12.21988550000242,0.0535618716625618,0.02763768152991798,0.009483537071086826,0.05964106440400657,0.07570950917607622,-0.07061163506221368,0.051016674457459055,0.05939829828164824,-0.09199921571816246,-0.14117884812315448,-0.1859205536277545,0.10216116095082649
258,12.225223799992818,0.05382829403108421,0.02797582987241925,0.009167794034952458,0.059867123733437215,0.07597249401531163,-0.07102080672058877,0.050383000293801744,0.058565109065574855,-0.09153854869433327,-0.14306225362864206,-0.18781074843240972,0.104477193882988
259,12.22891370000434,0.05409571800769269,0.028315142475613952,0.00885023124759597,0.0600903390456836,0.07623174521277071,-0.0714279014303232,0.049740961570935625,0.05772355469327472,-0.09106757302972622,-0.1449306585084092,-0.1896725157750957,0.10678505916058743
260,12.232783899991771,0.054364130828924176,0.028655602609556057,0.008530858071756185,0.06031067319567919,0.07648722575419015,-0.07183287331056437,0.04909062649133504,0.05687376374941828,-0.09058632633935106,-0.1467834710105974,-0.19150503370202912,0.10908421960764009
261,12.237226700002791,0.054633519566378796,0.028997193380546096,0.008209684074362112,0.06052808934832504,0.0767388992067834,-0.07223567665350611,0.048432065892674285,0.05601586847184873,-0.09009484863080093,-0.14862010045032342,-0.19330748570591774,0.11137413880840438
262,12.241190100001404,0.05490387112812802,0.02933989773376006,0.007886719025737635,0.06074255099022741,0.07698672973547674,-0.07263626593505103,0.04776535324467534,0.05515000472618484,-0.08959318230240514,-0.15043995674997393,-0.19507906156717666,0.11365428082429459
263,12.245489399996586,0.05517517226017521,0.029683698455950425,0.007561972898758657,0.060954021941430625,0.07723068211902277,-0.07303459582546677,0.047090564646844996,0.05427631197514945,-0.08908137214082149,-0.15224245044749452,-0.19681895872397603,0.11592411051571831
264,12.24989849999838,0.055447409547968396,0.030028578178218728,0.0072354558679627685,0.061162466367134474,0.07747072176596298,-0.07343062120002697,0.04640777882524868,0.053394933240955345,-0.08855946531631916,-0.1540269931087102,-0.19852638398889516,0.11818309407594688
265,12.253805799991824,0.05572056941796532,0.030374519378858936,0.006907178308611503,0.06136784878939834,0.07770681473040579,-0.07382429714962538,0.04571707712657083,0.05250601505932603,-0.08802751137561045,-0.15579299801252547,-0.20020055531549275,0.12043069962067633
266,12.258015700004762,0.05599463813925058,0.03072150438627072,0.006577150795705353,0.06157013409880563,0.07793892772757915,-0.07421557899135293,0.04501854350877868,0.051609707426128755,-0.08748556223187641,-0.15753988040424963,-0.2018407034537007,0.12266639787566769
267,12.261976900001171,0.056269601825204685,0.031069515381941505,0.006245384102951714,0.06176928756608462,0.07816702814913272,-0.07460442227902295,0.04431226453292367,0.05070616373663382,-0.08693367215146677,-0.15926705753521,-0.20344607378341295,0.12488966287258274
268,12.26628619999974,0.056545446435224814,0.0314185344034962,0.005911889201686043,0.06196527485369982,0.07839108407814877,-0.07499078281362954,0.04359832935345198,0.04979554071579717,-0.08637189773772068,-0.16097394919201502,-0.20501592836396862,0.12709997276141438
269,12.270354199994472,0.05682215777649724,0.0317685433478131,0.0055766772597465415,0.062158062027386385,0.0786110643038227,-0.0753746166537286,0.04287682970528645,0.048877998339244076,-0.08580029791042203,-0.16265997844885158,-0.20654954890548163,0.12929681124702933
270,12.278598399992916,0.05709972150582096,0.032119523974204534,0.005239759640302747,0.06234761556762629,0.07882693833576938,-0.075755880125713,0.0421478598874287,0.0479536997370558,-0.08521893387681027,-0.16432457310646406,-0.20804624127532473,0.13147966975330438
271,12.28275769999891,0.05737812313148243,0.032471457907660324,0.004901147900638587,0.06253390238103654,0.07903867641784569,-0.076134529833935,0.0414115167372094,0.04702281107456815,-0.08462786909173778,-0.16596716733708594,-0.20950533952902162,0.13364804943996994
272,12.287470900002518,0.057657348015180764,0.0328243266421517,0.004560853790890711,0.0627168898116157,0.07924624954139388,-0.07651052267062627,0.04066789959922224,0.04608550142021389,-0.08402716921069603,-0.16758720210312328,-0.21092620697748277,0.13580146189740938
273,12.291379999995115,0.057937381374002735,0.03317811154399286,0.004218889252743083,0.06289654565185512,0.07944962945788567,-0.07688381582560141,0.03991711029584073,0.04514194261680459,-0.08341690204377733,-0.1691841249342019,-0.2123082343815201,0.13793942850771213
274,12.295363999990514,0.05821820828244707,0.03353279385525762,0.0038752664180787878,0.06307283815372253,0.07964878869101782,-0.07725436679576736,0.03915925309814028,0.044192309165472864,-0.08279713751439864,-0.1707573896729644,-0.21365083753498224,0.1400614795736051
275,12.30009560000326,0.058499813674497414,0.03388835469724884,0.0035299976075898235,0.06324573603951394,0.07984370054832132,-0.07762213339445889,0.03839443469868174,0.04323677811850584,-0.08216794762103075,-0.17230645631555114,-0.21495345593293264,0.14216715396904234
276,12.304300799994962,0.058782182345743346,0.03424477507401859,0.0031830953293456614,0.06341520851259463,0.0800343391323013,-0.07798707376060679,0.037622764183855996,0.04227552897516355,-0.08152940639903784,-0.173830791640429,-0.21621555224336014,0.14425599931374067
277,12.308049999992363,0.05906529895554915,0.03460203587593692,0.002834572277321289,0.06358122526800439,0.08022067935111724,-0.07834914636773303,0.03684435300106009,0.041308743579223206,-0.08088158988085035,-0.17532987018713614,-0.21743661212322224,0.14632757229256424
278,12.31211089999124,0.05934914802926941,0.03496011788330728,0.0024844413298855516,0.06374375650290576,0.08040269692880925,-0.07870831003276381,0.03605931492231417,0.040336606016438,-0.0802245760549565,-0.1768031750280479,-0.2186161441568338,0.14838143883423888
279,12.316184199997224,0.05963371396051093,0.035319001770026434,0.002132715548250613,0.06390277292686493,0.08058036841506391,-0.07906452392465904,0.03526776600455565,0.03935930251263078,-0.07955844482448149,-0.1782501987671971,-0.2197536796515034,0.15041717424032702
280,12.32051199999114,0.05991898101344002,0.03567866810728699,0.001779408174883344,0.06405824577194588,0.08075367119453188,-0.07941774757285604,0.034469824544349444,0.03837702133297515,-0.07888327796502898,-0.17967044455812148,-0.2208487724235558,0.15243436334980606
281,12.326507799996762,0.060204933325134415,0.036039097367320416,0.0014245326318794885,0.06421014680258741,0.08092258349569549,-0.07976794087552308,0.033665611029105855,0.037389952681997296,-0.07819915908179269,-0.18106342653407473,-0.22190099866900614,0.15443260067835068
282,12.330400899998494,0.06049155490797863,0.036400269927178625,0.0010681025193014545,0.06435844832526227,0.08108708439929475,-0.08011506410762063,0.0328552480879545,0.036398288604010266,-0.0775061735661559,-0.1824286702092631,-0.2229099570726484,0.15641149047696631
283,12.334751399990637,0.060778829652102045,0.03676216607255213,0.0007101316134805976,0.06450312319791617,0.0812471538463071,-0.08045907792876793,0.03203886043938429,0.03540222288214302,-0.07680440855228017,-0.1837657132233839,-0.22387526897367113,0.15837064666584028
284,12.338714199999233,0.0610667413278584,0.03712476600162278,0.00035063386528486274,0.06464414483915995,0.08140277264547294,-0.08079994339091705,0.031216574835478177,0.034401950937297934,-0.07609395287429471,-0.18507410608441383,-0.22479657827787605,0.16030969268652331
285,12.343140600001789,0.061355273588345846,0.037488049828949044,-1.0376601647362908e-05,0.06478148723721136,0.08155392248037446,-0.08113762194583778,0.030388520002929555,0.03339766972796256,-0.07537489702420325,-0.18635341266758432,-0.22567355149712165,0.16222826134782178
286,12.347233899999992,0.0616444099719662,0.03785199758938184,-0.0003728854927063522,0.06491512495856128,0.08170058591606778,-0.08147207545241633,0.029554826582827556,0.03238957764881544,-0.07464733311044756,-0.1876032102071778,-0.22650587789540028,0.16412599464794894
287,12.351481299992884,0.06193413390502225,0.03821658924200898,-0.000736878344142269,0.06504503315637847,0.08184274640525756,-0.0818032661837707,0.028715627071746585,0.03137787442923526,-0.07391135481740031,-0.18882308906004447,-0.22729326952863338,0.16600254358359678
288,12.356150399995386,0.062224428704351964,0.03858180467412605,-0.0011023405249277198,0.06517118757865056,0.08198038829402414,-0.0821311568341882,0.027871055763640396,0.030362761031551777,-0.07316705736563109,-0.19001265286180447,-0.22803546194871294,0.16785756822899134
289,12.36092419999477,0.0625152775799984,0.038947623705231936,-0.0014692572386508472,0.06529356457607065,0.08211349682709089,-0.08245571052588645,0.02702124868953874,0.02934443954327695,-0.07241453747069428,-0.19117151964434645,-0.22873221638614893,0.16969073856333036
290,12.365551399998369,0.06280666363791425,0.039314026091046665,-0.0018376135254381716,0.0654121411096405,0.08224205815259032,-0.08277689081558344,0.026166343549476497,0.028323113055892767,-0.07165389329601672,-0.19229932337149908,-0.22938332321461716,0.1715017361174619
291,12.370552099993802,0.06309856988269949,0.03968099152754942,-0.00220739426390627,0.06552689475795018,0.08236605932625055,-0.08309466170083846,0.025306479638496453,0.027298985526188337,-0.07088522439700183,-0.1933957152883054,-0.22998860491583756,0.1732902554676519
292,12.374741899999208,0.0633909792203709,0.04004849965503374,-0.0025785841731411625,0.06563780372412142,0.08248548831492493,-0.08340898762612366,0.024441797766546702,0.02627226162860937,-0.07010863166059704,-0.194460364147037,-0.2305479163823809,0.1750560041912625
293,12.380484799999977,0.06368387446116164,0.04041653006217698,-0.0029511678147041307,0.06574484684237296,0.08260033399946191,-0.0837198334886261,0.02357244018246801,0.02524314661389508,-0.06932421724979314,-0.1954929542016932,-0.23106114249050916,0.1767987011607475
294,12.3848619999917,0.06397723832234924,0.040785062290121125,-0.0033251295946628424,0.06584800358428605,0.08271058617697412,-0.08402716464382447,0.02269855051177464,0.02421184618307109,-0.0685320845584045,-0.19649318329884197,-0.23152819500998836,0.17851807451440968
295,12.388953699992271,0.0642710534311111,0.041154075836562484,-0.0037004537656469003,0.06594725406481501,0.08281623556258452,-0.0843309469108878,0.021820273697666058,0.023178566373642122,-0.06773233817366353,-0.19746076233955495,-0.23194901067468499,0.18021386046210977
296,12.393061099995975,0.0645653023274061,0.04152355015984805,-0.004077124428927106,0.06604257904802674,0.08291727379068073,-0.08463114657791869,0.02093775594360577,0.022143513450789746,-0.06692508384165065,-0.19839541494675364,-0.2323235502710074,0.18188580289554943
297,12.39747239999997,0.0648599674668812,0.0418934646830764,-0.004455125536517765,0.06613395995259919,0.08301369341569094,-0.08492773040704378,0.02005114465729936,0.02110689380169362,-0.06611042843336389,-0.19929687758231754,-0.23265179822985838,0.18353365324061927
298,12.401412499995786,0.06515503122380217,0.04226379879820097,-0.004834440893301342,0.06622137885706135,0.08310548791239586,-0.08522066563935435,0.01916058839222908,0.02006891383036787,-0.0652884799114655,-0.20016489993925127,-0.23293376259539608,0.18515717030800208
299,12.405935999995563,0.06545047589400688,0.04263453187013373,-0.005215054159174824,0.06630481850477038,0.08319265167576691,-0.0855099199997003,0.018266236788134826,0.019029779852260887,-0.0644593472976838,-0.20099924513732678,-0.23316947482956385,0.18675612021306412
300,12.409927599990624,0.06574628369788034,0.04300564324084704,-0.005596948851217122,0.06638426230862084,0.08327518002033825,-0.08579546170134006,0.01736824051080417,0.017989697990834764,-0.06362314064027408,-0.20179968968242012,-0.23335898959741788,0.18833027640255803
301,12.413815799998702,0.06604243678335012,0.04337711223347169,-0.0059801083458769,0.06645969435548489,0.08335306917912279,-0.08607725945044442,0.01646675119291594,0.016948874074079356,-0.06277997098118236,-0.2025660234883265,-0.23350238461913078,0.18987941977975908
302,12.418129999990924,0.0663389172289009,0.0437489181563891,-0.006364515881180139,0.06653109941039408,0.08342631630206139,-0.08635528245045362,0.015561921373635698,0.015907513532411433,-0.06192995032239044,-0.203298050737008,-0.2335997605150106,0.19140333912386004
303,12.422304599997004,0.06663570704660716,0.04412104030731556,-0.006750154558956815,0.06659846292044085,0.08349491945402843,-0.08662950040628109,0.014653904431788366,0.014865821296570733,-0.061073191589339784,-0.20399559134515097,-0.23365124198827378,0.19290183213817952
304,12.428781099995833,0.06693278818518261,0.04449345797737662,-0.007137007347085955,0.06666177101836442,0.08355887761237052,-0.08689988352834435,0.013742854512376114,0.01382400168497211,-0.060209808587929556,-0.20465848276738588,-0.23365698053668396,0.19437470714377938
305,12.432975699994133,0.06723014253304477,0.04486615045516936,-0.007525057081758254,0.06672101052579707,0.08361819066390758,-0.08716640253638533,0.012828926443671337,0.012782258277421394,-0.05933991595283819,-0.20528658179462048,-0.23361715629172447,0.1958217844013385
306,12.437147399992682,0.06752775192139335,0.04523909703081009,-0.007914286469755196,0.0667761689561107,0.08367285940134545,-0.08742902866304043,0.01191227564769848,0.011740793786067296,-0.058463629092734004,-0.20587976426153276,-0.23353197665815562,0.19724289552317156
307,12.440744599996831,0.06782559812730028,0.045612276999964604,-0.008304678090743513,0.06682723451686487,0.0837228855191262,-0.08768773365717228,0.010993058059935348,0.010699809941248587,-0.057581064143839934,-0.20643792228746116,-0.23340167235205975,0.1986378812026204
308,12.445646199994371,0.06812366287680989,0.04598566966785886,-0.00869621439958401,0.0668741961119373,0.08376827160882286,-0.08794248978702571,0.010071430064398436,0.009659507397775496,-0.05669233793539158,-0.20696096239551912,-0.2332264944823881,0.2000065896172983
309,12.449525799995172,0.0684219278480479,0.046359254353268195,-0.00908887772865417,0.0669170433433931,0.08380902115415399,-0.08819326984325149,0.009147548430116436,0.00862008564680129,-0.05579756795744051,-0.20744880680671807,-0.23300671510107296,0.20134887705495313
310,12.453780600000757,0.06872037467433831,0.04673301039248354,-0.00948265029018394,0.06695576651304876,0.08384513852559257,-0.08844004714177524,0.008221570234675638,0.007581742917198205,-0.054896872320731364,-0.20790139629646315,-0.23274262985445213,0.2026646099433893
311,12.463025099990771,0.06901898494732632,0.047106917143252554,-0.009877514178603915,0.0669903566236596,0.0838766289745011,-0.08868279552646334,0.0072936527752215305,0.006544676063785793,-0.05399036970640398,-0.2083186926789564,-0.2324345609076567,0.20395366700065817
312,12.467377699998906,0.06931774022010581,0.04748095398869355,-0.010273451372904906,0.0670208053796902,0.08390349862674382,-0.08892148937154334,0.006363953469850309,0.005509080442629531,-0.05307817930669683,-0.20870068078599097,-0.23208285949114527,0.20521594105520496
313,12.47467979999783,0.06961662201034916,0.04785510034117967,-0.0106704437390077,0.06704710518762251,0.08392575447570982,-0.08915610358374113,0.005432629750965202,0.004475149776561244,-0.052160420758418556,-0.2090473692881055,-0.23168790693757277,0.2064513402818728
314,12.478823700002977,0.0699156118034374,0.048229335646190585,-0.011068473032141687,0.0670692491557753,0.0839434043747261,-0.08938661360410805,0.004499838959345588,0.003443076021231768,-0.05123721407262974,-0.2093587899308499,-0.2312501133894133,0.20765978823750905
315,12.48285610000312,0.07021469105558852,0.04860363938612902,-0.011467520899230914,0.06708723109366771,0.0839564570288862,-0.08961299540953106,0.0035657382443136866,0.002413049242155738,-0.050308679567796916,-0.2096349952462034,-0.23076991437420155,0.2088412222498972
316,12.48727689999214,0.07051384119698187,0.048977991084099594,-0.011867568881286174,0.0671010455109484,0.08396492198636686,-0.08983522551396382,0.002630484478211388,0.001385257511303464,-0.04937493781384055,-0.20987605455850686,-0.2302477663409858,0.20999559094697043
317,12.49123569999938,0.07081304363487693,0.049352370307647914,-0.012268598415802046,0.06711068761599655,0.0839688096293346,-0.09005328096943782,0.0016942341921827911,0.0003598868239480028,-0.048436109587321516,-0.21008205097019395,-0.22968414314900432,0.21112285222199023
318,12.4955978999933,0.07111227975672531,0.049726756672458315,-0.012670590839157994,0.06711615331427832,0.08396813116452082,-0.0902671393668939,0.0007571435175298345,-0.0006628789734318359,-0.04749231583363394,-0.2102530808148217,-0.22907953477600543,0.21222297205862523
319,12.500732799991964,0.07141153093327474,0.05010112984600893,-0.01307352738902282,0.06711743920642492,0.08396289861348546,-0.09047677883685627,-0.00018063187362773656,-0.001682858254786265,-0.04654367763266869,-0.21038925318759016,-0.22843444737444546,0.21329592402255312
320,12.504380800004585,0.071710778521664,0.050475469551182595,-0.013477389206761784,0.06711454258605995,0.08395312480255342,-0.09068217804995782,-0.001118936822810299,-0.002699871687092643,-0.045590316165539685,-0.21049068941565133,-0.2277494031369279,0.2143416890947894
321,12.508121299993944,0.0720100038685076,0.05084975556983218,-0.013882157339845729,0.0671074614373918,0.08393882335243076,-0.09088331621731742,-0.002057616739795024,-0.003713742300790345,-0.04463235268173364,-0.21055752325410332,-0.22702493942426247,0.21536025561251673
322,12.511975300003542,0.07230918831296912,0.0512239677462989,-0.01428781274426157,0.06709619443255402,0.08392000866751305,-0.09108017309077232,-0.002996517658821528,-0.004724295554603625,-0.04366990846636401,-0.21058990061302935,-0.22626160715021143,0.2163516193137664
323,12.516513499998837,0.07260831318982221,0.05159808599088232,-0.014694336286923494,0.0670807409286965,0.08389669592492359,-0.09127272896296346,-0.003935486290774498,-0.005731359391572967,-0.04270310480692227,-0.2105879790082586,-0.22545996915942795,0.21731578346726854
324,12.520704800001113,0.07290735983249805,0.05197209028326091,-0.01510170874808421,0.06706110096486051,0.08386890106332204,-0.09146096466727133,-0.004874370074491676,-0.006734764289413722,-0.041732062959374,-0.21055192769924333,-0.2246205992652854,0.21825275896023982
325,12.524547399996663,0.07320630957611843,0.052345960675862245,-0.01550991082374557,0.06703727525861237,0.08383664077149364,-0.091644861577599,-0.0058130172301759575,-0.0077343433079676,-0.04075690411412732,-0.21048192776654914,-0.22374408190850045,0.21916256424130937
326,12.528920600001584,0.0735051437605132,0.052719677297181806,-0.01591892312806789,0.06700926520244223,0.08379993247673467,-0.09182440160800454,-0.0067512768113943715,-0.008729932136517187,-0.03977774936263794,-0.2103781722490339,-0.22283101230583116,0.2200452251484382
327,12.532884699990973,0.07380384373322126,0.05309322035504963,-0.0163287261957773,0.06697707285993397,0.0837587943330198,-0.09199956721218616,-0.0076889987597134335,-0.009721369142563408,-0.038794719664912054,-0.2102408662033614,-0.22188199628043576,0.22090077470733685
328,12.53716269999859,0.0741023908524738,0.0534665701398436,-0.016739300484570452,0.06694070096167687,0.08371324520895256,-0.09217034138282494,-0.008626033957228815,-0.010708495417627317,-0.037807935817908915,-0.21007022633190855,-0.22089764959884145,0.22172925291732062
329,12.541650300001493,0.0744007664901589,0.05383970702764861,-0.01715062637751603,0.06690015290096708,0.08366330467552423,-0.0923367076507882,-0.009562234277882678,-0.011691154820115186,-0.036817518424953344,-0.2098664811777127,-0.21987859709010374,0.22253070649510637
330,12.545283400002518,0.07469895203476644,0.05421261148336074,-0.017562684185452357,0.06685543272926166,0.08360899299368216,-0.09249865008419943,-0.010497452641731724,-0.012669194013265684,-0.03582358786642289,-0.20962987063457206,-0.21882547143999367,0.2233051886747959
331,12.5497716999962,0.07499692889431206,0.054585264063735546,-0.017975454149380586,0.06680654515139613,0.08355033110175024,-0.09265615328738029,-0.011431543061896005,-0.013642462497262494,-0.03482626427094392,-0.20936064506882252,-0.21773891253739125,0.22405275911119563
332,12.553698599993368,0.07529467849923954,0.05495764542038005,-0.018388916442852895,0.06675349552061986,0.08348734060271083,-0.09280920239966371,-0.012364360690995689,-0.01461081264135317,-0.03382566748694092,-0.20905906543522396,-0.21661956707304617,0.224773483664622
333,12.557915800003684,0.07559218230530047,0.05532973630268765,-0.01880305117435509,0.06669628983339959,0.08342004375133888,-0.0929577830940822,-0.013295761869133255,-0.015574099712383823,-0.03282191705575149,-0.20872540251287755,-0.21546808763814262,0.22546743399319696
334,12.562329899999895,0.07588942179641024,0.05570151756071536,-0.0192178383896831,0.06663493472402687,0.08334846344122936,-0.09310188157594115,-0.014225604163516786,-0.016532181898879714,-0.03181513218681123,-0.20835993573222447,-0.2142851322844887,0.2261346871374841
335,12.566320199999607,0.07618637848747965,0.056072970148003054,-0.019633258074312855,0.06656943745906829,0.08327262319171666,-0.09324148458128592,-0.015153746405982294,-0.01748492033565807,-0.030805431734472616,-0.2079629526067842,-0.21307136423130973,0.22677532527596828
336,12.570825699993293,0.07648303392722143,0.056444075124334046,-0.02004929015576312,0.06649980593163834,0.08319254713468259,-0.0933765793752684,-0.016080048727549718,-0.018432179125294084,-0.02979293417537032,-0.20753474795022336,-0.2118274511496853,0.22738943560672426
337,12.574569199990949,0.07677936970093076,0.056814813658436714,-0.0204659145059508,0.06642604865554148,0.08310826000128431,-0.09350715375041227,-0.0170043725889637,-0.019373825356352944,-0.028777757586295274,-0.20707562340757346,-0.21055406474315902,0.22797711005491306
338,12.579096300003584,0.07707536743323955,0.05718516703062673,-0.02088311094353831,0.06634817475927267,0.08301978710859975,-0.09363319602478226,-0.017926580811069376,-0.02030972912111604,-0.027760019624168283,-0.20658588684752427,-0.20925188036604475,0.22853844480731397
339,12.58360499999253,0.07737100879084348,0.0575551166353896,-0.021300859236272555,0.06626619397988855,0.08292715434619752,-0.09375469504007083,-0.018846537599934102,-0.021239763530409347,-0.026739837508064773,-0.20606585150095702,-0.20792157643422285,0.22907353998525934
340,12.587155599991092,0.07766627548520162,0.05792464398390312,-0.02171913910331523,0.06618011665678399,0.08283038816265005,-0.09387164015960715,-0.019764108569541396,-0.02216380472607561,-0.02571732800210489,-0.20551583525777203,-0.2065638341235551,0.22958249943310752
341,12.592147000003024,0.07796114927520797,0.05829373070649965,-0.022137930217564057,0.06608995372536089,0.08272951555199232,-0.09398402126629118,-0.020679160760642343,-0.02308173189311344,-0.024692607399364484,-0.20493615978447388,-0.2051793374882147,0.23006543070864444
342,12.596593099995516,0.07825561196983463,0.05866235855506787,-0.022557212207964656,0.06599571671063663,0.08262456404012673,-0.09409182876045921,-0.021591562655580872,-0.02399342727320464,-0.0236657915048508,-0.20432715054494277,-0.20376877388932768,0.23052244573494213
343,12.604248899995582,0.07854964543074633,0.05903050940539376,-0.022976964661812753,0.06589741772078066,0.08251556167116122,-0.09419505355766612,-0.022501184197330396,-0.024898776180675607,-0.022636995613600705,-0.20368913770047334,-0.2023328346510203,0.2309536620080949
344,12.610811199992895,0.07884323157488597,0.05939816525944055,-0.02339716712704627,0.06579506944055319,0.08240253699367182,-0.09429368708635562,-0.023407896812344887,-0.025797667021874752,-0.021606334482886787,-0.20302245687228543,-0.20087221594178686,0.23135920384997608
345,12.615965099990715,0.07913635237703068,0.05976530824756721,-0.02381779911452676,0.06568868512463805,0.08228551904686793,-0.09438772128539466,-0.02431157343639498,-0.0266899913189932,-0.02057392229914451,-0.20232744967174093,-0.19938761917520262,0.23173920295119455
346,12.621876999997768,0.07942898987231785,0.060131920630685044,-0.024238840100309515,0.06557827859085096,0.08216453734664249,-0.09447714860144876,-0.025212088542147085,-0.027575643733015468,-0.019539872645336652,-0.20160446322894332,-0.19787975046243178,0.23209379761748605
347,12.626452900003642,0.07972112615874065,0.060497984802351766,-0.024660269527901593,0.06546386421322646,0.08203962187153262,-0.09456196198622542,-0.026109318160795928,-0.028454522082658067,-0.018504298474600552,-0.20085384854903568,-0.19634931933049754,0.23242313114572877
348,12.630587799998466,0.08001274339961244,0.06086348329080289,-0.02508206681050734,0.06534545691503332,0.08191080304860089,-0.09464215489361441,-0.027003139894986466,-0.029326527355890752,-0.017467312092093915,-0.20007595881003204,-0.19479703670491152,0.23272734971477876
349,12.63462559999607,0.08030382382599996,0.061228398760919955,-0.02550421133326092,0.0652230721617462,0.08177811173929322,-0.09471772127676933,-0.02789343292526786,-0.030191563710885855,-0.01642902514744986,-0.19927114775698623,-0.19322361341292668,0.23300660041382923
350,12.639010999992024,0.0805943497391251,0.06159271401613576,-0.025926682455445826,0.06509672595400352,0.0816415792253117,-0.09478865558518064,-0.028780078008695913,-0.03104953847419276,-0.015389548634204237,-0.1984397688618165,-0.19162975989172812,0.233261030170285
351,12.64298879999842,0.0808843035127353,0.06195641200027663,-0.02634945951270129,0.06496643482059158,0.08150123719448875,-0.09485495276175206,-0.029662957477795023,-0.03190036213908512,-0.014348992891811001,-0.1975821754981824,-0.1900161858440877,0.23349078532409093
352,12.647218700003576,0.08117366759544273,0.062319475799341696,-0.026772521819215724,0.0648322158114117,0.08135711772667467,-0.09491660823989159,-0.030541955240720037,-0.03274394836066474,-0.013307467608865326,-0.1966987202760089,-0.1883835998371231,0.2336960115064352
353,12.651414099993415,0.08146242451303197,0.06268188864321932,-0.027195848669907208,0.06469408649046289,0.0812092532796555,-0.0949736179406167,-0.03141695677428404,-0.03358021395063086,-0.012265081826200614,-0.195789754357341,-0.18673270911712672,0.23387685345771592
354,12.655792099991231,0.08175055687073667,0.06304363390734077,-0.027619419342591104,0.06455206492887115,0.0810576766750872,-0.09502597826967292,-0.03228784911801955,-0.03440907887073282,-0.011221943941734822,-0.19485562741654616,-0.18506421898266465,0.23403345432279835
355,12.659369699991656,0.08203804735548502,0.06340469511427127,-0.028043213100134853,0.06440616969792513,0.08090242108447186,-0.09507368611468221,-0.033154520866851424,-0.03523046622194915,-0.010178161719851803,-0.193896686877633,-0.18337883200268532,0.23416595493737152
356,12.664013200002955,0.08232487873811432,0.06376505593523858,-0.02846720919260016,0.06425641986217073,0.0807435200151884,-0.09511673884234528,-0.034016862158357065,-0.03604430223096797,-0.009133842302611321,-0.19291327773745426,-0.18167724796660775,0.23427449431714906
357,12.67036599999119,0.0826110338755549,0.06412470019159948,-0.02889138685937284,0.06410283497256038,0.08058100729658935,-0.0951551342956899,-0.03487476466386283,-0.03685051623892101,-0.008089092214768097,-0.19190574348528758,-0.1799601655866697,0.23435921193231457
358,12.67468789999839,0.08289649571298356,0.0644836118562444,-0.029315725331280473,0.06394543505962702,0.08041491706613196,-0.09518887079131795,-0.03572812158390429,-0.037649040703044166,-0.007044017354700167,-0.19087442725856613,-0.1782282848287392,0.23442025069334288
359,12.678620699996827,0.08318124728594663,0.06484177505494022,-0.029740203832697702,0.0637842406266739,0.08024528375546024,-0.09521794711657285,-0.036576827649628496,-0.0384398112061958,-0.005998722972802808,-0.18981967260591068,-0.1764823071948767,0.2344577582180714
360,12.682837200001812,0.08346527172245269,0.06519917406761079,-0.03016480158363862,0.06361927264293603,0.08007214207645115,-0.09524236252659393,-0.03742077912505837,-0.03922276646103695,-0.004953313651118176,-0.1887418226254836,-0.1747229344608033,0.23447188567562754
361,12.687362399999984,0.08374855224503468,0.06555579332955527,-0.03058949780183581,0.06345055253674976,0.07989552700725935,-0.09526211674130228,-0.03825987380081147,-0.0399978483082914,-0.003907893292038149,-0.18764121851728455,-0.1729508672870082,0.23446278605581247
362,12.691097599992643,0.08403107217278166,0.06591161743260428,-0.031014271704805845,0.06327810218877031,0.07971547377837898,-0.0952772099423543,-0.03909401098345497,-0.04076500170854089,-0.0028625651133661993,-0.18651819915171838,-0.1711668040433026,0.23443061311233535
363,12.695643400002156,0.08431281492334047,0.06626663112621388,-0.03143910251190117,0.0631019439252362,0.07953201785876148,-0.09528764277008352,-0.03992309148537724,-0.041524174730003485,-0.0018174316464436085,-0.18537310093345988,-0.1693714405753045,0.23437552083818294
364,12.699554299993906,0.08459376401488743,0.06662081931849796,-0.03186396944634834,0.06292210051127714,0.07934519494198639,-0.09529341632043752,-0.04074701761292888,-0.042275318538246516,-0.0007725947358895684,-0.18420625742936184,-0.1675654702042613,0.23429766330924265
365,12.703764899997624,0.08487390306807027,0.06697416707719893,-0.03228885173727256,0.06273859514428422,0.07915504093247093,-0.09529453214191735,-0.04156569315297631,-0.04301838738396336,0.00027184446087815756,-0.1830179994068543,-0.16574958298216652,0.23419719472392006
366,12.70788739999989,0.0851532158079208,0.06732665963059707,-0.03271372862170867,0.06255145144733765,0.07896159193174979,-0.09529099223251022,-0.04237902336138521,-0.04375333858604409,0.0013157854742564168,-0.18180865507016555,-0.16392446504670757,0.23407426918829605
367,12.711976899998264,0.0854316860657382,0.06767828236835893,-0.03313857934659829,0.062360693462679695,0.07876488422483562,-0.09528279903662344,-0.04318691495168051,-0.044480132513600244,0.002359128521020205,-0.1805785500008949,-0.16209079815160657,0.23392904059692354
368,12.717512799994438,0.08570929778094342,0.06802902084232505,-0.0335633831707735,0.06216634564524353,0.07856495426665915,-0.09526995544202989,-0.043989276082999934,-0.04519873256484741,0.0034017745038728967,-0.17932800729414275,-0.1602492589620561,0.233761662869313
369,12.72139769999194,0.08598603500290487,0.06837886076723741,-0.03398811936692674,0.061968432856233574,0.078361838668618,-0.09525246477680602,-0.04478601634996789,-0.04590910514284727,0.004443625012118565,-0.17805734832320852,-0.15840051846673403,0.23357228989181475
370,12.725338999996891,0.08626188189273552,0.06872778802140724,-0.03441276722356716,0.06176698035674465,0.07815557418523308,-0.0952303308062713,-0.04557704677746795,-0.04661121962914701,0.005484582320693967,-0.17676689311115729,-0.15654524141093568,0.2333610755293119
371,12.728887899997062,0.08653682272506168,0.06907578864732344,-0.034837306046963265,0.06156201380138893,0.0779461977009325,-0.09520355772993487,-0.04636227981383007,-0.0473050483544665,0.006524549390945131,-0.17545696027139338,-0.15468408569061573,0.23312817392122
372,12.733078499994008,0.08681084188976329,0.06942284885220261,-0.035261715163072006,0.06135355923197588,0.07773374621696931,-0.09517215017842803,-0.047141629325073174,-0.047990566566934276,0.007563429872298824,-0.17412786796747518,-0.15281770170489037,0.2328737393551288
373,12.737210799998138,0.08708392389368635,0.06976895500848075,-0.0356859739194541,0.06114164307119049,0.07751825683848867,-0.09513611321043601,-0.047915010596651215,-0.04866775239700083,0.008601128101912386,-0.17277993463688246,-0.1509467321413678,0.2325979260976841
374,12.741133100003935,0.08735605336232685,0.07011409365424796,-0.03611006168717574,0.060926292116257684,0.07729976676175852,-0.09509545230963358,-0.0486823403341497,-0.04933658682376036,0.009637549104837132,-0.17141347889310748,-0.14907181203513512,0.23230088825898068
375,12.745346099996825,0.08762721504148664,0.07045825149362635,-0.036533957862696594,0.06070753353261434,0.077078313261537,-0.09505017338161535,-0.04944353666415872,-0.04999705364039007,0.010672598592458955,-0.17002881970210013,-0.14719356833802827,0.23198277950930385
376,12.751346599994577,0.08789739379890099,0.07080141539709199,-0.03695764186974415,0.06048539484756589,0.07685393367861129,-0.09500028275084532,-0.05019851913654284,-0.05064913941663099,0.01170618296013586,-0.1686262763234546,-0.14531261933186937,0.2316437531761655
377,12.755653899992469,0.08816657462583789,0.07114357240174178,-0.03738109316117451,0.06025990394393813,0.07662666540749968,-0.09494578715760821,-0.050947208724789694,-0.05129283345899503,0.012738209286503856,-0.16720616803622196,-0.14342957421658037,0.23128396233296583
378,12.759891099995002,0.08843474263866899,0.07148470971150572,-0.03780429122081953,0.06003108905373069,0.0763965458843452,-0.0948866937549652,-0.0516895278258349,-0.05192812776957294,0.0137685853319051,-0.16576881453029454,-0.14154503307143662,0.23090355975850194
379,12.763787299991236,0.0887018830804123,0.0718248146973058,-0.03822721556532051,0.05979897875177041,0.07616361257498498,-0.0948230101057193,-0.05242540026390068,-0.0525550170058958,0.014797219537332726,-0.16431453623948847,-0.13965958669868958,0.23050269804692064
380,12.767940199992154,0.08896798132224654,0.07216387489716189,-0.03864984574594823,0.05956360194933059,0.07592790296320184,-0.09475474417938048,-0.053154751293290954,-0.05317349843834859,0.015824021023839452,-0.16284365383279492,-0.13777381650628884,0.2300815296063222
381,12.771438700001454,0.08923302286499696,0.07250187801624589,-0.03907216135040959,0.059324987887759424,0.0756894545391734,-0.09468190434913636,-0.053877507597693344,-0.053783571908985896,0.01684889959146996,-0.1613564886051507,-0.13588829470299896,0.22964020663764187
382,12.77703479999036,0.08949699334059286,0.0728388119268846,-0.03949414200464067,0.059083166132105486,0.07544830478809092,-0.09460449938882677,-0.05459359729645884,-0.05438523979068531,0.017871765718481192,-0.15985336339728262,-0.13400358371146556,0.2291788816077963
383,12.783829899999546,0.08975987851349655,0.07317466466851238,-0.03991576737458634,0.05883816656469018,0.07520449117897261,-0.09452253846992145,-0.05530294995210624,-0.054978506940729394,0.018892530564493856,-0.1583346027924911,-0.13212023562054606,0.22869770844188075
384,12.788960099991527,0.09002166428210359,0.0735094244475743,-0.04033701716796638,0.05859001937866627,0.07495805115369644,-0.09443603115846655,-0.05600549657835656,-0.0555633806550754,0.01991110598034377,-0.15680053389897008,-0.13023879261551968,0.22819684393108527
385,12.796081599997706,0.09028233668011429,0.07384307963738093,-0.040757871136027884,0.05833875507151873,0.07470902211622121,-0.09434498741197438,-0.05670116965461358,-0.056139870625773476,0.020927404523788024,-0.15525148697548738,-0.12835978697826583,0.22767644886956814
386,12.80087690000073,0.09054188187787597,0.07417561877791544,-0.041178309075283644,0.0580844044384941,0.07445744142199906,-0.09424941757622993,-0.05738990313957755,-0.056707988895238,0.021941339479494035,-0.15368779504061789,-0.12648374059770914,0.22713668825987546
387,12.804567700004554,0.09080028618369593,0.07450703057559396,-0.04159831082923605,0.05782699856597999,0.07420334636760433,-0.09414933238200236,-0.058071632482241196,-0.05726774980930033,0.022952824876577474,-0.15210979262015922,-0.12461116516581629,0.2265777302163827
388,12.808730000004289,0.09105753604512462,0.0748373039029802,-0.04201785629008616,0.05756656882483636,0.07394677418056468,-0.09404474294169514,-0.0587462946243339,-0.05781916997322785,0.023961775498813103,-0.1505178137309844,-0.12274256284307089,0.22599974432106978
389,12.813487199993688,0.09131361805020917,0.07516642779845512,-0.04243692540042776,0.0573031468637532,0.0736877620093822,-0.09393566074596645,-0.05941382799333936,-0.058362268210710916,0.02496810688751084,-0.14891219098048242,-0.12087842663039092,0.22540290040042948
390,12.817279800001415,0.09156851892871733,0.07549439146584255,-0.04285549815492626,0.05703676460264413,0.07342634691373016,-0.09382209766035368,-0.06007417249690927,-0.058897065523198365,0.025971735340820062,-0.14729325537160776,-0.11901924040769919,0.22478736800764398
391,12.821495299998787,0.09182222555333205,0.07582118427399152,-0.04327355460198264,0.056767454226053865,0.07316256585483681,-0.0937040659219001,-0.060727269514142625,-0.059423585049228365,0.026972577911988142,-0.1456613357737997,-0.11716547905173119,0.22415331597125696
392,12.826247899996815,0.09207472494081671,0.07614679575631605,-0.04369107484538234,0.056495248176629556,0.07289645568604476,-0.09358157813579482,-0.06137306188528145,-0.05994185202481447,0.027970552404640175,-0.14401675949037285,-0.11531760869119373,0.22350091218015403
393,12.830341699998826,0.09232600425315142,0.07647121561029331,-0.04410803904592916,0.056220179148620174,0.07262805314354798,-0.09345464727204154,-0.062011493908049636,-0.06045189374505174,0.02896557736912014,-0.14235985231811957,-0.11347608705773862,0.22283032392686006
394,12.834080400003586,0.09257605079864027,0.07679443369692084,-0.04452442742306448,0.0559422800813805,0.07235739483729361,-0.09332328666213122,-0.06264251132788018,-0.060953739527632535,0.029957572100831883,-0.1406909375287651,-0.11164136352558289,0.22214171800457536
395,12.83791139999812,0.09282485203298978,0.07711644004013354,-0.044940220256471514,0.05566158415295762,0.07208451724204429,-0.09318750999572553,-0.06326606132517143,-0.0614474206748059,0.030946456637445562,-0.1390103363585155,-0.10981387913210168,0.22143526081468623
396,12.842788299996757,0.09307239556035889,0.07743722482618126,-0.04535539788766491,0.05537812477370859,0.07180945668861914,-0.09304733131735449,-0.06388209250987975,-0.06193297043707699,0.03193215175819732,-0.1373183688107137,-0.10799406714365027,0.22071111903276108
397,12.849270499995328,0.09331866913438051,0.07775677840296762,-0.045769940721565594,0.05509193557993514,0.07153224935527981,-0.09290276502310615,-0.06449055491593318,-0.06241042398021202,0.03291457898703456,-0.13561535373376557,-0.10618235319413352,0.21996946046024704
398,12.853620499998216,0.09356366065915481,0.07807509127935076,-0.046183829228060816,0.05480305042755114,0.07125293125926573,-0.09275382585729618,-0.06509139999651899,-0.06287981835017332,0.033893660599510315,-0.13390160921269484,-0.10437915506911727,0.2192104547281679
399,12.857837599993218,0.0938073581902142,0.0783921541244068,-0.04659704394354932,0.05451150338575932,0.07097153824849274,-0.09260052890909606,-0.06568458062198888,-0.06334119243819919,0.03486931963220357,-0.13217745270640072,-0.10258488276325249,0.21843427342452318
400,12.86205300000438,0.0940497499354603,0.07870795776665644,-0.04700956547247133,0.05421732873073745,0.07068810599339984,-0.09244288960911869,-0.06627005107637055,-0.06379458694625097,0.03584147989074967,-0.13044320075420096,-0.10079993871780127,0.21764108943929183
401,12.866158199991332,0.09429082425607262,0.07902249319325577,-0.04742137448882325,0.05392056093934615,0.07040266997895586,-0.09228092372597496,-0.06684776705265602,-0.06424004435421099,0.03681006595341989,-0.12869916840730278,-0.09902471799534188,0.21683107588759368
402,12.870363399997586,0.09453056966738939,0.07933575154915162,-0.047832451737656954,0.05362123468285705,0.07011526549679874,-0.09211464736282743,-0.06741768564424355,-0.06467760888688755,0.03777500316954949,-0.12694566836837778,-0.0972596081610911,0.21600440532623327
403,12.876525200001195,0.09476897483976035,0.0796477241362022,-0.048242778036563766,0.05331938482073698,0.06982592763753642,-0.09194407695396095,-0.06797976533255343,-0.06510732648015453,0.038736217656131056,-0.12518301042435268,-0.09550498973527377,0.21516124962734287
404,12.88075349999417,0.09500602859937211,0.07995840241226387,-0.048652334277143154,0.05301504639448652,0.06953469128318805,-0.09176922926136667,-0.06853396597341188,-0.06552924475199029,0.039693636295115825,-0.12341150134762004,-0.09376123617306358,0.214301780183453
405,12.884968600003049,0.09524171992904604,0.08026777799024433,-0.04906110142645625,0.0527082546215456,0.06924159109974316,-0.09159012137133678,-0.06908024878378603,-0.06594341296843838,0.04064718673183565,-0.12163144491628904,-0.09202871292334742,0.2134261681520064
406,12.889154899996356,0.09547603796900923,0.08057584263712304,-0.049469060528464184,0.05239904488925037,0.06894666152990636,-0.09140677069106252,-0.06961857632834836,-0.06634988200625325,0.041596797374484705,-0.1198431413460966,-0.09030777764583188,0.2125345845445374
407,12.892902499996126,0.09570897201763856,0.08088258827293976,-0.049876192705451274,0.052087452748858565,0.06864993678598964,-0.09121919494523363,-0.0701489125011459,-0.06674870432079699,0.0425423973933367,-0.1180468871927592,-0.08859878048506654,0.21162720027397589
408,12.897125999996206,0.09594051153217835,0.08118800696975154,-0.05028247915943303,0.05177351390966988,0.06835145084294333,-0.09102741217264328,-0.07067122251129393,-0.06713993391112853,0.043483916720648386,-0.11624297568531754,-0.08690206387391647,0.21070418630159327
409,12.90115859999787,0.09617064612943196,0.0814920909505591,-0.05068790117354905,0.051457264233178895,0.06805123743155972,-0.09083144072278836,-0.07118547286761771,-0.0675236262861479,0.04442128605118712,-0.11443169615743934,-0.08521796306237928,0.20976571390298626
410,12.90580169999157,0.0963993655864274,0.08179483258820332,-0.05109244011344075,0.051138739727332364,0.06774933003180587,-0.09063129925246978,-0.071691631359275,-0.06789983843440098,0.045354436844506206,-0.1126133342435921,-0.08354680609769576,0.2088119549700092
411,12.91012590000173,0.0966266598410576,0.08209622440423203,-0.05149607742861392,0.05081797654085497,0.06744576186629656,-0.09042700672237243,-0.07218966704214705,-0.06826862879004643,0.04628330132816483,-0.11078817223193639,-0.08188891349169447,0.20784308184410022
412,12.914097599990782,0.09685251899269552,0.08239625906773837,-0.05189879465378595,0.05049501095762798,0.06714056589393051,-0.09021858239363675,-0.07267955022260796,-0.06863005719969409,0.04720781249851714,-0.10895648876980618,-0.08024459863215683,0.20685926732710203
413,12.918608699998003,0.09707693330278427,0.08269492939417086,-0.05230057341021781,0.05016987939115968,0.06683377480365908,-0.09000604582443168,-0.07316125244128939,-0.06898418489204011,0.048127904124028696,-0.10711855917716394,-0.07861416813554076,0.20586068568863333
414,12.9242729999969,0.09729989319540286,0.08299222834411613,-0.05270139540703074,0.049842618379108854,0.06652542100839327,-0.08978941686649665,-0.07363474645964509,-0.06933107444785067,0.04904351075504845,-0.10527465544730423,-0.07699792219794431,0.20484751413439556
415,12.9291094999935,0.09752138925780754,0.08328814902205468,-0.053101242442507406,0.04951326457787501,0.06621553663904002,-0.08956871566162737,-0.07410000624372182,-0.06967078977272669,0.049954567740218364,-0.1034250460111416,-0.07539615522219664,0.20381993430274412
416,12.933152500001595,0.09774141224094929,0.08358268467509046,-0.0535000964053772,0.04918185475726656,0.06590415353865213,-0.08934396263807154,-0.07455700694862201,-0.07000339607267946,0.05086101124959059,-0.1015699961482332,-0.07380915642485882,0.20277813272492118
417,12.937231599993538,0.09795995305996763,0.08387582869165444,-0.05389793927608529,0.04884842579522961,0.06559130325668233,-0.08911517850680846,-0.07500572490593989,-0.07032895983230811,0.051762778295141074,-0.09970976822204106,-0.07223720997235619,0.20172229956356905
418,12.94113269999798,0.09817700279466109,0.08416757460018293,-0.054294753128044757,0.048513014672628176,0.06527701704332782,-0.08888238425776182,-0.07544613761032197,-0.07064754879158912,0.052659806742637844,-0.09784462175794138,-0.07068059470819547,0.20065262760343067
419,12.945496799991815,0.09839255268993446,0.08445791606777076,-0.054690520128871836,0.04817565846809282,0.06496132584399128,-0.0886456011559735,-0.07587822370759882,-0.07095923192162135,0.05355203532315447,-0.09597481363966039,-0.06913958456292425,0.19956931214402193
420,12.949473500004387,0.09860659415622337,0.08474684689880017,-0.055085222541603966,0.047836394352906667,0.06464426029384171,-0.08840485073771367,-0.07630196298309722,-0.07126407940507122,0.05443940364398132,-0.09410059795167273,-0.06761444910267583,0.19847255082440354
421,12.95384259999264,0.09881911876989591,0.08503436103354556,-0.05547884272590034,0.047495259585958315,0.06432585071244983,-0.08816015480655731,-0.07671733634836653,-0.07156216261680926,0.05532185219857644,-0.09222222637084522,-0.06610545325481124,0.19736254375878906
422,12.95795480000379,0.09903011827363216,0.08532045254675444,-0.05587136313922495,0.047152291508746176,0.06400612709852155,-0.08791153542940555,-0.07712432583298325,-0.07185355410190873,0.05619932237868608,-0.0903399487739588,-0.06461285722955344,0.19623949357685816
423,12.962040899990823,0.09923958457678135,0.08560511564620527,-0.05626276633801168,0.04680752754040447,0.0636851191247296,-0.08765901493245414,-0.07752291457669476,-0.07213832755558341,0.057071756484655074,-0.08845401317794695,-0.06313691685368851,0.1951036052474877
424,12.966317700003856,0.099447509755697,0.08588834467124234,-0.056653034978811384,0.046461005172777646,0.06336285613262589,-0.08740261589712282,-0.07791308682069097,-0.07241655780416191,0.0579390977359755,-0.08656466593657872,-0.0616778836674279,0.19395508616531582
425,12.970305499999084,0.09965388605405011,0.08617013409128824,-0.05704215181942069,0.04611276196552418,0.06303936712764277,-0.08714236115592977,-0.07829482790150191,-0.07268832078588912,0.05880129028236898,-0.08467215197476086,-0.06023600498321629,0.19279414602560327
426,12.975383700002569,0.09985870588312071,0.08645047850433411,-0.05743009971999229,0.04576283554124541,0.0627146807741766,-0.08687827378832212,-0.07866812424435872,-0.07295369353242499,0.05965827921321948,-0.08277671443591364,-0.05881152415992919,0.19162099671603197
427,12.978931199992076,0.10006196182206759,0.08672937263540832,-0.05781686164412657,0.045411263580648585,0.06238882539075402,-0.08661037711646627,-0.07903296335394681,-0.07321275415209107,0.06051001056769073,-0.08087859448701672,-0.0574046807990333,0.19043585247220313
428,12.982802400001674,0.10026364661817667,0.08700681133502364,-0.05820242065994433,0.0450580838177581,0.062061828945264866,-0.08633869470098823,-0.0793893338060284,-0.07346558181311841,0.06135643134554564,-0.07897803153379823,-0.056015710411232385,0.18923892979962553
429,12.98712340000202,0.10046375318708813,0.08728278957760331,-0.05858675994114047,0.04470333403515327,0.06173371905027783,-0.08606325033666744,-0.07973722524011459,-0.07371225672392157,0.062197489516568075,-0.07707526331804385,-0.054644844416307015,0.18803044730878776
430,12.99112019999302,0.1006622746130022,0.08755730245988656,-0.05896986276801831,0.0443470520592449,0.06140452295844932,-0.08578406804809308,-0.08007662835195557,-0.0739528601163451,0.06303313402991158,-0.07517052619177257,-0.053292310730826624,0.1868106258905576
431,12.995426299996325,0.10085920414886423,0.08783034519931368,-0.05935171252850448,0.04398927575558004,0.061074267557988476,-0.08550117208527452,-0.08040753488865764,-0.07418747423117825,0.06386331482508523,-0.07326405513748425,-0.05195833380759383,0.18557968877360453
432,13.001633099993342,0.10105453521652866,0.08810191313239107,-0.059732292719144174,0.0436300430241621,0.06074297936819519,-0.08521458691919974,-0.0807299376413539,-0.07441618230175322,0.06468798284181437,-0.07135608343429188,-0.05064313430204448,0.18433786136924027
433,13.006141999998365,0.10124826140690223,0.0883720017130366,-0.06011158694607642,0.04326939179482095,0.0604106845350714,-0.08492433723735775,-0.08104383043734416,-0.07463906853648507,0.06550709002964294,-0.06944684273714488,-0.049346929346241464,0.18308537180983495
434,13.011777599997004,0.10144037648006676,0.08864060651090544,-0.060489578925989364,0.04290736002260312,0.06007740882701482,-0.08463044793921141,-0.08134920813347206,-0.07485621810491323,0.06632058936259533,-0.06753656327248984,-0.04806993329376183,0.1818224520733085
435,13.017095499992138,0.10163087436538128,0.08890772320969709,-0.0608662524870552,0.042543985683200954,0.059743177630554645,-0.08433294413158919,-0.0816460666100097,-0.07506771712688373,0.06712843485880597,-0.06562547446385976,-0.046812357816485954,0.1805493388145741
436,13.020727800001625,0.10181974916156394,0.08917334760544317,-0.06124159156984436,0.04217930676839738,0.05940801594614181,-0.08403185112398284,-0.08193440276961331,-0.07527365265945377,0.06793058160259541,-0.06371380518711121,-0.04557441147393919,0.179266273200957
437,13.02447079999547,0.10200699513675361,0.08943747560477686,-0.06161558022821851,0.041813361281504334,0.05907194838400146,-0.08372719442374234,-0.08221421453348382,-0.07547411268223367,0.06872698576263225,-0.06180178304553896,-0.044356299283774214,0.17797349940428128
438,13.03075789999275,0.1021926067285511,0.08970010322318377,-0.061988202630201904,0.04144618723284178,0.05873499916005387,-0.08341899973121163,-0.08248550083385864,-0.07566918608046141,0.06951760460056289,-0.05988963431166248,-0.043158222388172636,0.17667126304338146
439,13.035118999992848,0.10237657854404039,0.08996122658323497,-0.06235944305883098,0.0410778226352431,0.05839719209191788,-0.08310729293484657,-0.0827482616096531,-0.07585896262736981,0.07030239647528504,-0.05797758418203541,-0.041980377818841126,0.17535981067744064
440,13.038827900003524,0.10255890535978986,0.09022084191280223,-0.0627292859129822,0.04070830549957296,0.058058550594989045,-0.08279210010631263,-0.0830024978012244,-0.07604353296516543,0.07108132084705945,-0.05606585661973899,-0.04082295808677472,0.17403938957056336
441,13.04305999999633,0.10273958212183347,0.0904789455432561,-0.06309771570817792,0.04033767383027939,0.0577190976786127,-0.08247344749556611,-0.0832482113446086,-0.07622298858373765,0.07185433827968415,-0.054154674843841934,-0.039686150985749485,0.17271024739700055
442,13.04710850000265,0.10291860394563238,0.09073553390764698,-0.06346471707737036,0.03996596562096307,0.05737885594235193,-0.08215136152593244,-0.08348540517064909,-0.07639742179988528,0.07262141044197754,-0.052244261838846416,-0.038570139808211994,0.17137263215439383
443,13.051519899992854,0.1030959661160166,0.09099060353886994,-0.06383027477170364,0.039593218849937155,0.0570378475723459,-0.08182586878917426,-0.08371408320377646,-0.07656692573795074,0.07338250010917899,-0.050334840100227304,-0.037475103619190604,0.17002679227129525
