,time,x,y,z,vx,vy,vz,ax,ay,az,jx,jy,jz
0,13.09628579999844,0.023122626137492996,-0.054128284087217406,0.040157392830450646,0.003956444185842841,-0.007995495634425724,0.010283810260257069,0.007024910639552663,0.02126015256857775,-0.017897571981041253,0.02890363681384512,0.1215709912988464,-0.10691362880971363
1,13.100308000008226,0.023142036547211465,-0.05416708717537876,0.04020741409019225,0.00399110460581515,-0.00789019270479122,0.010195107887151696,0.007166866473188257,0.02185631231303847,-0.01842210137906572,0.02921679441849359,0.12251146388896454,-0.10784290759054382
2,13.10471260000486,0.023161617961241793,-0.05420536876268319,0.0402569957948171,0.004026462193876645,-0.007781966408389665,0.01010383218375955,0.0073103494368246934,0.02245705064040615,-0.018951162919049115,0.02952886189842936,0.12344551402522,-0.10876914854912409
3,13.11154019999958,0.02318137380336007,-0.054243114514319686,0.04030612531994117,0.00406252439680922,-0.007670794456192901,0.010009961047527988,0.007455354070573834,0.023062335757885747,-0.019484741396908086,0.02983978391644482,0.12437296895779608,-0.10969220181757919
4,13.116773900008411,0.023201307533653594,-0.05428030998697817,0.040354789933394385,0.004099298634064441,-0.007556654716534524,0.009913472451961952,0.007601874643524849,0.023672135025228108,-0.020022820874006413,0.030149504733424527,0.12529365447091598,-0.11061191648634558
5,13.12116110000352,0.023221422648384137,-0.054316940629628295,0.04040297679560088,0.004136792296435025,-0.007439525219271235,0.009814344450224211,0.007749905151236153,0.02428641494760541,-0.02056538467192226,0.03045796809314382,0.12620739511359033,-0.1115281405519928
6,13.125276899998426,0.02324172267984469,-0.05435299178431866,0.04045067295997694,0.004175012744711054,-0.007319384159970455,0.009712555178762588,0.007899439313191477,0.02490514117066809,-0.021112415366994194,0.030765117322647955,0.12711401440789855,-0.11244072087985509
7,13.129195800007436,0.02326221119620961,-0.05438844868699654,0.04049786537334674,0.004213967308326594,-0.007196209904119965,0.009608082860963487,0.00805047057127248,0.025528278475455118,-0.02166389478472336,0.031070895559210488,0.12801333487874345,-0.11334950312994985
8,13.13393389999692,0.023282891801378127,-0.05442329646834823,0.04054454087637599,0.004253663284000996,-0.007069980991365243,0.009500905810833809,0.008202992089432122,0.026155790773741628,-0.022219803993595733,0.03137524599223051,0.12890517814327768,-0.11425433169727586
9,13.138345900006245,0.023303768134811227,-0.054457520154660155,0.04059068620402359,0.004294107934382319,-0.006940676139764559,0.009391002436714835,0.008356996754530544,0.026787641103822857,-0.022780123298901046,0.03167811201943471,0.12978936505215996,-0.11515504974883402
10,13.142864000008558,0.023324843871361908,-0.0544911046687008,0.0406362879860116,0.004335308486696797,-0.006808274250067502,0.009278351245024527,0.008512477177534485,0.027423791627241803,-0.02334483223691671,0.031979437310163866,0.1306657158606977,-0.11605149923138737
11,13.146397799995611,0.023346122721098855,-0.054524034830623624,0.04068133274731346,0.004377272131403983,-0.006672754410002041,0.009162930844028234,0.008669425694971441,0.028064203626245173,-0.023913909568802558,0.032279165842584535,0.1315340500057232,-0.11694352080443336
12,13.150149199995212,0.02336760842912357,-0.05455629535889086,0.04072580690866078,0.004420006020860419,-0.006534095898577914,0.009044719947640636,0.008827834370492643,0.028708837498331193,-0.024487333274129924,0.03257724176600564,0.1323941858971305,-0.11783095378786104
13,13.16017780000402,0.023389304775380995,-0.05458787087121847,0.04076969678706872,0.004463517267990053,-0.006392278190426946,0.008923697379259672,0.008987694994982084,0.02935765275166894,-0.02506508054426501,0.03287360899904426,0.13324594128998454,-0.11871363620680457
14,13.171082200002274,0.023411215574463635,-0.054618745885542365,0.0408129885963802,0.004507812944948972,-0.006247280960151196,0.008799842075633127,0.009148999084193702,0.030010608003281536,-0.025647127776336192,0.03316821081665681,0.13408913326968178,-0.11959140486616109
15,13.1765202999959,0.023433344675409147,-0.05464890482100583,0.0408556684478291,0.0045529000817727365,-0.0060990840866810255,0.008673133090751496,0.00931173787482584,0.030667660974320506,-0.02623345056734537,0.033460989712465646,0.1349235779393076,-0.12046409558844545
16,13.180972600006498,0.023455695961491253,-0.05467833199896832,0.040897722350622494,0.0045987856650027605,-0.005947667657669405,0.008543549599772101,0.009475902320813403,0.03132876848519455,-0.02682402371045906,0.033751887607096756,0.13574909093312093,-0.12133154380922963
17,13.185667099998682,0.0234782733500039,-0.05470701164403582,0.040939136212542165,0.004645476636297423,-0.005793011973897583,0.00841107090294819,0.009641483091437704,0.031993886455860494,-0.027418821194936993,0.03404084624633446,0.13656548806403757,-0.1221935850609207
18,13.19180790000246,0.023501080792038602,-0.054734927885112666,0.04097989584056524,0.004692979891039981,-0.005635097553666545,0.008275676429553751,0.00980847057150847,0.03266296990727775,-0.028017816207149566,0.034327807450352285,0.13737258485477605,-0.12305005541904473
19,13.195991500004313,0.02352412227225501,-0.05476206475647484,0.041019986941504036,0.004741302276951461,-0.005473905137188473,0.008137345741802674,0.0099768548619086,0.03333597295711873,-0.028620981134866493,0.03461271282352584,0.1381701949230023,-0.1239007916363013
20,13.200119200002518,0.023547401808644706,-0.05478840619886468,0.04105939512266501,0.004790450592703892,-0.005309415691020112,0.007996058538731662,0.010146625776941127,0.034012848805446666,-0.029228287569583917,0.03489550318518885,0.13895812847830868,-0.12474563027940597
21,13.204484300003967,0.023570923452288197,-0.054813936060607464,0.04109810589252652,0.004840431586507276,-0.0051416104125941555,0.00785179466009666,0.010317772839312645,0.03469354971574199,-0.0298397063023803,0.035176118476577756,0.13973619215104413,-0.12558440711135133
22,13.20871590000752,0.02359469128710493,-0.05483863809875043,0.04113610466143584,0.004891251954673816,-0.004970470734837976,0.007704534090296254,0.010490285276571152,0.0353780269989079,-0.030455207320208406,0.035454498092031904,0.14050418991496647,-0.12641695715846812
23,13.212467000004835,0.023618709429596263,-0.05486249598022445,0.041173376742325275,0.004942918340170081,-0.00479597833086127,0.007554256962304322,0.010664152019325196,0.03606623100331073,-0.031074759802406378,0.03573058116541868,0.1412619242853726,-0.12724311470300123
24,13.21667530000559,0.02364298202858131,-0.054885493283028865,0.041209907351447556,0.004995437331163836,-0.004618115118672094,0.007400943561627522,0.010839361700480001,0.03675811111049088,-0.03169833211691717,0.03600430662593891,0.14200919681016808,-0.12806271339460554
25,13.221832499999437,0.023667513264925735,-0.054907613497439244,0.04124568160913065,0.0050488154595687475,-0.004436863265906408,0.00724457433027488,0.011015902654001814,0.03745361573000079,-0.03232589181788892,0.03627561300472926,0.14274580798061087,-0.128875586310003
26,13.225663999997778,0.023692307351263375,-0.05492884002723839,0.041280684540551935,0.005103059199579138,-0.004252205194594549,0.0070851298707387145,0.011193762912264597,0.038152692294243847,-0.03295740564247719,0.0365444380888143,0.14347155715689602,-0.1296815657520393
27,13.229708700004268,0.023717368531710713,-0.0549491561909707,0.04131490107653189,0.005158174966188769,-0.004064123585941192,0.006922590949995471,0.011372930201433595,0.038855287252585344,-0.03359283950648221,0.03681071854526976,0.144186242136489,-0.13048048305611046
28,13.23353009999846,0.023742701081574037,-0.05496854522321984,0.04134831605434738,0.005214169113680499,-0.0038726013851493562,0.006756938503529272,0.011553391935140227,0.039561346061974166,-0.034232158499259965,0.03707438970915015,0.14488965902026904,-0.1312721685679854
29,13.237837799999395,0.023768309307049155,-0.05498699027591026,0.0413809142185646,0.005271047934083268,-0.0036776218062919953,0.006588153639382459,0.011735135207793769,0.04027081317974599,-0.03487532687914275,0.03733538558726042,0.1455816025920313,-0.13205645174794528
30,13.241714100004174,0.02379419754491348,-0.055004474419632465,0.041412680221892,0.0053288176555964135,-0.0034791683372063097,0.00641621764222389,0.011918146788293093,0.04098363205795259,-0.035522308069367695,0.037593638958634476,0.14626186642262137,-0.13283316125254077
31,13.245936999999683,0.023820370162210343,-0.055020980644992314,0.041443598626052944,0.005387484440985222,-0.003277224744420737,0.006241111977439258,0.012102413114319999,0.04169974513718241,-0.03617306465429604,0.03784908157536713,0.14693024289969334,-0.13360212506116467
32,13.250559499996598,0.02384683155592542,-0.05503649186398445,0.04147365390267858,0.005447054385949492,-0.0030717750781096382,0.006062818295236322,0.012287920288013012,0.04241909384118056,-0.036827558376578244,0.03810164439331568,0.14758652330960176,-0.13436317042402687
33,13.25549090000277,0.023873586152655092,-0.05505099091139001,0.041502830434220636,0.005507533517476819,-0.0028628036770728476,0.005881318434762923,0.012474654072514597,0.043141618571469496,-0.037485750132864995,0.03835125771353633,0.14823049785974352,-0.13511612377276477
34,13.25893399999768,0.023900638408266787,-0.05506446054619869,0.041531112514884505,0.005568927792177429,-0.0026502951737429133,0.005696594428254116,0.012662599889026746,0.04386725870218727,-0.038147599970099005,0.03859785147617024,0.1488619559166141,-0.135860810943672
35,13.262775800001693,0.023927992807551077,-0.05507688345305537,0.04155848435158257,0.0056312430946086935,-0.0024342344992150755,0.005508628505186418,0.012851742816229368,0.04459595257703393,-0.03881306708340689,0.03884135570693438,0.14948068634813094,-0.1365970571033646
36,13.26623940000718,0.023955653863865643,-0.055088242243731336,0.04158493006490784,0.005694485235604281,-0.0022146068882843407,0.005317403096445529,0.013042067591697945,0.045327637507454166,-0.039482109811664765,0.03908170085941667,0.15008647766506256,-0.1373246865924803
37,13.271061299994471,0.023983626118771056,-0.055098519458620106,0.04161043369012805,0.005758659950612526,-0.0019913978844932137,0.005122900838523906,0.013233558614666038,0.04606224977096544,-0.04015468563386309,0.039318818027157504,0.15067911822190885,-0.13804352318611013
38,13.27544990000024,0.024011914141658507,-0.05510769756825797,0.04163497917820025,0.005823772898052568,-0.0017645933451851065,0.004925104577724004,0.013426199949514916,0.04679972461130316,-0.040830751167216614,0.03955263905155362,0.15125839655917508,-0.1387533901533135
39,13.279530100000557,0.024040522529369522,-0.05511575897486919,0.04165855039680599,0.005889829657686809,-0.0015341794465506514,0.004723997374374304,0.013619975329590245,0.047539996240092725,-0.041510262164110676,0.039783096521858095,0.15182410163409435,-0.13945411016040102
40,13.283393200006683,0.024069455905807797,-0.055122686013935836,0.04168113113140714,0.005956835729014343,-0.0013001426886647747,0.004519562507062395,0.013814868160691718,0.048282997839248776,-0.04219317350926623,0.04001012372307284,0.15237602286526383,-0.14014550545702645
41,13.28863860000274,0.02409871892154322,-0.05512846095579218,0.041702705086322345,0.006024796529677512,-0.00106246990050957,0.0043117834768787,0.014010861524380669,0.04902866156308331,-0.042879439218504206,0.04023365448341688,0.15291394999124946,-0.14082739805470035
42,13.292278000008082,0.024128316253408125,-0.05513306600724363,0.041723255885824366,0.006093717393887638,-0.0008211482449907762,0.0041006440116616244,0.014207938179979517,0.04977691853932358,-0.04356901243765458,0.04045362292132477,0.15343767306316158,-0.14149960954816634
43,13.29686909999873,0.024158252604085953,-0.05513648331321014,0.041742767075258015,0.006163603570851121,-0.0005761652239507059,0.003886128070251943,0.014406080565407639,0.05052769887114765,-0.044261845439575634,0.04066996357936648,0.15394698321108974,-0.14216196106340817
44,13.301592400006484,0.02418853270169212,-0.05513869495839408,0.04176122212217902,0.006234460223203338,-0.00032750868316483737,0.00366821984676707,0.014605270800489163,0.051280931645690114,-0.04495788962255503,0.04088261171822527,0.15444167377519036,-0.14281427364457336
45,13.308312299996032,0.02421916129934737,-0.055139682968972495,0.041778604417513736,0.00630629242546705,-7.516681727164433e-05,0.0034469037748710656,0.014805490690660911,0.05203654494712803,-0.04565709551110923,0.04109150299298668,0.15492153986665727,-0.14345636851437288
46,13.31298919999972,0.024250143174743593,-0.05513942931431313,0.04179489727673974,0.006379105162522536,0.00018087182535865738,0.003222164532041096,0.015006721727117646,0.05279446586089748,-0.04635941275692861,0.04129657252664182,0.1553863756962806,-0.1440880669401716
47,13.31681910000043,0.02428148312970223,-0.05513791590871423,0.04181008394108721,0.00645290332806741,0.0004406183377354745,0.002993987043828208,0.015208945081468429,0.05355462046068032,-0.04706479013836858,0.04149775415855135,0.15583597201464677,-0.14470918975029987
48,13.321960300003411,0.024313185989725046,-0.05513512461316838,0.04182414757876115,0.0065276917230345545,0.0007040834492519547,0.0027623564881287584,0.015412141598539599,0.05431693378761235,-0.04777317555666923,0.041694980794236315,0.15627011636514432,-0.1453195569396663
49,13.325737300008768,0.024345256603537067,-0.055131037237151057,0.04183707128618449,0.006603475053981625,0.000971277520593221,0.002527258299482123,0.015616291794448478,0.05508132983974186,-0.048484516031593435,0.04188818584521361,0.15668859594885298,-0.1459189878483369
50,13.330694300006144,0.024377699842621628,-0.05512563554043424,0.041848838089262305,0.0066802579314901595,0.0012422105386375038,0.0022886781733847394,0.015821375863473087,0.05584773157922681,-0.04919875769939113,0.04207730489955799,0.15709120097314686,-0.14650730159313188
51,13.335857199999737,0.024410520600747675,-0.055118901234924786,0.041859430944667084,0.006758044868622205,0.0015168921114346898,0.0020466020706077057,0.016027373692446705,0.056616060954508204,-0.04991584581265401,0.04226227673024031,0.1574777267650214,-0.1470843173876243
52,13.340662999995402,0.024443723793489726,-0.055110815986527076,0.04186883274114509,0.006836840279460052,0.0017953314633240803,0.001801016221512242,0.016234264877478734,0.05738623892815379,-0.05063572474140606,0.04244304315744313,0.15784797365944392,-0.14764985475047832
53,13.347957699996186,0.024477314357740906,-0.05510136141702911,0.04187702630084382,0.006916648477726219,0.0020775374301849644,0.0015519071303566338,0.016442028737004125,0.05815818549794064,-0.05135833797499368,0.04261954802537535,0.15820174508698545,-0.1482037333715029
54,13.352243400004228,0.024511297251219432,-0.05509051910601152,0.04188399438066043,0.006997473675450679,0.002363518454760348,0.00129926157959323,0.016650644318508045,0.05893181970601565,-0.05208362812186759,0.0427917360042456,0.15853884547536357,-0.1487457724419387
55,13.356551500008209,0.024545677451968624,-0.05507827059277941,0.041889719673611166,0.007079319981656538,0.002653282581997021,0.0010430666341775152,0.016860090399870967,0.059707059639476846,-0.05281153690493006,0.042959551708437384,0.1588590790141328,-0.14927578988800724
56,13.3608521999995,0.024580459957850548,-0.05506459737831683,0.04189418481022192,0.007162191401040405,0.002946837454374967,0.0007833096459105644,0.017070345487478183,0.060483822427465285,-0.053542005153828856,0.04312293929096763,0.1591622495208028,-0.14979360225929453
57,13.365249800001038,0.024615649786033138,-0.05504948092726427,0.04189737235994005,0.007246091832639601,0.003244190307219017,0.000519978257823401,0.01728138781360289,0.061262024240438404,-0.05427497279921399,0.04328184233190219,0.15944816109567767,-0.1502990251603297
58,13.371004200002062,0.024651251972470815,-0.055032902669918976,0.04189926483256779,0.007331025068486961,0.003545347964021162,0.0002530604085755613,0.017493195333425547,0.062041580293659485,-0.05501037886924808,0.043436203849460495,0.15971661844178472,-0.15079187336966424
59,13.37548620000598,0.02468727157137847,-0.05501484400425808,0.04189984467971704,0.007416994792248923,0.003850316831786298,-1.7455663126455258e-05,0.017705745722525465,0.0628224048495966,-0.05574816148502645,0.04358596642283236,0.1599674265746716,-0.1512719609589282
60,13.37928870000178,0.024723713654698772,-0.054995286297984426,0.04189909429628592,0.007504004577855827,0.004159102896377974,-0.00029158141408587655,0.017919016375100037,0.06360441121857689,-0.05648825785825061,0.04373107223683193,0.16020039080011236,-0.1517391017020939
61,13.384039099997608,0.024760583311562778,-0.05497421089059516,0.041896996021957005,0.007592057888122604,0.004471711717870529,-0.0005693279921744794,0.018132984401892576,0.06438751176096771,-0.057230604290646775,0.0438714632232533,0.16041531667688896,-0.1521931090680446
62,13.388604399995527,0.02479788564774376,-0.054951599095472974,0.04189353214271726,0.007681158073358828,0.00478814842591615,-0.000850706231883598,0.018347626629792557,0.0651716178874673,-0.05797513617156673,0.04400708145155609,0.16061200981586726,-0.15263379609406597
63,13.39209180000762,0.02483562578510423,-0.054927432201999936,0.04188868489239972,0.007771308369985504,0.00510841771509985,-0.0011357266498595074,0.018562919603580322,0.06595664005932292,-0.05872178797617037,0.04413786938561039,0.16079027620742975,-0.15306097556443926
64,13.396598200008157,0.02487380886103627,-0.05490169147769413,0.04188243645424705,0.007862511899162164,0.005432523840308652,-0.0014243994404366759,0.01877883958803564,0.0667424877918205,-0.059470493264771405,0.044263770095724506,0.16094992241491707,-0.15347446005509321
65,13.400958600002925,0.024912440027895128,-0.05487435817036874,0.04187476896249689,0.007954771665424253,0.005760470612120668,-0.0017167344711667557,0.018995362571753854,0.06752906965639263,-0.06022118468145611,0.044384727407469196,0.16109075555978103,-0.1538740619187143
66,13.40470240000286,0.024951524452426238,-0.054845413510313704,0.04186566450398905,0.00804809055534751,0.00609226139219487,-0.0020127412783383417,0.019212464270708413,0.0683162932839631,-0.06097379395328357,0.044500685667396046,0.16121258361923668,-0.1542595935079769
67,13.408370100005412,0.02499106731518578,-0.05481483871249987,0.04185510511979466,0.008142471336220158,0.006427899088692846,-0.0023124290624981485,0.019430120129778152,0.06910406536996291,-0.061728251891085315,0.044611589549457056,0.16131521560480575,-0.15463086745090923
68,13.412655799998902,0.025031073809954712,-0.05478261497880536,0.04184307280686712,0.008237916654722203,0.0067673861517175814,-0.0026158066839785813,0.01964830532441861,0.06989229167941911,-0.06248448839135581,0.044717383950753725,0.16139846180794012,-0.15498769673271381
69,13.417703200000688,0.025071549143146438,-0.0547487235002643,0.04182954951971492,0.008334429035613959,0.007110724568784921,-0.0029228826584373822,0.01986699476117082,0.07068087705437047,-0.06324243243785144,0.044818013846548516,0.1614621341051031,-0.15532989471062722
70,13.421243899996623,0.025112498533208023,-0.05471314545933741,0.041814517172096194,0.008432010880420312,0.007457915860334807,-0.003233665152400823,0.020086163077916115,0.07146972542193686,-0.06400201210362617,0.04491342435355933,0.16150604600237012,-0.15565727530746915
71,13.42512970000098,0.025153927210015005,-0.0546758620322046,0.04179795763873507,0.008530664466121734,0.007808961075281575,-0.0035481619788232397,0.0203057846450033,0.07225873980217067,-0.06476315455452149,0.045003560714998794,0.16153001259078958,-0.1559696530339084
72,13.42937549999624,0.025195840414259825,-0.05463685439107903,0.041779852757059595,0.008630391943849564,0.008163860786601897,-0.003866380592664319,0.020525833565357303,0.07304782231569007,-0.06552578605141952,0.04508836814796375,0.16153385054646968,-0.1562668428842854
73,13.433471199998166,0.02523824339683389,-0.0545961037065428,0.04176018432896131,0.00873119533757808,0.00852261508695965,-0.004188328086470648,0.02074628367411537,0.07383687419153129,-0.06628983195271525,0.04516779181004648,0.16151737815287295,-0.1565486603291979
74,13.4376978000073,0.025281141418203226,-0.054553591149903796,0.041738934122576336,0.008833076542816228,0.008885223584370577,-0.004514011185977151,0.020967108538409527,0.07462579577499967,-0.06705521671649718,0.04524177688119324,0.16148041530067417,-0.1568149210773427
75,13.44418229999428,0.02532453974777776,-0.05450929789557367,0.04171608387408792,0.008936037325297564,0.009251685397903857,-0.004843436245709945,0.02118828145780252,0.07541448653552056,-0.06782186390069282,0.04531026871993745,0.16142278324233159,-0.1570654409267403
76,13.448689600001671,0.025368443663274176,-0.05446320512346671,0.04169161528955049,0.009040079319676245,0.00962199915342346,-0.0051766092445891965,0.021409775465596616,0.07620284507209263,-0.06858969616379589,0.04537321303453068,0.1613443042944448,-0.1573000357795775
77,13.452921400006744,0.02541285845007245,-0.05441529402141945,0.04166551004673513,0.009145204028229761,0.009996162979343007,-0.0055135357815390825,0.021631563330941423,0.07699076911823086,-0.06935863526515673,0.0454305560726888,0.16124480198655444,-0.15751852147107318
78,13.45655469999474,0.025457789400566044,-0.05436554578763099,0.04163774979699657,0.009251412819575514,0.010374174502415408,-0.005854221071093486,0.021853617561996472,0.0777781555488736,-0.07012860206403769,0.04548224480399398,0.161124101076019,-0.15772071369506305
79,13.460179600006086,0.025503241813505887,-0.054313941633123725,0.04160831616716155,0.009358706927404448,0.010756030843555198,-0.0061986699389967245,0.022075910409821046,0.07856490038547093,-0.07089951651917646,0.04552822705751466,0.16098202736193717,-0.15790642812304687
80,13.464115599999786,0.025549220993338208,-0.0542604627842245,0.0415771907614388,0.009467087449235632,0.011141728613677897,-0.0065468868178049835,0.02229841387288125,0.07935089880107374,-0.0716712976890045,0.04556845151057233,0.16081840787865898,-0.158075480500947
81,13.467663100003849,0.025595732249536353,-0.054205090485066,0.041544355163350415,0.009576555345193923,0.011531263909572058,-0.0068988757424891765,0.022521099700830105,0.08013604512731266,-0.07244386373215572,0.04560286761809674,0.16063307101488153,-0.15822768678302274
82,13.472974600008456,0.025642780895926663,-0.0541478060001082,0.04150979093768473,0.009687111436801475,0.011924632309806811,-0.007254640346041349,0.022743939398324444,0.08092023286065071,-0.07321713190899318,0.045631425493618205,0.1604258463425163,-0.15836286310216066
83,13.4770153999998,0.025690372250008496,-0.054088590616679755,0.04147347963247067,0.009798756405792699,0.012321828870664997,-0.0076141838550924535,0.022966904227642332,0.08170335466769024,-0.07399101858182751,0.04565407549991569,0.16019656457935996,-0.1584808256954308
84,13.481129499996314,0.02573851163226852,-0.05402742564753919,0.0414354027809734,0.009911490792931337,0.012722848122102556,-0.007977509085520888,0.023189965208500724,0.08248530239106093,-0.07476543921571634,0.045670768066778944,0.1599450578867832,-0.15858139122398346
85,13.48565149999922,0.025787204365489185,-0.05396429243345576,0.041395541903711607,0.010025314996823643,0.01312768406373919,-0.00834461843807808,0.023413093118892482,0.08326596705763506,-0.075540308381808,0.045681453839786584,0.1596711601973,-0.1586643768550119
86,13.490319000004092,0.025836455774051414,-0.05389917234580979,0.04135387851049589,0.010140229272743637,0.013536330160898011,-0.008715513894029695,0.02363625849635755,0.08404523888761574,-0.0763155397589417,0.04568608363930349,0.15937470731117803,-0.15872960014275883
87,13.495794700007536,0.025886271183231602,-0.05383204678921225,0.041310394102488594,0.0102562337314587,0.01394877934068499,-0.009090197010796849,0.02385943163841938,0.08482300730369605,-0.0770910461358287,0.04568460849790483,0.15905553697818858,-0.15877687921433428
88,13.500233200000366,0.025936655918492837,-0.0537628972041434,0.04126507017428481,0.010373328338059092,0.014365023988118088,-0.009468668917618628,0.024082582604221737,0.08559916094094591,-0.07786673941446787,0.04567697982760031,0.15871348894250656,-0.15880603276235175
89,13.507849900008296,0.025987615304770454,-0.05369170506961016,0.04121788821601457,0.010491512910799545,0.014785055942303298,-0.009850930311226674,0.02430568121659885,0.08637358765640993,-0.0786425306122549,0.04566314957244792,0.15834840493508992,-0.15881687997810376
90,13.513705899997149,0.02603915466575195,-0.05361845190582212,0.04116882971546612,0.010610787119949,0.015208866492657541,-0.010236981451528303,0.024528697065203196,0.08714617453891978,-0.07941832986474505,0.04564307044673587,0.15796012857689104,-0.15880924062582258
91,13.517150800005766,0.02609127932315129,-0.05354311927688585,0.041117876160230285,0.010731150486662755,0.015636446375180576,-0.01062682215730809,0.02475159951090263,0.08791680791774645,-0.08019404642848785,0.045616695949665866,0.15754850514100502,-0.1587829350426632
92,13.521581799999694,0.02614399459597781,-0.05346568879351727,0.04106500903986573,0.010852602381875168,0.016067785768762423,-0.011020451801938674,0.024974357689051603,0.08868537337008893,-0.08096958868378963,0.045583980190804424,0.1571133813068016,-0.1587377842802173
93,13.525412300004971,0.026197305799799706,-0.05338614211577206,0.04101020984808522,0.010975142025203756,0.016502874291528434,-0.011417869309109336,0.02519694051218302,0.08945175572732438,-0.08174486413893085,0.04554487774103067,0.15665460484753568,-0.15867361023096999
94,13.529684299996006,0.026251218246002225,-0.05330446095579378,0.04095346008496264,0.011098768483868203,0.016941700997207782,-0.011819073148578009,0.025419316671823258,0.09021583907944485,-0.08251977943416403,0.04549934342410705,0.15617202428817256,-0.15859023559096355
95,13.533727000001818,0.026305737241040596,-0.05322062708057969,0.04089474125916073,0.011223480671612187,0.017384254371521874,-0.012224061331938905,0.025641454639147732,0.09097750677796454,-0.08329424034556628,0.045447332197926286,0.15566548885298748,-0.15848748394924317
96,13.53770980000263,0.026360868085687685,-0.05313462231476418,0.04083403489017948,0.011349277347628795,0.017830522328581244,-0.012632831408412173,0.02586332266563575,0.0917366414398446,-0.08406815178991114,0.04538879912070642,0.15513484879316858,-0.1583651800334151
97,13.542080900006113,0.026416616074276433,-0.053046428543419816,0.04077132251062496,0.011476157115488748,0.01828049220731231,-0.013045380460659117,0.026084888783395793,0.09249312495360092,-0.08484141783092017,0.045323699410657635,0.1545799557366084,-0.15822314994022718
98,13.546157799995854,0.026472986493937034,-0.05295602771487566,0.04070658566849862,0.01160411842206899,0.018734150767913935,-0.013461705100632932,0.026306120806403314,0.09324683848664629,-0.08561394168638738,0.045251988643251466,0.15400066329810438,-0.15806122126217614
99,13.550216600007843,0.02652998462382891,-0.052863401843552926,0.040639805929506695,0.011733159556493008,0.019191484188355926,-0.013881801465463523,0.026526986332753272,0.0939976624973597,-0.08638562573566778,0.04517362300779558,0.15339682784556716,-0.15787922316182218
100,13.55488769999647,0.02658761573436754,-0.05276853301281752,0.04057096487938964,0.011863278649081432,0.019652478060953497,-0.014305665213381403,0.026747452748404572,0.09474547674991408,-0.08715637152752792,0.0450885597019533,0.15276830886483203,-0.1576769863941676
101,13.55857439999818,0.02664588508644617,-0.052671403377849146,0.04050004412627139,0.011994473670328933,0.020117117389010626,-0.014733291519679214,0.026967487233286947,0.09549016032990967,-0.08792607978785295,0.04499675716975929,0.1521149691979642,-0.15745434330676175
102,13.56256000000576,0.026704797930652655,-0.052571995168526675,0.04042702530302826,0.012126742429914482,0.020585386583547267,-0.015164675072710911,0.027187056767370727,0.09623159166152996,-0.08869465042749825,0.04489817506445408,0.15143667505776046,-0.1572111278766681
103,13.569232199995897,0.0267643595064815,-0.0524702906923292,0.040351890069677286,0.012260082575737552,0.021057269460110304,-0.015599810069929998,0.027406128136410624,0.09696964852331673,-0.08946198255035763,0.04479277424106874,0.15073329561114787,-0.1569471757255144
104,13.574965699997849,0.026824575041541288,-0.05236627233725254,0.04027462011578382,0.012394491592984492,0.02153274923565488,-0.016038690213967536,0.027624667937943062,0.09770420806125592,-0.090227974461362,0.04468051674155582,0.15000470257010243,-0.15666232411202216
105,13.57927230000496,0.026885449750757594,-0.052259922574740804,0.04019519716288818,0.012529966803223321,0.022011808525483206,-0.01648130870874852,0.02784264258688469,0.09843514680055608,-0.09099252367447463,0.04456136563472511,0.14925077016185265,-0.15635641184269608
106,13.585992199994507,0.02694698883557157,-0.052151223962632796,0.04011360296695121,0.012666505363524797,0.022494429340240946,-0.016927658255647994,0.02806001831996594,0.09916234065844315,-0.09175552691981718,0.04443528493067799,0.1484713752922949,-0.15602927916771994
107,13.591662200007704,0.027009197483134274,-0.0520401591481229,0.04002981932081849,0.012804104265600523,0.022980593082981036,-0.01737773104967706,0.02827676120049359,0.0998856649575354,-0.09251688015064798,0.04430223965532302,0.14766639770251905,-0.15568076808589312
108,13.595786799996858,0.02707208086549684,-0.05192671087073617,0.03994382805670312,0.012942760334970547,0.02347028054629074,-0.017831518775707166,0.02849283712351231,0.10060499444016742,-0.09327647855346716,0.04416219562704287,0.14683572029624983,-0.15531072260521614
109,13.60030320000078,0.027135644138796666,-0.05181086196531732,0.03985561104868684,0.013082470230151898,0.02396347190949541,-0.01828901260475482,0.02870821181838534,0.10132020328496409,-0.09403421655754078,0.04401511905861363,0.14597922947458505,-0.15491898850464372
110,13.604500400004326,0.027199892442439654,-0.051692595365033095,0.03976515021523911,0.013223230441851393,0.024460146735947454,-0.018750203190298943,0.028922850850066906,0.10203116512443483,-0.09478998784267839,0.04386097643069053,0.1450968151508284,-0.15450541352026487
111,13.608443000004629,0.027264830898278528,-0.051571894104387755,0.03967242752175421,0.013365037292166605,0.024960283970401995,-0.019215080664641573,0.0291367196204469,0.10273775306169247,-0.09554368535057602,0.04369973446576136,0.1441883707134487,-0.15406984786622552
112,13.612750800006324,0.02733046460978725,-0.05144874132225111,0.03957742498310589,0.01350788693379181,0.02546386193646918,-0.019683634635336022,0.029349783369368835,0.10343983968768565,-0.096295201297683,0.04353136026951171,0.14325379353958886,-0.15361214439071028
113,13.616874800005462,0.02739679866123159,-0.051323120264898846,0.039480124666219314,0.013651775349228897,0.025970858334158187,-0.020155854181673285,0.0295620071773556,0.1041372971029345,-0.0970444271880689,0.043355821822052845,0.14229298556019435,-0.15313215862075902
114,13.62103360000765,0.02746383811683583,-0.0511950142890646,0.03938050869266009,0.013796698350019948,0.026481250237541887,-0.02063172785123591,0.02977335597142657,0.10482999694028415,-0.09779125382672814,0.0431730883313299,0.14130585321574207,-0.1526297487773114
115,13.625298500002827,0.027531588019945836,-0.0510644068650031,0.03927855924123987,0.013942651576014977,0.026995014092523143,-0.02111124365651439,0.02998379453127604,0.10551781038620793,-0.09853557133259391,0.04298313015484302,0.1402923071809611,-0.15210477584198853
116,13.629226200006087,0.02760005339218861,-0.050931281579564,0.03917425855063842,0.01408963049466487,0.027512125714707607,-0.021594389071588165,0.030193287494325587,0.10620060820087146,-0.09927726915249527,0.04278591869568806,0.139252261865969,-0.15155710353473162
117,13.633681699997396,0.027669239232628456,-0.05079562213927589,0.03906758892204165,0.014237630400338487,0.02803256028736603,-0.022081151028878376,0.030401799360886838,0.10687826073456211,-0.10001623607395252,0.04258142629827092,0.1381856347615484,-0.15098659809821907
118,13.639769800007343,0.027739150516919855,-0.050657412373439986,0.03895853272179542,0.01438664641366604,0.028556292359467564,-0.02257151591595388,0.030609294498194998,0.10755063794135666,-0.10075236023702819,0.04236962593947906,0.13709234592585537,-0.1503931282231995
119,13.65028689999599,0.027809792196457215,-0.05051663623723335,0.03884707238407477,0.0145366734808956,0.029083295843775617,-0.02306546957239977,0.030815737142554478,0.10821760939053608,-0.10148552914639293,0.04215049092369088,0.13597231754513117,-0.14977656498901848
120,13.655283600004624,0.02788116919752147,-0.05037327781482122,0.038733190413568305,0.014687706373257435,0.02961354401499267,-0.02356299728674129,0.03102109140039274,0.10887904427596146,-0.10221562968259544,0.04192399463334668,0.13482547371807252,-0.14913678183408222
121,13.659572400007164,0.027953286420423606,-0.05022732132247831,0.03861686938817751,0.014839739686330821,0.03014700950794771,-0.024064083793422435,0.031225321247969097,0.10953481142538213,-0.10294254811383982,0.04169011042856687,0.1336517408652823,-0.14847365465235177
122,13.663081200007582,0.028026148738645087,-0.0500787511117189,0.03849809196173062,0.014992767839405528,0.030683664315832016,-0.02456871326984494,0.03142839053144785,0.11018477931381186,-0.1036661701081982,0.04144881187786599,0.13245104863648016,-0.14778706191253815
123,13.66672419999668,0.028099760997975134,-0.04992755167243532,0.038376840866710865,0.015146785074849343,0.031223479788517257,-0.025076869333466204,0.0316302629688611,0.11082881608170012,-0.10438638074655261,0.04120007303342407,0.1312233306403957,-0.1470768847993949
124,13.671037699998124,0.02817412801564497,-0.049773707636044495,0.038253098916998726,0.01530178545748874,0.0317664266309688,-0.02558853503896469,0.031830902152871196,0.11146678955543904,-0.10510306453618798,0.04094386857617785,0.1299685249208446,-0.1463430073623799
125,13.67525580000074,0.028249254579459062,-0.049617203778641934,0.03812684901062784,0.015457762874003385,0.032312474901764164,-0.026103692875470676,0.03203027155415103,0.11209856727018586,-0.10581610542518638,0.040680173975907,0.12868657424668864,-0.14558531664259936
126,13.679604899996775,0.028325145446923432,-0.049458025024162744,0.03799807413255432,0.015614711032339836,0.0328615940117293,-0.026622324763872263,0.03222833452571049,0.11272401649320268,-0.10652538681726025,0.040408965546989306,0.12737742602292412,-0.14480370269494203
127,13.683414900006028,0.028401805344371183,-0.04929615644754895,0.03786675735743898,0.01577262346114831,0.033413752722685056,-0.027144412054191047,0.03242505430682148,0.11334300424581027,-0.10723079158636285,0.0401302205375694,0.12604103214877005,-0.14399805861006132
128,13.687883799997508,0.02847923896608531,-0.04913158327792274,0.03773288185244229,0.015931493509234732,0.03396891914629794,-0.027669935523030875,0.03262039402821548,0.11395539732534139,-0.10793220209173629,0.0398439174757697,0.12467734886944228,-0.14316828061161962
129,13.691799399995944,0.02855745097341886,-0.048964290901765024,0.03759643088003155,0.016091314345048284,0.03452706074304107,-0.02819887537110052,0.032814316719390973,0.11456106232564646,-0.10862950019347199,0.039550036299912904,0.12328633653045762,-0.1423142681826015
130,13.696776900003895,0.02863644599391275,-0.04879426486609883,0.0374573878008,0.016252078956204837,0.03508814432124527,-0.028731211220814463,0.033006785315083234,0.11515986565664654,-0.10932256726879275,0.039248558235532645,0.12186795959196088,-0.1414359241320118
131,13.70138600000064,0.028716228620411264,-0.048621490881677124,0.03731573607629747,0.016413780149037716,0.03565213603625103,-0.02926692211397464,0.033197762661370166,0.11575167356497897,-0.11001128422826485,0.03893946578812188,0.12042218648041952,-0.14053315468459393
132,13.706531000003451,0.028796803410175476,-0.0484459548261745,0.037171459271872154,0.01657641054818078,0.036219001389661325,-0.029805986509529606,0.033387211522071275,0.11633635215210142,-0.11069553153295664,0.03862274271338133,0.11894898929113075,-0.13960586974853645
133,13.710526299997582,0.02887817488399469,-0.048267642747382315,0.0370245410595231,0.0167399625961817,0.03678870522867044,-0.03034838228142392,0.03357509458456282,0.11691376739203115,-0.11137518921326603,0.03829837395746063,0.11744834404813514,-0.13865398310892624
134,13.714805600000544,0.02896034752529607,-0.048086540866406895,0.036874965220763035,0.016904428553141858,0.037361211745490085,-0.030894086716541248,0.03376137446559298,0.11748378515198833,-0.11205013688796905,0.03796634576146351,0.11592023094265544,-0.137677412606448
135,13.718839000008302,0.029043325779252574,-0.0479026355808703,0.036722715649490936,0.01706980049638644,0.03793648447687991,-0.031443076512739844,0.03394601371811796,0.11804627121246476,-0.11272025378479324,0.03762664581007985,0.11436463454160666,-0.13667608046441798
136,13.723372000007656,0.02912711405188935,-0.047715913468113144,0.03656777635487404,0.017236070320171104,0.03851448630376968,-0.03199532777699665,0.03412897483856927,0.11860109128990429,-0.11338541876266112,0.03727926319051068,0.11278154450142491,-0.13564991349012623
137,13.729418000002624,0.029211716709188804,-0.047526361288399,0.03641013146423858,0.01740322973542309,0.03909517945101137,-0.03255081602366009,0.03431022027328855,0.11914811106374536,-0.1140455103342307,0.036924188244019274,0.11117095611919967,-0.13459884337264638
138,13.733602299995257,0.02929713807619448,-0.047333965988119675,0.03624976522596883,0.01757127026951075,0.03967852548726554,-0.03310951617281438,0.03448971242434451,0.11968719620448588,-0.11470040669104849,0.03656141238338265,0.10953287063765409,-0.13352280722557144
139,13.737979199999245,0.02938338243611387,-0.04713871470300072,0.03608666201241382,0.01774018326604148,0.040264485325027626,-0.033671402548778054,0.034667413654184354,0.12021821240370532,-0.11534998573139227,0.036190927832407446,0.107867295289625,-0.13242174769861065
140,13.741898799999037,0.02947045402942031,-0.04694059476130643,0.03592080632280107,0.017909959884676703,0.04085301922080759,-0.034236448878740305,0.03484328628890586,0.12074102540256411,-0.11599412508651442,0.03581272759994204,0.10617424294141066,-0.13129561265047493
141,13.746182000002593,0.02955835705295399,-0.04673959368704363,0.03575218278615663,0.01808059110096176,0.04144408677543467,-0.03480462829151589,0.03501729262265489,0.12125550101834134,-0.11663270214528892,0.03542680561760774,0.1044537319133422,-0.130144354948262
142,13.750535500003023,0.029647095659022193,-0.04653569920316369,0.03558077616423097,0.01825206770618386,0.04203764693449629,-0.035375913316422265,0.0351893949222431,0.12176150517118127,-0.11726559407849467,0.03503315680304206,0.10270578580167637,-0.12896793238473495
143,13.758630600001196,0.029736673954498912,-0.04632889923476198,0.03540657135442997,0.01842438030724709,0.042633657988904096,-0.035950275882271725,0.035359555432163285,0.12225890390889092,-0.11789267786265434,0.03463177729050267,0.10093043338960994,-0.12776630769372768
144,13.763174599997,0.02982709599992387,-0.04611918191227441,0.035229553392750676,0.018597519326579347,0.04323207757557515,-0.03652768731648144,0.03552773638146002,0.12274756343281723,-0.11851383030446823,0.03422266466903259,0.09912770903330645,-0.12653944849095855
145,13.766914899999392,0.029918365808601223,-0.045906535574670226,0.035049707456721,0.018771475002074482,0.04383286267825078,-0.037108118344304324,0.03569389999107182,0.12322735012641603,-0.11912892806407488,0.03380581804559483,0.09729765293089397,-0.1252873271764139
146,13.771267400006764,0.030010487345698018,-0.0456909487726405,0.03486701886834297,0.018946237387070974,0.044435969628456876,-0.03769153908816629,0.03585800848131858,0.12369813058375718,-0.11973784767853123,0.03338123797822884,0.09544031125578994,-0.12400992106912033
147,13.779888500008385,0.030103464527342687,-0.0454724102717816,0.03468147309703889,0.0191217963503672,0.04504135410660121,-0.03827791906712653,0.03602002407859067,0.12415977163939615,-0.1203404655863899,0.03294892613763314,0.09355573634229744,-0.12270721241427146
148,13.784663600003114,0.03019730121972366,-0.045250909055772934,0.034493055762599895,0.019298141576265478,0.0456489711432256,-0.03886722719645488,0.036179909019530186,0.1246121403986923,-0.12093665815124903,0.032508884804633834,0.09164398671658047,-0.12137918826363914
149,13.78863179999462,0.030292001238188277,-0.04502643432954818,0.034301752638136236,0.019475262564628178,0.046258775120399415,-0.03945943178732217,0.03633762555281045,0.1250551042679831,-0.12152630168516117,0.032061116706250954,0.08970512719975358,-0.1200258406030857
150,13.794582100003026,0.030387568346341962,-0.04479897552245943,0.03410754965302883,0.01965314863093915,0.04687071977326651,-0.0400545005466063,0.03649313594171566,0.12548853098590965,-0.12210927247342886,0.031605625287878115,0.08773922907188372,-0.11864716663493144
151,13.798278300004313,0.03048400625514773,-0.04456852229143331,0.03391043289588148,0.019831788906385046,0.047484758191744816,-0.04065240057682482,0.03664640246857955,0.125912288655193,-0.12268544680077222,0.031142415070311964,0.08574637054868575,-0.11724316891127799
152,13.802160999999614,0.03058131862202615,-0.044335064524118506,0.03371038861747304,0.0200111723379601,0.04810084282238369,-0.04125309837619666,0.03679738744085307,0.1263262457786169,-0.12325470097742701,0.030671491961668792,0.0837266371528655,-0.11581385531990997
153,13.806106400006684,0.03067950904995588,-0.04409859234202375,0.033507403233709064,0.02019128768860674,0.04871892547041503,-0.04185655983882967,0.036946053198590366,0.1267302712944321,-0.1238169113651745,0.03019286344051052,0.08168012132045362,-0.11435923914369295
154,13.810624000005191,0.03077858108657501,-0.043859096103645294,0.03330146332857215,0.020372123537393493,0.04933895730195656,-0.042462750255036666,0.03709236212230556,0.12712423460849298,-0.12437195440401984,0.029706538652390105,0.07960692243752392,-0.11287933914955045
155,13.81423150000046,0.03087853822328333,-0.04361656640758338,0.03309255565707046,0.020553668279732363,0.04996088884637688,-0.043071634311783624,0.037236276641401944,0.12750800563002065,-0.12491970663909116,0.029212528435406934,0.07750714686243276,-0.11137417952158281
156,13.818092000001345,0.030979383894345788,-0.04337099409564661,0.03288066714818372,0.02073591012763909,0.050584669998848135,-0.043683176093268494,0.03737775924227843,0.12788145480395685,-0.12546004474666458,0.028710845417404946,0.07538090712991259,-0.1098437897720844
157,13.821770199996536,0.031081121475997314,-0.043122370255943475,0.03266578490780605,0.020918837110029714,0.051210250023027176,-0.04429733908162365,0.037516772477708335,0.12824445313895125,-0.125992845560194,0.02820150434711707,0.07322832185444987,-0.10828820481570071
158,13.826183299999684,0.031183754285549172,-0.042870686225960526,0.03244789622168514,0.02110243707307247,0.051837577553881645,-0.04491408615774903,0.037653278978181,0.12859687223877142,-0.1265179860970605,0.02768452227263981,0.07104951584922604,-0.10670746500656571
159,13.830301499998312,0.03128728558049722,-0.04261593359562629,0.032226988558356935,0.021286697680595153,0.052466600600678,-0.045533379602275895,0.03778724146302423,0.12893858433145217,-0.12703534358496504,0.02715991848167727,0.06884461978320418,-0.10510161611614355
160,13.8340065000084,0.03139171855763223,-0.04235810421036028,0.032003049572075365,0.02147160641454568,0.05309726655009239,-0.04615518109665784,0.037918622751162104,0.1292694622973553,-0.1275447954884614,0.026627714423862067,0.0666137704274856,-0.10347070951904212
161,13.837885800006916,0.03149705635215268,-0.042097190174106465,0.0317760671057364,0.021657150575504547,0.053729522169472806,-0.04677945172439375,0.03804738577147852,0.12958937970072584,-0.1280462195371641,0.02608793373285329,0.064357110975265,-0.10181480244657438
162,13.84196819999488,0.031603302036780044,-0.04183318385235045,0.03154602919379581,0.021843317283246646,0.054363313610258236,-0.047406151972394416,0.038173493573790906,0.1298982108208776,-0.12853949375475868,0.025540602203729286,0.06207479102636128,-0.100133958026981
163,13.845992000002298,0.03171045862087709,-0.041566077875119546,0.031312924065179895,0.022030093477360933,0.05499858641154552,-0.04803524173248889,0.03829690933899287,0.13019583068359827,-0.1290244964876025,0.024985747529415497,0.05976696687785655,-0.09842824533006235
164,13.850205099995948,0.031818529049569236,-0.04129586513996507,0.031076740146188518,0.02221746591791133,0.055635285503815315,-0.04866668030307052,0.03841759638745292,0.13048211509517452,-0.1295011064341711,0.024423399166338955,0.05743380181423802,-0.09669773950580472
165,13.854847199996584,0.03192751620286927,-0.041022538814926034,0.030837466063389735,0.022405421186138447,0.05627335521283134,-0.049300426390891015,0.038535518187844606,0.13075694067663157,-0.12996920267501333,0.023853588300911013,0.05507546608522119,-0.09494252176142216
166,13.858748700004073,0.03203742289480561,-0.040746092341473354,0.030595090646505323,0.022593945685206757,0.05691273926370087,-0.04993643811299912,0.03865063836521775,0.13102018489754172,-0.1304286647019734,0.023276347674939923,0.05269213697976619,-0.09316267930486348
167,13.863976299995556,0.03214825187255427,-0.040466519437433866,0.030349602931286464,0.022783025640985166,0.05755338078510429,-0.050574672998820146,0.038762920708122976,0.131271726110987,-0.13087937244759412,0.0226917115555746,0.050283998907938096,-0.09135830538303767
168,13.870289700003925,0.032260005815574776,-0.0401838140998932,0.030100992162378954,0.022972647102863793,0.058195222313697136,-0.05121508799238193,0.03887232917638926,0.13151144358816744,-0.13132120631471236,0.02209971581730411,0.04785124340918272,-0.08952949912183217
169,13.87517569999909,0.032372687334750135,-0.039897970608076816,0.02984924779617714,0.023162795944610525,0.05883820579867778,-0.051857639454683524,0.03897882790904958,0.1317392175534446,-0.13175404720429937,0.02150039812061693,0.04539406930013766,-0.0876763652647359
170,13.879765799996676,0.03248629897153107,-0.03960898352620822,0.02959435950366599,0.02335345786526523,0.05948227260653184,-0.052502283166193084,0.03908238123386392,0.13195492922039384,-0.1321777765425026,0.020893798261540815,0.042912682697235256,-0.08579901410683753
171,13.883811000006972,0.03260084319708474,-0.03931684770634368,0.02933631717325063,0.023544618390089343,0.06012736352595206,-0.0531489743294808,0.0391829536786598,0.1321584608270688,-0.13259227630784126,0.02027995850670993,0.04040729675679453,-0.0838975614089706
172,13.887721200007944,0.032716322411448284,-0.03902155829118236,0.029075110913572677,0.02373626287157088,0.060773418772927267,-0.05379766757198247,0.0392805099841288,0.13234969566951438,-0.13299742905740938,0.019658923913245484,0.03787813139165797,-0.08197212822591321
173,13.892102500001783,0.032832738942687324,-0.03872311071685131,0.02881073105631279,0.02392837649049904,0.06142037799598964,-0.05444831694888841,0.03937501511829218,0.13252851813426275,-0.1333931179523929,0.01903074238073094,0.03532541308521457,-0.08002284089985656
174,13.900344900001071,0.03295009504606001,-0.03842150071566437,0.028543168158978782,0.024120944257110533,0.06206818028162117,-0.055100875946156334,0.03946643428980524,0.13269481373002956,-0.13377922678420887,0.018395464420757252,0.03274937483928188,-0.07804983119038597
175,13.904496400005884,0.03306839290318674,-0.0381167243188543,0.028272413007678722,0.02431395101229418,0.06271676415981058,-0.05575529748365563,0.03955473296017143,0.13284846911970072,-0.13415564000129251,0.017753143037734793,0.03015025633832376,-0.07605323630764377
176,13.908578000002308,0.033187634621225974,-0.037808777859277415,0.027998456619878338,0.024507381428856556,0.06336606760977224,-0.05641153391844195,0.03963987685588229,0.1329893721536329,-0.1345222427355604,0.017103833587454615,0.027528304179911593,-0.07403319903516797
177,13.912638199995854,0.0333078222320563,-0.03749765797408984,0.027721290247142125,0.024701220012845193,0.06401602806582853,-0.05706953704815999,0.03972183197924978,0.13311741190389195,-0.13487892083039754,0.016447593554012464,0.024883772134555542,-0.07198986800172405
178,13.918438199994853,0.03342895769146517,-0.03718336160739468,0.027440905377857507,0.024895451104920058,0.06466658242346314,-0.057729258114591564,0.039800564618366764,0.13323247870009178,-0.1352255608697763,0.01578448240095578,0.02221692142915307,-0.0699233978454062
179,13.923328999997466,0.033551042878344414,-0.03686588601285914,0.027157293739941277,0.025090058881774062,0.06531766704555361,-0.05839064780734282,0.03987604135648517,0.133334464166402,-0.13556205020784673,0.015114561526320762,0.019528020918127352,-0.06783394945453625
180,13.93589160000556,0.0336740795938928,-0.03654522875630078,0.026870447303527736,0.025285027357596163,0.06596921776878624,-0.0590536562676814,0.039948229081537175,0.1334232612590588,-0.13588827700040898,0.014437894426677547,0.016817347149795662,-0.06572169014265451
181,13.94123959999706,0.03379806956082585,-0.03622138771824199,0.02658035828363765,0.02548034038558489,0.06662116991025499,-0.05971823309253117,0.04001709499711601,0.13349876430402097,-0.13620413023621322,0.01375454700239396,0.014085184344559099,-0.06358679358252077
182,13.950082800001836,0.033923014422593226,-0.03589436109643177,0.026287019142827356,0.025675981659518732,0.06727345827424436,-0.06038432733861514,0.04008260663497951,0.13356086903426773,-0.13650949976778728,0.013064588033340915,0.011331824320903286,-0.06142943976459881
183,13.955419400008395,0.034048915742603846,-0.03556414740833394,0.025990422593817248,0.025871934715391808,0.06792601715919265,-0.061051887526751364,0.04014473187067839,0.13360947262673173,-0.13680427634233097,0.01236808970756455,0.008557566531601125,-0.0592498149631038
184,13.963965000002643,0.03417577500345926,-0.03523074549358088,0.025690561602098913,0.02606818293313694,0.06857878036483567,-0.06172086164629771,0.04020343894122476,0.13364447373995061,-0.137088351632212,0.011665127740364226,0.00576271821302674,-0.057048111740286477
185,13.968485799996415,0.034303593606195615,-0.03489415451639194,0.02538742938852019,0.026264709538433958,0.06923168119953783,-0.062391197159745705,0.040258696461883736,0.1336657725524588,-0.13736161826590218,0.010955781217806484,0.002947594504536742,-0.054824529065374036
186,13.97310909999942,0.03443237286953468,-0.0345543739679556,0.025081019431847432,0.026461497604596793,0.06988465248781095,-0.0630628410074675,0.04031047344231317,0.13367327080160527,-0.13762396985963535,0.01024013250770973,0.00011251873024536061,-0.05257927242610181
187,13.977253899996867,0.03456211402914427,-0.03421140366877438,0.02477132547130418,0.026658530054539477,0.07053762657802456,-0.06373573961261901,0.040358739302485604,0.1336668718246983,-0.13787530104943319,0.009518267140484543,-0.002742177123473213,-0.05031255392959961
188,13.981667600004585,0.03469281823690844,-0.033865243770971686,0.024458341509085525,0.026855789662818794,0.0711905353503267,-0.06440983888619982,0.04040346388766381,0.1336464806024883,-0.1381155075237488,0.00879027374941678,-0.005616152080858964,-0.048024592484147005
189,13.985948800007463,0.03482448656020789,-0.033515894760559356,0.024142061812847358,0.027053259057746575,0.07184331022477902,-0.06508508423227519,0.04044461748373937,0.13361200380350832,-0.13834448605726818,0.008056244189817997,-0.008509055999076292,-0.04571561394050404
190,13.989742599995225,0.034957119981210816,-0.033163357459665,0.023822480918169704,0.027250920723582206,0.07249588216971078,-0.06576142055336616,0.040482170833372265,0.13356334982929302,-0.1385621345449346,0.0073162735914410314,-0.011420529470645873,-0.04338585114076776
191,13.994090599997437,0.0350907193961747,-0.032807633028717934,0.023499593630993312,0.027448757002802603,0.07314818171029576,-0.06643879225600405,0.04051609515184153,0.13350042885967234,-0.13876835203622737,0.006570460432564503,-0.014350203883372516,-0.04103554407052149
192,13.997704199995496,0.035225285614759336,-0.03244872296859275,0.023173395030028732,0.027646750098449576,0.07380013893734867,-0.06711714325645539,0.04054636214390863,0.13342315289740492,-0.13896303877067262,0.005818906688584437,-0.01729770161384503,-0.03866493993365228
193,14.0017943999992,0.035360819359351585,-0.032086629122709286,0.02284388046913697,0.02784488207656455,0.07445168351633821,-0.06779641698662336,0.04057294402111982,0.13333143581158144,-0.1391460962128531,0.005061717810173449,-0.020262636376111007,-0.036274293081391525
194,14.006030300006389,0.03549732126440217,-0.031721353679088155,0.0225110455796809,0.028043134868704977,0.07510274469660749,-0.0684765564001148,0.040595813518456134,0.13322519337885155,-0.13931742708722564,0.004299002842358009,-0.0232446136097533,-0.033863865056946885
195,14.011297200006084,0.03563479187577501,-0.031352899172360636,0.022174886272846667,0.028241490274541706,0.07575325132078983,-0.06915750397848172,0.04061494391279907,0.13310434332303583,-0.139476935413567,0.0035308746325116444,-0.02624323076340384,-0.031433924610343666
196,14.016800500001407,0.035773231650109386,-0.030981268485732197,0.021835398741934103,0.028439929964555813,0.07640313183441622,-0.06983920173763468,0.040630309041612654,0.13296880535358288,-0.1396245265419364,0.0027574497930633727,-0.029258077575507378,-0.028984747664543124
197,14.02107669999532,0.03591264095419564,-0.030606464852898543,0.02149257946461548,0.028638435482818487,0.07705231429570679,-0.07052159123442586,0.04064188332104476,0.1328185012024383,-0.13976010718779025,0.001978848917773092,-0.032288736045255305,-0.02651661738043583
198,14.025184900005115,0.03605302006436451,-0.03022849185991347,0.021146425205161613,0.028836988249864696,0.07770072638553852,-0.07120461357340546,0.04064964176672211,0.13265335466278574,-0.13988358546757965,0.001195196879327477,-0.035334779827576816,-0.024029824203067433
199,14.029367600000114,0.03619436916589086,-0.029847353447007535,0.020796933016634604,0.029035569565676243,0.07834829541761516,-0.0718882094137526,0.04065356001475906,0.1324732916318267,-0.1399948709343168,0.0004066228660548128,-0.03839577351718939,-0.021524665929120685
200,14.03356700000586,0.03633668835241219,-0.02946305391035655,0.020444100243046232,0.029234160612760674,0.0789949483488529,-0.07257231897637913,0.04065361434291125,0.13227824015651607,-0.14009387461383183,-0.000386739654899928,-0.04147127213113221,-0.01900144795030598
201,14.037580500007609,0.03647997762536244,-0.02907559790379879,0.020087924521481292,0.029432742459341004,0.07964061178999711,-0.0732568820512148,0.04064978169122463,0.13206813048139746,-0.14018050904271687,-0.00118475332444272,-0.044560820860725006,-0.016460483496612634
202,14.041899300005753,0.03662423689342167,-0.028684990440499766,0.01972840378418482,0.029631296062636356,0.08028521201647532,-0.07394183800468179,0.04064203967940953,0.13184289509676206,-0.14025468830695947,-0.0019872773085680227,-0.0476639550862417,-0.013902093779224916
203,14.045909699998449,0.0367694659719819,-0.028291236894563396,0.019365536260612395,0.029829802272221425,0.0809286749794845,-0.07462712578735724,0.04063036662341539,0.13160246878634055,-0.14031632808128303,-0.0027941674915575062,-0.05078020049162684,-0.011326608161813908
204,14.052506899999573,0.03691566458262962,-0.027894343002588466,0.018999320479442517,0.03002824183346905,0.08157092631730996,-0.07531268394183215,0.040614741550917315,0.13134678867434127,-0.14036534566945347,-0.0036052766100016544,-0.05390907314288416,-0.008734364300419357
205,14.057092999995804,0.037062832352645264,-0.02749431486516922,0.018629755270550122,0.03022659539106098,0.08221189136687217,-0.07599845061076774,0.04059514421658145,0.13107579427237626,-0.1404016600449864,-0.004420454208272206,-0.05705007935807286,-0.006125708144873002
206,14.061356599995634,0.03721096881452001,-0.027091158948339,0.01825683976694025,0.030424843492579574,0.0828514951755041,-0.07668436354515201,0.04057155511798658,0.13078942752776954,-0.14042519189146765,-0.005239546541574773,-0.06020271541694987,-0.003500993898112759
207,14.066498300002422,0.03736007340549036,-0.026684882084955796,0.01788057340664091,0.03062296659217412,0.08348966251297002,-0.07737036011275003,0.04054395551183664,0.13048763287331985,-0.140435863642863,-0.0060623961743606096,-0.06336646721812474,-0.000860584069982555
208,14.071076000007452,0.03751014546709073,-0.026275491476028444,0.01750095593455417,0.030820945054310933,0.08412631788372901,-0.07805637730675428,0.04051232743380571,0.13017035727895845,-0.1404335995243643,-0.006888841444316202,-0.06654080997880958,0.0017951504986533447
209,14.075970599995344,0.0376611842447247,-0.025862994691982374,0.017117987404264522,0.031018759157633545,0.08476138553945843,-0.07874235175463404,0.040476653719987134,0.12983755030444516,-0.14041832559293466,-0.007718716432628747,-0.06972520841323043,0.004465830695071123
210,14.081333900001482,0.03781318888725531,-0.02544739967386347,0.01673166817980353,0.031216389098922357,0.08539478949183223,-0.07942821972718181,0.040436918027029076,0.12948916414928313,-0.14038996977757678,-0.008551851060967633,-0.07291911717753204,0.007151069172208372
211,14.088075699997717,0.03796615844661497,-0.02502871473447896,0.016341998937369793,0.03141381499715155,0.08602645352553209,-0.08011391714775612,0.040393104852636134,0.12912515370106836,-0.14034846191951153,-0.009388070987086557,-0.07612198102042426,0.009850470363482708
212,14.09217649999482,0.03812009187743541,-0.02460694855947417,0.015948980667003294,0.031611016897649016,0.08665630121149813,-0.08079937960172051,0.04034519955672481,0.12874547658393268,-0.1402937338123014,-0.010227197619837442,-0.07933323471556365,0.01256363050693734
213,14.098740300003556,0.038274988036698245,-0.02418211020834395,0.015552614674213162,0.03180797477635998,0.08728425592041326,-0.08148454234607828,0.04029318838177847,0.12835009320755383,-0.14022571924179325,-0.011069048275073363,-0.08255230274138231,0.015290137522385281
214,14.102475000006962,0.03843084568340655,-0.023754209115377706,0.015152902581557888,0.03200466854420577,0.08791024083643273,-0.08216934031930175,0.04023705847247968,0.1279389668187265,-0.14014435402744208,-0.011913436176121556,-0.08577859881292105,0.01802957069180926
215,14.106593500007875,0.03858766347827802,-0.023323255090536687,0.01474984633017705,0.03220107805153924,0.08853417897117231,-0.08285370815137066,0.040176797896060545,0.12751206355494615,-0.14004957606537607,-0.012760170394240532,-0.0890115255123586,0.02078150044694654
216,14.11067660000117,0.03874543998346009,-0.022889258320262344,0.014343448181273463,0.03239718309270237,0.08915599317796134,-0.08353758017402226,0.040112395662516766,0.12706935249958975,-0.13994132537179566,-0.013609055892715787,-0.0922504739181003,0.02354548824612913
217,14.114413999996032,0.03890417366226759,-0.022452229368214383,0.013933710717544767,0.03259296341067916,0.08977560616637002,-0.08422089043121363,0.04004384174452717,0.12661080573912328,-0.13981954412724176,-0.014459893423226159,-0.09549482338829193,0.02632108643543037
218,14.11899529999937,0.03906386287894334,-0.022012179175937195,0.013520636844563358,0.032788398701847854,0.09039294051702132,-0.08490357268980425,0.03997112709868025,0.12613639842039737,-0.13968417672135142,-0.015312479406758015,-0.09874394173194094,0.029107838233843476
219,14.12307719999808,0.039224505898442244,-0.0215691190634532,0.013104229792103609,0.03298346862084119,0.09100791869667807,-0.08558556045045566,0.03989424368655709,0.1256461088061831,-0.13953516979727085,-0.016166605963201276,-0.10199718544824725,0.03190527790032612
220,14.126902300005897,0.03938610088623935,-0.021123060729781873,0.012684493115415323,0.03317815278550462,0.09162046307359742,-0.08626678695874783,0.039813184495668806,0.12513991833012944,-0.13937247229477906,-0.017022060873831298,-0.10525389984365209,0.034712931228456666
221,14.13135660000262,0.03954864590816239,-0.020674016253383096,0.012261430696442345,0.033372430781961095,0.09223049593315485,-0.08694718521650015,0.039727943560906,0.12461781165115551,-0.13919603548986834,-0.01787862749995993,-0.10851341902543436,0.03753031628360873
222,14.135195700000622,0.03971213893024932,-0.020221998092523532,0.011835046744985412,0.03356628216977883,0.09283793949373004,-0.08762668799327451,0.039638515986270904,0.12407977670847056,-0.13900581303066584,-0.018736084448229197,-0.11177506536330317,0.040356943928989
223,14.14015439999639,0.03987657781863135,-0.019767019085564774,0.011405345799808385,0.03375968648724845,0.09344271592286836,-0.08830522783804726,0.03954489796959689,0.12352580478122632,-0.13880176097187488,-0.019594205153173175,-0.11503814862762164,0.04319231790416793
224,14.150260599999456,0.040041960339442025,-0.019309092451171836,0.010972332729687069,0.0339526232567922,0.09404474735374957,-0.08898273709104869,0.039447086828358804,0.12295589055195626,-0.13858383780992933,-0.02045275768434526,-0.11830196571955261,0.04603593453877601
225,14.154357999999776,0.04020828415875313,-0.0188482317884404,0.010536012734399774,0.034145071990493284,0.0946439559019691,-0.08965914789577849,0.03934508102627677,0.12237003216886432,-0.13835200452023197,-0.021311504470788254,-0.12156580115071729,0.048887282436844204
226,14.158592499996304,0.040375546842537795,-0.018384451076941363,0.010096391345658751,0.034337012195764995,0.09524026368261523,-0.09033439221120905,0.03923888020181839,0.12176823130457806,-0.13810622459539276,-0.022170202375190608,-0.1248289276673992,0.05174584246736614
227,14.1667146999971,0.04054374585666173,-0.017917764676681245,0.009653474427981529,0.03452842338115847,0.09583359282762445,-0.09100840182417445,0.03912848519407807,0.12115049321233916,-0.13784646408255946,-0.023028603178206437,-0.12809060666885172,0.054611087999981
228,14.171029599994654,0.04071287856690311,-0.01744818732797718,0.009207268179501312,0.03471928506228469,0.09642386550340754,-0.09168110836193852,0.039013898066547543,0.12051682678066976,-0.13757269161935332,-0.02388645403180658,-0.13135008857748617,0.05748248523633537
229,14.175583799995366,0.040882942239001685,-0.016975734151245123,0.008757779132715537,0.034909576767854444,0.097011003928739,-0.09235244330493485,0.038895122128566106,0.11986724458594637,-0.13728487846796236,-0.024743497891038885,-0.1346066133830892,0.06035949354086819
230,14.17954890000692,0.041053934038737645,-0.016500420646700063,0.008305014155171797,0.035099278045809916,0.09759493039289684,-0.09302233799966797,0.038772161954873,0.11920176294174943,-0.13698299854784549,-0.025599473707626077,-0.1378594113932265,0.06324156570455139
231,14.183635800000047,0.04122585103204063,-0.016022262693967015,0.007848980450090363,0.035288368469555645,0.09817556727403405,-0.09369072367177289,0.038645023405166234,0.11852040194410594,-0.13666702846724904,-0.02645411671262373,-0.1411077040352698,0.06612814826652973
232,14.18769859999884,0.041398690185129476,-0.015541276551601747,0.007389685556922521,0.03547682764428119,0.09875283705776043,-0.09435753143922414,0.0385137136408935,0.11782318551300351,-0.1363369475527686,-0.027307158714191603,-0.14435070452565077,0.06901868192559002
233,14.19175990000076,0.04157244836468301,-0.015057478856520234,0.0069271373518440425,0.03566463521335617,0.09932666235591966,-0.09502269232568412,0.03837824114190187,0.11711014143109459,-0.13599273787684563,-0.028158327963099725,-0.14758761821911806,0.07191260194362724
234,14.195994699999574,0.041747122338042265,-0.014570886623335942,0.006461344048183113,0.03585177086481556,0.09989696592554922,-0.09568613727398083,0.03823861572454266,0.11638130138179838,-0.13563438428338753,-0.02900734917592436,-0.15081764254112032,0.07480933849142722
235,14.199992299996666,0.04192270877344462,-0.014081517243604043,0.005992314196782129,0.03603821433793159,0.10046367068802974,-0.09634779715970646,0.0380948485580945,0.11563670098866566,-0.13526187441188614,-0.029853943780403073,-0.15403996647513662,0.07770831699353443
236,14.204357800001162,0.042099204240290226,-0.013589388484971621,0.005520056686292776,0.03622394542985955,0.10102669974842944,-0.09700760280493075,0.0379469521804712,0.11487637985848932,-0.13487519871966847,-0.030697829929393933,-0.15725376938916558,0.08060895848273664
237,14.208547400005044,0.0422766052094411,-0.013094518490232897,0.005044580743403846,0.036408944002363115,0.10158597641507475,-0.09766548499201702,0.03779494051450841,0.11410038163213404,-0.13447435050255202,-0.0315387226284644,-0.1604582195039483,0.08351067977120048
238,14.212802900001408,0.042454908053553224,-0.012596925776288235,0.00456589593300134,0.03659318998861924,0.10214142421939128,-0.09832137447753729,0.037638828882424966,0.11330875404261175,-0.13405932591542363,-0.03237633389212095,-0.1636524729714479,0.08641289332833445
239,14.217012799999791,0.04263410904744212,-0.01209662923300553,0.004084012158260338,0.036776663400084814,0.1026929669360418,-0.09897520200628934,0.03747863402058329,0.11250154897491428,-0.133630123994088,-0.03321037266848944,-0.16683567429910415,0.08931500687352716
240,14.22097599999688,0.04281420436848207,-0.011593648121982466,0.003598939660668158,0.036959344333445734,0.10324052860335181,-0.0996268983254253,0.03731437409468654,0.11167882251994404,-0.1331867466798253,-0.03404054543538196,-0.1700069580526058,0.09221642286435433
241,14.225476999999955,0.04299519009703954,-0.01108800207520836,0.003110689019978199,0.03714121297763204,0.10378403354397438,-0.10027639419870865,0.03714606870871564,0.11084063501771109,-0.13272919884623985,-0.03486655751745531,-0.17316545135354008,0.09511653836934497
242,14.229814300008002,0.04317706221694094,-0.01057971109362453,0.0026192711540938087,0.037322249620854286,0.10432340638573773,-0.10092362042090508,0.03697373890725821,0.10998705108686253,-0.1322574883250607,-0.03568811437276716,-0.17631027704194663,0.09801474571689486
243,14.233560599997872,0.04335981661597482,-0.01006879554558246,0.002124697318881533,0.03750243465764145,0.10485857208259856,-0.10156850783229157,0.03679740717187636,0.10911813963698251,-0.13177162592665065,-0.036504923096927135,-0.1794405570313897,0.10091043373203507
244,14.237954600001103,0.04354344908642838,-0.009555276165199461,0.0016269791079132373,0.03768174859584181,0.10538945593560986,-0.10221098733324763,0.03661709740874052,0.10823397386534359,-0.13127162545372398,-0.03731669373974613,-0.1825554144535792,0.10380298881236333
245,14.242710300008184,0.04372795532565804,-0.009039174050611994,0.001126128452136802,0.03786017206354002,0.10591598361384241,-0.10285098989889836,0.03643283493213401,0.10733463124825444,-0.13075750371134395,-0.03812313916347299,-0.18565397351646484,0.10669179530943575
246,14.24626719999651,0.043913330936693536,-0.00852051066212693,0.0006221576194751858,0.038037685815896866,0.10643808117526811,-0.10348844659380341,0.03624464645347186,0.10642019353919768,-0.13022928051691454,-0.03892397394976742,-0.18873535763571925,0.10957623542902238
247,14.250311600000714,0.04409957142887532,-0.007999307820270845,0.00011507921435361602,0.038214270741959044,0.1069556750876633,-0.10412328858669762,0.03605256007548387,0.10549074677843231,-0.1296869787111523,-0.03971891371421579,-0.1917986872027294,0.11245568910693327
248,14.254282599998987,0.0442866722185252,-0.00747558770373707,-0.0003950938228453605,0.03838990787144208,0.10746869224958584,-0.10475544716528716,0.03585660528793041,0.10454638131293757,-0.12913062416929133,-0.04050767446693998,-0.19484307755920333,0.11532953401876017
249,14.258661400002891,0.044474628629649966,-0.006949372847230042,-0.0009083482163992403,0.03856457838149825,0.10797706001147338,-0.10538485375109971,0.03565681296803215,0.10358719182580287,-0.12856024581195988,-0.04128997178666735,-0.197867637358667,0.11819714557842483
250,14.262835900008213,0.04466343589467819,-0.00642068613920623,-0.001424670355935594,0.03873826360350372,0.10848070619690747,-0.10601143991438679,0.03545321538425493,0.10261327737217923,-0.12797587561639953,-0.0420655205522515,-0.2008714681211164,0.12105789672051645
251,14.266996100006509,0.04485308915523014,-0.0058895508195107435,-0.0019440462971950206,0.03891094502986343,0.1089795591240631,-0.10663513738908355,0.035245846199362406,0.10162474141302022,-0.12737754862946837,-0.04283403523361099,-0.20385366581553166,0.12391115747500683
252,14.271701899997424,0.04504358346292106,-0.005355990476908704,-0.0024664617628673297,0.03908260432082803,0.10947354762730246,-0.10725587808783818,0.03503474047135858,0.10062169183557265,-0.12676530298301497,-0.04359523063551847,-0.20681332392676058,0.1267562945576533
253,14.275487599996268,0.04523491378019771,-0.004820029046510888,-0.0029919021435013296,0.03925322331130803,0.10996260107882466,-0.10787359411712188,0.034819934649273854,0.09960424095715505,-0.12613917991088322,-0.04434882282007739,-0.20974953633935411,0.12959267107571476
254,14.279294000007212,0.04542707498120816,-0.0042816908070935885,-0.0035203524984886276,0.03942278401764954,0.11044664941029642,-0.1084882177924244,0.03460146656509525,0.09857250551747423,-0.12549922376716138,-0.04509452964280703,-0.21266139922075838,0.13241964640175913
255,14.28330160000769,0.0456200618527046,-0.003741000378312932,-0.004051797557121875,0.039591268644369536,0.11092562313442665,-0.10909968165354228,0.0343793754243151,0.09752660666400557,-0.1248454820444198,-0.04583207125128606,-0.2155480129383979,0.13523657669402767
256,14.287750700008472,0.045813869094978886,-0.003197982717813965,-0.004586221719727928,0.03975865959083934,0.11139945336645443,-0.10970791847995258,0.03415370179298965,0.09646666992558028,-0.12417800538687611,-0.04656117109712334,-0.21840848522760895,0.13804281639302488
257,14.292378900005131,0.04600849132283065,-0.0026526631182350394,-0.00512360905887629,0.03992493945789341,0.11186807184546547,-0.11031286130622976,0.03392448757840112,0.09539282516681595,-0.12349684759401179,-0.04728155706657772,-0.22124193427176347,0.14083771978673668
258,14.295892800000727,0.04620392306656744,-0.002105067204108642,-0.005663943320662888,0.040090091054323894,0.11233141095543489,-0.11091444343745473,0.033691776005070555,0.09430520653161203,-0.12280206561844569,-0.04799296145874562,-0.2240474890285355,0.14362064134125777
259,14.300497000003816,0.04640015877303624,-0.0015552209286602014,-0.00620720792606906,0.04025409740325509,0.11278940374599167,-0.11151259846461092,0.033455611595632935,0.09320395239439286,-0.12209371956632038,-0.048695119854655036,-0.22682428726266718,0.14639093527347258
260,14.304248300002657,0.04659719280668593,-0.0010031505705060553,-0.006753385972395745,0.04041694174845114,0.11324198395298507,-0.11210726027999716,0.03321604015789863,0.09208920532282236,-0.12137187269935056,-0.04938777036504504,-0.22957147450258933,0.14914795625492347
261,14.30851139999868,0.046795019450660384,-0.00044888273025132816,-0.007302460234773047,0.04057860756056409,0.11368908601888486,-0.11269836309264375,0.03297310877307748,0.09096111203924057,-0.12063659142833276,-0.05007065351913959,-0.23228820483371274,0.15189106133761746
262,14.312598400007118,0.046993632907922,0.00010755567301140437,-0.007854413167745036,0.04073907854332654,0.11413064511297094,-0.11328584144366187,0.03272686578392688,0.08981982337562815,-0.11988794529637925,-0.05074351205607124,-0.23497364147042757,0.1546196110091786
263,14.316778100008378,0.047193027302405315,0.0006661374053014835,-0.008409226906929274,0.04089833863968392,0.1145665971512936,-0.11386963022149593,0.03247736078501361,0.08866549422945463,-0.11912600696211928,-0.05140609042681784,-0.23762695661579378,0.15733296866155716
264,14.321092400001362,0.047393196680200395,0.001226834921446509,-0.008966883270750623,0.04105637203789199,0.11499687881643178,-0.11444966467710885,0.032224644615727806,0.08749828352001375,-0.11835085218812345,-0.052058135098888125,-0.24024733272199933,0.1600305001038098
265,14.325271699999576,0.04759413501076606,0.0017896203688747385,-0.009527363762249129,0.04121316317758086,0.11542142757702678,-0.11502588043912126,0.03196876934756811,0.08631835413195736,-0.11756255982886502,-0.05269939634929788,-0.24283396617591052,0.16271157470550435
266,14.330247400008377,0.04779583618817251,0.0023544655915022678,-0.010090649570961733,0.041368696755728275,0.11584018170698884,-0.11559821352887924,0.031709788259638855,0.08512587283562414,-0.1167612118079735,-0.05332963079566673,-0.24538607210725963,0.1653755683339165
267,14.3418190000084,0.04799829403237289,0.0029213421337130722,-0.01065672157487736,0.04152295773248428,0.11625308030425247,-0.11616660037537124,0.03144775580120721,0.08392101018359907,-0.11594689307750053,-0.053948603955009264,-0.24790288868981245,0.16802186708596206
268,14.34696540000732,0.048201502290502865,0.0034902212444294207,-0.011225560342464372,0.04167593133677866,0.11666006330897245,-0.11673097782989789,0.031182727542201773,0.08270394038902104,-0.1151196915587137,-0.05455609191108723,-0.25038367964061325,0.17064987021550693
269,14.350599299999883,0.04840545463820691,0.004061073881269686,-0.011797146134768966,0.041827603071661994,0.11706107152109031,-0.11729128318041049,0.030914760119480196,0.08147484119772554,-0.11427969807276346,-0.055151881493180246,-0.2528277336943818,0.1732589907042015
270,14.354728899998008,0.04861014468099009,0.004633870714790377,-0.012371458907582717,0.04197795871938817,0.11745604661728118,-0.11784745416550343,0.030643911185581272,0.08023389377168723,-0.11342700627590015,-0.05573576923336276,-0.25523436109329856,0.175848653547953
271,14.359158299994306,0.04881556595559403,0.005208582132809517,-0.012948478313677675,0.04212698434625475,0.11784493116738148,-0.11839942898811985,0.030370239365179637,0.07898128259545631,-0.11256171260688148,-0.05630755996864106,-0.25760288906715834,0.17841829341442203
272,14.362924400003976,0.04902171193139595,0.005785178244809165,-0.013528183705107805,0.042274666307260074,0.1182276686504218,-0.11894714632903014,0.030093804217494514,0.07771719540375857,-0.11168391624507511,-0.056867066253036266,-0.25993265839251656,0.18096735274557044
273,14.367052300003706,0.04922857601183014,0.006363628886415435,-0.014110554135575768,0.04242099125057634,0.11860420347034716,-0.11949054536012833,0.029814666198488188,0.07644182312154778,-0.1107937190764036,-0.057414108341592315,-0.26222302175579326,0.18349528051625347
274,14.37110030000622,0.0494361515358307,0.006943903623954595,-0.014695568362864266,0.04256594612183743,0.11897448097146426,-0.12002956575757792,0.029532886623430985,0.0751553598075977,-0.10989122566357518,-0.05794851427303394,-0.26447334391525074,0.18600153198049815
275,14.375346400003764,0.049644431779294916,0.0075259717590840025,-0.015283204851331245,0.04270951816824625,0.11933844745361072,-0.12056414771481737,0.029248527628292206,0.07385800259297202,-0.10897654321450746,-0.05847012022751767,-0.2666830030840175,0.1884855693592359
276,14.379290099997888,0.04985340995656612,0.008109802333496405,-0.015873441774468304,0.042851694942485356,0.11969605018700107,-0.12109423195539745,0.02896165212880999,0.07254995161110467,-0.10804978154583927,-0.0589787713218173,-0.26885139221890364,0.19094686237769315
277,14.38386289999471,0.05006307922193526,0.00869536413369591,-0.01646625701752132,0.04299246430642443,0.12004723742671296,-0.1216197597456303,0.028672323774113544,0.07123140992367838,-0.10711105304610428,-0.05947432238320617,-0.2709779197428862,0.19338488802985168
278,14.387630600002012,0.05027343267115998,0.00928262569584382,-0.01706162818017242,0.04313181443457778,0.12039195842680905,-0.12214067290706696,0.02838060689823241,0.06990258344364661,-0.10616047264154391,-0.05995663827027714,-0.2730620107036352,0.19579913019997774
279,14.39184510000632,0.050484463343000004,0.009871555310672556,-0.017659532579282527,0.043269733817338125,0.12073016345407113,-0.1226569138288124,0.0280865664705844,0.06856368084979367,-0.10519815776297853,-0.06042559416279567,-0.2751031085937605,0.19818907961797302
280,14.396040799998444,0.05069616422076777,0.010462121028465683,-0.01825994725169363,0.04340621126395034,0.12106180380128725,-0.12316842547967947,0.02779026804465309,0.06721491349197337,-0.10422422831205659,-0.06088107539027341,-0.2771006764620953,0.20055423412822732
281,14.400323699999715,0.050908528233892865,0.011054290664101641,-0.018862848957090072,0.04354123590524384,0.12138683180006012,-0.12367515142017417,0.027491777710150517,0.06585649529481229,-0.10323880662549922,-0.06132297704521102,-0.27905419633005246,0.20289409880070444
282,14.404787999999826,0.0511215482594994,0.0116480318021589,-0.019468214180917924,0.043674797196138995,0.1217052008331534,-0.12417703581430022,0.02719116204547319,0.06448864266865044,-0.10224201744026405,-0.06175120381923299,-0.28096316767485013,0.20520818558997048
283,14.40854990000662,0.05133521712399488,0.012243311802080315,-0.020076019137361588,0.04380688491791499,0.12201686534643007,-0.12467402344120404,0.02688848807146569,0.06311157442806294,-0.101233987861121,-0.062165669929224406,-0.2828271067266402,0.20749601308831903
284,14.412598099996105,0.051549527604669756,0.012840097803394911,-0.020686239772376942,0.04393748918026455,0.12232178086040266,-0.12516605970666259,0.0265838232045983,0.061725511709667474,-0.10021484732822802,-0.06256629948882558,-0.28464554710913614,0.20975710654466934
285,14.416853500006257,0.051764472431306385,0.013438356730995088,-0.021298851766780178,0.044066600423104355,0.1226199039813686,-0.1256530906544115,0.02627723520710122,0.060330677884387285,-0.09918472758452224,-0.0629530267166409,-0.2864180407031424,0.2119909979641644
286,14.42097960000683,0.051980044287796234,0.014038055300467183,-0.021913830539391617,0.04419420941814258,0.1229111924121034,-0.12613506297731433,0.025968792138108068,0.05892729846682221,-0.09814376264232262,-0.06332579572875614,-0.28814415774221436,0.21419722623117873
287,14.425201300007757,0.05219623581376418,0.014639160023473154,-0.022531151250233666,0.04432030727021202,0.12319560496211045,-0.12661192402836452,0.025658562305817124,0.05751560102657707,-0.09709208874951944,-0.06368456032224026,-0.2898234866775922,0.216375337044173
288,14.429347099998267,0.05241303960619874,0.015241637213181277,-0.023150788803782123,0.044444885418370245,0.12347310155744798,-0.12708362183152422,0.02534661422074996,0.056095815098952326,-0.09602984435681335,-0.06402928425009385,-0.29145563567827026,0.2185248832364547
289,14.43495239999902,0.052630448221087096,0.01584545298974383,-0.02377271785227002,0.044567935636776065,0.12374364325010634,-0.1275501050924062,0.025033016545226525,0.05466817208161721,-0.09495717008077109,-0.06435994291891968,-0.29304023739657536,0.2206454266557335
290,14.4466592999961,0.05284845417505391,0.016450573285819416,-0.024396912799043293,0.0446894500352961,0.12400719222682545,-0.12801132320875178,0.024717838030038065,0.0532329050987422,-0.09387420865270198,-0.06467652639495862,-0.29457695616857965,0.22273654151875302
291,14.451136000003316,0.05306704994700228,0.017056963852136776,-0.025023347801966987,0.044809421059762544,0.12426371181714473,-0.12846722628061327,0.0244011474345542,0.051790248827326454,-0.09278110484893987,-0.0649790417396981,-0.29606549294921153,0.2247978176054038
292,14.454636099995696,0.05328622797975504,0.01766459026309576,-0.025651996776880404,0.04492784149179921,0.1245131665005238,-0.1289177651201508,0.024083013440577686,0.05034043931311578,-0.09167800540851417,-0.06526751235594222,-0.2975055832163377,0.22682886093947152
293,14.460332700007712,0.05350598068169404,0.018273417922400725,-0.026282833401099024,0.04504470444823768,0.12475552191259401,-0.12936289126101033,0.023763504578840185,0.048883713817406506,-0.09056505895678119,-0.06554197496679709,-0.2988969893082746,0.22882929155271065
294,14.464848600007826,0.05372630042839576,0.018883412068722558,-0.02691583111696127,0.04516000338022524,0.12499074485078246,-0.1298025569673745,0.023442689172371377,0.04742031070782357,-0.08944241594493933,-0.06580247730798244,-0.30023949391648524,0.2307987414289062
295,14.471571500005666,0.053947179564261837,0.019494537781387024,-0.02755096313541886,0.045273732072087756,0.12521880327949644,-0.13023671524274968,0.02312063528554011,0.04595046936869866,-0.08831022859374638,-0.06604907825512865,-0.30153289926582083,0.23273685482171513
296,14.475276099998156,0.05416861040414358,0.020106759986087453,-0.028188202439669408,0.04538588463993977,0.1254396663348719,-0.13066531983846694,0.022797410666179862,0.04447443009985707,-0.08716865082992947,-0.06628184935656427,-0.30277703087670793,0.23464328979501894
297,14.483329700000468,0.05439058523495894,0.020720043460619467,-0.028827521788829826,0.04549645552998196,0.1256533043289691,-0.13108832526184785,0.02247308267965505,0.04299243399024047,-0.0860178382148536,-0.06650087592649373,-0.3039717420730735,0.23651771903656618
298,14.48772829999507,0.05461309631730037,0.021334352840634657,-0.02946889372164872,0.04560543951646706,0.1258596887532863,-0.1315056867840086,0.022147718240306483,0.041504722772652776,-0.08485794787298262,-0.06670625679302283,-0.3051169157074972,0.23835982926301091
299,14.492221499996958,0.05483613588703194,0.02194965262540964,-0.030112290560256022,0.045712831699327605,0.1260587922815364,-0.13191736044732683,0.02182138374797939,0.04001153868052874,-0.08368913842636024,-0.06689810286140437,-0.30621246127825263,0.2401693196821767
300,14.495970899995882,0.055059696156874,0.02256590718362687,-0.030757684413948334,0.045818627501521714,0.12625058877176143,-0.13232330307260567,0.021494145033505503,0.038513124330845375,-0.08251156993809428,-0.06707653564784231,-0.30725830891854206,0.24194589984261294
301,14.500114499998745,0.05528376931797436,0.02318308075916434,-0.03140504718300856,0.045922822666128224,0.12643505326796503,-0.13272347226598852,0.02116606730955535,0.03700972263961385,-0.08132540386784684,-0.06724168614182142,-0.3082544042630651,0.2436892877027083
302,14.50450880000426,0.05550834754146461,0.02380113747689235,-0.03205435056255879,0.04602541325321233,0.12661216200140143,-0.13311782642568806,0.020837215127235024,0.03550157675494289,-0.08013080303418267,-0.06739369404625724,-0.30920070653282916,0.24539920866030226
303,14.508552700004657,0.055733422980000655,0.024420041348475797,-0.03270556604644568,0.046126395636496655,0.12678189239155407,-0.13350632474853333,0.02050765233436196,0.033988929991241465,-0.07892793157953971,-0.06753270784481516,-0.3100971889245272,0.2470753946727321
304,14.513669899999512,0.055958987769286504,0.02503975627818051,-0.033358664931157314,0.046225766499819285,0.12694422304678163,-0.13388892723635648,0.020177442031404022,0.03247202575847809,-0.07771695494117435,-0.06765888478722364,-0.31094383950212223,0.24871758336990565
305,14.517225799994776,0.056185034029580215,0.025660246068681853,-0.03401361831977096,0.04632352283337437,0.12709913376460558,-0.13426559470225596,0.01984664652989877,0.03095110748767301,-0.07649803982479696,-0.06777239029357945,-0.31174066205731,0.25032551793827224
306,14.521296999999322,0.05641155386718095,0.026281474426873855,-0.034670397125931125,0.046419661929763906,0.1272466055316283,-0.13463628877672576,0.019515327314212287,0.029426418551751096,-0.07527135417665069,-0.06787339790992779,-0.3124876774259594,0.251898948022586
307,14.52921750000678,0.05663853937589634,0.02690340496967703,-0.03532897207785719,0.046514181379864766,0.12738662052304744,-0.13500097191364574,0.01918354500039242,0.027898202178172772,-0.07403706714833713,-0.0679620899853083,-0.31318492532914616,0.2534376319362459
308,14.533522099998663,0.056865982638489194,0.027526001229842747,-0.035989313722380005,0.046607079068478476,0.12751916210172037,-0.13535960739606728,0.018851359291313076,0.026366701351800612,-0.07279534904730073,-0.06803865799192374,-0.3138324657585035,0.254941338679715
309,14.537671099998988,0.057093875728102324,0.028149226661751927,-0.03665139242900603,0.04669835316976001,0.1276442148167296,-0.13571215934171987,0.018518828932399527,0.024832158713995856,-0.07154637128193513,-0.06810330191468496,-0.3144303779753051,0.2564098475590048
310,14.541968999998062,0.0573222107096606,0.028773044647205388,-0.03731517839400773,0.04678800214243503,0.12776176440146153,-0.13605859270826043,0.018186011672736653,0.023294816475263616,-0.07029030631579491,-0.06815622868148968,-0.31497875643611073,0.2578429457147664
311,14.54552899999544,0.057550979641249084,0.029397418501203764,-0.03798064164453901,0.046876024724848725,0.12787179777131832,-0.13639887329833256,0.017852964236129917,0.02175491635415456,-0.06902732763684194,-0.06819765030990338,-0.315477706338344,0.2592404255868343
312,14.550344700008282,0.05778017457546668,0.030022311477715512,-0.03864775204277503,0.04696241992990031,0.1279743030211998,-0.13673296776451543,0.017519742300319958,0.0202126995334284,-0.06775760973642765,-0.06822778305876098,-0.3159273425868025,0.26060208472725077
313,14.555049400005371,0.05800978756075478,0.030647686775432222,-0.03931647929007599,0.0470471870398888,0.12806926942278707,-0.13706084361417772,0.01718640047633214,0.018668406609052442,-0.06648132808036611,-0.0682468486494398,-0.31632779352137785,0.2619277295067586
314,14.568605899999966,0.05823981064270059,0.03127350754351008,-0.039986792931174374,0.047130325601245776,0.12815668742152608,-0.13738246921414385,0.016852992275759707,0.017122277509946444,-0.06519865905170508,-0.06825507698088,-0.31667920773042124,0.2632171817728771
315,14.575460000007295,0.05847023586531428,0.03189973688729573,-0.04065866235838431,0.04721183541906152,0.12823654863312725,-0.1376978137949888,0.01651957006358843,0.015574551380416737,-0.06390977985675174,-0.06825270802747208,-0.3169817598245117,0.26447028461726946
316,14.581518499995582,0.05870105527227884,0.0325263378740335,-0.041332056815830756,0.04729171655135689,0.12830884583940041,-0.1380068474547863,0.01618618500693801,0.014025466443493204,-0.06261486841149845,-0.06823999201055228,-0.3172356512160805,0.2656869035616181
317,14.586058500004585,0.058932260908171295,0.03315327353855061,-0.04200694540369554,0.047369969303108654,0.12837357298341928,-0.13830954116229408,0.015852887026211283,0.012475259875746728,-0.061314103236062824,-0.06821718822220242,-0.31744110642454887,0.2668669235333388
318,14.591205699995044,0.05916384481965416,0.03378050688891716,-0.04268329708247761,0.047446594220044144,0.12843072516413342,-0.13860586675967065,0.0155197247553267,0.01092416770672379,-0.0600076633706598,-0.06818456304638111,-0.31759836867715796,0.2680102449976885
319,14.595487099999444,0.059395799056636035,0.03440800091207864,-0.04336108067726562,0.04752159208227807,0.12848029863055022,-0.13889579696483975,0.015186745512200471,0.00937242473674242,-0.05869572830782979,-0.06814238848487283,-0.3177076972987776,0.2691167813600849
320,14.600090200008708,0.059628115673400914,0.03503571857945916,-0.04404026488202131,0.047594963897818754,0.12852229077554372,-0.139179305373545,0.01485399527338005,0.007820264461827525,-0.0573784779337893,-0.06809094109348388,-0.31776936621139573,0.27018645696484306
321,14.604253600002266,0.05986078672970532,0.035663622852533425,-0.04472081826387214,0.04766671089595717,0.1285567001293033,-0.1394563664611413,0.014521518654919295,0.006267919006166354,-0.05605609248021074,-0.06803050053888947,-0.31778366189039997,0.2712192046771992
322,14.608338499994716,0.06009380429184303,0.03629167668836594,-0.045402709267412175,0.047736834520586316,0.12858352635248252,-0.13972695558417841,0.014189358901111115,0.004715619067010314,-0.05472875248919592,-0.06796134825857084,-0.31775088110188904,0.27221496348482327
323,14.61271570000099,0.06032716043367694,0.03691984304511612,-0.046085906219010195,0.04780533642348016,0.1286027702291096,-0.13999104898185022,0.01385755787845461,0.003163593869236171,-0.053396638788488326,-0.0678837667243732,-0.31767132917010577,0.2731736772060988
324,14.616912900004536,0.060560847237638125,0.037548084887508174,-0.04677037733112474,0.047872218457554086,0.12861443365929234,-0.1402486237773361,0.013526156071582522,0.0016120711271745015,-0.05205993246906631,-0.06779803912233806,-0.31754531898000576,0.2740952941769316
325,14.621190300007584,0.06079485679569189,0.03817636519226496,-0.04745609070662533,0.047937482670104066,0.12861851965175558,-0.14049965797903122,0.013195192580356311,6.127700891548169e-05,-0.050718814863415146,-0.06770444909251286,-0.3173731708719884,0.27497976712978683
326,14.625427599996328,0.06102918121027073,0.038804646953504975,-0.0481430143431195,0.04800113129603871,0.1286150323161975,-0.14074413048167572,0.012864705118335588,-0.0014885639008342206,-0.049373467524301974,-0.06760328034233759,-0.3171552126049657,0.27582705314279066
327,14.63080600000103,0.061263812595174306,0.039432893188101524,-0.0488311161372851,0.048063166751103475,0.12860397685546415,-0.14098202106737762,0.01253473001365028,-0.003037228636084847,-0.04802407220354514,-0.06749481596850693,-0.31689177923131984,0.2766371137967645
328,14.635785399994347,0.06149874307643618,0.04006106694100326,-0.04952036388920729,0.04812359162512126,0.1285853595575606,-0.14121331040653456,0.012205302214095248,-0.004584495885485035,-0.04667081082925495,-0.06737933815235933,-0.31658321334931483,0.27740991588826036
329,14.641930400001002,0.06173396479315774,0.040689131290515296,-0.05021072530671983,0.048182408675266374,0.12855918778747444,-0.1414379800586344,0.01187645529097841,-0.0061301460301211984,-0.04531386547763688,-0.0672571283763775,-0.31622986547357085,0.2781454332165023
330,14.646125100000065,0.06196946989830929,0.04131704935353987,-0.05090216800974994,0.04823962081934272,0.12852546997881775,-0.14165601247290144,0.011548221442100222,-0.00767396118305843,-0.0439534183327745,-0.06712846714792965,-0.3158320942665389,0.2788436485264901
331,14.65063820000796,0.06220525055949822,0.04194478429077581,-0.05159465953466589,0.048295231129086895,0.12848421562526427,-0.14186739098870413,0.011220631498300748,-0.00921572522940132,-0.04258965163944916,-0.06699363335944489,-0.31539026577428736,0.279504553378723
332,14.654396700003415,0.062441298959704725,0.04257229931187553,-0.05228816733862582,0.04834924282351031,0.1284354352717999,-0.1420720998357404,0.010893714932690033,-0.01075522385836873,-0.041222747664195654,-0.06685290356680197,-0.31490475174249793,0.28012814607553294
333,14.659218000000692,0.06267760729798492,0.04319955768055902,-0.05298265880392715,0.04840165926229247,0.12837914050584662,-0.1422701241340648,0.01056749987424509,-0.01229224458690243,-0.03985288866838101,-0.06670655128254711,-0.3143759281935989,0.28071442979561706
334,14.663128700005473,0.062914167790142,0.04382652271968412,-0.05367810124235569,0.04845248393925597,0.12831534394828228,-0.14246144989401094,0.010242013123945301,-0.013826576777840919,-0.03848025688748518,-0.06655484638804951,-0.31380417482801376,0.28126341244195346
335,14.671277200002804,0.06315097266936562,0.04445315781627278,-0.054374461899534265,0.04850172047591736,0.128244059244387,-0.14264606401601607,0.009917280174112461,-0.015358011657678448,-0.037105034505665595,-0.06639805433657221,-0.31318987543941934,0.2817751079143318
336,14.675789100001566,0.06338801418684002,0.0450794264264929,-0.05507170795927012,0.04854937261515111,0.12816530105468946,-0.1428239542902951,0.009593325232331924,-0.016886342338795778,-0.03572740362260567,-0.0662364357151149,-0.3125334183506505,0.2822495371300441
337,14.680237900000066,0.06362528461232157,0.04570529208059514,-0.055769806547900355,0.0485954442149742,0.12807908504569604,-0.14299510939634136,0.009270171245073306,-0.018411363841477863,-0.03434754621810756,-0.06607024615499414,-0.3118351960086193,0.28268672783806637
338,14.684289500000888,0.06386277623468611,0.04633071838780419,-0.056468724738634464,0.04863993924244081,0.1279854278805221,-0.1431595189022546,0.00894783992248523,-0.019932873112187086,-0.03296564412075599,-0.06589973620469246,-0.3110956036001229,0.28308671329331964
339,14.68809009999677,0.06410048136244687,0.04695566904116404,-0.0571684295558932,0.04868286176766917,0.1278843472094426,-0.14331717326393562,0.008626351763258253,-0.02145066903205783,-0.0315818789854631,-0.06572515147176648,-0.31031503710525343,0.2834495305683035
340,14.692764599996735,0.06433839232424343,0.047580107822336966,-0.057868887979643235,0.04872421595797916,0.1277758616604403,-0.14346806382419494,0.008305726078033216,-0.02296455241615215,-0.030196432278627085,-0.06554673263767799,-0.30949389245292186,0.28377521928841914
341,14.697127899999032,0.06457650146930242,0.04820399860635643,-0.058570066949727335,0.048764006072147835,0.12765999082976368,-0.14361218281180244,0.007985981014119278,-0.024474326013704074,-0.0288094852680325,-0.06536471542798782,-0.3086325657444809,0.2840638207156716
342,14.701080099999672,0.06481480116787035,0.04882730536633382,-0.059271933370189725,0.04880223645478851,0.1275367552724728,-0.14374952334049726,0.007667133579193457,-0.025979794509560002,-0.027421219016960867,-0.06517933079104929,-0.3077314533412563,0.2843153771979024
343,14.70456440000271,0.0650532838116193,0.04944999217811901,-0.05997445411359659,0.048838911530837845,0.12740617649298314,-0.14388007940798,0.007349199664272885,-0.027480764525278166,-0.026031814379471784,-0.0649908046894349,-0.306790951827324,0.28452993225951395
344,14.709427199995844,0.06529194181402602,0.0500720232249147,-0.06067759602535159,0.048874035800159345,0.1272682769356007,-0.14400384589487653,0.007032194069452052,-0.028977044620205367,-0.02464145199362719,-0.06479935774283846,-0.30581145759221706,0.2847075308687152
345,14.713863700002548,0.06553076761072484,0.05069336280184449,-0.061381325928006256,0.048907613832281885,0.1271230799750553,-0.14412081856366388,0.006716130530363789,-0.03046844528849961,-0.023250312274161574,-0.0646052053769623,-0.30479336617168873,0.2848482193398118
346,14.718198899994604,0.06576975365983533,0.05131397532047477,-0.062085610625565,0.04893965026126174,0.12697060990706477,-0.14423099405756254,0.006401021742461929,-0.03195477895376632,-0.021858575406660825,-0.0644085581061718,-0.303737072320123,0.2849520450964993
347,14.723727999997209,0.06600889244226509,0.051933825313290584,-0.06279041690778468,0.04897014978065834,0.12681089193892073,-0.14433436989940548,0.006086879384720849,-0.03343585996678839,-0.020466421342544998,-0.06420962141455966,-0.30264297052233474,0.28501905685622725
348,14.728918399996472,0.06624817646198827,0.05255287743812554,-0.06349571155446858,0.048999117138627826,0.12664395218007488,-0.14443094449048138,0.005773714145080091,-0.034911504605162534,-0.019074029791445977,-0.06400859557739663,-0.3015114553753856,0.2850493054883399
349,14.734313000008116,0.06648759824630046,0.05317109648254574,-0.06420146133975464,0.049026557133147394,0.1264698176327283,-0.1445207171093292,0.005461535745888279,-0.03638153107475955,-0.017681580207806493,-0.06380567591412496,-0.30034292268314466,0.28504284544159797
350,14.738921900003334,0.06672715034605052,0.05378844736818771,-0.06490763303639771,0.04905247460735745,0.12628851618240358,-0.1446036879104505,0.005150352966876072,-0.037845759520054166,-0.016289251769311338,-0.06360105293680968,-0.2991377710609018,0.2849997364162573
351,14.742625099999714,0.06696682533584997,0.05440489515505025,-0.06561419342004517,0.04907687444501036,0.12610007658843314,-0.14467985792289328,0.004840173669149755,-0.0393040120412619,-0.014897223347150712,-0.06339491214207349,-0.29789640255389405,0.28492004458047265
352,14.75000149999687,0.06720661581426038,0.05502040504573943,-0.06632110927350532,0.04909976156604705,0.12590452847436392,-0.1447492290486738,0.00453100482019693,-0.0407561127107117,-0.013505673472567564,-0.06318743395192011,-0.2966192224907425,0.2848038428893016
353,14.75456970000232,0.06744651440395953,0.055634942389666674,-0.06702834739100764,0.04912114092229002,0.1257019023182858,-0.14481180406103356,0.004222852518458239,-0.0422018875885509,-0.012114780304004364,-0.06297879383237898,-0.29530663887103337,0.2846512106822421
354,14.758849999998349,0.06768651375188674,0.05624847268719931,-0.06773587458245414,0.049141017493260025,0.12549222944308278,-0.14486758660254018,0.003915722017173932,-0.04364116473313476,-0.010724721597582377,-0.06276916244202972,-0.29395906089883633,0.28446223299782275
355,14.762889499994344,0.0679266065293681,0.0568609615937634,-0.06844365767766102,0.04915939628210206,0.12527554200665997,-0.144916581183056,0.0036096177475045594,-0.04507377420240433,-0.00933567468094467,-0.06255870564748715,-0.2925768973990205,0.2842369994738128
356,14.768980399996508,0.06816678543222209,0.05747237492389878,-0.06915166353059019,0.04917628231162789,0.12505187299218132,-0.14495879317758337,0.0033045433422262517,-0.04649954804880394,-0.00794781643447999,-0.06234758453823179,-0.29116055574596017,0.2839756029636105
357,14.77281999999832,0.06840704318084606,0.05808267865526653,-0.06985985902356992,0.0491916806204736,0.12482125619834616,-0.1449942288240498,0.003000501658706523,-0.04791832031019284,-0.006561323278683207,-0.06213595521774518,-0.289710441430686,0.28367813875981596
358,14.777039699998568,0.06864737252028436,0.05869183893260904,-0.07056821107150471,0.04920559625936652,0.12458372622971584,-0.14502289522102982,0.002697494804640095,-0.049329927000533846,-0.005176371162964644,-0.06192396837247661,-0.2882269588957617,0.2833447044776221
359,14.78102750000835,0.06888776622027835,0.059299822071662976,-0.07127668662607364,0.04921803428753423,0.12433931848708114,-0.14504480032542078,0.002395524165235755,-0.05073420610896155,-0.003793135554149758,-0.06171176925664912,-0.28671051397535974,0.28297540154252965
360,14.79187020000245,0.06912821707529943,0.059906594563025196,-0.07198525267991757,0.049228999769237135,0.12408806915779809,-0.1450599529500523,0.002094590429100624,-0.052130997614309685,-0.0024117914107539603,-0.0614994974393389,-0.2851615174140428,0.2825703385667875
361,14.796398699996644,0.06936871790456517,0.06051212307597133,-0.07269387627081411,0.049238497770430274,0.12383001520601343,-0.14506836276111088,0.0017946936178979648,-0.05352014351855668,-0.0010325131384955476,-0.06128728592641505,-0.28358038811961567,0.2821296344774915
362,14.800749999994878,0.06960926155203973,0.0611163744622262,-0.0734025244858397,0.04924653335558569,0.12356519436267363,-0.14507004027531456,0.001495833120809822,-0.054901487893132414,0.0003445254659900034,-0.06107526069882723,-0.28196755354305175,0.2816534192005384
363,14.806597300004796,0.06984984088641898,0.061719315759684805,-0.07411116446551695,0.04925311158469093,0.12329364511529803,-0.14506499685678773,0.0011980077287056144,-0.056274876916075495,0.0017191512663191195,-0.06086354090700309,-0.28032344664199715,0.2811418311586113
364,14.810622100005276,0.07009044880110153,0.0623209141960828,-0.07481976340794617,0.049258237510405214,0.12301540669762477,-0.1450532447137359,0.0009012156667055699,-0.057640158888674416,0.003091191818201953,-0.06065223898912995,-0.278648502471468,0.28059501425154804
365,14.814852099996642,0.07033107821414615,0.06292113719261633,-0.07552828857292028,0.049261916175376085,0.1227305190792214,-0.14503479689500937,0.0006054546271937468,-0.05899718423931705,0.004460475391110618,-0.06044146080470305,-0.27694315667534103,0.2800131167094387
366,14.818759100002351,0.0705717220682165,0.06351995236751103,-0.07623670728602269,0.04926415260971808,0.1224390229550932,-0.14500966728656633,0.00031072180107674343,-0.06034580552539414,0.005826830988916145,-0.06023130578464928,-0.27520784524732333,0.2793962909460646
367,14.82279330000165,0.07081237333051398,0.0641173275395403,-0.07694498694270772,0.049264951828634794,0.12214095973527513,-0.14497787060783493,1.7013909330058237e-05,-0.061685877434813526,0.0071900883701248594,-0.060021866662776625,-0.2734430044854418,0.2787446936158944
368,14.827080999995816,0.07105302499269918,0.06471323073149268,-0.07765309501236294,0.04926431883020574,0.12183637153442543,-0.14493942240797866,-0.0002756727631195462,-0.06301725678745902,0.008550078069072169,-0.05981322935603855,-0.27164907151416323,0.2780584861642708
369,14.831107999998494,0.07129367007080314,0.0653076301735884,-0.07836099904235302,0.04926225859333942,0.12152530116140334,-0.14489433906205135,-0.000567342334677905,-0.06433980254180562,0.009906631421534097,-0.05960547305460825,-0.2698264856976749,0.2773378361551883
370,14.838001500000246,0.07153430160512884,0.06590049430684493,-0.07906866666204462,0.04925877607587984,0.12120779210879795,-0.14484263776701237,-0.0008579992940810839,-0.06565337581018561,0.011259580598893029,-0.05939866995427312,-0.26797569048556424,0.27658291963430703
371,14.84208740000031,0.07177491266014387,0.06649179178639128,-0.07977606558681126,0.04925387621288198,0.12088388854235688,-0.1447843365375478,-0.0011476484650648191,-0.06695783988343555,0.012608758656835146,-0.05919288492834341,-0.266097134930631,0.2757939231558045
372,14.846226900001056,0.0720154963243651,0.06708149148473025,-0.08048316362201732,0.049247563915063464,0.12055363529027431,-0.14471945420160992,-0.0014362949701568026,-0.0682530602609909,0.013953999589317869,-0.058988175765814714,-0.26419127359234945,0.27497104339387113
373,14.8504743000085,0.07225604571023629,0.06766956249494806,-0.08118992866697945,0.04923984406743381,0.12021707783232563,-0.1446480103957111,-0.0017239441976728942,-0.06953890467458981,0.01529513837347172,-0.05878459367771757,-0.2622585643637356,0.2741144854589994
374,14.85462749999715,0.07249655395399932,0.06825597413387045,-0.08189632871890452,0.049230721528068525,0.11987426228892392,-0.1445700255600246,-0.0020106017704562807,-0.07081524309713702,0.016632011007118454,-0.0585821829398737,-0.26029946638794504,0.2732244618307575
375,14.8603579000046,0.07273701421555977,0.06884069594516544,-0.08260233187680317,0.04922020112704372,0.11952523541016796,-0.14448552093331196,-0.0022962735093835307,-0.0720819477460534,0.017964454543246456,-0.05838098008913436,-0.25831443950778826,0.27230119247440154
376,14.864667100002409,0.07297741967834784,0.06942369770239237,-0.08330790634537823,0.049208287665566786,0.11917004456486603,-0.14439451854768698,-0.0025809653942512577,-0.07333889308676184,0.019292307128668133,-0.05818101364043506,-0.25630394466703066,0.271344905688547
377,14.868879200002992,0.07321776354917539,0.07000494941199746,-0.08401302043888707,0.04919498591529313,0.11880873772954983,-0.1442970412231654,-0.002864683524517889,-0.07458595583995731,0.0206154080467768,-0.05798230399781174,-0.2542684452803397,0.27035583807724994
378,14.872785600004136,0.07345803905809017,0.07058442131625553,-0.08471764258497684,0.049180300617840365,0.11844136347742729,-0.14419311256201117,-0.0031474340793209853,-0.07582301499847673,0.021933597755931303,-0.057784863439570386,-0.2522084089594476,0.2693342335365833
379,14.877283399997395,0.07369823945822815,0.0711620838961576,-0.08542174132849154,0.049164236484495694,0.11806797096723162,-0.1440827569429112,-0.003429223278074122,-0.07704995185143312,0.023246717922312088,-0.05758869632635176,-0.2501243077652743,0.2682803423767226
380,14.881364300003042,0.07393835802566484,0.07173790787424368,-0.08612528533525031,0.04914679819611503,0.1176886099319384,-0.14396599951500055,-0.0037100573425169338,-0.07826665000354859,0.024554611449728876,-0.057393799339148545,-0.2480166165272719,0.26719442181426156
381,14.885818399998245,0.07417838805926669,0.07231186421738017,-0.08682824339579623,0.04912799040320116,0.11730333066742574,-0.14384286619174597,-0.00398994245963735,-0.079472995382869,0.025857122517286498,-0.057200161449862244,-0.24588581201014434,0.2660767390959516
382,14.896378000004916,0.07441832288054315,0.07288392413948185,-0.08753058442911478,0.0491078177261651,0.11691218402111593,-0.14371338364460315,-0.004268884743433987,-0.08066887625195612,0.027154096639710513,-0.0570077637130928,-0.24373237477275977,0.2649275767225723
383,14.900685200002044,0.0746581558335006,0.07345405910417824,-0.08823227748632068,0.049086284755777795,0.11651522138052636,-0.14357757929631088,-0.004546890195804235,-0.08185418323376327,0.028445380756048598,-0.056816579012854536,-0.24155679232431934,0.26374723718426246
384,14.908308199999738,0.0748978802844989,0.07402224082742384,-0.08893329175431085,0.049063396053813636,0.11611249466165832,-0.14343548131368172,-0.004823964665832149,-0.08302880935366216,0.029730823336258847,-0.05662657173506647,-0.23935956222061508,0.2625360445194822
385,14.912652400002116,0.07513748962211149,0.07458844128005103,-0.08963359655938082,0.049039156153899886,0.11570405629713731,-0.14328711859985482,-0.005100113807476864,-0.08419265009556812,0.031010274485141723,-0.05643769791622257,-0.23714119323840305,0.2612943430515016
386,14.920939100004034,0.07537697725699032,0.07515263269026438,-0.090333161370802,0.04901356956257354,0.11528995922405356,-0.14313252078607122,-0.00537534304031295,-0.08534560345544008,0.03228358603658425,-0.05624990612217871,-0.23490220314281807,0.26002249518765
387,14.925266699996428,0.07561633662173628,0.07571478754607483,-0.09103195580435772,0.04898664076051435,0.11487025687157965,-0.1429717182230059,-0.0056496575158043,-0.0864875699755942,0.033550611635991344,-0.05606313817710691,-0.23264311490905779,0.25872087857358245
388,14.929387500000304,0.07585556117077613,0.07627487859767298,-0.09172994962583585,0.04895837420393114,0.11444500314847575,-0.14280474197173776,-0.005923062085166131,-0.08761845276129093,0.03481120680672807,-0.05587732972822293,-0.23036445328311925,0.25738988280611297
389,14.93344259999867,0.07609464438024652,0.07683287885974123,-0.09242711275447658,0.04892877432610883,0.11401425243054526,-0.14263162379443262,-0.0061955612711560816,-0.08873815748144806,0.03606522900043641,-0.05569241116979221,-0.22806674201284308,0.25602990614343324
390,14.93773200000578,0.07633357974788597,0.0773887616137045,-0.09312341526637406,0.04889784553907034,0.11357805954813308,-0.14245239614482155,-0.006467159244963462,-0.089846592358176,0.03731253763133742,-0.05550830786566205,-0.22575050264445123,0.254641353124653
391,14.941940799995791,0.07657236079293521,0.07794250040992023,-0.09381882739783112,0.04886559223534939,0.1131364797736834,-0.14226709215854874,-0.006737859800174416,-0.09094366815573342,0.038552994103291625,-0.055324939687549465,-0.2234162548640811,0.253224633632267
392,14.94601590000093,0.07681098105604642,0.07849406906980758,-0.09451331954866661,0.048832018789906784,0.11268956880934594,-0.14207574564338551,-0.007007666325150391,-0.09202929817339914,0.039786461834941805,-0.0551422208077754,-0.22106451756850218,0.25178016266708286
393,14.95084200000565,0.07704943409920229,0.07904344168791626,-0.09520686228547455,0.04879712956217302,0.11223738277460342,-0.1418783910693325,-0.00727658177496838,-0.09310339824488836,0.04101280628457451,-0.05496006001085382,-0.21869580992187385,0.2503083601711262
394,14.954793900004006,0.07728771350564526,0.07959059263393495,-0.09589942634483474,0.04876092889823873,0.11177997819388341,-0.14167506355859083,-0.0075446086468435175,-0.0941658867415488,0.042231894973532656,-0.054778361720585235,-0.21631065135705482,0.24880965010551934
395,14.959059700006035,0.07752581287981794,0.08013549655463907,-0.09659098263647395,0.04872342113313742,0.11131741198415461,-0.1414657988754355,-0.007811748962103698,-0.09521668457178961,0.04344359750206824,-0.05459702653606733,-0.21390956008686038,0.24728445982440117
396,14.9630632000044,0.07776372584731468,0.080678128375778,-0.09728150224637758,0.048684610593212,0.11084974144254431,-0.14125063341603175,-0.008078004246848828,-0.09625571516973304,0.04464778556663832,-0.05441595139519594,-0.2114930505578528,0.24573322095284136
397,14.966853799996898,0.07800144605484509,0.08121846330390187,-0.09797095643985136,0.04864450159858645,0.1103770242340455,-0.14102960419813942,-0.008343375515522793,-0.09728290446976769,0.045844332984334664,-0.05423503015545777,-0.20906163156147897,0.244156370548863
398,14.971283899998523,0.07823896717020974,0.08175647682812871,-0.09865931666453245,0.04860309846569289,0.10989931837938295,-0.14080274885069066,-0.008607863257246873,-0.09829818087674655,0.04703311572153233,-0.05405415387607658,-0.20661580651700598,0.24255435221777516
399,14.98023749999993,0.07847628288228842,0.08229214472185273,-0.0993465545533493,0.04856040550987675,0.1094166822430115,-0.14057010560321442,-0.00887146742214819,-0.0993014752433045,0.048214011929205984,-0.05387321165179965,-0.20415607522691387,0.24092761801805135
400,14.987218599999323,0.07871338690104125,0.08282544304439411,-0.1000326419274294,0.048516427048057385,0.10892917452120371,-0.1403317132750691,-0.009134187415838947,-0.10029272085720595,0.04938690199019833,-0.053692092160880535,-0.2016829357074696,0.2392766310375015
401,14.992749800003368,0.07895027295752295,0.08335634814259099,-0.100717550798954,0.048471167401387204,0.10843685423017174,-0.14008761126440528,-0.009396022100868175,-0.10127185343654643,0.050551668579704785,-0.05351068436415454,-0.19919688491876478,0.23760186661171034
402,14.999172600000747,0.07918693480390994,0.0838848366523332,-0.10140125337395801,0.04842463089789809,0.10793978069420194,-0.1398378395368074,-0.009656969798030724,-0.10223881112423254,0.05170819672444566,-0.05332887740107861,-0.19669841819882614,0.23590381119370454
403,15.005322400000296,0.07942336621354042,0.08441088550003831,-0.10208372205507374,0.04837682187514777,0.10743801353383063,-0.13958243861367844,-0.00991702828680335,-0.10319353447765493,0.05285637385210787,-0.05314656039620691,-0.19418802847396194,0.23418296061150423
404,15.009839400008786,0.07965956098096737,0.08493447190406983,-0.10276492944421732,0.04832774468286192,0.10693161265407955,-0.1393214495603986,-0.010176194804763027,-0.10413596645545359,0.05399608983349392,-0.0529636220575994,-0.19166620611103066,0.23243981834369853
405,15.0155597999983,0.07989551292202443,0.08545557337609835,-0.10344484834521678,0.04827740368558626,0.10642063823276098,-0.13905491397429812,-0.010434466044099621,-0.10506605240574755,0.05512723701511654,-0.05277995002158554,-0.18913343909599567,0.2306748937929848
406,15.019147600003636,0.08013121587390482,0.08597416772240551,-0.10412345176638095,0.04822580326536273,0.10590515070882817,-0.13878287397249753,-0.010691838144632754,-0.1059837400546446,0.056249710244480736,-0.05259543018298653,-0.18659021251252547,0.22888870063153802
407,15.0227295000077,0.08036666369525332,0.08649023304513126,-0.10480071292300874,0.04817294782444978,0.10538521077079271,-0.13850537217963355,-0.010948306683780953,-0.10688897948937708,0.05736340688651315,-0.05240994635342866,-0.18403700788725882,0.22708175458629956
408,15.026480400003493,0.08060185026627181,0.0870037477434647,-0.10547660523983815,0.04811884178809657,0.10486087934523976,-0.13822245171553876,-0.01120386666624035,-0.107781723140415,0.05846822682720712,-0.05222338066278951,-0.18147430324913622,0.22525457128039814
409,15.031529700005194,0.08083676948883838,0.08751469051477916,-0.10615110235343514,0.04806348960736408,0.10433221758542008,-0.13793415618293192,-0.01145851251787583,-0.10866192576518155,0.05956407246896341,-0.052035614318175855,-0.1789025725198907,0.2234076654290962
410,15.035390599994573,0.08107141528664033,0.08802304035571157,-0.10682417811452241,0.04800689576195899,0.10379928685992441,-0.13764052965514315,-0.011712238082814706,-0.10952954442421149,0.06065084872637991,-0.05184652782703748,-0.17632228420414392,0.22154155100176054
411,15.03962870000396,0.08130578160532106,0.08852877656318689,-0.10749580659024836,0.04794906476308321,0.10326214874150848,-0.13734161666384534,-0.011965036619517623,-0.11038453845206929,0.06172846302317477,-0.051656000878232154,-0.17373390055555402,0.21965674146351755
412,15.043722200003684,0.08153986241264091,0.08903187873538831,-0.10816596206639599,0.047890001156306115,0.10272086499605139,-0.13703746218680948,-0.012216900796710263,-0.11122686942536104,0.062796825290337,-0.05146391229789651,-0.17113787652021148,0.21775375069736863
413,15.047912800000631,0.08177365169865203,0.08953232677267381,-0.10883461904953222,0.04782970952445383,0.10217549757169321,-0.1367281116356541,-0.01246782268902313,-0.11205650112332996,0.0638558479720584,-0.05127014042072089,-0.16853465942474666,0.21583309360991976
414,15.055402500001946,0.0820071434758875,0.09003010087844021,-0.10950175226909713,0.04776819449052409,0.10162610858817835,-0.1364136108435426,-0.012717793776550494,-0.11287339949282117,0.06490544602980187,-0.05107456428061636,-0.16592469050839928,0.21389528548174086
415,15.059007999996538,0.0822403317795647,0.09052518155993565,-0.11016733667943308,0.04770546072057977,0.10107276032633536,-0.13609400605289296,-0.012966804952122608,-0.11367753262384504,0.06594553694188665,-0.050877064891382294,-0.1633084065456687,0.21194084129649837
416,15.063294499996118,0.08247321066780268,0.09101754962902087,-0.1108313474617539,0.04764151292659276,0.10051551521765911,-0.1357693439030792,-0.013214846533376373,-0.11446887073039477,0.06697604070100242,-0.05067752597537111,-0.16068624033833093,0.20997027459259926
417,15.06689479999477,0.08270577422185327,0.09150718620287986,-0.1114937600260538,0.04757635586921956,0.09995443583397799,-0.13543967141816535,-0.013461908277146375,-0.11524738613081655,0.06799687980257546,-0.05047583415664921,-0.15805862014766373,0.20798409637881113
418,15.07167770000524,0.08293801654634561,0.09199407270468024,-0.11215455001295675,0.04750999436050452,0.09938958487722782,-0.13510503599472043,-0.01370797939342267,-0.11601305322308016,0.06900797923168873,-0.05027187829194649,-0.15542596874354725,0.20598281480769884
419,15.075638700000129,0.0831699317695437,0.092478190864184,-0.11281369329550642,0.04744243326651912,0.09882102516936069,-0.13476548538968036,-0.013953048553205413,-0.11676584845585918,0.0700092664482576,-0.05006554841382912,-0.15278870258658397,0.20396693471179733
420,15.080459200005862,0.08340151404361663,0.09295952271830928,-0.11347116598089685,0.04737367750998843,0.09824881964240138,-0.13442106770830778,-0.014197103892137776,-0.11750575029581115,0.07100067136941847,-0.04985673559642427,-0.15014723091820895,0.20193695754487845
421,15.084337599997523,0.08363275754492187,0.09343805061164392,-0.11412694441214483,0.04730373207289492,0.09767303132867591,-0.1340718313922259,-0.01444013301704875,-0.11823273918976841,0.0719821263541307,-0.049645332208776406,-0.1475019553303096,0.1998933811757758
422,15.08887710000272,0.08386365647430091,0.09391375719691188,-0.11478100516970367,0.047232601999041016,0.09709372335123731,-0.1337178252075288,-0.014682123012061274,-0.11894679752781365,0.07295356618355102,-0.049431231810523835,-0.14485327045047972,0.19783669917098515
423,15.092808200002764,0.08409420505738754,0.09438662543539317,-0.11543332507301941,0.047160292396593195,0.09651095891445487,-0.13335909823300712,-0.014923060444115828,-0.11964790961216538,0.07391492803862659,-0.049214329449529734,-0.14220156431279432,0.19576740008075735
424,15.096787899994524,0.08432439754492843,0.09485663859729833,-0.11608388118202956,0.047086808440590606,0.09592480129474396,-0.13299569984847712,-0.015162931371986323,-0.1203360616238759,0.07486615147349485,-0.048994522197674174,-0.1395472181350518,0.19368596645911873
425,15.100461699999869,0.08455422821311585,0.09532378026209787,-0.11673265079860524,0.04701215537540108,0.0953353138314806,-0.13262767972326625,-0.015401721357038217,-0.12101124158954049,0.07580717838350245,-0.0487717090020393,-0.13689060698877484,0.19159287453498214
426,15.105230600005598,0.08478369136393228,0.09578803431880789,-0.11737961146793753,0.04693633851712463,0.09474255991805652,-0.13225508780485482,-0.015639415470790525,-0.12167343935454102,0.07673795297539199,-0.0485457903576908,-0.13423210045350453,0.18948859450904068
427,15.108800100002554,0.0850127813255066,0.0962493849662322,-0.11802474097986856,0.0468593632559756,0.09414660299305515,-0.13187797430765266,-0.015875998302477115,-0.12232264655614744,0.07765842173822148,-0.04831666857506409,-0.13157206257273676,0.18737359079309965
428,15.11662339999748,0.08524149245248197,0.0967078167131617,-0.11866801737016823,0.04678123505861231,0.09354750653156942,-0.13149638970192498,-0.016111453969221,-0.1229588565963309,0.07856853341588925,-0.048084248122669294,-0.12891085215097478,0.18524832278301925
429,15.12132500000007,0.08546981912639479,0.09716331437853168,-0.11930941892175713,0.046701959470419746,0.09294533403664339,-0.13111038470283745,-0.01634576612694375,-0.12358206461776736,0.07946823898560491,-0.047848435776125575,-0.1262488233050844,0.18311324560401449
430,15.125136800008477,0.08569775575606485,0.09761586309153761,-0.1199489241658762,0.04662154211773268,0.09234014903082452,-0.13072001025959235,-0.016578917981995796,-0.12419226748203718,0.08035749163769552,-0.04760914075141596,-0.1235863252703255,0.1809688096482951
431,15.129303199995777,0.08592529677799607,0.09806544829170988,-0.12058651188320356,0.04653998871000473,0.09173201504781824,-0.13032531754467097,-0.016810892303367714,-0.12478946374373384,0.08123624674955945,-0.04736627464578429,-0.12092370141789895,0.17881545913155272
432,15.133511200008796,0.08615243665678779,0.09851205572894807,-0.12122216110491903,0.04645730504191215,0.09112099562429316,-0.12992635794322424,-0.017041671433743102,-0.12537365361906525,0.08210446185136991,-0.04711975087235501,-0.1182612886307513,0.17665363093326134
433,15.137461899998016,0.08637916988555606,0.09895567146351564,-0.12185585111371731,0.04637349699541493,0.09050715429184242,-0.12952318304265018,-0.017271237296186272,-0.12594483895386419,0.0829620965886989,-0.04686948445133915,-0.1155994169005319,0.17448375428203475
434,15.141974900005152,0.08660549098636512,0.09939628186599564,-0.12248756144477073,0.046288570541795235,0.08989055456910144,-0.12911584462234962,-0.01749957140315529,-0.12650302318825213,0.08380911268514678,-0.04661539266520019,-0.11293840886740633,0.17230625048954787
435,15.146234700005152,0.08683139451066854,0.09983387361720841,-0.12311727188664227,0.04620253174363047,0.08927125995405448,-0.12870439464366887,-0.01772665486959042,-0.12704821132015376,0.08464547390236675,-0.04635739538630973,-0.11027857993840655,0.1701215324439711
436,15.1508324000024,0.08705687503976,0.10026843370809214,-0.1237449624821501,0.046115386756703826,0.08864933391650881,-0.1282888852400459,-0.017952468425128258,-0.12758040987111702,0.0854711459977454,-0.04609541483798432,-0.10762023900178076,0.16793000407461264
437,15.155490500008456,0.08728192718523314,0.10069994943954702,-0.12437061352918433,0.04602714183185804,0.08802483989073523,-0.12786936870736643,-0.01817699242485559,-0.12809962685680662,0.0862860966791969,-0.04582937560982469,-0.10496368917171946,0.1657320605438444
438,15.161726699996509,0.08750654558945038,0.1011284084222439,-0.1249942055814773,0.04593780331680087,0.08739784126823053,-0.12744589749455187,-0.018400206861673377,-0.12860587176009983,0.08709029556471864,-0.04555920525370515,-0.10230922781757779,0.16352808969148583
439,15.167327400005888,0.08773072492602044,0.10155379857639774,-0.12561571944932842,0.04584737765783804,0.0867684013906208,-0.12701852419431048,-0.018622091382873233,-0.12909915550186546,0.0878837141512966,-0.045284835264919644,-0.09965714631088253,0.1613184732279475
440,15.172057500007211,0.0879544599002841,0.10197610813150695,-0.1262351362002841,0.04575587140151681,0.08613658354270941,-0.12658730153402903,-0.01884262531208691,-0.129579490411588,0.08866632578611758,-0.045006202094445884,-0.09700773006997826,0.1591035877427118
441,15.17977279999468,0.08817774524980776,0.10239532562605894,-0.12685243715977354,0.04566329119614445,0.08550245094566732,-0.12615228236680529,-0.01906178767575227,-0.13004689019858282,0.08943810564532712,-0.044723247685537454,-0.09436125868011883,0.15688380595475657
442,15.183939399998051,0.08840057574488407,0.10281143990720285,-0.12746760391170112,0.04556964379317325,0.08486606675036223,-0.1257135196625472,-0.0192795572303051,-0.13050136992379346,0.090199030717458,-0.044435919428213635,-0.09171800608481095,0.15465949634237255
443,15.188073199999051,0.08862294618903896,0.10322444013038998,-0.12808061829899522,0.04547493604845336,0.08422749403082448,-0.12527106649916728,-0.01949591248820047,-0.1309429459728763,0.09094907977857157,-0.04414416992117089,-0.0890782409446541,0.15243102119351803
444,15.191982699994696,0.08884485141954455,0.10363431575898273,-0.12869146242411456,0.045379174923363554,0.08358679577783912,-0.12482497605392459,-0.019710831742778493,-0.13137163603150362,0.09168823335663885,-0.043847956362198945,-0.08644222650416893,0.1501987350567432
