,time,x,y,z,vx,vy,vz,ax,ay,az,jx,jy,jz
0,10.69849689998955,0.0026715452056538624,-0.04294513233742411,0.0544340871741192,0.005010535301930388,-0.008201691510975669,0.004799530294961758,0.0383772098666369,0.03371779963304556,0.003520329617669391,0.11727790261454532,0.1440308032859911,0.014259951288855863
1,10.702548899993417,0.0026935132005660735,-0.042980193582126354,0.05445482085846854,0.005177151643199102,-0.00805492290908778,0.004814846538342492,0.038883630752697906,0.03433983040740156,0.0035823933253013246,0.11754382734287087,0.14439796105883498,0.014517784206269696
2,10.706640599993989,0.0027162045420932217,-0.04301461601049029,0.05447562118090113,0.005345954711568447,-0.007905467999452827,0.004830432868384136,0.039391170765111075,0.03496341065016832,0.0036455634632094414,0.11779677018930203,0.14474924628820385,0.01477293880312704
3,10.710901799990095,0.0027396286722593047,-0.0430483880217391,0.054496489316625506,0.005516949213210457,-0.007753320246676971,0.004846294032338226,0.03989977359608257,0.0355884716941254,0.0037098281948349586,0.11803658525382862,0.14508456477569023,0.015025283218848735
4,10.71500379999634,0.002763795052862842,-0.043081497987546784,0.05451742646121556,0.005690139610077743,-0.00759847341241221,0.004862434725177919,0.040409382310049806,0.03621494447359556,0.003775175115448506,0.11826312734991636,0.14540382577116656,0.015274685657850463
5,10.719198299993876,0.0027887131644176917,-0.043113934253323064,0.05453843383037978,0.005865530117202688,-0.007440921557041597,0.004878859587148618,0.04091993934680551,0.03684275953852625,0.0038415912515913715,0.11847625204096991,0.1457069418541264,0.015521014205608035
6,10.723522100000991,0.002814392505082241,-0.043145685139505396,0.05455951265971992,0.006043124700009922,-0.007280659041309737,0.004895573201311352,0.04143138652484281,0.03747184706913024,0.003909063060608251,0.11867581573961615,0.14599382906321848,0.015764137379891314
7,10.72898400000122,0.00284084258957704,-0.043176738942857944,0.05458066420447904,0.006222927071644367,-0.007117680527881705,0.004912580091089372,0.04194366504533574,0.03810213689108448,0.003977576434843569,0.11886167584766545,0.14626440678817157,0.016003924920087766
8,10.735511099992436,0.002868072948090944,-0.04320708393777705,0.054601889739279,0.0064049406903180514,-0.0069519809828424385,0.004929884717847727,0.042456715496691666,0.03873355848923844,0.0040471167079831226,0.11903369088303543,0.1465185980076988,0.01624024773310636
9,10.739626999988104,0.002896093125175859,-0.043236708377603135,0.05462319055784766,0.006589168756677427,-0.006783555677137406,0.004947491478494568,0.04297047785962667,0.03936604102486521,0.004117668658783753,0.11919172062836197,0.14675633010013792,0.01647297797973833
10,10.744453999999678,0.0029249126786301746,-0.0432656004959386,0.054644567972735654,0.00677561421119396,-0.006612400187923184,0.004965404703092895,0.04348489151299991,0.0399995133563626,0.004189216518159959,0.1193356262581401,0.14697753486512322,0.01670198982063136
11,10.748924999992596,0.0029545411783710005,-0.04329374850797136,0.05466602331502299,0.0069642797315817824,-0.006438510399829553,0.004983628652522992,0.043999895239985785,0.04063390405669118,0.004261743979348522,0.11946527037512608,0.1471821476804181,0.016927159675768595
12,10.75386919999437,0.0029849882052953225,-0.043321140611803664,0.05468755793401566,0.007155167730241522,-0.0062618825061596505,0.005002167516181857,0.044515427234222284,0.04126914142680204,0.00433523420723344,0.11958051701775713,0.14737010704786435,0.017148366364926386
13,10.757277899989276,0.0030162633501301895,-0.043347764989785965,0.05470917319693241,0.007348280351730991,-0.006082513010036238,0.005021025409726074,0.04503142510604715,0.04190515350915808,0.0044096698497221795,0.11968123169530985,0.14754135456100764,0.017365491432031414
14,10.76176399999531,0.0030483762122720513,-0.043373609809855614,0.054730870488581856,0.007543619470262812,-0.005900398725485213,0.005040206372869383,0.04554782588894954,0.04254186810088247,0.004485033049868592,0.11976728146560313,0.14769583486177223,0.01757841928564121
15,10.765475799998969,0.0030813363986153587,-0.043398663226880095,0.05475265121103027,0.007741186687230758,-0.005715536778468456,0.0050597143672301195,0.04606456604647645,0.04317921276690624,0.004561305458460979,0.11983853500795022,0.147833495672914,0.017787037274593364
16,10.769332899988513,0.0031151535223705633,-0.04342291338400463,0.05477451678326013,0.007940983328766959,-0.005527924607853928,0.0050795532742373755,0.04658158147931368,0.04381711485339668,0.00463846824679758,0.11989486262587601,0.1479542876035351,0.01799123575300049
17,10.773468599989428,0.003149837201871646,-0.043446348414003765,0.054796468640819836,0.008143010443329319,-0.00533755996633268,0.005099726893088646,0.04709880753221572,0.04445550149922721,0.0047165021198353,0.11993613620795184,0.14805816406249153,0.018190908361188057
18,10.777808399987409,0.003185397059373305,-0.043468956440636905,0.05481850823546464,0.008347268799318503,-0.005144440921290011,0.005120238938769411,0.04761617900074884,0.04509429964865889,0.00479538733138863,0.11996222918311787,0.14814508129084253,0.018385952414802252
19,10.781948799995009,0.0032218427198379266,-0.04349072558000741,0.05484063703478929,0.008553758882723528,-0.004948565855613082,0.005141093040141892,0.04813363013783557,0.04573343606309015,0.004875103700634915,0.11997301650792058,0.1482149981457066,0.01857626901309648
20,10.785879199989722,0.0032591838097124656,-0.04351164394192508,0.05486285652185246,0.008762480894795192,-0.004749933468460718,0.005162292738107011,0.04865109466038774,0.04637283733187381,0.00495563062824738,0.11996837470437076,0.14826787611099215,0.018761763157719286
21,10.79004689998692,0.003297429955695346,-0.04353169963127192,0.05488516819479354,0.008973434749748892,-0.00454854277597771,0.005183841483832318,0.049168505756177504,0.04701242988415938,0.005036947113925086,0.11994818191323377,0.14830367921098464,0.018942344012112203
22,10.794322199988528,0.0033365907834935235,-0.043550880749370746,0.05490757356644181,0.009186620072497324,-0.004344393111962468,0.005205742637065165,0.04968579609093005,0.04765213999896462,0.005119031774763588,0.11991231796636072,0.14832237397793116,0.019117924944894085
23,10.798277599998984,0.0033766759165698304,-0.043569175395356756,0.05493007416391863,0.009402036196414477,-0.00413748412849444,0.005227999464519102,0.050202897815818624,0.04829189381673829,0.005201862863159131,0.11986066449350313,0.14832392946275005,0.019288423789164844
24,10.802700599990205,0.003417694974880749,-0.04358657166755153,0.05495267152823272,0.009619682161132998,-0.00392781579650202,0.0052506151383415,0.050719742575478614,0.048931617349524045,0.005285418287416126,0.11979310503843124,0.14830831679189668,0.019453763004678857
25,10.806979299988598,0.0034596575736047545,-0.04360305766483948,0.05497536721386914,0.00983955671037731,-0.0037153884063022935,0.00527359273467771,0.05123626151650423,0.0495712364887006,0.005369675631050292,0.11970952514600965,0.14827550921059646,0.019613869396895047
26,10.810890699998708,0.003502573321861399,-0.04361862148804654,0.05499816278837217,0.010061658289834269,-0.0035002025681021764,0.005296935232305199,0.05175238529621377,0.05021067701551859,0.00545461217097259,0.11960981244763448,0.14822548220174145,0.01976867400877241
27,10.815119099992444,0.0035464518214212842,-0.04363325124132089,0.0550210598319225,0.0102859850450619,-0.0032822592124472677,0.00532064551135457,0.05226804409188323,0.050849864609866346,0.00554020489585897,0.11949385678863644,0.1481582130210913,0.019918111991036005
28,10.819176399993012,0.0035913026654071064,-0.043646935033515584,0.055044059936909105,0.010512534819439702,-0.0030615595906473714,0.005344726352102158,0.05278316761061064,0.051488724856797306,0.0056264305232151856,0.11936155038363358,0.14807368081612834,0.02006212256981944
29,10.823762499989243,0.0036371354369859484,-0.043659660979572905,0.055067164707496,0.010741305152162478,-0.002838105275169043,0.005369180433838255,0.05329768509988977,0.05212718325632104,0.005713265517467417,0.1192127880162284,0.14797186692876926,0.020200648852017954
30,10.829722999988007,0.0036839597080530174,-0.04367141720191036,0.05509037575918435,0.010972293276281849,-0.0026118981599766514,0.00539401033381576,0.05381152535919707,0.05276516523254194,0.005800686105348021,0.11904746722977083,0.14785275462510988,0.020333637338897977
31,10.8336685999966,0.0037317850379070443,-0.04368219183180803,0.05511369471837017,0.011205496116800034,-0.002382940460846093,0.005419218526251128,0.05432461675221098,0.05340259614111895,0.00588866828979043,0.1188654884376278,0.14771632886842984,0.02046103798013483
32,10.837774499988882,0.003780620971917577,-0.04369197301079722,0.05513712322189779,0.011440910288816775,-0.002151234715641505,0.005444807381392878,0.05483688721935007,0.05403940127644616,0.0059771878657810425,0.11866675499300372,0.14756257616785784,0.02058280424941548
33,10.841689599998062,0.003830477040184395,-0.04370074889205023,0.05516066291660955,0.011678532095731272,-0.0019167837845670364,0.005470779164659282,0.05534826429059462,0.054675505877807055,0.006066220434906294,0.1184511732406913,0.14739148441616176,0.02069889309046987
34,10.845374999989872,0.003881362756189292,-0.04370850764177117,0.05518431545889183,0.011918357527499712,-0.0016795908503904739,0.005497136035832366,0.05585867509847119,0.05531083513515587,0.0061557414207389985,0.1182186525623492,0.14720304273846851,0.020809265122453704
35,10.848893199989108,0.00393328761544046,-0.04371523744058765,0.05520808251421776,0.012160382258949207,-0.001439659418645143,0.00552388004832832,0.0563680463912648,0.055945314193966866,0.0062457260851571,0.11796910542797126,0.14699724144902232,0.020913884499363013
36,10.8526559999882,0.003986261094109726,-0.04372092648494333,0.05523196575668696,0.012404601648149298,-0.0011969933178117005,0.005551013148532267,0.05687630454644744,0.05657886816064265,0.006336149542517292,0.11770244746069805,0.1467740720295271,0.021012718780346214
37,10.856869399998686,0.00404029264766289,-0.0437255629884912,0.05525596686856254,0.012651010734841732,-0.000951596699473384,0.005578537175190943,0.057383375584449337,0.05721142210717665,0.006426986774855046,0.11741859753277072,0.146533527139985,0.021105739027034484
38,10.860922199994093,0.0040953917094834185,-0.04372913518348748,0.055280087539805595,0.012899604238930756,-0.0007034740384575843,0.0056064538588785845,0.05788918518291522,0.0578429010766549,0.006518212646897833,0.11711747789794062,0.14627560067274437,0.021192919598042596
39,10.865392699997756,0.004151567689489754,-0.04373163132218606,0.05530432946760758,0.013150376559035875,-0.00045263013294363416,0.005634764821519112,0.05839365869161777,0.05847323008838479,0.0066098019194924616,0.1167990143068967,0.14600028748224023,0.02127423790045781
40,10.86953279998852,0.0042088299727465256,-0.0437330396782334,0.05532869435592068,0.013403321771110793,-0.00019907010456014044,0.005663471575967847,0.058896721147709566,0.059102334141065485,0.006701729262474584,0.11646313604465691,0.1457075832120351,0.02134967396822336
41,10.873443699994825,0.004267187918069951,-0.04373334854806378,0.0553531839149866,0.013658433627127734,5.7200601534576674e-05,0.005692575525644713,0.0593982972909591,0.059730138216424714,0.006793969264459075,0.11610977596084403,0.14539748420834747,0.02141920992155855
42,10.877569599993876,0.004326650856627693,-0.04373254625229487,0.05537779986086377,0.013915705553827819,0.00031617621658652345,0.0057220779642004034,0.05989831157926389,0.060356567281643264,0.006886496441046362,0.11573887050198124,0.14506998745518618,0.021482829783267862
43,10.881565399991814,0.004387228090533479,-0.043730621137123594,0.055402543914953216,0.014175130651539202,0.0005778506481865073,0.0057519800752203745,0.060396688204165085,0.0609815462924322,0.006979285243028249,0.11535035973601494,0.1447250905311038,0.0215405193057399
44,10.88601239999116,0.004448928891436769,-0.04372756157572219,0.05542741780352326,0.014436701693061278,0.0008422174802307215,0.005782282931961798,0.06089335110657211,0.06160500019508434,0.00707231006310189,0.11494418742525715,0.14436279140381963,0.021592265581862877
45,10.89025529999344,0.0045117624991077455,-0.04372335596963441,0.05545242325723311,0.014700411122618471,0.001109269972878917,0.00581298749711547,0.0613882239929065,0.0622268539277798,0.007165545240719285,0.11452030104792801,0.14398308854912834,0.02163805683952506
46,10.89422509999713,0.0045757381200179584,-0.043717992750171956,0.05547756201065548,0.014966251054883695,0.0013790010625262478,0.005844094622584596,0.06188123035101236,0.06284703242366325,0.007258965067028567,0.11407865177111286,0.14358598102655487,0.021677882582177906
47,10.89841689998866,0.004640864925916892,-0.043711460379810906,0.05550283580179829,0.015234213274069392,0.0016514033617879887,0.005875605049289326,0.06237229346606694,0.06346546061280206,0.0073525437909360185,0.11361919445899196,0.1431714683388413,0.021711733545684442
48,10.902642699991702,0.004707152052404766,-0.043703747353588285,0.05552824637162561,0.015504289233088244,0.0019264691594882727,0.005907519406997832,0.06286133643656207,0.06408206342405141,0.007446255623675133,0.11314188763488765,0.14273955063732152,0.021739601460345617
49,10.906876900000498,0.004774608597501865,-0.04369484220049861,0.055553795463577894,0.015776470052782068,0.0022041904206608963,0.005939838214170255,0.06334828218988735,0.06469676578878412,0.007540074742815811,0.11264669339624224,0.1422902288840774,0.021761478964551394
50,10.910905199998524,0.004843243620214687,-0.04368473348489042,0.05557948482309157,0.01605074652121695,0.002484558786570232,0.005972561877824367,0.06383305349757817,0.06530949264415453,0.007633975296088554,0.1121335773307406,0.14182350474387811,0.02177735943180257
51,10.91517290000047,0.004913066139099191,-0.043673409807862676,0.05560531619711813,0.016327109093043676,0.002767565574740189,0.00600569069341251,0.06431557299017536,0.06592016893589614,0.007727931403901511,0.11160250845813002,0.14133938060573226,0.02178723703547281
52,10.919369499999448,0.004984085130821433,-0.04366085980866101,0.055631291333642634,0.016605547888921053,0.003053201778999258,0.006039224844708966,0.0647957631719713,0.06652871962177144,0.007821917163723323,0.11105345923468134,0.14083785946398553,0.02179110695429547
53,10.923342399997637,0.005056309528715835,-0.04364707216607374,0.05565741198120185,0.016886052695003536,0.0033414580695392314,0.0060731644037247045,0.06527354643590809,0.06713506967334387,0.00791590665437275,0.11048640559721103,0.1403189448751505,0.021788965080469472
54,10.927667999989351,0.005129748221341401,-0.043632035599827645,0.05568367988840204,0.017168612962493064,0.0036323247929755335,0.0061075093306317595,0.06574884507870339,0.06773914407905525,0.008009873937883572,0.10990132704584847,0.1397826410443067,0.021780807630504426
55,10.9320083999919,0.005204410051036123,-0.043615738871983424,0.055710096803436394,0.017453217807257174,0.003925791972432487,0.0061422594736940585,0.06622158131646255,0.06834086784674302,0.008103793060437263,0.10929820675358648,0.1392289528035427,0.021766630993841393
56,10.9358663999883,0.005280303812469899,-0.043598170788330746,0.05573666447360226,0.017739856009515505,0.004221849307625357,0.00617741456919985,0.0666916773007495,0.06894016600653174,0.008197638052922063,0.10867703167124823,0.1386578859794709,0.021746431668044772
57,10.94036849999975,0.005357438251196238,-0.04357932019978301,0.055763384644818,0.018028516013596542,0.004520486174970563,0.0062129742413973505,0.06715905513510428,0.0695369636165206,0.00829138293130661,0.10803779261984779,0.1380694473715621,0.021720205945307693
58,10.944335699998192,0.005435822062203079,-0.043559176003771426,0.05579025906113962,0.01831918592776661,0.004821691627716782,0.0062489380024303995,0.06762363689191073,0.070131185765488,0.008385001694494723,0.1073804843065268,0.137463644449534,0.021687949328616576
59,10.948712999990676,0.00551546388846302,-0.043537727145638666,0.05581728946427714,0.018611853524132114,0.005125454396078488,0.0062853052522556,0.06808534462905143,0.07072275757596869,0.008478468319662737,0.10670510526390957,0.13684048539655352,0.021649656185945314
60,10.953100499988068,0.005596372319483292,-0.04351496262003179,0.05584447759311044,0.018906506238612213,0.005431762887393609,0.006322075278537748,0.06854410040625228,0.07131160420733099,0.008571756757131278,0.10601165787555251,0.1361999792390179,0.02160531951246875
61,10.956803099994431,0.005678555889855755,-0.0434908714722945,0.05587182518320476,0.01920313117098205,0.005740605186283601,0.006359247256522743,0.068999826301957,0.07189765085997349,0.008664840923651398,0.10530014849623806,0.1355421361707479,0.021554930627735055
62,10.961070599994857,0.005762023077807246,-0.04346544279985875,0.055899333966325467,0.019501715084990975,0.00605196905484731,0.006396820248875098,0.06945244443070935,0.07248082278119884,0.008757694694664094,0.10457058756727651,0.13486696739088633,0.021498479175722625
63,10.965039899994736,0.005846782303750591,-0.043438665753635274,0.055927005669952116,0.019802244408555738,0.006365841932871719,0.006434793205484075,0.06990187696102225,0.07306104526801209,0.00885029189758692,0.10382298974029101,0.13417448501750134,0.021435953297865865
64,10.969131299993023,0.005932841928836621,-0.043410529539403386,0.05595484201679158,0.020104705234032846,0.006682210938049943,0.006473164963243293,0.07034804613382784,0.0736382436722492,0.008942606305566075,0.1030573739502437,0.1334647026171416,0.021367339719474254
65,10.973522999993293,0.006020210253507536,-0.043381023419199666,0.05598284472429017,0.020409083318570907,0.0070010628662362205,0.006511934245802962,0.07079087428097651,0.0742123434079435,0.009034611631508491,0.10227376341706051,0.13273763536702451,0.02129262384703809
66,10.977550299998256,0.006108895516051957,-0.04335013671270551,0.056011015504144675,0.020715364084542574,0.007322384191727449,0.006551099663298006,0.07123028384370098,0.07478326995785321,0.009126281522673295,0.10147218562254677,0.13199329993621295,0.02121178959523932
67,10.98172139999224,0.006198905891162017,-0.04331785879863342,0.056039356061812096,0.021023532620056157,0.007646161067574488,0.006590659712053652,0.0716661973909162,0.07535094887980294,0.009217589553211655,0.10065267226297772,0.1312317141720703,0.021124819203248244
68,10.985677299991949,0.006290249488492826,-0.04328417911611185,0.05606786809601816,0.021333573679545425,0.007972379325918396,0.006630612774249192,0.07209853763727447,0.07591530581050651,0.009308509217173574,0.09981525916549953,0.1304528971217845,0.021031693504939386
69,10.990471099998103,0.006382934351224653,-0.04324908716606861,0.05609655329826417,0.021645471684436972,0.008301024478334711,0.006670957117563248,0.0725272274607442,0.07647626647209407,0.00939901392337868,0.09895998616755541,0.12965686949733846,0.02093239196127179
70,10.994193599995924,0.006476968454628144,-0.04321257251261274,0.05612541335233244,0.021959210723891655,0.008632081716225991,0.0067116908947932935,0.0729521899196249,0.07703375667994593,0.009489076988702345,0.09808689701999472,0.1288436534484745,0.020826892638712746
71,10.99841829999059,0.006572359704632898,-0.04317462478441452,0.05615444993378987,0.022274774555618732,0.008965535911233672,0.006752812143442996,0.07337334826929018,0.07758770234726114,0.009578671632760348,0.0971960393032471,0.12801327231399037,0.020715172414656716
72,11.00251130000106,0.0066691159363997145,-0.043135233676083795,0.0561836647094898,0.022592146606761735,0.009301371615670018,0.00679431878529589,0.07379062597847959,0.07813802949074602,0.009667770972966987,0.0962874643686725,0.12716575080554476,0.020597206793652255
73,11.00677179999184,0.006767244912896808,-0.04309438894954625,0.056213059337071956,0.02291130997485314,0.009639573062979046,0.006836208625960091,0.07420394674553574,0.07868466423676826,0.009756348017634477,0.09536122733533386,0.12630111524552637,0.020472970004638175
74,11.01115779999236,0.006866754323480289,-0.043052080435417785,0.05624263546446034,0.023232247428840308,0.00998012416822157,0.006878479354382442,0.07461323451466828,0.07922753282909731,0.009844375661869836,0.09441738703810738,0.12541939357784396,0.020342435390087274
75,11.017078699995182,0.006967651782479229,-0.04300829803437658,0.056272394729358965,0.02355494141018045,0.010323008528602892,0.00692112854235783,0.0750184134917434,0.07976656163515164,0.009931826684031133,0.09345600600050517,0.1245206151300188,0.020205575157471293
76,11.021163799989154,0.00706994482778559,-0.04296303171853292,0.056302338758745574,0.023879374034002778,0.010668209424011735,0.0069641536440127666,0.07541940816031338,0.08030167715168686,0.010018673739480457,0.09247715045826496,0.12360481074304296,0.02006236014140481
77,11.02533059999405,0.007173640919449312,-0.04291627153279663,0.056332469168362875,0.024205527090341735,0.011015709817597003,0.0070075519952608155,0.07581614329760956,0.08083280601216314,0.010104889354988352,0.09148089031444075,0.12267201281449781,0.01991275984683194
78,11.029371299999184,0.00727874743827888,-0.04286800759624192,0.05636278756220756,0.02453338204543711,0.011365492356370266,0.007051320813237902,0.07620854399018454,0.0813598749928053,0.01019044592285933,0.0904672991310741,0.12172225529855903,0.019756742676123686
79,11.033617599998252,0.007385271684447628,-0.042818230103469586,0.056393295532016705,0.024862920043102203,0.0117175393718348,0.00709545719570707,0.07659653564983324,0.08188281101997026,0.010275315697295305,0.08943645411864537,0.12075557377106559,0.019594276264077302
80,11.037256799987516,0.007493220876106107,-0.04276692932596648,0.05642399465675161,0.025194121906161278,0.01207183288065162,0.007139958120462417,0.07698004402914414,0.08240154117676847,0.010359470791410882,0.08838843604282189,0.11977200525632727,0.01942532752123151
81,11.040757299997496,0.007602602148000792,-0.04271409561346195,0.05645488650207908,0.02552696813795188,0.01242835458532564,0.007184820444708108,0.07735899523661598,0.08291599270893732,0.010442883173970444,0.08732332916483783,0.11877158821627821,0.01924986289335738
82,11.045083999997589,0.007713422550099405,-0.04265971939528136,0.05648597261984993,0.025861438923892675,0.01278708587492237,0.007230040904434162,0.07773331575169458,0.083426093031369,0.010525524668641869,0.08624122117019277,0.11775436265879827,0.01906784856672264
83,11.048630699995556,0.007825689046223149,-0.0426037911816964,0.056517254547574836,0.026197514133115492,0.013148007825810392,0.007275616113789029,0.07810293243927456,0.08393176973491835,0.010607366952504275,0.0851422030508321,0.11672037022400995,0.018879250554664145
84,11.052844499994537,0.007939408512686107,-0.042546301565272164,0.05654873380789745,0.026535173320158256,0.013511101202436778,0.0073215425644425035,0.07846777256371984,0.08443295059367513,0.010688381556048534,0.08402636898756226,0.11566965409792675,0.018684035151585118
85,11.05678819998866,0.008054587736942084,-0.042487241222210766,0.05658041190806476,0.02687439572671797,0.013876346458132297,0.007367816624958305,0.07882776380235097,0.08492956357102696,0.010768539865601301,0.08289381628799657,0.1146022589908037,0.018482169181522956
86,11.060824399988633,0.008171233416239125,-0.0424266009136915,0.05661229033939479,0.02721516028345999,0.014243723735939141,0.007414434540177904,0.0791828342589304,0.08542153682674485,0.010847813125469737,0.08174464538389113,0.11351823126672042,0.01827362007392798
87,11.065049599987104,0.008289352156281961,-0.04236437148720731,0.056644370576741654,0.027557445611887346,0.014613212869477244,0.007461392430611603,0.0795329124771268,0.08590879872416395,0.010926172441019219,0.08057895970413737,0.11241761878163725,0.01805835615548757
88,11.069109699994442,0.00840895046990266,-0.04230054387789745,0.056676654077957966,0.027901230026266155,0.014984793383833959,0.007508686291848908,0.07987792745290472,0.08639127783587211,0.01100358878333541,0.07939686554762274,0.11130047089400202,0.017836346833874278
89,11.07350869999209,0.008530034775739676,-0.04223510910987632,0.056709142283354844,0.028246491535601815,0.015358444496479443,0.007556311993989831,0.08021780864689222,0.08686890295098217,0.011080032993887027,0.07819847205492896,0.11016683861627703,0.01760756251126887
90,11.077613399989788,0.008652611396925547,-0.04216805829755821,0.05674183661515941,0.028593207845671112,0.015734145118219068,0.007604265281095481,0.08055248599652638,0.08734160308212754,0.01115547578844193,0.07698389110146178,0.10901677459319133,0.017371974465455586
91,11.081640899996271,0.008776686559783477,-0.042099382646977886,0.05677473847697005,0.02894135636110318,0.01611187385416915,0.007652541770653144,0.080881889927499,0.08780930747254698,0.011229887760704198,0.07575323731927425,0.10785033320993664,0.01712955490391782
92,11.086127099988516,0.008902266392532983,-0.04202907345710698,0.056807849253209294,0.029290914187510342,0.01649160900477048,0.007701136953058257,0.0812059513660904,0.08827194560401344,0.011303239386696863,0.07450662822677837,0.10666757051650928,0.016880277028658856
93,11.09368409999297,0.009029356924004856,-0.0419571221211658,0.0568411703085746,0.029641858133675463,0.016873328566832442,0.007750046191117287,0.08152460175173405,0.08872944720326621,0.011375501028958136,0.0732441841609541,0.1054685441192472,0.01662411509022875
94,11.09712700000091,0.009157964082365681,-0.04188352012793071,0.05687470298748697,0.02999416471379118,0.017257010234602032,0.007799264719565904,0.08183777304876555,0.08918174224900419,0.011446642941390191,0.07196602820736059,0.10425331339760782,0.016361044333661836
95,11.10301319998689,0.009288093693852114,-0.04180825906303673,0.056908448613537575,0.0303478101497486,0.017642631400868306,0.007848787644613688,0.08214539775838356,0.0896287609801879,0.011516635272989044,0.07067228628364512,0.10302193966611825,0.01609104076076097
96,11.107275499991374,0.009419751481515137,-0.041731330610275376,0.056942408488932415,0.030702770373479706,0.01803016915810301,0.00789860994349448,0.08244740893111914,0.0900704339044299,0.011585448070642735,0.06936308717469841,0.10177448617405194,0.015814081205698705
97,11.110832599995774,0.00955294306397455,-0.04165272655288744,0.05697658389393508,0.031059021029353633,0.0184196002996374,0.00794872646403522,0.08274374017909993,0.09050669180629392,0.011653051283513363,0.06803856251432565,0.10051101819219387,0.01553014339982694
98,11.115061899996364,0.009687673954183898,-0.04157243877485065,0.05701097608630772,0.03141653747662485,0.018810901320874474,0.007999131924244101,0.08303432568836136,0.09093746575643376,0.011719414766394338,0.06669884682222771,0.09923160304529781,0.01523920603661281
99,11.119147599994903,0.009823949558206068,-0.04149045926216203,0.05704558630075021,0.031775294791935645,0.019204048420544625,0.008049820911908373,0.08331910023142988,0.09136268712017244,0.011784508284652558,0.06534407753649384,0.09793630991742137,0.014941248955375385
100,11.123378899996167,0.009961775173999819,-0.04140678010411469,0.057080415748337665,0.032135267771872845,0.019599017501991865,0.00810078788422512,0.08359799917991445,0.09178228756496182,0.011848301519170622,0.06397439503365042,0.09662521002500106,0.014636253000829815
101,11.127521999995224,0.010101155990217428,-0.04132139349456912,0.05711546561595643,0.03249643093557893,0.01999578417449384,0.008152027167441704,0.08387095851726267,0.09219619907045477,0.011910764070077405,0.06258994268689745,0.09529837683295268,0.014324200131045453
102,11.131578999993508,0.010242097085013738,-0.04123429173321858,0.057150737065738484,0.03285875852741878,0.020394323754634933,0.00820353295651872,0.08413791485185469,0.09260435393782893,0.011971865462621538,0.06119086694448549,0.09395588564353916,0.014005073655303383
103,11.135760799996206,0.010384603424866818,-0.041145467226848545,0.05718623123449453,0.03322222451970374,0.020794611267706715,0.008255299314821104,0.08439880543043542,0.09300668479631231,0.012031575152953802,0.059777317398344985,0.09259781365111112,0.013678858309931876
104,11.140019300000858,0.010528679863410504,-0.04105491249059003,0.05722194923314573,0.03358680261547426,0.021196621449137334,0.008307320173830974,0.08465356815180042,0.09340312461297931,0.012089862534654779,0.05834944680725759,0.09122424029868519,0.013345540312204014
105,11.144289999996545,0.010674331140279061,-0.04096262014916669,0.057257892146154316,0.03395246625134198,0.02160032874597646,0.008359589332895042,0.08490214158042804,0.09379360670235223,0.012146696944982181,0.05690741111103288,0.08983524713672286,0.013005107198106883
106,11.148574799997732,0.010821561879964246,-0.04086858293813535,0.057294061030953136,0.03431918860038999,0.022005707318407515,0.008412100458991347,0.08514446496028759,0.09417806473497906,0.012202047669999065,0.05545136948720681,0.08843091778060551,0.012657547541451186
107,11.15258090000134,0.010970376590684984,-0.040772793705120026,0.057330456917374276,0.03468694257513401,0.022412731041306606,0.008464847086520906,0.08538047822896054,0.09455643274666818,0.012255883948398128,0.05398148438302122,0.08701133774856983,0.012302850813388838
108,11.156680399988543,0.011120779663269974,-0.04067524541103906,0.0573670808070768,0.035055700830544476,0.02282137350583441,0.008517822617107434,0.08561012203172459,0.09492864514566815,0.012308174975418086,0.05249792157566333,0.08557659441783458,0.011941007457782288
109,11.161357699995278,0.011272775370053442,-0.040575931131325384,0.05740393367297364,0.035425435767129226,0.023231608021057053,0.00857102031942278,0.0858333377361945,0.09529463672152395,0.012358889907318132,0.051000850265985664,0.0841267772627495,0.01157200871846088
110,11.165122599995811,0.011426367863784327,-0.04047484405713964,0.057441016458657825,0.03579611953408185,0.023643407615614377,0.008624433329025245,0.0860500674472146,0.09565434265431107,0.01240799786380418,0.04949044308158045,0.08266197787667812,0.011195846585344551
111,11.16966390000016,0.011581561176549201,-0.04037197749657611,0.05747833007782798,0.036167724032492854,0.02405674503942048,0.008678054648205947,0.08626025402152616,0.09600769852368053,0.012455467932038573,0.04796687610680606,0.08118229009037221,0.010812513967049313
112,11.173294799998985,0.011738359218709157,-0.040267324875861134,0.05751587541371325,0.03654022091862454,0.024471592765410024,0.008731877145861724,0.0864638410829189,0.09635464031911412,0.012501269170555268,0.04643032889062017,0.07968780994002471,0.010422004453170488
113,11.17745429999195,0.01189676577785097,-0.04016087974054397,0.057553653318497676,0.03691358160725288,0.024887922991327208,0.00878589355737528,0.0866607730369659,0.09669510444869381,0.01254537061121894,0.044880984357250193,0.07817863559147144,0.010024312292812034
114,11.181665199997951,0.012056784517752817,-0.04005263575667981,0.057591664612744085,0.037287777275069475,0.025305707641547742,0.008840096484504985,0.08685099508540461,0.09702902774870313,0.012587741262954954,0.043319028806375115,0.0766548676316361,0.009619432816028308
115,11.1857597999915,0.01221841897736479,-0.0399425867120049,0.057629910084817534,0.0376627788641475,0.02572491836895065,0.008894478395297188,0.0870344532408733,0.0973563474949107,0.012628350117343926,0.04174465191601322,0.07511660899346098,0.009207362498796182
116,11.189956099988194,0.012381672569804505,-0.03983072651710341,0.05766839049030844,0.038038557085470784,0.026145526556837564,0.008949031624024288,0.08721109434131692,0.097677001411524,0.012667166152912164,0.04015804674467465,0.07356396460986941,0.008788098833188453
117,11.194072799989954,0.012546548581368062,-0.039717049206566005,0.05770710655145547,0.038415082422524026,0.02656750332088177,0.009003748371134056,0.08738086606474217,0.09799092767948787,0.01270415833960631,0.03855940986414922,0.07199704152154984,0.008361640478717174
118,11.19819299998926,0.012713050170556626,-0.0396015489401399,0.057746058956568265,0.03879232513494915,0.02699081951111908,0.0090586207032263,0.08754371694476883,0.09829806494636814,0.012739295644389305,0.03694894152743971,0.07041594906080002,0.007927987403024384
119,11.202390399994329,0.012881180367118921,-0.039484220003870245,0.0577852483594501,0.039170255262269665,0.027415445713982155,0.00911364055305046,0.08769959638683343,0.09859835233623597,0.012772547036928664,0.03532684578710436,0.06882079892757773,0.007487140816770839
120,11.20952839999518,0.013050942071109945,-0.03936505681123267,0.05782467537882059,0.039548842627686806,0.027841352254376627,0.009168799719531348,0.08784845468476146,0.09889172946020745,0.012803881494630773,0.03369333046802492,0.06721170517840004,0.007039102946806932
121,11.214468899997884,0.01322233805196621,-0.03924405390425671,0.05786434059773861,0.03992805684194684,0.028268509197806335,0.009224089867810162,0.08799024303673612,0.0991781364262323,0.012833268006372488,0.03204860707872376,0.06558878406390567,0.006583877014630012
122,11.218718599993736,0.01339537094759781,-0.039121205954640054,0.0579042445630253,0.04030786730727498,0.0286968863525339,0.009279502529302418,0.08812491356110551,0.09945751384823215,0.012860675577349594,0.030392890825173775,0.06395215410507932,0.006121467268463625
123,11.222181099990848,0.013570043263497603,-0.03899650776485332,0.057944387784687516,0.04068824322137902,0.02912645327178478,0.009335029101780794,0.08825241931247052,0.0997298028565468,0.012886073233085127,0.028726400715599617,0.06230193647143109,0.005651879048415842
124,11.225987099998749,0.013746357371867817,-0.03886995426923527,0.057984770735341556,0.04106915358152203,0.029557179255997962,0.009390660849467629,0.08837271429839608,0.09999494511033478,0.012909430024839913,0.027049359833236496,0.0606382554564337,0.005175118991953892
125,11.229456899993238,0.013924315510764356,-0.03874154053507822,0.05802539384963738,0.04145056718867017,0.029989033355136988,0.009446388903164444,0.08848575349785191,0.10025288281212084,0.01293071503539335,0.025361995528805595,0.05896123863977187,0.0046911948065630794
126,11.233631199997037,0.014103919783259191,-0.03861126176370328,0.05806625752368349,0.041832452651724444,0.030421984371066132,0.009502204260394312,0.08859149287958412,0.1005035587215961,0.012949897382492859,0.023664539266174966,0.05727101704963858,0.0042001153564439845
127,11.237753800000064,0.014285172156621171,-0.03847911329152527,0.05810736211447234,0.04221477839182698,0.03085600085998047,0.009558097785561128,0.0886898894192246,0.1007469161715655,0.012966946225382532,0.021957226463282565,0.05556772554096915,0.0037018911273164977
128,11.241358599989326,0.01446807446151556,-0.03834509059110701,0.058148707939306606,0.042597512646740394,0.03129105113491963,0.009614060210148297,0.08878090111629032,0.1009828990850108,0.012981830772262093,0.020240296451102497,0.05385150252491389,0.003196533966906402
129,11.245107599999756,0.01465262839122262,-0.03820918927220254,0.05819029527522634,0.0429806234753007,0.03172710326834505,0.009670082132942352,0.08886448701093887,0.10121145198870433,0.012994520284576924,0.0185139923681793,0.05212248975328944,0.0026840568040754935
130,11.248660899989773,0.014838835500875568,-0.0380714050827892,0.058232124358437116,0.0433640787619412,0.032164125094771144,0.009726154020268643,0.0889406072000579,0.10143252002841258,0.013004984082054171,0.016778561115219897,0.050380832783069665,0.002164474156638181
131,11.25297989998944,0.015026697206718185,-0.03793173391008813,0.05827419538373925,0.04374784622128421,0.03260208421347374,0.009782266206258404,0.08900922285362899,0.1016460489865168,0.013013191551373326,0.015034253368053998,0.048626681116335786,0.0016378024881573182
132,11.25680669999565,0.015216214785382369,-0.037790171781572984,0.058316508503958246,0.04413189340280611,0.033040947991273245,0.00983840889315923,0.08907029623092887,0.10185198529842386,0.013019112154280126,0.013281323445958004,0.0468601879958348,0.0011040600352214876
133,11.261151699989568,0.015407389373185996,-0.03764671486596644,0.05835906382937668,0.044516187695568796,0.033480683565384604,0.00989457215167214,0.08912379069575742,0.10205027606842326,0.013022715434767195,0.011520029300195607,0.04508151046974764,0.0005632669908925026
134,11.265062199992826,0.015600221965451291,-0.037501359474224324,0.05840186142716758,0.04490069633301609,0.033921257846337295,0.009950745921323993,0.0891696707325401,0.10224086908665667,0.013023971028770407,0.009750632665171488,0.04329080953136582,1.5446056136252457e-05
135,11.269166499987476,0.015794713415844052,-0.037354102060506926,0.05844490132082949,0.045285386397844136,0.03436263752097166,0.010006920010888199,0.08920790196285977,0.10242371284617985,0.013022848676106293,0.007973398978046595,0.04148825015210533,-0.0005393773978296574
136,11.273330399999397,0.015990864435734043,-0.03720493922313727,0.0584881834896235,0.045670224826940393,0.03480478905550608,0.01006308409886011,0.0892384511608657,0.10259875656021698,0.01301931823156886,0.006188597270204484,0.039674001433041665,-0.0011011753623129533
137,11.277381699997932,0.016188675593576823,-0.037053867705546,0.05853170786801242,0.04605517841638694,0.03524767869868214,0.010119227733973443,0.0892612862688692,0.10276595018052978,0.013013349676584254,0.0043965001836496825,0.037848236712795115,-0.0016699169316089426
138,11.28159990000131,0.016388147314317293,-0.03690088439720249,0.05857547434510224,0.04644021382653402,0.035691272484990245,0.010175340335776223,0.08927637641289406,0.10292524441560241,0.013004913132546413,0.002597383827881858,0.03601113351326154,-0.002245568097315136
139,11.286171399988234,0.016589279878815297,-0.036745986334531903,0.05861948276408628,0.046825297587137486,0.0361355362379717,0.010231411195262234,0.08928369191703751,0.10307659074854252,0.012993978874246017,0.0007915276496241942,0.03416287348581124,-0.0028280914999846305
140,11.290066399989882,0.01679207342329348,-0.03658917070181785,0.05866373292169211,0.04721039610255621,0.03658043557359871,0.010287429475562805,0.089283204317897,0.10321994145480201,0.012980517345348443,-0.0010207856452366206,0.03230364238983101,-0.003417446364340612
141,11.29430679998768,0.01699652793880773,-0.03643043483209027,0.058708224567631646,0.04759547565701398,0.037025935903729316,0.010343384212711776,0.08927488637825771,0.10335524961989301,0.012964499172381568,-0.0028392702613550206,0.030433630146163158,-0.004013588726105431
142,11.2984909999941,0.01720264327074042,-0.03626977620799827,0.058752957404054694,0.04798050241991502,0.03747200243964024,0.010399264316457945,0.08925871210005543,0.1034824691575696,0.012945895178257042,-0.004663637279702811,0.028553031000111237,-0.004616471194168019
143,11.302599799993914,0.0174104191183167,-0.03610719246266755,0.05879793108500604,0.048365442451217655,0.03791860019563864,0.010455058571146678,0.0892346567383593,0.10360155482894991,0.012924676398309692,-0.006493594532809259,0.026662043639666597,-0.005226042669552927
144,11.306615599998622,0.017619855034144108,-0.03594268138054211,0.05884314521588659,0.04875026170687046,0.038365693992759936,0.010510755636670711,0.08920269681541093,0.1037124622617177,0.012900814096243034,-0.008328846534260772,0.024760871227785548,-0.005842248269887124
145,11.310708699995304,0.017830950423775742,-0.03577624089820972,0.05888859935291869,0.04913492604430707,0.03881324846254518,0.010566344049489309,0.08916281013521528,0.10381514796952286,0.012874279780820248,-0.01016909432250205,0.022849721489946014,-0.006465029350824622
146,11.315003899988367,0.018043704545297273,-0.03560786910521108,0.05893429300261601,0.04951940122800814,0.03926122805090622,0.010621812223723048,0.08911497579892713,0.10390956937193836,0.012845045221624867,-0.012014035336262795,0.020928806778116198,-0.007094323484575797
147,11.319100299995624,0.0182581165089381,-0.035437564244831965,0.05898022562125836,0.04990365293512891,0.039709597022075264,0.010677148452308936,0.08905917422051664,0.10399568481441247,0.012813082465936973,-0.0138633632954752,0.01899834427600053,-0.007730063919384928
148,11.323578700001235,0.018474185276706908,-0.035265324714878254,0.05902639661437153,0.05028764676119632,0.04015831946264214,0.010732340908240766,0.088995387143183,0.10407345358999623,0.012778363859156558,-0.015716768185042897,0.0170585562589185,-0.008372179373961864
149,11.327467600000093,0.018691909662051958,-0.03509114906843331,0.05907280533621275,0.05067134822587811,0.04060735928569126,0.010787377645900412,0.08892359765516003,0.10414283596153746,0.012740862063452995,-0.017573936439111548,0.015109670147990254,-0.009020594275571604
150,11.332132299998191,0.01891128832954642,-0.0349150360145973,0.05911945108926209,0.05105472277881632,0.04105668023503036,0.010842246602459067,0.08884379020454027,0.10420379318387567,0.012700550076134591,-0.019434551086813794,0.013151918607305775,-0.009675228435525443
151,11.33633929998905,0.019132319794598986,-0.03473698441920808,0.05916633312371996,0.05143773580552426,0.041506245889518935,0.01089693559936699,0.0887559506138233,0.10425628752687423,0.012657401251097345,-0.02129829189764256,0.011185539705518012,-0.010335996714204525
152,11.340168099995935,0.019355002423190062,-0.03455699330554322,0.05921345063701137,0.05182035263334547,0.04195601966749562,0.010951432343939768,0.08866006609348588,0.10430028229900923,0.012611389320084081,-0.02316483559257235,0.009210777056745374,-0.011002809064256814
153,11.34461359999841,0.019579334431633795,-0.03437506185500264,0.05926080277329713,0.05220253853746783,0.04240596483131012,0.011005724431031452,0.08855612525470906,0.10433574187161715,0.012562488413760588,-0.025033855979829676,0.007227879940120775,-0.011675570335894104
154,11.34907869999006,0.019805313886366135,-0.03419118940777157,0.059308388622992515,0.05258425874699222,0.042856044491959795,0.011059799344802623,0.08844411812177709,0.10436263170351492,0.012510673084654304,-0.02690502400832416,0.005237103385578654,-0.012354180201427395
155,11.352642199999536,0.020032938703759214,-0.03400537546346323,0.05935620722229375,0.05296547845105362,0.04330622161383392,0.011113644460591406,0.08832403614434367,0.10438091836598766,0.012455918328881427,-0.028778007772410522,0.0032387083572841804,-0.013038533317359128
156,11.357063599993126,0.020262206649962217,-0.033817619681740796,0.05940425755271277,0.05334616280499562,0.04375645901956583,0.011167247046868958,0.08819587220978978,0.104390569568991,0.01239819960768736,-0.030652472459006125,0.00123296193825456,-0.013728519064869776
157,11.360826599993745,0.020493115340769016,-0.03362792188291825,0.05945253854062063,0.05372627693659805,0.044206719395003244,0.011220594267296295,0.08805962065594607,0.10439155418773141,0.012337492871412439,-0.03252808027205996,-0.0007798627998064025,-0.014424021538929556
158,11.36500839999644,0.020725662241512764,-0.03343628204853949,0.05950104905679997,0.05410578595236129,0.04465696529428965,0.011273673182886511,0.08791527728410227,0.10438384228774575,0.012273774581126311,-0.03440449039871503,-0.0027994868723224477,-0.015124919980931543
159,11.369452999992063,0.020959844666987738,-0.033242700321935326,0.059549787916007055,0.0544846549438461,0.045107159145050986,0.011326470754248233,0.08776283937202148,0.10436740515082753,0.012207021728861664,-0.03628135885347305,-0.004825625121779427,-0.015831088681361984
160,11.373429899991606,0.021195659781398625,-0.03304717700875785,0.05959875387654366,0.05486284899407019,0.0455572632537007,0.01137897384392238,0.08760230568829382,0.10434221530234986,0.012137211860088185,-0.03815833838653859,-0.006857986132108815,-0.016542396687696057
161,11.377819399989676,0.021433104598337544,-0.03284971257749169,0.059647945639839224,0.0552403331839719,0.04600723981086209,0.011431169218819481,0.08743367650614137,0.10430824653793029,0.012064323096466061,-0.04003507859133602,-0.008896272325398401,-0.017258708074820682
162,11.381765899990569,0.021672175980789084,-0.03265030765994157,0.05969736185004375,0.05561707259892582,0.04645705089690339,0.011483043552752713,0.08725695361684438,0.1042654739499195,0.011988334155987204,-0.041911225823934896,-0.010940179961605925,-0.017979882258634994
163,11.386236799997278,0.021912870641163533,-0.03244896305169584,0.059747001093631825,0.05599303233532229,0.04690665848758862,0.011534583429048962,0.08707214034424125,0.1042138739540686,0.011909224373023556,-0.04378642326189628,-0.012989399128772817,-0.018705773639089006
164,11.390142799995374,0.022155185141358676,-0.0322456797125653,0.05979686189901806,0.056368177507208114,0.04735602445984269,0.011585775343254803,0.08687924155764712,0.10415342431610222,0.01182697372154755,-0.04566031109413062,-0.015043613742464344,-0.019436231362420803
165,11.39418289999594,0.022399115892850305,-0.03204045876699697,0.05984694273618443,0.0567424732529775,0.04780511059763149,0.011636605705947862,0.08667826368471607,0.10408410417839069,0.011741562837231413,-0.04753252656378969,-0.0171025015560208,-0.02017109964561976
166,11.39850789999764,0.022644659156811735,-0.03183330150446221,0.05989724201631997,0.05711588474212373,0.04825387859795709,0.011687060845633437,0.08646921472398973,0.10400589408643465,0.01165297303786873,-0.04940270415177937,-0.01916573423152599,-0.020910217754674117
167,11.40242689999286,0.022891811044262557,-0.03162420937981878,0.0599477580914731,0.057488377182038315,0.04870229007696625,0.011737127011732018,0.08625210425617649,0.10391877601492508,0.011561186345661386,-0.05127047576680912,-0.02123297747492451,-0.021653419680249933
168,11.406930199998897,0.023140567516246803,-0.031413184013646255,0.05999848925421709,0.05785991582486,0.04915030657617045,0.011786790377668156,0.08602694345506065,0.10382273339306233,0.011466185510438806,-0.05313547084684205,-0.02330389102483906,-0.02240053415930155
169,11.411344299995108,0.023390924384040782,-0.031200227192554417,0.06004943373732905,0.058230465974368005,0.04959788956877282,0.011836037044058282,0.08579374509790649,0.10371775113071262,0.011367954031758477,-0.054997316457195695,-0.025378128598843374,-0.023151384902180997
170,11.415055499994196,0.023642877309390707,-0.03098534086946412,0.06010058971348289,0.058599992992920784,0.050045000466113765,0.011884853041990223,0.08555252357552123,0.10360381564419054,0.011266476180166086,-0.05685563751807286,-0.02745533827710186,-0.023905790419682587
171,11.419401899998777,0.023896421804780386,-0.030768527163860065,0.06015195529495656,0.058968462308436075,0.050491600624220326,0.011933224336394412,0.08530329490069634,0.10348091487910616,0.011161737020788,-0.058710057170469274,-0.02953516293477167,-0.024663563795887685
172,11.423452299990458,0.02415155323372906,-0.03054978836201517,0.06020352853335413,0.059335839421402456,0.050937651350448886,0.011981136829526916,0.08504607671511406,0.10334903833241757,0.011053722436550895,-0.06056019715038733,-0.03161724046886593,-0.02542451302342046
173,11.428050499991514,0.02440826681111958,-0.030329126917186047,0.06025530741934309,0.059702089911919,0.05138311391022476,0.01202857636454095,0.08478088829456072,0.10320817707332099,0.010942419148882245,-0.062405678129575856,-0.03370120426321287,-0.02618844087361989
174,11.43225519999396,0.024666557603556967,-0.03010654544977923,0.06030728988240718,0.06006717944675178,0.051827949533865096,0.012075528729148471,0.08450775055289392,0.10305832376129244,0.010827814742049878,-0.06424611983860717,-0.03578668343732725,-0.02695514447498256
175,11.436551699996926,0.024926420529757465,-0.0298820467474878,0.060359473790615334,0.06043107378640776,0.052272119423474116,0.012121979659401646,0.08422668604619413,0.10289947266483106,0.010709897687498911,-0.06608114111659034,-0.03787330281872157,-0.027724415724066677
176,11.440537299989955,0.025187850360968118,-0.029655633765398128,0.0604118569504071,0.06079373879222711,0.052715584759927686,0.012167914843564385,0.08393771897630309,0.10273161967973962,0.010588657364646757,-0.06791035991629829,-0.039960683235613755,-0.028496041479871677
177,11.444381099994644,0.025450841721417,-0.029427309626066257,0.06046443710639498,0.06115514043348761,0.053158306709926245,0.012213319926073196,0.08364087519493116,0.10255476234534287,0.010464084083543292,-0.0697333932118395,-0.04204844157072831,-0.02926980312073835
178,11.449092399998335,0.02571538908879409,-0.029197077619563798,0.060517211941184035,0.06151524479453241,0.053600246433119295,0.012258180511604183,0.08333618220799215,0.10236889986230396,0.010336169109488149,-0.07154985722079624,-0.04413619066311997,-0.030045476382187623
179,11.452915199988638,0.025981486794762965,-0.02896494120349286,0.06057017907520929,0.061874018081911814,0.054041365089312,0.01230248216924626,0.08302366917779445,0.10217403310968966,0.010204904687089724,-0.07335936768536196,-0.046223539579701774,-0.030822831432639784
180,11.456948599996394,0.026249129025503304,-0.028730904002969772,0.06062333606659136,0.06223142663152995,0.05448162384573691,0.012346210436775685,0.08270336692495076,0.10197016466044452,0.0100702840642293,-0.07516154009324873,-0.0483100938363376,-0.03160163281925924
181,11.461390699987533,0.026518309822284224,-0.028494969810577295,0.06067668041101069,0.06258743691580304,0.054920983884394016,0.012389350825035996,0.08237530792866353,0.10175729879654892,0.009932301516587206,-0.07695599014851046,-0.05039545561904411,-0.03238163928415994
182,11.46547469998768,0.026789023082068517,-0.028257142586285023,0.060730209541600993,0.0629420155508085,0.055359406409453235,0.012431888822424117,0.08203952632457331,0.10153544152258508,0.0097909523731924,-0.07874233417745455,-0.05247922426571502,-0.033162603602452885
183,11.469986999989487,0.02706126255814768,-0.028017426457337735,0.060783920828862206,0.06329512930342467,0.055796852654711515,0.01247380989949068,0.08169605790154275,0.1013046005767396,0.009646233042345666,-0.08052018943487635,-0.05456099681693794,-0.03394427264696285
184,11.474662499997066,0.027335021860807725,-0.027775825718111477,0.060837811580593565,0.06364674509845217,0.056233283891090204,0.012515099513649762,0.08134494009686316,0.10106478543961804,0.009498141036610935,-0.08228917450009296,-0.05664036842695297,-0.03472638744221869
185,11.478054399995017,0.027610294458025642,-0.027532344829937234,0.06089187904184721,0.06399683002571228,0.0566686614341682,0.012555743113994782,0.08098621198962236,0.10081600734170244,0.009346674998272754,-0.08404890975866428,-0.05871693299085477,-0.03550868307812803
186,11.481958099990152,0.027887073676196448,-0.02728698842089203,0.06094612039490281,0.06434535134711111,0.05710294665174364,0.01259572614622784,0.08061991429175576,0.10055827926675548,0.00919183472507226,-0.08579901790342749,-0.06079028409013212,-0.03629088892613018
187,11.485995999988518,0.02816535270089058,-0.02703976128555738,0.06100053275926369,0.06469227650366073,0.05753610097139644,0.012635034057697626,0.08024608933709212,0.10029161595112153,0.009033621193800074,-0.08753912428595945,-0.06286001570063118,-0.03707272872554503
188,11.49014919999172,0.02844512457764151,-0.026790668384745135,0.0610551131916749,0.06503757312244887,0.057968085888043946,0.012673652302532265,0.07986478106937292,0.1000160338810238,0.008872036585287398,-0.08926885723101104,-0.06492572270626416,-0.03785392033513273
189,11.494188500000746,0.028726382212763267,-0.026539714845190774,0.06110985868616362,0.06538120902355674,0.05839886297148013,0.012711566346892814,0.07947603502858565,0.09973155128743401,0.008707084310142022,-0.09098784860420514,-0.06698700144535209,-0.038634176024824905
190,11.498236899991753,0.029009118374197722,-0.026286905959214214,0.061164766174102575,0.06572315222691077,0.05882839387388701,0.012748761674328108,0.07907989833408612,0.09943818813865662,0.008538769031222877,-0.09269573434039802,-0.06904345032068214,-0.03941320270281252
191,11.50271889999567,0.029293325692391212,-0.02603224718434829,0.061219832524296594,0.06606337095905492,0.059256640337309895,0.01278522379122213,0.078676419666374,0.09913596612993605,0.008367096687417122,-0.09439215482824402,-0.07109467034528263,-0.04019070187234593
192,11.506872300000396,0.02957899666120025,-0.025775744142935104,0.06127505454309303,0.06640183365984513,0.05968356420107912,0.012820938232353963,0.07826564924689774,0.0988249086713329,0.008192074516487362,-0.09607675525632645,-0.07314026533768639,-0.04096636988015306
193,11.510940899999696,0.029866123638825896,-0.025517402621690465,0.0613304289745163,0.06673850898904746,0.060109127409180715,0.012855890566542244,0.07784763881684437,0.09850504087564674,0.00801371107670581,-0.09774918581253293,-0.07517984225130445,-0.04173989785181782
194,11.515052399990964,0.03015469884877638,-0.025257228571236662,0.061385952500426964,0.0670733658328496,0.06053329201757398,0.01289006640239174,0.07742244161522446,0.09817638954345116,0.007832016270258948,-0.0994091021980505,-0.07721301192600678,-0.042510971518778265
195,11.519444199991996,0.030444714380857645,-0.02499522810560379,0.06144162174070585,0.06740637331026993,0.06095602020143304,0.012923451394139694,0.07699011235322815,0.09783898314453322,0.00764700136637405,-0.10105616660573394,-0.07923938984446678,-0.04327927131549207
196,11.52989959999104,0.03073616219219126,-0.02473140750170005,0.06149743325346358,0.06773750077944782,0.06137727426230431,0.012956031247601897,0.0765507071838705,0.09749285179640405,0.0074586790238856645,-0.10269004926003626,-0.08125859727746874,-0.04404447249840036
197,11.533429699993576,0.03102903410825922,-0.024465773198751324,0.06155338353527596,0.06806671784379084,0.06179701663516272,0.012987791726213697,0.0761042836630636,0.09713802723585861,0.00726706331333593,-0.10431043021113727,-0.08327026270129212,-0.044806245394625376
198,11.537029200000688,0.03132332182397489,-0.024198331797710616,0.06160946902144562,0.06839399435792932,0.06221520989532379,0.013018718657166715,0.07565090070378545,0.09677454278525967,0.007072169737395732,-0.10591699987167714,-0.08527402211075269,-0.04556425618030147
199,11.540785699995467,0.03161901690477916,-0.023929090060638005,0.06166568608629038,0.06871930043346813,0.06263181676520903,0.01304879793762601,0.07519061853252207,0.09640243332139714,0.006874015246250949,-0.1075094581504739,-0.0872695180186361,-0.04631816808032619
200,11.544795599998906,0.03191611078776102,-0.023658054910051716,0.061722031043458477,0.06904260644456553,0.06304680012098943,0.013078015540999523,0.07472349865090906,0.09602173525040317,0.006672618247674277,-0.10908751336020282,-0.08925639825118692,-0.04706764223325148
201,11.548706999994463,0.032214594782801836,-0.02338523342825077,0.06177850014627101,0.06936388303335406,0.06346012299913441,0.013106357523242119,0.0742496038015964,0.09563248648700191,0.0064679986149507145,-0.11065088146299557,-0.09123431532567489,-0.04781233812382252
202,11.552587799989851,0.032514460073742674,-0.023110632856609564,0.061835089588091585,0.06968310111522494,0.06387174860287635,0.013133810029193402,0.07376899793639763,0.09523472643479386,0.006260177693218206,-0.11219928583619569,-0.09320292626742908,-0.04855191389629642
203,11.556635000000824,0.032815697719574176,-0.022834260594844752,0.06189179550272341,0.07000023188397421,0.06428164030858947,0.013160359298936455,0.07328174618417528,0.09482849596708393,0.006049178304690369,-0.11373245705658962,-0.09516189251295827,-0.04928602626795333
204,11.560658299989882,0.03311829865564827,-0.022556124200254803,0.06194861396483379,0.07031524681681009,0.06468976167208897,0.013185991674180704,0.07278791482085137,0.09441383740800147,0.005835024755743205,-0.11525013265701956,-0.09711087985959266,-0.05001433052916642
205,11.5650697999954,0.03342225369491124,-0.022276231386932542,0.062005540990406276,0.07062811767924042,0.06509607643484701,0.013210693604681786,0.07228757123939229,0.0939907945137628,0.005617742842137227,-0.11675205738020514,-0.09904955857486697,-0.05073648101902201
206,11.569378799991682,0.03372755352915759,-0.021994590024951088,0.062062572537220556,0.0709388165298211,0.06550054853013028,0.01323445165466947,0.07178078391762983,0.09355941245284763,0.00539735985200136,-0.11823798364499606,-0.10097760378593411,-0.05145213156860489
207,11.573477499987348,0.0340341887303041,-0.02171120813952345,0.06211970450536005,0.07124731572476599,0.06590314208904496,0.013257252509293256,0.07126762238422404,0.09311973778390241,0.005173904567231179,-0.11970767198800693,-0.1028946955485628,-0.05216093608464918
208,11.577674899992417,0.034342149751683426,-0.021426093910136324,0.06217693273774739,0.07155358792240167,0.06630382144648365,0.013279082981062361,0.07074815718267459,0.09267181843532157,0.004947407261438102,-0.1211608909451782,-0.10480051837791207,-0.05286254923054051
209,11.581780499996968,0.034651426929356584,-0.021139255669658383,0.06223425302070757,0.07185760608746693,0.06670255114699422,0.013299930016273631,0.07022245983830533,0.09221570368719854,0.004717899695473145,-0.12259741658721783,-0.1066947608703083,-0.053556626837150206
210,11.586047499993583,0.03496201048344367,-0.02085070190342345,0.06229166108455889,0.07215934349528275,0.06709929595057101,0.013319780701412907,0.06969060282628305,0.09175144415416961,0.004485415111832156,-0.12401703268148224,-0.10857711531364342,-0.05424282591365348
211,11.589872699987607,0.03527389051947229,-0.020560441248288836,0.06234915260423132,0.07245877373577586,0.06749402083837575,0.013338622269534677,0.0691526595372056,0.09127909177072573,0.004249988230086253,-0.12541953085421462,-0.1104472773679114,-0.05492080492865355
212,11.594479999999749,0.035587057029742984,-0.020268482491669158,0.06240672319991246,0.07275587071735194,0.06788669101840199,0.013356442106624027,0.06860870424372117,0.09079869977681217,0.0040116552388620155,-0.1268047103850463,-0.11230494615229197,-0.05559022480450264
213,11.598575799987884,0.03590149989471109,-0.019974834570545816,0.06246436843772079,0.07305060867063118,0.06827727193107183,0.013373227757907112,0.06805881206788907,0.09031032270238912,0.0037704537826946712,-0.12817237833697412,-0.11414982424105465,-0.056250749782263854
214,11.60266999999294,0.036217208884384386,-0.019679506570452532,0.06252208383040608,0.07334296215203992,0.0686657292547672,0.013388966934099694,0.06750305894667774,0.08981401635306666,0.003526422946546925,-0.12952234992375758,-0.1159816175583761,-0.05690204784336277
215,11.607323199990788,0.0365341736597359,-0.019382507724437115,0.06257986483807655,0.07363290604724863,0.0690520289113026,0.013403647517584076,0.06694152159615639,0.08930983779557268,0.0032796032390248753,-0.13085444862873283,-0.11780003539007637,-0.057543790990385334
216,11.610742199991364,0.036852383774131255,-0.019083847411999786,0.06263770686895252,0.07392041557445465,0.06943613707133107,0.013417257568512852,0.06637427747596804,0.08879784534328665,0.003030036574474617,-0.13216850605355754,-0.11960479008765963,-0.05817565543108318
217,11.615007000000332,0.037171828674769786,-0.018783535158008315,0.06269560528014625,0.07420546628751368,0.06981802015969214,0.013429785330831402,0.06580140475482586,0.08827809854426052,0.002777766254610883,-0.13346436177758675,-0.12139559662388019,-0.05879732160000761
218,11.619182299997192,0.03749249770413888,-0.01848158063159021,0.06275355537846757,0.07448803407892488,0.07019764486071445,0.01344121923822317,0.06522298227619937,0.0877506581705863,0.002522836950427027,-0.13474186339051034,-0.12317217252205215,-0.05940847435291146
219,11.623458199988818,0.03781438010148086,-0.018177993645002118,0.06281155242125493,0.07476809518266639,0.07057497812347198,0.013451547919976105,0.06463908952352918,0.08721558620702675,0.00226529468214671,-0.13600086635154543,-0.1249342379591938,-0.06000880328032509
220,11.627622199986943,0.03813746500427178,-0.01787278415247666,0.0628695916172317,0.07504562617688038,0.07094998716698862,0.013460760206755002,0.06404980658712782,0.0866729458394932,0.0020051867984289006,-0.13724123375202926,-0.1266815157889624,-0.060598002631884036
221,11.631570099998498,0.03846174144971147,-0.017565962249046944,0.06292766812738702,0.07532060398642298,0.07132263948539501,0.01346884513628856,0.06345521413144248,0.0861228014434784,0.0017425619569723294,-0.13846283646685587,-0.12841373156142463,-0.06117577115426093
222,11.636173499995492,0.038787198376224324,-0.017257538169348927,0.06298577706588111,0.075593005885267,0.07169290285303327,0.013475791958974408,0.06285539336064944,0.08556521857236384,0.0014774701051185285,-0.1396655533368604,-0.13013061338821763,-0.06174181206948504
223,11.640058399992997,0.03911382462497008,-0.016947522286401874,0.06304391350097449,0.07586280949875504,0.07206074532951304,0.013481590143398843,0.06225042598434353,0.08500026394701568,0.0012099624606433043,-0.14084927121340354,-0.13183189185656882,-0.062295833096389766
224,11.644199399990612,0.03944160894136404,-0.016635925110367114,0.0631020724559809,0.0761299928057062,0.07242613526472644,0.013486229381776162,0.061640394182748005,0.0844280054448338,0.0009400914921747681,-0.14201388514263483,-0.13351730032191697,-0.06283754655903856
225,11.64838639998925,0.03977053997660601,-0.01632275728728524,0.06316024891024347,0.07639453414036917,0.07278904130380963,0.013489699595299477,0.061025380570814476,0.08384851208682352,0.0006679108990494993,-0.14315929850498585,-0.13518657514737847,-0.06336666940817247
226,11.652615599989076,0.0401006062892174,-0.016008029597792066,0.06321843780013375,0.0766564121942192,0.07314943239204628,0.013491990939406283,0.06040546816222948,0.08326185402457892,0.00039347559154556607,-0.14428542304687864,-0.1368394555944593,-0.0638829228751372
227,11.656681899999969,0.04043179634658563,-0.015691752955813522,0.06327663402007336,0.0769156060176007,0.07350727777971683,0.013493093808958757,0.059780740333240885,0.08266810252829734,0.00011684167372399448,-0.14539217893630607,-0.13847568349630052,-0.06438603212627628
228,11.6612102999934,0.040764098526515406,-0.015373938407239785,0.06333483242357765,0.07717209502121217,0.07386254702689854,0.013492998843361314,0.05915128078618504,0.08206732997658134,-0.0001619335733569241,-0.14647949463321028,-0.1400950029505234,-0.06487572645735674
229,11.66520319999836,0.041097501118785976,-0.015054597128578774,0.06339302782432152,0.0774258589774342,0.07421521000822681,0.01349169693159611,0.05851717351443131,0.08145960984710279,-0.0004427917104773254,-0.14754730688780376,-0.14169716030019933,-0.06535173929349924
230,11.669456899995566,0.0414319923267138,-0.014733740425589194,0.06345121499722653,0.07767687802151202,0.07456523691761473,0.013489179217178113,0.05787850276592368,0.080845016706569,-0.0007256731570408624,-0.14859556118537529,-0.14328190439607083,-0.06581380823249244
231,11.673689299990656,0.04176756026872005,-0.01441137973189333,0.06350938867956943,0.07792513265256892,0.07491259827292776,0.013485437103045816,0.05723535300428832,0.08022362619912485,-0.001010517210284038,-0.14962421162655176,-0.14484898696675955,-0.066261675585315
232,11.677761999992072,0.042104192979902,-0.014087526607569767,0.0635675435721115,0.07817060373445338,0.0752572649206033,0.013480462256350604,0.0565878088734081,0.07959551503312534,-0.0012972620667239657,-0.15063322077605043,-0.14639816296135122,-0.0666950885274799
233,11.68291789999057,0.04244187841360784,-0.013762192737726322,0.06362567434024836,0.07841327249644688,0.07559920804021128,0.013474246613162455,0.0559359551598348,0.0789607609665826,-0.0015858448426732345,-0.15162256091763576,-0.1479291912379603,-0.06711379946646162
234,11.690394499994,0.04278060444301419,-0.013435389931053438,0.06368377561517993,0.07865312053378676,0.07593839914894811,0.013466782383082337,0.055279876746538094,0.07831944278799866,-0.0018762015988571822,-0.15259221546833687,-0.14944183586438037,-0.0675175665823111
235,11.69407990000036,0.04312035886270539,-0.013107130118358346,0.0637418419951,0.07889012980797512,0.07627481010603199,0.013458062053735556,0.05461965856311841,0.07767164029059273,-0.0021682673655922355,-0.15354217974720435,-0.15093586729377054,-0.06790615369801566
236,11.698318599999766,0.04346112939025371,-0.012777425351080535,0.06379986804640495,0.07912428264687216,0.07660841311697456,0.01344807839516696,0.05395538553292439,0.07701743424299229,-0.002461976166284875,-0.15447246120265315,-0.15241106246722685,-0.06827933008470025
237,11.702509199996712,0.04380290366779943,-0.012446287799789077,0.06385784830492126,0.07935556174454889,0.07693918073772332,0.013436824464131582,0.05328714252130467,0.07635690636257549,-0.002757261040929596,-0.15538307786563352,-0.15386720382422656,-0.0686368700941535
238,11.706701399991289,0.04414566926362977,-0.012113729752662361,0.06391577727715127,0.0795839501609341,0.07726708587870339,0.013424293608287138,0.05261501429606865,0.0756901392946984,-0.0030540540664379563,-0.15627405574516792,-0.15530407824274847,-0.06897855207790043
239,11.711318899993785,0.04448941367375594,-0.011779763613950549,0.06397364944153676,0.07980943132132602,0.07759210180878068,0.01341047947030931,0.05193908549820498,0.07501721659518021,-0.003352286370812202,-0.15714542751987057,-0.15672147649039664,-0.06930415767379594
240,11.7149972999905,0.04483412432348786,-0.011444401902421122,0.06403145924974027,0.08003198901578666,0.07791420215915258,0.013395375991961982,0.05125944061362959,0.07433822271426521,-0.003651888147320301,-0.1579972323544329,-0.1581191930282132,-0.06961347204374103
241,11.719117299988284,0.04517978856900597,-0.01110765724978778,0.06408920112794382,0.08025160739840977,0.07823336092717284,0.013378977418090243,0.05057616394548722,0.07365324298080034,-0.003952788670720167,-0.1588295155642974,-0.15949702597878423,-0.06990628374380968
242,11.72319739998784,0.04552639369892966,-0.010769542399122993,0.06414686947816461,0.08046827098647624,0.07854955248010569,0.013361278300550668,0.049889339588792055,0.07296236358647226,-0.004254916310314376,-0.15964232823762306,-0.16085477698132664,-0.07018238483269824
243,11.727492399993936,0.04587392693588177,-0.01043007020325451,0.0642044586795877,0.08068196465950335,0.07886275155881477,0.01334227350209171,0.049199051405990284,0.07226567157123502,-0.004558198547109898,-0.16043572679178983,-0.16219225089385297,-0.07044157158503887
244,11.7328978000005,0.04622237543804881,-0.010089253623146093,0.06426196308991512,0.08089267365818932,0.07917293328139158,0.013321958200135956,0.04850538300542641,0.0715632548101163,-0.0048625619930260265,-0.16120977246555973,-0.16350925553281673,-0.07068364431818819
245,11.736421699999482,0.04657172630073639,-0.00974710572626273,0.06431937704673124,0.0811003835832768,0.07948007314673057,0.013300327890494828,0.04780841772128654,0.07085520200089093,-0.005167932406559951,-0.1619645313949844,-0.16480560164438396,-0.07090840732774539
246,11.740218999999342,0.046921966557919616,-0.009403639684920521,0.06437669486888391,0.08130508039432445,0.07978414703805126,0.013277378391015702,0.047108238591409946,0.070141602651135,-0.005474234711438444,-0.16270007452556182,-0.16608110326476488,-0.07111566931985802
247,11.744655999995302,0.04727308318378793,-0.009058868774621517,0.06443391085788124,0.08150675040837899,0.08008513122636164,0.013253105845135716,0.04640492833799006,0.06942254706279105,-0.005781393016012611,-0.16341647696526887,-0.16733557837780294,-0.07130524319476521
248,11.748425199999474,0.04762506309428404,-0.008712806372373726,0.06449101929930345,0.08170538029858031,0.08038300237384718,0.013227506725361588,0.04569856935096694,0.06869812631354964,-0.006089330630042366,-0.16411381790866164,-0.1685688495121391,-0.07147694602551434
249,11.752821699992635,0.047977893148636735,-0.008365465954996711,0.06454801446422968,0.08190095709269027,0.08067773753717362,0.013200577836678634,0.044989243669383026,0.0679684322362633,-0.0063979700839075886,-0.16479218085208813,-0.16978074412653127,-0.07163059933892234
250,11.75657259998843,0.048331560150887125,-0.008016861097413118,0.0646048906106792,0.08209346817153698,0.08096931417069836,0.013172316319864865,0.044277032962919106,0.0672335573970042,-0.006707233147816241,-0.16545165339954745,-0.17097109492577994,-0.07176602866128581
251,11.761723199990229,0.04868605085140803,-0.007667005470926564,0.0646616419850668,0.08228290126738431,0.081257710129584,0.013142719654734314,0.04356201851492477,0.06649359507175291,-0.007017040847096707,-0.16609232698238044,-0.1721397403215656,-0.07188306302145382
252,11.765374899987364,0.04904135194841616,-0.0073159128414863085,0.06471826282367203,0.08246924446222981,0.08154290367280863,0.013111785663319218,0.042844281206372396,0.06574863922048073,-0.0073273134771193,-0.16671429688034226,-0.17328652502514558,-0.07198153486440846
253,11.769336999990628,0.04939745008947683,-0.006963597067939174,0.06477474735412203,0.08265248618603575,0.08182487346605584,0.013079512512984625,0.04212390149870584,0.06499878445872567,-0.00763797061784313,-0.16731766257744465,-0.17441130043956704,-0.07206128011581724
254,11.77349239999603,0.049754331873000865,-0.006610072100269284,0.0648310897968876,0.08283261521487917,0.08210359858447977,0.013045898719485095,0.041400959414724825,0.06424412602829158,-0.007948931149294453,-0.1679025278067156,-0.17551392475011296,-0.0721221385495771
255,11.778359699994326,0.05011198384973335,-0.0062553519778261405,0.06488728436679243,0.08300962066901797,0.08237905851534236,0.013010943149945785,0.04067553452104754,0.0634847597680438,-0.008260113269284058,-0.16846900021431582,-0.17659426279785462,-0.07216395432861487
256,11.78225730000122,0.05047039252423389,-0.005899450827541605,0.06494332527453488,0.08318349201088968,0.0826512331605265,0.012974645025766318,0.03994770591189242,0.0627207820856991,-0.008571434513550694,-0.16901719094867587,-0.1776521859116209,-0.07218657654529388
257,11.785845999998855,0.05082954435634805,-0.0055423828621362975,0.06499920672822222,0.08335421904303766,0.08292010283892993,0.012937003925428101,0.03921755219508497,0.061952289930070854,-0.00888281177814013,-0.16954721417429552,-0.17868757174853925,-0.07218985948055462
258,11.79011879999598,0.051189425762669764,-0.00518416237831593,0.06505492293491671,0.08352179190598917,0.08318564828873899,0.012898019787205152,0.03848515148003361,0.06117938076423442,-0.009194161341783988,-0.17005918674742249,-0.17970030399302583,-0.07217366299344154
259,11.794295499988948,0.051550023117994455,-0.004824803754958089,0.06511046810219318,0.08368620107607784,0.08344785066959098,0.012857692911778372,0.03775058136653416,0.06040215254036893,-0.009505398891638957,-0.17055322787027874,-0.18069027204905966,-0.07213785301831131
260,11.798281499999575,0.05191132275676264,-0.004464321451289919,0.0651658364397076,0.08384743736322513,0.08370669156463094,0.012816023964724336,0.037013918935728446,0.05962070367557724,-0.009816439549954665,-0.171029458722727,-0.18165737082011565,-0.07208230149965074
261,11.802352200000314,0.05227331097449396,-0.00410273000505716,0.06522102216077622,0.08400549190868487,0.08396215298246541,0.012773013978899527,0.03627524074208608,0.058835133028625995,-0.010127197899250609,-0.1714880022035936,-0.18260150051184768,-0.072006886651894
262,11.806814299998225,0.05263597402921129,-0.003740044030684978,0.06527601948396469,0.0841603561827555,0.08421421735901857,0.01272866435671194,0.0355346228065945,0.05804553987746772,-0.010437588011225277,-0.17192898282306293,-0.18352256645957324,-0.07191149375931824
263,11.810789099996327,0.052999298142855034,-0.003376278217430992,0.06533082263468677,0.0843120219824659,0.08446286755929211,0.012682976872255941,0.03479214060966898,0.057252023897469036,-0.010747523478833168,-0.17235252641005447,-0.18442047891268473,-0.07179601541359779
264,11.815205999999309,0.0533632695026873,-0.0030114473275309217,0.06538542584681187,0.08446048142922646,0.08470808687903351,0.012635953673307169,0.03404786908686689,0.056454685140792465,-0.011056917447243108,-0.17275875961352477,-0.1852951528755659,-0.07166035140591415
265,11.819146499998167,0.05372787426268592,-0.0026455661943372254,0.06543982336428095,0.08460572696647793,0.08494985904631813,0.012587597283190336,0.0333018826260996,0.05565362401599696,-0.011365682644984592,-0.17314780981891995,-0.18614650814581915,-0.0715044091377668
266,11.82336119998945,0.05409309854492832,-0.0022786497204510996,0.06549400944273022,0.08474775135731843,0.08518816822304147,0.01253791060250546,0.03255425506406745,0.05484894126708991,-0.011673731418449846,-0.1735198049527175,-0.1869744693273241,-0.07132810422618817
267,11.828911099990364,0.0544589284409651,-0.0019107128758482437,0.06554797835112192,0.08488654768212159,0.08542299900632054,0.012486896910698037,0.03180505968515771,0.05404073795301507,-0.011980975768260895,-0.1738748734046608,-0.18777896563497318,-0.07113136104431196
268,11.83239599999797,0.054825350013183366,-0.0015417706959987712,0.06560172437338152,0.085022109336154,0.08565433642980924,0.012434559867471563,0.031054369218550384,0.05322911542838893,-0.012287327388434705,-0.1742131444085906,-0.18855993060988416,-0.07091411285117662
269,11.836791299996548,0.055192349296159716,-0.0011718382799816285,0.06565524181004073,0.08515443002716844,0.08588216596493352,0.012380903514019864,0.03030225583383102,0.0524141753254453,-0.012592697703869957,-0.17453474807377534,-0.18931730193234378,-0.070676301251156
270,11.840519499994116,0.055559912298002834,-0.0008009307885938502,0.06570852497988533,0.08528350377298344,0.08610647352205099,0.01232593227411624,0.02954879113782624,0.0515960195363853,-0.012896997904849111,-0.17483981524466266,-0.19005102134944538,-0.07041787621543151
271,11.84448390000034,0.05592802500168561,-0.00042906344245497563,0.06576156822160753,0.0854093248990492,0.08632724545153386,0.012269650955048178,0.028794046171426405,0.05077475019594609,-0.013200138984710409,-0.1751284773278108,-0.19076103452178567,-0.07013879644974476
272,11.84991479999735,0.05629667336636671,-5.625152010696182e-05,0.06581436589546191,0.08553188803599984,0.0865444685447782,0.012212064748381527,0.028038091407914037,0.04995046966507336,-0.013502031777522256,-0.1754008658698399,-0.19144729076199268,-0.06983902917826809
273,11.85362840000016,0.056665843328701615,0.0003174896438901053,0.06586691238492437,0.08565118811720478,0.08675813003514596,0.012153179230570221,0.027280996753427184,0.04912328051574556,-0.013802586993890842,-0.17565711241830073,-0.1921097428821698,-0.06951855035950144
274,11.857140799998888,0.05703552080414303,0.0006921446608662247,0.0659192020983533,0.08576722037632502,0.08696821759884339,0.012093000363411571,0.02652283154648804,0.04829328551596234,-0.014101715260496896,-0.1758973491363795,-0.19274834731680007,-0.06917734559443074
275,11.860773199994584,0.057405691688230856,0.0010676980899533466,0.06597122947065245,0.08587998034486051,0.08717471935573358,0.012031534494314934,0.025763664553163697,0.047460587613508624,-0.014399327163737301,-0.17612170932155255,-0.193363064529311,-0.06881541014830213
276,11.865031499997713,0.05777634185787147,0.0014441344400005945,0.0660229889649345,0.08598946384966465,0.08737762387007474,0.011968788356380542,0.025003563962120747,0.0466252899174359,-0.014695333289449681,-0.17633032707249646,-0.193953859569712,-0.068432748518129
277,11.869302799997968,0.05814745717260622,0.001821438171492501,0.06607447507418451,0.08609566701044896,0.08757692015117305,0.011904769068325497,0.024242597382659332,0.04578749567701599,-0.01498964426282322,-0.17652333684447533,-0.19452070251995274,-0.06802937484336533
278,11.873549899988577,0.058519023475869195,0.0021995936984698615,0.06612568232292289,0.08619858623728069,0.08777259765393941,0.01183948413421832,0.023480831843603084,0.04494730825938057,-0.01528217079166582,-0.17670087315672306,-0.19506356857784718,-0.06760531312224323
279,11.877649499991094,0.05889102659623413,0.002578585390452772,0.06617660526886658,0.08629821822807787,0.08796464627934937,0.011772941443031712,0.02271833379385737,0.044104831127751,-0.0155728237081811,-0.1768630704104187,-0.19558243780586376,-0.06716059723336115
280,11.881613199991987,0.059263452348650575,0.002958397574365451,0.06622723850458813,0.08639455996611174,0.08815305637481208,0.01170514926801673,0.02195516910286941,0.043260167821244824,-0.01586151401242178,-0.1770100628443,-0.19607729481444194,-0.06669527123823289
281,11.886118499998702,0.05963628653566925,0.0033390145364624586,0.06627757665917151,0.0864876087175058,0.08833781873445604,0.011636116265880703,0.021191403061569428,0.04241342193583739,-0.016148152916676532,-0.17714198430713549,-0.19654812864506205,-0.0662093893815901
282,11.89003719999164,0.06000951494865663,0.0037204205242559853,0.06632761439986408,0.0865773620287463,0.08851892459933382,0.011565851475778516,0.020427100384793458,0.04156469710517704,-0.01643265188892598,-0.17725896810889627,-0.19699493283141806,-0.06570301624244589
283,11.894203099989682,0.060383123368998856,0.004102599748443837,0.0663773464337237,0.08666381772420226,0.08869636565754233,0.01149436431811567,0.01966232521350833,0.040714096981019,-0.016714922698532666,-0.17736114697506405,-0.19741770536621533,-0.06517622705834966
284,11.89886149999802,0.06075709756929489,0.004485536384837757,0.06642676750926037,0.0867469739036551,0.08887013404425873,0.011421664593145427,0.01889714111762864,0.03986172521432701,-0.016994877462494132,-0.1774486528405501,-0.19781644841545706,-0.0646291076824673
285,11.90256099999533,0.061131423314539135,0.004869214576291728,0.06647587241807126,0.08682682893984298,0.08904022234169769,0.011347762479372886,0.018131611100019415,0.039007685438171846,-0.017272428690762665,-0.17752161664808808,-0.19819116789248228,-0.06406175434556133
286,11.906826099992031,0.06150608636329341,0.00525361843462992,0.06652465599646858,0.08690338147602496,0.08920662357899979,0.011272668531761187,0.017365797601052214,0.03815208125250738,-0.017547489330445164,-0.17758016808545765,-0.19854187309466037,-0.06347427346133322
287,11.910785000000033,0.061881072468848546,0.005638732042574031,0.0665731131270991,0.08697663042356463,0.08936933123205745,0.011196393679754304,0.01659976250487456,0.037295016210203084,-0.01781997280944371,-0.17762443525034444,-0.19886857641618144,-0.06286678179949313
288,11.914893599998322,0.06225636738037553,0.006024539455669733,0.06662123874055499,0.08704657495954837,0.08952833922328284,0.0111189492251068,0.015833567146857026,0.036436593804297604,-0.01808979308214838,-0.17765454456660107,-0.19917129305581588,-0.062239406680373886
289,11.9194875999965,0.06263195684406654,0.00641102470421201,0.06666902781697466,0.08711321452443321,0.08968364192132382,0.011040346839512466,0.015067272320585039,0.03557691745655222,-0.018356864674756612,-0.17767062038159626,-0.19945004081083106,-0.06159228603966856
290,11.923339599990868,0.06300782660426582,0.00679817179516916,0.06671647538763306,0.0871765488197254,0.08983523414073318,0.010960598562043131,0.014300938288779314,0.03471609050648213,-0.018621102731524442,-0.1776727845995562,-0.19970484010403175,-0.06092556886096887
291,11.927490499991109,0.06338396240459067,0.00718596471410527,0.06676357653652049,0.08723657780572247,0.08998311114158992,0.010879716796378332,0.013534624793450543,0.03385421619967667,-0.018882423063817058,-0.17766115701763663,-0.19993571414489808,-0.06023941521894104
292,11.931730099997369,0.06376034998904284,0.007574387427100955,0.06681032640190897,0.0872933016992794,0.09012726862906775,0.010797714307821008,0.012768391063920801,0.03299139767544056,-0.01914074219673249,-0.17763585484811184,-0.20014268906796695,-0.05953399599815387
293,11.935862599988468,0.06413697510311028,0.007963423882672115,0.06685672017790532,0.08734672097161988,0.09026770275294975,0.010714604220124973,0.012002295831099937,0.03212773795392043,-0.019395977415726694,-0.1775969922771154,-0.20032579404081396,-0.05880949328244205
294,11.93999729999632,0.06451382349485964,0.00835305801368648,0.0669027531159902,0.08739683634622565,0.09040441010708579,0.010630400012108415,0.011236397339313387,0.03126333992281459,-0.01964804681659599,-0.17754468088613085,-0.20048506136122216,-0.058066100722358634
295,11.944226499996148,0.06489088091601977,0.008743273739277694,0.06694842052654189,0.08744364879674973,0.09053738772879262,0.010545115514050211,0.010470753356942692,0.03039830632366133,-0.01989686935527188,-0.17747902916410832,-0.2006205268469653,-0.057304023686494815
296,11.948422899993602,0.0652681331230563,0.009134054966756679,0.0669937177803443,0.08748715954499761,0.09066663309819296,0.010458764903873883,0.009705421192461906,0.029532739735186365,-0.020142364899108794,-0.17740014244386804,-0.20073223077501678,-0.05652347973707635
297,11.95244609999645,0.06564556587823765,0.009525385593520019,0.06703864031007785,0.08752737005897879,0.09079214413747196,0.010371362703101489,0.008940457705626712,0.028666742551489276,-0.02038445428078153,-0.17730812363653528,-0.20082021903243966,-0.05572469958129709
298,11.956526399997529,0.06602316495069285,0.009917249508954914,0.06708318361179254,0.08756428205098446,0.09091391921002807,0.010282923772572651,0.00817591931717542,0.0278004169554631,-0.020623059357779427,-0.17720307338335117,-0.200884544252541,-0.05490792832543651
299,11.964678299991649,0.06640091611746098,0.010309630596340236,0.06712734324636191,0.08759789747572279,0.0910319571195003,0.010193463307885236,0.007411862018708525,0.02693386488718004,-0.020858103077122107,-0.17708509096355152,-0.2009252669881378,-0.05407342623129866
300,11.968911499992828,0.0667788051645328,0.010702512734743092,0.06717111484091678,0.08762821852848178,0.09114625710864631,0.010102996834556127,0.006648341374558133,0.02606718800719019,-0.021089509541378882,-0.17695427559165622,-0.20094245639918284,-0.05322146955939976
301,11.972783199991682,0.06715681788788448,0.0110958798009102,0.0672144940902575,0.08765524764328068,0.09125681885805308,0.010011540202892405,0.005885412520476789,0.025200487658975625,-0.021317204080658028,-0.17681072628692107,-0.2009361897147126,-0.05235235115294621
302,11.97804489999544,0.06753494009450323,0.011489715671153337,0.06725747675824337,0.08767898749102157,0.09136364248469117,0.009919109582531128,0.005123130166633042,0.02433386483689047,-0.021541113323663725,-0.17665454109582066,-0.20090655071753988,-0.051466378989198903
303,11.982034000000567,0.06791315760340502,0.011884004223228236,0.06730005867915785,0.08769944097766656,0.09146672854034878,0.009825721456697556,0.004361548603007321,0.02346742016168641,-0.021761165257189054,-0.17648581663904123,-0.20085362836881937,-0.05056387421195142
304,11.98637639998924,0.0682914562466446,0.01227872933820653,0.06734223575904848,0.08771661124243596,0.0915660780099749,0.009731392616231726,0.0036007217062952496,0.02260125386031758,-0.02197728928020063,-0.17630464769857151,-0.2007775160971136,-0.0496451701586319
305,11.990315799994278,0.06866982187031759,0.012673874902340353,0.06738400397704046,0.08773050165604503,0.09166169230993919,0.009636140153380136,0.0028407029488653696,0.02173546574759875,-0.022189416254939153,-0.1761111269808484,-0.20067831134370726,-0.04871061194958543
306,11.994618299999274,0.06904824033555532,0.01306942480891928,0.0674253593866231,0.08774111581897938,0.09175357328621687,0.009539981455381515,0.0020815454077056194,0.02087015520993245,-0.022397478557461086,-0.17590534487915607,-0.20055611513346958,-0.04776055631518926
307,11.99835069999972,0.06942669751951207,0.013465362960119267,0.06746629811690805,0.08774845755980895,0.09184172321250825,0.009442934197822515,0.0013233017754306592,0.020005421190669004,-0.022601410127247864,-0.17568738906276835,-0.20041103175277283,-0.046795371249895766
308,12.002665799998796,0.0698051793163453,0.013861673268843362,0.0675068163738584,0.08775253093355834,0.09192614478829733,0.009345016337795546,0.0005660243727725039,0.019141362176611987,-0.022801146514763268,-0.1754573440660904,-0.2002431685971213,-0.04581543629310074
309,12.00690459999896,0.07018367163818892,0.014258339660553912,0.06754691044148795,0.0877533402201285,0.09200684113685491,0.009246246106844228,-0.00019023483686798947,0.01827807618469266,-0.022996624933485466,-0.1752152910503124,-0.20005263626384112,-0.04482114300492678
310,12.010922599991318,0.07056216041611982,0.014655346075096038,0.06758657668302939,0.08775088992279263,0.09208381580318227,0.009146642003672378,-0.0009454242328744578,0.017415660747675872,-0.02318778431156861,-0.1749613080423152,-0.19983954870817974,-0.04381289444754478
311,12.015033799994852,0.07094063160111819,0.015052676468512109,0.06762581154207073,0.08774518476674337,0.09215707275189093,0.009046222786643828,-0.0016994925249244016,0.01655421289948792,-0.023374565339400633,-0.17469546993392446,-0.19960402326027837,-0.04279110479562436
312,12.019007599999895,0.07131907116502156,0.015450314814846922,0.06766461154365876,0.08773622969769637,0.09222661636501982,0.008945007466081158,-0.0024523887384360864,0.015693829160776062,-0.023556910517904494,-0.1744178478765335,-0.1993461805682902,-0.04175619933651888
313,12.023331899996265,0.07169746510147305,0.015848245107943353,0.067702973295369,0.08772402988056309,0.09229245143979041,0.008843015296348856,-0.0032040621968557853,0.014834605524727049,-0.02373476420609758,-0.1741285086328313,-0.1990661443842772,-0.04070861423266555
314,12.02749499998754,0.07207579942686394,0.01624645136322817,0.06774089348834099,0.08770859069820715,0.0923545831863016,0.008740265767741801,-0.003954462501512534,0.013976637444473536,-0.02390807266734335,-0.1738275142739275,-0.19876404130460482,-0.03964879636984649
315,12.03165619999345,0.0724540601812712,0.01664491761948779,0.06777836889827814,0.08768991775029086,0.09241301722517621,0.008636778598169437,-0.004703539511292701,0.013120019821152039,-0.024076784115601806,-0.17351492157378864,-0.19844000098199055,-0.03857720294656128
316,12.035829899992676,0.0728322334293901,0.01704362794063381,0.06781539638641132,0.08766801685220699,0.09246775958515281,0.00853257372464529,-0.005451243317271007,0.012264846989480159,-0.02424084875813897,-0.173190781339519,-0.19809415676034803,-0.037494301171549435
317,12.039979099994524,0.07321030526146259,0.017442566417457974,0.06785197290042537,0.08764289403414405,0.09251881670060784,0.008427671294602722,-0.006197524216607935,0.011411212700338225,-0.0244002188391681,-0.17285513880058467,-0.19772664633257178,-0.036400568090532784
318,12.04442009999184,0.07358826179420179,0.017841717169376332,0.06788809547534769,0.08761455554024326,0.09256619540899717,0.008322091657007988,-0.006942332690538295,0.010559210100672315,-0.02455484868106462,-0.1725080335858741,-0.19733761226627727,-0.03529648989446426
319,12.048348399999668,0.07396608917171306,0.018241064346162145,0.06792376123439811,0.08758300782785376,0.09260990294820487,0.00821585535332046,-0.0076856193780707495,0.009708931711540737,-0.02470469472204011,-0.17214949881749772,-0.19692720245289277,-0.03418256144407233
320,12.052702199987834,0.07434377356641216,0.018640592129667163,0.06795896738979953,0.08754825756691637,0.09264994695379537,0.0081089831082807,-0.008427335046159279,0.008860469404143072,-0.024849715553255866,-0.17177956089407526,-0.19649557082213848,-0.03305928540485417
321,12.056921399998828,0.07472130117994093,0.019040284735530835,0.06799371124354832,0.08751031163947612,0.09268633545615547,0.008001495820550531,-0.009167430561533293,0.008013914371703401,-0.02498987194903512,-0.1713982397052098,-0.19604287848079102,-0.03192717133905356
322,12.062666999991052,0.07509865824408128,0.01944012641487693,0.06802799018814416,0.08746917713930907,0.09271907687750396,0.007893414553240493,-0.0099058568627192,0.007169357095676088,-0.025125126896143785,-0.1710055485255578,-0.19556929483242727,-0.030786735727309857
323,12.066937499999767,0.07547583102166766,0.01984010145599695,0.06806180170727881,0.08742486137167617,0.09274818002874208,0.007784760524297335,-0.010642564930956739,0.006326887307969829,-0.025255445624189434,-0.17060149429588106,-0.19507499803677175,-0.029638501514670127
324,12.071039899994505,0.07585280580749888,0.020240194186019588,0.068095143376483,0.0873773718532009,0.09277365410613733,0.007675555096769238,-0.011377505764644975,0.005486593953191003,-0.025380795630985827,-0.1701860779453197,-0.1945601748366249,-0.02848299705124793
325,12.07474069998716,0.07622956892924956,0.020640388972565527,0.06812801286373117,0.0873267163118436,0.09279550868784821,0.00756581976897451,-0.012110630353038632,0.004648565152360674,-0.025501146703813777,-0.16975929378787982,-0.19402502023428742,-0.027320755075956285
326,12.0787593999994,0.07660610674838174,0.021040670225386922,0.06816040793000366,0.08727290268700609,0.092813753730295,0.0074555761645834035,-0.012841889645488042,0.0038128881679491827,-0.0256164709360191,-0.16932112960859497,-0.19346973737648926,-0.026152311959876898
327,12.0822499999922,0.07698240566105718,0.021441022397990898,0.06819232642980583,0.08721593912977123,0.09282839956438295,0.007344846022643636,-0.013571234525878734,0.0029796493685857782,-0.02572674274174662,-0.1688715677649935,-0.19289453803145548,-0.024978207533317445
328,12.08911969998735,0.07735845209905111,0.021841429989246444,0.06822376631164416,0.08715583400322804,0.0928394568915686,0.007233651187535108,-0.014298615791372904,0.0021489341899779296,-0.025831938871046258,-0.16841058570761708,-0.19229964406374403,-0.023798984718209494
329,12.094229800000903,0.07773423253066727,0.022241877544973986,0.06825472561845881,0.08709259588289475,0.09284693677974583,0.007122013598865113,-0.015023984131339109,0.0013208270868986529,-0.025932038421436026,-0.16793815695205608,-0.19168528977481286,-0.022615188966059074
330,12.099066700000549,0.07810973346165534,0.022642349659516788,0.06828520248801254,0.08702623355722557,0.09285085065889807,0.007009955281323314,-0.015747290114478753,0.0004954114739155397,-0.026027022848159748,-0.16745425254912494,-0.19105172354141756,-0.02142736758771144
331,12.102994999993824,0.07848494143613036,0.023042830977293018,0.06831519515323567,0.08695675602814479,0.09285121031647303,0.006897498334488462,-0.016468484180437865,-0.0003272303367551231,-0.02611687596996843,-0.1669588414304445,-0.19039920719214387,-0.020236068131811655
332,12.10720479999145,0.07885984303749471,0.023443306194327256,0.06834470194252716,0.08688417251162599,0.09284802789249881,0.006784664922633509,-0.017187516629914648,-0.001147017189141147,-0.026201583965390213,-0.16645189036629493,-0.1897280137500187,-0.019041836655172284
333,12.1116839999886,0.07923442488936264,0.02384376005976043,0.06837372128001162,0.08680849243831142,0.09284131587449375,0.006671477264564496,-0.017904337615907696,-0.0019638691261875483,-0.02628113536359152,-0.1659333640517767,-0.18903842535173587,-0.017845216793224872
334,12.116232699991087,0.07960867365648747,0.024244177377337413,0.06840225168575269,0.08672972545416668,0.09283108709221445,0.0065579576235045,-0.018618897134566787,-0.0027777074257000927,-0.026355521032628497,-0.16540322516966072,-0.18833073256450922,-0.016646749089777858
335,12.122313499989104,0.07998257604569181,0.02464454300687165,0.0684302917759228,0.0866478814211791,0.09281735471225555,0.006444128297033876,-0.019331145016983256,-0.0035884546371254124,-0.026424734164526505,-0.16486143569066422,-0.18760523566284726,-0.015446970132053636
336,12.1284178999922,0.08035611880680085,0.025044841865686177,0.06845784026292981,0.08656297041808317,0.09280013223248047,0.006330011607102903,-0.02004103093125728,-0.004396034628508312,-0.02648877025607018,-0.16430796007228837,-0.18686224787252378,-0.014246411167214791
337,12.136260899991612,0.08072928873357875,0.02544505893003021,0.06848489595550059,0.08647500274104108,0.09277943347621613,0.0062156298901377355,-0.02074850440188218,-0.005200372651255147,-0.026547627081948747,-0.16374276886739367,-0.18610209907762773,-0.01304559594031972
338,12.14058739999018,0.08110207266466782,0.025845179236470072,0.06851145775872228,0.08638398890420103,0.09275527258612502,0.006101005487284712,-0.021453514842940134,-0.006001395419069015,-0.02660130465689578,-0.1631658411041192,-0.1853251373494846,-0.01184503883483257
339,12.144690799992532,0.08147445748452975,0.02624518788325294,0.06853752467404178,0.08628993964009131,0.09272766401771902,0.005986160734842893,-0.02215601159801622,-0.006799031185901977,-0.026649805192794113,-0.16257716478402628,-0.1845317272284375,-0.010645244548500299
340,12.148790299994287,0.08184643012438819,0.026645070031641807,0.06856309579922445,0.08619286589983434,0.09269662253255903,0.00587111795487839,-0.02285594397769124,-0.007593209810068482,-0.02669313305801964,-0.1619767353669728,-0.18372224627062428,-0.009446708093359906
341,12.152528799997526,0.08221797756317181,0.02704481090722057,0.06858817032827262,0.08609277885321737,0.09266216319121572,0.005755899446007619,-0.023553261286385935,-0.008383862802409272,-0.02673129473454628,-0.1613645539549826,-0.18289708182023154,-0.00824991419027101
342,12.1566843999899,0.08258908682845749,0.02744439580116827,0.06861274755130478,0.08598968988867488,0.09262430134605369,0.005640527474381649,-0.024247912844187425,-0.009170923362561504,-0.02676429877206689,-0.16074062653711313,-0.18205662898280556,-0.007055337031141777
343,12.16081750000012,0.08295974499741322,0.02784381007150194,0.06863682685439636,0.08588361061317105,0.09258305263387938,0.005525024264865219,-0.024939848007179476,-0.009954326409639955,-0.02679215574304711,-0.16010496379399922,-0.18120129008570995,-0.005863440062715848
344,12.16503359998751,0.08332993919774032,0.02824303914428742,0.0686604077193828,0.0857745528520068,0.09253843296846052,0.005409411992408806,-0.025629016187582898,-0.010734008613852925,-0.02681487819498119,-0.15945758155123457,-0.1803314756930552,-0.0046746750785409165
345,12.173297999994247,0.08369965660861461,0.028642068514817667,0.0686834897236259,0.08566252864852847,0.09249045853290133,0.005293712773639493,-0.026315366877996776,-0.01150990843593846,-0.02683248059761294,-0.15879850129877537,-0.179447606784198,-0.0034894810948103024
346,12.17762629999197,0.08406888446162618,0.029040883748757816,0.06870607253974437,0.08554755026372576,0.0924391457718218,0.0051779486586883165,-0.02699884967601937,-0.012281966177572514,-0.02684497928549428,-0.15812775042965566,-0.17855011654376335,-0.0023082833557151934
347,12.18165249998856,0.08443761004171706,0.02943947048325601,0.06872815593530966,0.08542963017572809,0.09238451138329802,0.005062141623276646,-0.02767941431054857,-0.013050124036246322,-0.026852392396626144,-0.15744536210888094,-0.1776394503006586,-0.0011314930523656187
348,12.185983599993053,0.08480582068811661,0.029837814428018944,0.06874973977250827,0.0853087810791756,0.09232657231056812,0.004946313561072826,-0.028357010665271826,-0.013814326155148481,-0.026854739812592374,-0.15675137350093635,-0.1767160637885938,4.049174739433987e-05
349,12.190458599987323,0.08517350379527386,0.030235901366351146,0.06877082400777161,0.08518501588451287,0.09226534573354228,0.004830486276294974,-0.02903158878967668,-0.014574518663037163,-0.026852043105221424,-0.15604582337084483,-0.17578042114643494,0.001207285126179695
350,12.194337900000392,0.08554064681378672,0.030633717156157286,0.06879140869137453,0.085058347717265,0.09220084906016472,0.004714681476527733,-0.029703098901846855,-0.01533064970687277,-0.02684432548511191,-0.15532875147785852,-0.17483299372292918,0.0023685131009013403
351,12.198400999986916,0.0859072372513281,0.031031247730906944,0.0688114939670032,0.0849287899173072,0.09213309991764222,0.004598920765769098,-0.030371491394242618,-0.01608266948137942,-0.026831611750159006,-0.1546001987270808,-0.17387425939616777,0.0035238136442847985
352,12.202404899988323,0.08627326267356883,0.03142847910056125,0.06883108007129368,0.08479635603809092,0.09206211614355111,0.004483225637691194,-0.031036716837804807,-0.01683053025580713,-0.026813928233894353,-0.15386020647736898,-0.17290470182199383,0.004672837441659458
353,12.206822199994347,0.08663871070509711,0.03182539735246094,0.06885016733334166,0.08466105984587816,0.09198791577683493,0.004367617469132733,-0.031698725981764986,-0.017574186397009885,-0.026791302747484216,-0.15310881658497497,-0.1719248091646892,0.005815248539546351
354,12.211151499999689,0.08700356903033482,0.03222198865217535,0.06886875617418486,0.08452291531896917,0.09191051704871234,0.004252117513860135,-0.03235746975812594,-0.01831359438525844,-0.02676376452247453,-0.15234607155535346,-0.1709350727717059,0.006950723848356386
355,12.215109699987806,0.08736782539445027,0.03261823924431202,0.068886847106259,0.08438193664689811,0.09182993837353835,0.00413674689655387,-0.033012899282781345,-0.01904871282588629,-0.026731344157078892,-0.15157201404483772,-0.1699359867249504,0.008078953034327652
356,12.219516199998909,0.08773146760426763,0.03301413545328688,0.0689044407328283,0.08423813822965112,0.09174619833961184,0.00402152660703292,-0.03366496585569763,-0.019779502461231748,-0.026694073559855775,-0.1507866877899674,-0.1689280476798364,0.009199638692413836
357,12.22356879999279,0.0880944835291729,0.03340966368405454,0.06892153774739161,0.08409153467686037,0.09165931569993371,0.003906477494726971,-0.034313620970050224,-0.020505926180895563,-0.026651985894505154,-0.14999013843087944,-0.16791175446393447,0.010312496130179328
358,12.227516899991317,0.0884568611020164,0.03380481042279875,0.06893813893306529,0.08394214080694337,0.09156930936292593,0.003791620263377073,-0.03495881631950818,-0.021227949030220832,-0.02660511552540989,-0.14918241320806336,-0.16688760764597438,0.011417253086756798
359,12.231593399992562,0.0888185883200113,0.03419956223758266,0.06895424516194357,0.08378997164623414,0.09147619838311655,0.0036769754659776066,-0.03560050380475459,-0.02194553821683274,-0.026553497964856697,-0.1483635613062637,-0.16585610881054877,0.012513649365185611
360,12.23554179999337,0.08917965324562864,0.03459390577895888,0.06896985739443778,0.0836350424280663,0.09138000195180232,0.0035625634999322223,-0.036238635543737754,-0.022658663112861896,-0.02649716982174905,-0.14753363413814974,-0.1648177592496326,0.013601437048675986
361,12.240506599991932,0.08954004400748795,0.03498782778053923,0.06898497667859502,0.08347736859181577,0.09128073938771457,0.0034484046024382286,-0.03687316388063863,-0.023367295250196807,-0.02643616874696262,-0.14669268575386374,-0.1637730587212423,0.014680380716814045
362,12.24422519998916,0.08989974880124398,0.035381315059524285,0.06899960414939746,0.08331696578190657,0.09117843012772271,0.0033345188461139036,-0.03750404139965486,-0.024071408311999117,-0.02637053338019314,-0.14584077379198376,-0.1627225049725574,0.015750257337473764
363,12.24834479999845,0.09025875589046875,0.0357743545171929,0.06901374102804335,0.08315384984673457,0.09107309371757336,0.0032209261348413874,-0.03813122094217142,-0.024770978123842408,-0.026300303296244224,-0.14497795971880117,-0.16166659364219696,0.016810856547866643
364,12.252598199993372,0.09061705360752903,0.03616693313935189,0.06902738862121048,0.08298803683752516,0.09096474980267025,0.0031076461998573277,-0.038754655622608734,-0.025465982644384457,-0.026225518949450858,-0.14410430936693241,-0.16060581816342287,0.017861980330212815
365,12.25661479998962,0.09097463035445853,0.036559037996746015,0.06904054832030342,0.08281954300712033,0.09085341811889383,0.002994698596075188,-0.039374298850239534,-0.026156401955671052,-0.02614622162276493,-0.14321989397430815,-0.15954066980890108,0.018903442406426066
366,12.260764599996037,0.09133147460382487,0.03695065624542847,0.06905322160068526,0.08264838480864811,0.09073911848346485,0.002882102698615094,-0.03999010435399951,-0.026842218254194358,-0.026062453377400322,-0.14232478994638162,-0.15847163782871174,0.019935068151599636
367,12.26499509999121,0.09168757489959035,0.03734177512709205,0.06906541002089496,0.08247457889409567,0.09062187078584101,0.0027698776995605146,-0.04060202620225292,-0.027523415842387246,-0.025974257002664734,-0.14141907861741412,-0.15739920913721586,0.020956693923782653
368,12.269186399993488,0.09204291985796657,0.037732381969361135,0.06907711522185107,0.0822981421128082,0.090501694978654,0.0026580426049208714,-0.04121001882554407,-0.0281999811169805,-0.025881675971386277,-0.1405028467916963,-0.15632386768865697,0.021968166437032977
369,12.27342859999044,0.09239749816826227,0.03812246418604465,0.06908833892604288,0.08211909150986578,0.09037861106870655,0.0025466162317727206,-0.04181403704103159,-0.028871902555110938,-0.0257847543951535,-0.1395761869166169,-0.15524609399897446,0.02296934358296056
370,12.277473299996927,0.09275129859372395,0.03851200927735037,0.06909908293670951,0.08193744432437151,0.09025263910802929,0.0024356172056084714,-0.04241403607673286,-0.02953917069855366,-0.02568353697265515,-0.13863919725536197,-0.15416636449734542,0.023960095144186396
371,12.281586899989634,0.09310430997236895,0.03890100483006081,0.06910934913700814,0.0817532179876192,0.09012379918501384,0.0023250639579232026,-0.04300997159744802,-0.03020177813423642,-0.025578068938765734,-0.13769198223231446,-0.15308515073785262,0.024940302318704272
372,12.285997999992103,0.09345652121781022,0.039289438517670965,0.06911913948917235,0.08156643012115787,0.08999211141563775,0.0022149747240025807,-0.04360179973198392,-0.03085971947167154,-0.025468396016988245,-0.1367346527364847,-0.1520029189347282,0.025909857373929004
373,12.290000699998927,0.09380792132007275,0.03967729810048853,0.06912845603366122,0.08137709853472463,0.08985759593479226,0.002105367540919917,-0.04418947710169558,-0.03151299131946118,-0.025354564371523988,-0.13576732599208235,-0.15092012963765553,0.02686866312786385
374,12.29449809998914,0.09415849934640053,0.040064571425696846,0.06913730088830038,0.081185241224063,0.08972027288770991,0.0019962602457375416,-0.044772960846593636,-0.03216159225992832,-0.025236620564190883,-0.13479012560010548,-0.14983723717003705,0.02781663180325521
375,12.298612099999444,0.09450824444205408,0.040451246427381155,0.06914567624741563,0.08099087636863048,0.08958016242151118,0.001887670473875495,-0.0453522086542446,-0.03280552282077641,-0.025114611516377616,-0.1338031818216317,-0.1487546893690114,0.02875368442215859
376,12.302896299996064,0.0948571458310977,0.04083731112651864,0.06915358438095993,0.08079402232916766,0.0894372846768765,0.0017796156576410942,-0.045927178788322025,-0.03344478544747768,-0.024988584471184565,-0.1328066314685336,-0.1476729277255128,0.02967975065462684
377,12.30703569999605,0.095205192817176,0.04122275363093281,0.0691610276336343,0.0805946976451595,0.08929165977983114,0.0016721130249242044,-0.04649783011656404,-0.03407938447614095,-0.0248585869566832,-0.13180061772947024,-0.14659238714872727,0.030594768105301096
378,12.312859099998605,0.09555237478427928,0.04160756213521271,0.06916800842400353,0.08039292103216322,0.08914330783365122,0.0015651795980437398,-0.04706412213782349,-0.034709326103868114,-0.024724666754211044,-0.13078528997741926,-0.14551349548790476,0.031498681945807495
379,12.317976699996509,0.09589868119749698,0.04199172492059748,0.0691745292436072,0.08018871137903627,0.08899224891090433,0.0014588321927164298,-0.04762601500836519,-0.035334618357496975,-0.024586871864802108,-0.12976080422212902,-0.1444366730569728,0.03239144577956731
380,12.321599899994908,0.09624410160375914,0.04237523035482689,0.06918059265606648,0.07998208774503736,0.08883850304562521,0.0013530874171928985,-0.048183469572819035,-0.03595527105985692,-0.024445250470021794,-0.12872732339266296,-0.14336233177216007,0.03327302142563933
381,12.325565899998765,0.0965886256325649,0.0427580668919584,0.06918620129618763,0.07977306935678743,0.08868209022564738,0.001247961671564279,-0.048736447392914536,-0.036571295791072725,-0.024299850900261957,-0.1276850162982246,-0.1422908742955974,0.03414337772956845
382,12.330131800001254,0.09693224299669768,0.04314022307215157,0.0691913578690629,0.07956167560512284,0.08852303038511268,0.0011434711471717865,-0.04928491076946976,-0.0371827058474327,-0.024150721605833706,-0.12663405674135167,-0.14122269343049787,0.03500249043369115
383,12.33371609999449,0.09727494349292658,0.043521687521420487,0.0691960651491689,0.07934792604186659,0.0883613433971577,0.0010396318261626939,-0.04982882276347608,-0.03778951619747517,-0.02399791112638125,-0.12557462326092172,-0.14015817125691346,0.03585034159339562
384,12.33776909999142,0.09761671700269366,0.043902448951355096,0.06920032597946366,0.07913184037649967,0.08819704906680213,0.0009364594811637474,-0.05036814721587022,-0.038391743433401494,-0.02384146806701017,-0.12450689850271718,-0.13909767850342444,0.036686919058218324
385,12.341815599997062,0.09795755349278666,0.04428249615881228,0.0692041432704822,0.07891343847276175,0.0880301671240543,0.0008339696750430651,-0.05090284876318933,-0.03898940572174255,-0.02368144107217745,-0.12343106906873082,-0.13804157434348197,0.03751221683942199
386,12.346157099993434,0.098297443015997,0.044661818025577706,0.06920751999943155,0.0786927403451874,0.08786071721722509,0.0007321777608087848,-0.051432892856043126,-0.039582522753014965,-0.023517878798648938,-0.12234732592877269,-0.13699020602800036,0.038326234526229117
387,12.350314499999511,0.09863637571176251,0.04504040351799924,0.06921045920928541,0.07846976615554753,0.08768871890646777,0.0006310988816042364,-0.05195824577831958,-0.04017111568921826,-0.023350829894425083,-0.12125586424702497,-0.13594390891557018,0.03912897646425767
388,12.354449899998144,0.09897434180679482,0.045418241686593065,0.06921296400787914,0.07824453620921988,0.08751419165754482,0.000530747970788382,-0.052478874664160874,-0.0407552071137517,-0.023180342978785403,-0.1201568830575326,-0.13490300664665447,0.03992045132313756
389,12.357908799996949,0.09931133161569078,0.04579532166562333,0.06921503756700516,0.07801707095148402,0.08733715483579974,0.0004311397521031296,-0.0529947475143698,-0.041334820980414105,-0.023006466624944065,-0.11905058535036583,-0.13386781062511435,0.040700671707340375
390,12.363165299990214,0.09964733554152783,0.04617163267265625,0.06921668312150929,0.07778739096375037,0.08715762770036385,0.0003322887399033897,-0.05350583321412896,-0.041909982558848216,-0.02282924934345143,-0.11793717792074339,-0.13283861973715586,0.0414696543291442
391,12.367010999994818,0.09998234407644294,0.0465471640080898,0.06921790396838821,0.07755551695970227,0.08697562939859876,0.0002342092394675718,-0.0540121015481057,-0.04248071838111607,-0.022648739563357594,-0.11681687123978717,-0.13181572025416577,0.042227420354548816
392,12.373308899987023,0.10031634780219469,0.04692190505465989,0.06921870346588849,0.07732146978139474,0.08679117896076394,0.00013691534739012837,-0.054513523217056374,-0.043047056186305194,-0.02246498561262999,-0.11568988127046598,-0.13079938513893136,0.04297399579243674
393,12.37765650000074,0.10064933739070855,0.04729584527692401,0.06921908503260735,0.07708527039525337,0.08660429529493703,4.042095206097381e-05,-0.05501006986859605,-0.04360902486111929,-0.022278035695959937,-0.11455643132513305,-0.12978987345331988,0.04370941168915896
394,12.381690099995469,0.10098130360460447,0.047668974220723616,0.06921905214659589,0.07684693988790756,0.08641499718219396,-5.526026575052537e-05,-0.055501714129826345,-0.04416665437937492,-0.022087937873501686,-0.1134167514625722,-0.12878743021746947,0.044433704063670205
395,12.385925099995802,0.10131223729770618,0.048041281512626224,0.06921860834446492,0.07660649946190798,0.08622330327205115,-0.0001501148322327299,-0.05598842963290389,-0.04471997574137754,-0.021894740039238518,-0.11227107766590556,-0.12779228622459748,0.04514691403724916
396,12.393820199999029,0.10164212941553183,0.048412756859348434,0.06921775722049381,0.07636397043133931,0.08602923207816852,-0.00024412947976111817,-0.05647019104057661,-0.04526902091182067,-0.021698489898602798,-0.11111965223014258,-0.12680465799959836,0.04584908748757884
397,12.398843399991163,0.1019709709957655,0.04878339004716097,0.06921650242574304,0.07611937421731738,0.0858328019743275,-0.000337291146042411,-0.05694697407509528,-0.045813822758804794,-0.021499234949826043,-0.10996272385058134,-0.12582474791690743,0.04654027470282738
398,12.402594799990766,0.10229875316870898,0.04915317094127703,0.06921484766717043,0.07587273234335246,0.08563403119065997,-0.0004295869731830832,-0.05741875554451239,-0.04635441499275326,-0.02129702246454297,-0.10880054643275167,-0.12485274374581712,0.047220530489748135
399,12.406941900000676,0.10262546715771324,0.049522089485224775,0.06921279670675168,0.0756240664306196,0.08543293781015326,-0.0005210043066661744,-0.05788551336132795,-0.04689083210150894,-0.021091899468209056,-0.10763337775186115,-0.12388881862996425,0.04788991367641612
400,12.411150899992208,0.10295110427958944,0.04989013570020553,0.06921035336060548,0.0753733981931611,0.08522953976543898,-0.0006115306942508777,-0.058347226557224456,-0.04742310928907321,-0.020883912724994107,-0.10646147858892809,-0.12293313185589143,0.048548486528491315
401,12.415095899996231,0.10327565594499902,0.05025729968443858,0.06920752149812351,0.0751207494330297,0.08502385483582638,-0.000701153884819039,-0.05880387529426076,-0.04795128241733239,-0.020673108723235273,-0.10528511197340672,-0.12198582900187449,0.049196314857315945
402,12.419233199994778,0.10359911365882281,0.05062357161249379,0.0692043050411055,0.07486614203539445,0.08481590064459393,-0.00078986182714926,-0.059255440873073724,-0.04847538794608054,-0.02045953365939813,-0.10410454264178487,-0.12104704179786224,0.04983346799829476
403,12.423393999997645,0.10392146902050892,0.050988941734613026,0.06920070796289983,0.07460959796361322,0.08460569465654008,-0.0008776426686250415,-0.059701905739401866,-0.04899546287353774,-0.020243233423716197,-0.10292003665021522,-0.12011688821387526,0.05046001861631898
404,12.427928299992343,0.10424271372439929,0.05135340037602163,0.0691967342875497,0.0743511392542823,0.0843932541757879,-0.00096448475388501,-0.06014325348894544,-0.04951154467713538,-0.02002425358583049,-0.10173186156829375,-0.11919547232871114,0.05107604259765891
405,12.434717600001022,0.10456283956003494,0.05171693793623094,0.0691923880889454,0.07409078801226693,0.08417859634384661,-0.0010503766234071844,-0.06057946887556168,-0.0500236712529019,-0.01980263938136159,-0.10054028732185405,-0.11828288398473558,0.05168161922293043
406,12.439119499991648,0.10488183841243962,0.05207954488833301,0.06918767348998268,0.07382856640568024,0.08396173813793918,-0.0011353070120433697,-0.06101053782339503,-0.05053188085327023,-0.01957843569605713,-0.09934558647476098,-0.11737919841954385,0.052276831685977
407,12.44399539999722,0.10519970226238172,0.05244121177828873,0.06918259466172767,0.07356449666080912,0.08374269636960029,-0.0012192648474666763,-0.06143644743750318,-0.051036212023286114,-0.019351687047887894,-0.09814803429269518,-0.1164844761577923,0.052861766942516895
408,12.448854499991285,0.10551642318661422,0.05280192922421043,0.06917715582258864,0.07329860105700155,0.08352148768355419,-0.0013022392485514708,-0.06185718601653753,-0.05153670353748251,-0.019122437572500896,-0.09694791010646744,-0.11559876355297954,0.05343651566691428
409,12.457558399997652,0.10583199335809246,0.05316168791564034,0.06917136123749487,0.07303090192148301,0.08329812855685727,-0.0013842195236954096,-0.062272743075129526,-0.05203339434076144,-0.01889073100568837,-0.09574549858692626,-0.11472209341370986,0.05400117255486422
410,12.461346899988712,0.10614640504616933,0.053520478612825786,0.06916521521708294,0.07276142162405075,0.08307263529828583,-0.0014651951690481631,-0.06268310936756874,-0.05252632349067063,-0.018656610666229836,-0.09454108944227074,-0.11385448522003415,0.054555835674782005
411,12.465136799990432,0.10645965061676735,0.05387829214599235,0.06915872211689082,0.07249018257168595,0.0828450240479766,-0.0015451558666854414,-0.06308827690757816,-0.053015530100151635,-0.018420119443956145,-0.09333497648871888,-0.11299594561972497,0.05510060616511771
412,12.469414699997287,0.10677172253252734,0.05423511941461601,0.06915188633655996,0.07221720720307737,0.08261531077730838,-0.0016240914827347554,-0.06348823898397567,-0.05350105328409746,-0.01818129978520259,-0.09212745659063466,-0.11214646885032185,0.05563558823437145
413,12.473491599987028,0.10708261335293326,0.05459095138669525,0.06914471231904551,0.07194251798309843,0.08238351128900356,-0.0017019920654239582,-0.06388299017130657,-0.0539829321057413,-0.017940193680872813,-0.09091882914244115,-0.11130603650321398,0.056160888598968346
414,12.477661699987948,0.10739231573441325,0.05494577909802407,0.06913720454983525,0.07166613739723916,0.08214964121747226,-0.0017788478431040424,-0.06427252634103595,-0.054461205521179126,-0.017696842656740947,-0.08970939505125106,-0.11047461770528746,0.05667661665620603
415,12.481056699994951,0.10770082243041644,0.05529959365146707,0.06912936755617692,0.07138808794598671,0.08191371602939233,-0.0018546492222140253,-0.06465684466340516,-0.05493591232732534,-0.017451287760023634,-0.08849945539706228,-0.10965216982128294,0.05718288450590254
416,12.485467199992854,0.1080081262914655,0.055652386216237484,0.06912120590631461,0.07110839213924125,0.08167575102450253,-0.0019293867851879136,-0.06503594360706666,-0.055407091112494054,-0.017203569549495416,-0.08728931147714601,-0.10883863896312666,0.057679806453100564
417,12.489827699988382,0.10831422026518528,0.05600414802717909,0.06911272420873421,0.07082707249069971,0.08143576133660878,-0.0020030512883343213,-0.06540982294132344,-0.05587478020874839,-0.016953728086350563,-0.08607926506378903,-0.1080339604440535,0.058167499418865475
418,12.49408069999481,0.10861909739630694,0.05635487038405291,0.06910392711141809,0.07054415151225231,0.08119376193478836,-0.0020756336596646067,-0.0657784837379872,-0.05633901764639911,-0.016701802920774812,-0.08486961944197341,-0.10723805938342852,0.058646083286222256
419,12.49841019998712,0.10892275082664823,0.056704544650829525,0.06909481930110926,0.07025965170835027,0.08094976762478874,-0.0021471249966566546,-0.066141928382569,-0.056799841111571235,-0.01644783307982306,-0.08366067971374307,-0.10645085184103353,0.05911568005693369
420,12.502520899986848,0.10922517379506905,0.05705316225498785,0.06908540550258536,0.06997359557030584,0.08070379305059776,-0.0022175165639784435,-0.06650016057876307,-0.057257287910487314,-0.016191857061264938,-0.08245275137055716,-0.10567224602894143,0.05957641309485393
421,12.506545399999595,0.10952635963740251,0.05740071468682097,0.06907569047794244,0.0696860055706213,0.08045585269615056,-0.0022867997911987384,-0.06685318534732215,-0.05771139493748797,-0.015933912827989515,-0.08124614020544056,-0.1049021427980926,0.06002840727721773
422,12.510680699997463,0.10982630178636164,0.05774719349874965,0.06906567902588871,0.06939690415729867,0.08020596088717567,-0.0023549662704623916,-0.06720100902978353,-0.05816219864351248,-0.015674037800545815,-0.08004115268207207,-0.10414043623229725,0.06047178899464021
423,12.514943299989682,0.11012499377142136,0.05809259030464411,0.06905537598104837,0.06910631374813664,0.0799541317931738,-0.0024220077541366883,-0.06754363929052826,-0.05860973500924332,-0.015412268851547522,-0.07883809526431709,-0.10338701465290688,0.060906685999858434
424,12.519963799990364,0.11042242921867593,0.05843689677915458,0.06904478621327566,0.06881425672502248,0.07970037942949558,-0.0024879161524383807,-0.0678810851147235,-0.05905403952225329,-0.015148642299518286,-0.07763727370249043,-0.10264176124656729,0.06133322775354806
425,12.523743400000969,0.11071860185067171,0.058780104657051024,0.06903391462697916,0.06852075542824668,0.07944471765951751,-0.002552683531026942,-0.06821335680422497,-0.05949514715556521,-0.014883193900313335,-0.0764389932286309,-0.10190455455273613,0.061751545467596494
426,12.527983299994958,0.11101350548621562,0.05912220573257244,0.06902276616045663,0.06822583215083027,0.07918716019690464,-0.0026163021085576017,-0.06854046597720369,-0.05993309234900447,-0.014615958840591501,-0.07524355855481381,-0.1011752689806542,0.062161771629501504
427,12.531974499986973,0.1113071340401589,0.059463191858786096,0.06901134578524037,0.06792950913284264,0.07892772060794738,-0.002678764254218287,-0.06886242556403391,-0.06036790899221824,-0.01434697173333947,-0.07405127307437467,-0.10045377495014965,0.06256403974288413
428,12.536187699995937,0.11159948152315657,0.05980305494695704,0.06899965850545332,0.06763180855576435,0.07866641231397066,-0.00274006248524405,-0.06917924980002944,-0.060799630407242664,-0.014076266613582215,-0.07286243862506511,-0.0997399388282358,0.06295848413294858
429,12.540189699997429,0.11189054204140259,0.060141786965928076,0.0689877093571759,0.06733275253686762,0.07840324859382111,-0.002800189464417005,-0.06949095421928848,-0.06122828933097511,-0.013803876935585392,-0.07167735499015152,-0.09903362304697325,0.06334523988156807
430,12.544483699995908,0.11218030979634078,0.060479379941510716,0.0689755034078236,0.06703236312363217,0.07813824258642743,-0.0028591379975566244,-0.06979755564312631,-0.06165391789875808,-0.013529835569125735,-0.07049631892545533,-0.0983346863731495,0.06372444287056961
431,12.548702999993113,0.11246877908435189,0.060815825955887276,0.06896304575553557,0.06673066228822558,0.07787140729342917,-0.0029169010309875033,-0.07009907216552713,-0.0620765476291778,-0.013254174796320075,-0.0693196241173959,-0.097642984222904,0.06409622967363515
432,12.552849799991236,0.11275594429641689,0.061151117147024495,0.06895034152857397,0.06642767192204459,0.07760275558186824,-0.0029734716490023004,-0.07039552314121485,-0.06249620941036216,-0.012976926308828213,-0.06814756129115089,-0.0969583690723979,0.06446073764274923
433,12.556966199990711,0.11304179991775688,0.06148524570809884,0.06893739588473448,0.06612341383029832,0.07733230018693589,-0.0030288430713053755,-0.07068692917203791,-0.06291293348832179,-0.012698121203936225,-0.06698041758178581,-0.09628069099735886,0.06481810471365175
434,12.560940700001083,0.11332634052744973,0.06181820388693382,0.0689242140107677,0.06581790972666711,0.07706005371476476,-0.0030830086504419433,-0.07097331208961531,-0.06332674945790229,-0.012417789983437547,-0.06581847564912777,-0.09560979808468648,0.06516846888691379
435,12.56535229999281,0.11360956079802391,0.062149983985449395,0.06891080112181182,0.06551118122803536,0.07678602864525397,-0.003135961869232059,-0.07125469493408614,-0.06373768625467591,-0.012135962554192638,-0.06466201259717938,-0.09494553655124983,0.0655119679469424
436,12.569270599997251,0.11389145549502963,0.06248057835912364,0.06889716246083619,0.06520324984933369,0.07651023733493105,-0.0031876963382046005,-0.07153110192743414,-0.06414577214691852,-0.011852668229434,-0.06351129941108805,-0.09428775081904621,0.06584873918087308
437,12.573667799995746,0.11417201947658825,0.06280997941646685,0.06888330329809607,0.06489413699850195,0.07623269201984627,-0.0032382057930425098,-0.07180255844738048,-0.06455103472814969,-0.011567935731750741,-0.06236660063413017,-0.093636284143333,0.06617891929206854
438,12.577828299996328,0.11445124769291996,0.06313817961850816,0.06886922893059831,0.06458386397155653,0.07595340481849894,-0.003287484092042522,-0.07206909099792189,-0.06495350091452799,-0.011281793195139774,-0.06122817334959928,-0.09299097949812732,0.06650264440021315
439,12.58177629999409,0.1147291351858506,0.06346517147829492,0.06885494468157796,0.06427245194780752,0.07567238773475415,-0.003335525213578101,-0.07233072717444089,-0.06535319694502967,-0.010994268167989566,-0.06009626672761519,-0.09235167974853134,0.06682004952233024
440,12.58610570000019,0.11500567708829808,0.06379094756040445,0.06884045589998584,0.063959921985227,0.07538965266076761,-0.003382323253584907,-0.0725874956303347,-0.06575014838033046,-0.010705387619608204,-0.05897112183229146,-0.09171822808471251,0.06713126833497915
441,12.590362999995705,0.1152808686237393,0.06411550048046863,0.06882576795998686,0.06364629501595406,0.07510521137991195,-0.003427872423080044,-0.07283942604046201,-0.06614438010672782,-0.010415177945258487,-0.057852970386551246,-0.0910904688859628,0.06743643354186209
442,12.594429599994328,0.1155547051056578,0.06443882290471097,0.06881088626046898,0.06333159184197844,0.07481907556966778,-0.0034721670456909605,-0.07308654905711684,-0.06653591634247642,-0.010123664969514933,-0.05674203412514514,-0.09046824793647096,0.06773567665757263
443,12.598502599998028,0.11582718193697333,0.06476090754949605,0.06879581622456284,0.06301583313102527,0.07453125680449535,-0.0035152015552036586,-0.07332889626789436,-0.0669247806435716,-0.009830873953164305,-0.05563852479531395,-0.08985141298818283,0.06802912716441477
