,time,x,y,z,vx,vy,vz,ax,ay,az,jx,jy,jz
0,15.5989821000112,0.017530230310378033,-0.020074017473908756,0.019234625605225437,-0.021829961661973492,-0.01851535074683394,0.010521677837796872,0.06862266933074641,0.018641486092710137,0.006411790698998104,0.16472396087719163,0.2250706465656391,-0.038226002306784815
1,15.602787200012244,0.017426513747376225,-0.020162439291781957,0.019285067717825163,-0.021499568541938227,-0.018423532586054777,0.010551933925724592,0.06941180932706094,0.019724358189404177,0.006227537517590917,0.16496135927406194,0.22733559069902523,-0.03875589765071952
2,15.607092300007936,0.01732438786151214,-0.020250409156229103,0.01933565255910618,-0.02116539498547373,-0.018326504622592183,0.010581301898183229,0.07020205219580172,0.020818056037012988,0.006040731676820125,0.16518460702537666,0.22959332510600647,-0.03929249065208659
3,15.611104300012812,0.017223870762865846,-0.020337902003199067,0.019386375848295907,-0.02082743587512647,-0.018224215114779615,0.010609769458510885,0.0709933296240254,0.021922544268854822,0.0058513410147593035,0.16539346471983202,0.23184349285559205,-0.03983582164888679
4,15.615542100000312,0.01712498058523259,-0.020424892521351875,0.019437233245387504,-0.020485686423208995,-0.018116612494344608,0.010637324155619606,0.0717855721505364,0.023037785806469795,0.005659333182017931,0.1655876921947162,0.234085735633197,-0.04038592850454167
5,15.619810300006066,0.017027735484531,-0.020511355152908375,0.019488220350398443,-0.020140142177307287,-0.018003645374619417,0.010663953383126033,0.07257870916301122,0.024163741852579333,0.00546467565415536,0.16576704884475207,0.23631969362982264,-0.04094284648522554
6,15.623856000005617,0.016932153637184894,-0.0205972640945393,0.0195393327026251,-0.019790799025794607,-0.017885262558786794,0.010689644378544775,0.07337266889663695,0.025300371883818815,0.005267335744133562,0.16593129380384855,0.23854500540780788,-0.041506608283577995
7,15.628325500001663,0.01683825323847868,-0.020682593298293885,0.0195905657798936,-0.01943765320335188,-0.0177614130481602,0.01071438422253829,0.0741673784329756,0.026447633642411702,0.005067280614504074,0.16608018607537797,0.2407613076873987,-0.04207724405827474
8,15.632143599999836,0.016746052500886312,-0.0207673164725682,0.019641914997807222,-0.019080701296492416,-0.01763204605050931,0.010738159838226933,0.07496276369985001,0.02760548312685873,0.00486447728948188,0.1662134846745158,0.24296823524372593,-0.042654781465668964
9,15.636250600000494,0.016655569652373813,-0.020851407083113487,0.019693375708990657,-0.018719940249083387,-0.01749711098842936,0.010760957990554437,0.07575874947157095,0.02877387458262567,0.004658892666829414,0.16633094870735385,0.24516542080033737,-0.043239245734825994
10,15.640555999998467,0.016566822934675346,-0.020934838354084617,0.019744943202331323,-0.018355367367868376,-0.0173565575077558,0.010782765285711744,0.07655525936958044,0.029952760491813196,0.004450493529212041,0.16643233751721753,0.24735249489078492,-0.04383065982169973
11,15.64465200000268,0.016479830601542865,-0.02101758326912899,0.0197966127022181,-0.01798698032798269,-0.017210335486032576,0.010803568170611205,0.0773522158640798,0.03114209156251942,0.004239246554605934,0.16651741072028117,0.24952908584265196,-0.04442904452792053
12,15.648813899999368,0.016394610916969393,-0.021099614572516075,0.019848379367777634,-0.017614777178460325,-0.017058395041028598,0.010823352932410059,0.07814954027501392,0.032341816718356835,0.004025118326516252,0.16658592811841036,0.25169481975000113,-0.04503441863496863
13,15.652812700005596,0.01631118215338594,-0.02118090477030785,0.019900238292108487,-0.017238756347739855,-0.016900686539306396,0.010842105698082461,0.07894715277286485,0.033551883087551075,0.0038080753431004003,0.16663764972689207,0.25384932036663754,-0.04564679907808804
14,15.657057700009318,0.016229562589832065,-0.02126142613157037,0.019952184501513353,-0.0168589166491638,-0.016737160604842975,0.010859812434030315,0.07974497237990155,0.03477223599143592,0.0035880840257211167,0.16667233578651752,0.2559922090508176,-0.04626620090308257
15,15.661299500003224,0.016149770510100143,-0.02134115068962675,0.020004212954729487,-0.016475257286472547,-0.016567768127708604,0.01087645894573719,0.08054291697108919,0.03600281893302268,0.0033651107284833775,0.16668974668031641,0.2581231048915089,-0.04689263716728546
16,15.665353500007768,0.016071824200853332,-0.02142005024335184,0.020056318542157597,-0.01608777785929501,-0.01639246027279712,0.010892030877470458,0.08134090327454166,0.037243573586704055,0.0031391217477356225,0.166689642901868,0.2602416246810607,-0.047526118959258776
17,15.669792700005928,0.015995741949717264,-0.021498096358508776,0.02010849608508943,-0.015696478368638227,-0.01621118848860329,0.01090651371202618,0.0821388468721275,0.03849443978656186,0.002910083331418057,0.1666717850358752,0.26234738280832587,-0.048166655304096556
18,15.673847900005056,0.015921542043345453,-0.02157526036912769,0.020160740334934212,-0.015301359222372211,-0.01602390451606507,0.01091989277052075,0.08293666219973642,0.0397553555150476,0.0026779616894705284,0.16663593361165163,0.26443999153506353,-0.048814253021019625
19,15.677424000008614,0.015849242765458477,-0.021651513378926932,0.020213045972444253,-0.014902421240716996,-0.015830560397449334,0.010932153212235424,0.08373426254648245,0.04102625689393654,0.002442723004544252,0.16658184905559853,0.26651906109928686,-0.04946891668376681
20,15.681545800005551,0.015778862394856853,-0.021726826262776857,0.020265407606939886,-0.014499665661735122,-0.015631108485280733,0.010943280034510519,0.0845315600545155,0.042307078173997766,0.002204333442788913,0.16650929183575086,0.2685841996083625,-0.05013064851800626
21,15.686217499998747,0.015710419203407627,-0.02180116966820652,0.02031781977553406,-0.01409309414682048,-0.015425501451326344,0.01095325807269323,0.08532846571960839,0.04359775172492477,0.0019627591655466017,0.16641802254265736,0.27063501322438643,-0.05079944822732667
22,15.690703800006304,0.015643931454004698,-0.02187451401695349,0.020370276942356793,-0.013682708786185181,-0.015213692295620924,0.010962072000143782,0.08612488939174283,0.04489820802678034,0.0017179663418049223,0.1663078019250016,0.2726711063661879,-0.05147531296931684
23,15.696576700007428,0.01557941739850288,-0.021946829506556954,0.0204227734977798,-0.013268512104342788,-0.014995634355533471,0.010969706328302476,0.08692073977603744,0.046208375661861166,0.0014699211601199478,0.1661783908599805,0.2746920817647374,-0.05215823756534158
24,15.700710500008428,0.015516895275625723,-0.022018086111994344,0.020475303757641613,-0.012850507065586297,-0.01477128131487037,0.010976145406809999,0.08771592443305014,0.04752818130667325,0.0012185898390608793,0.16602955028203553,0.2766975405064082,-0.05284821480486344
25,15.707197300012922,0.01545638330884713,-0.022088253587361592,0.020527861962473345,-0.012428697079468481,-0.014540587213018777,0.010981373423674464,0.08851034977902386,0.048857549724210705,0.0009639386362193471,0.16586104140626123,0.27868708225838373,-0.0535452356825263
26,15.711847700004,0.015397899704246711,-0.02215730146759729,0.02058044227672541,-0.012003086006277515,-0.014303506454123698,0.010985374405477985,0.08930392108832787,0.05019640375808924,0.0007059338563841685,0.1656726261633666,0.28066030548212123,-0.05424928956834171
27,15.715371199999936,0.015341462648338966,-0.022225199070250827,0.02063303878799528,-0.01157367816249394,-0.014059993816287536,0.01098813221762198,0.09009654249786792,0.051544664326868744,0.0004445418589212421,0.16546406740914055,0.28261680737012995,-0.05496036444072266
28,15.71985430001223,0.015287090305876399,-0.022291915497294607,0.02068564550625653,-0.011140478326224078,-0.013810004460801528,0.0109896305646044,0.09088811701153304,0.05290225041758148,0.0001797290637171792,0.16523512876021057,0.2845561837787674,-0.05567844719489294
29,15.723861000005854,0.015234800817626681,-0.022357419636980583,0.020738256363089264,-0.010703491742614408,-0.013553493941407256,0.010989852990321942,0.09167854650303325,0.054269079079411225,-8.853804439359328e-05,0.16498557426608837,0.2864780291965833,-0.05640352394741706
30,15.7277322000009,0.015184612298123923,-0.02242168016574115,0.020790865210912057,-0.010262724129257817,-0.013290418213588598,0.010988782878389664,0.09246773171720638,0.05564506541691837,-0.0003602929126008495,0.16471516823536156,0.2883819366850049,-0.05713558024548403
31,15.732185800006846,0.015136542833394079,-0.02248466555013463,0.020843465822215433,-0.009818181681595468,-0.013020733643898108,0.010986403452472189,0.09325557227119166,0.05703012258315118,-0.0006355689176951993,0.16442367530070034,0.29026749781908734,-0.05787460112636756
32,15.73621550000098,0.015090610478654495,-0.02254634404883547,0.020896051888796976,-0.009369871078311807,-0.012744397019314919,0.010982697776626518,0.09404196665635904,0.05842416177230364,-0.0009143993636093923,0.1641108605670882,0.2921343025689565,-0.05862057103442405
33,15.740432500009774,0.01504683325598767,-0.022606683714669316,0.020948617020998095,-0.008917799486717965,-0.012461365556641417,0.01097764875565678,0.09482681224090192,0.059827092211691586,-0.0011968174782002693,0.16377648979782183,0.2939819392562028,-0.059373473741837664
34,15.744716700006393,0.015005229151989251,-0.022665652396693176,0.021001154746942533,-0.00846197456812194,-0.012171596911937973,0.01097123913548785,0.09561000527354724,0.06123882115399306,-0.0014828564100312594,0.1634203296595051,0.2958099945460686,-0.06013329234099376
35,15.751196600002004,0.014965816115390386,-0.02272321774232083,0.021053658511776707,-0.00800240448317648,-0.011875049189993903,0.01096345150355091,0.09639144088849391,0.06265925386914967,-0.0017725492250813134,0.1630421480164464,0.29761805335651265,-0.06090000924035342
36,15.756952900002943,0.014928612054654518,-0.022779347199493667,0.021106121676911907,-0.007539097897201973,-0.01157168095383974,0.01095426828918857,0.09717101311194153,0.06408829363573626,-0.002065928903487901,0.16264171427277999,0.299405698905545,-0.06167360625529013
37,15.761360900010914,0.014893634835548765,-0.022834008018897164,0.021158537519268515,-0.007072063985471836,-0.01126145123430083,0.010943671764071615,0.09794861487030433,0.0655258417333155,-0.0023630283371256396,0.16221879960170718,0.30117251286163454,-0.06245406466762558
38,15.76584730000468,0.014860902278690122,-0.022887167256223202,0.021210899230522197,-0.0066013124384567586,-0.01094431953958279,0.010931644042627314,0.09872413799893476,0.06697179743524762,-0.002663880326919302,0.16177317706203678,0.30291807543456445,-0.06324136526101823
39,15.770399100001669,0.014830432157066626,-0.02293879177447831,0.02126319991635222,-0.006126853467026561,-0.010620245864893954,0.010918167082481884,0.0994974732514532,0.06842605800191477,-0.002968517580761264,0.1613046216496375,0.3046419655492331,-0.06403548837241838
40,15.777587900010984,0.014802242193533755,-0.022988848246338112,0.02131543259569188,-0.005648697807605125,-0.010289190702095708,0.010903222684908743,0.10026851030896412,0.06988851867519488,-0.0032769727113171583,0.16081291022825822,0.30634376104345246,-0.06483641384074533
41,15.781913600003463,0.014776350058286238,-0.023037303156547964,0.021367590199981114,-0.005166856727284007,-0.009951115049377833,0.010886792495291986,0.10103713778872356,0.07135907267357978,-0.003589278233451942,0.1602978214899802,0.30802303886954857,-0.06564412098306191
42,15.785719999999856,0.014752773366305491,-0.023084122804370034,0.02141966557242136,-0.004681342028894386,-0.009605980420955586,0.010868858003599274,0.10180324325297653,0.07283761118857916,-0.0039054665618074385,0.15975913588208152,0.3096793752840925,-0.06645858850362438
43,15.790124100007231,0.014731529674782877,-0.02312927330607679,0.021471651467232705,-0.004192166056036064,-0.009253748856779473,0.010849400544868508,0.10256671321692432,0.0743240233816553,-0.004225570007357628,0.15919663545089668,0.3113123459071933,-0.06727979424099657
44,15.795366600010311,0.014712636480518985,-0.023172720597491037,0.021523540548913395,-0.003699341698073134,-0.008894382932261675,0.010828401299713701,0.10332743315606699,0.07581819638119465,-0.004549620772564994,0.15861010382997434,0.31292152583315047,-0.06810771487555618
45,15.79941289999988,0.014696111217299059,-0.023214430436572522,0.021575325391501827,-0.0032028823950926845,-0.00852784576801482,0.01080584129485802,0.10408528751405727,0.07732001528050206,-0.004877650945135399,0.15799932633294891,0.3145064898203109,-0.06894232566046708
46,15.803145500001849,0.014681971253244806,-0.023254368406051225,0.021626998477841174,-0.0027028021428252666,-0.008154101039597609,0.010781701403699454,0.10484015971093225,0.07882936313659004,-0.005209692490598695,0.15736409006223195,0.31606681235815004,-0.06978360012924148
47,15.806929200000011,0.014670233888142713,-0.023292499916107268,0.021678552198846783,-0.0021991154975247876,-0.007773112987265181,0.01075596234691489,0.10559193215200788,0.08034612096881524,-0.0055457772432637225,0.15670418396047062,0.3176020677345367,-0.07063150976384605
48,15.811114900003304,0.014660916350749138,-0.02332879020709755,0.021729978852776582,-0.001691837580803823,-0.007384846425727796,0.010728604693112384,0.10634048623660339,0.08187016775831175,-0.005885936895621282,0.1560193987848046,0.3191118301662306,-0.07148602368612211
49,15.816243500012206,0.014654035796072322,-0.0233632043523291,0.02178127064450473,-0.0011809840844299775,-0.006989266753906623,0.010699608859536693,0.10708570236668928,0.08340138044787697,-0.006230202986344708,0.15530952728474323,0.320595673846233,-0.07234710832971393
50,15.823574800000642,0.014649609302631567,-0.023395707260879105,0.021832419684798772,-0.0006665712750783994,-0.006586339964693515,0.010668955112836427,0.1078274599573148,0.08493963394185827,-0.0065786068865518,0.154574364646947,0.3220531731612619,-0.07321472710420017
51,15.827728600008411,0.014647653869693746,-0.023426263680461717,0.02188341798960064,-0.00014861599902830656,-0.006176032654707884,0.010636623569901119,0.10856563744951438,0.08648480110812104,-0.006931179784589703,0.1538137089596932,0.3234839030158904,-0.07408884015772632
52,15.832642400011537,0.01464818641448751,-0.023454838200341492,0.02193425747931182,0.00037286431320806884,-0.0057583120340376345,0.010602594198774051,0.10930011232518203,0.08803675278103872,-0.007287952670024219,0.1530273615093548,0.32488743903021,-0.07496940431780959
53,15.83724040001107,0.014651223769395488,-0.02348139525429345,0.021984929978083094,0.0008978516423313657,-0.005333145935967408,0.01056684681964261,0.11003076112281635,0.0895953577653533,-0.007648956317857938,0.15221512688518368,0.32626335769798054,-0.07585637315062882
54,15.841152400011197,0.01465678267912488,-0.023505899123609664,0.022035427213109183,0.0014263273757768966,-0.004900502826682558,0.010529361105902217,0.11075745945339813,0.09116048284067957,-0.008014221273087208,0.15137681309393927,0.3276112364300914,-0.07674969702814899
55,15.845543400006136,0.014664879797856788,-0.023528313940152232,0.022085740813928677,0.0019582723033125487,-0.004460351814954267,0.010490116585294536,0.11148008201723286,0.09273199276578172,-0.008383777835562932,0.15051223176149087,0.3289306536415164,-0.07764932331003986
56,15.84908759999962,0.014675531686374668,-0.023548603689452587,0.02213586231172959,0.002493666612721841,-0.004012662661802579,0.010449092641116351,0.11219850262175853,0.09430975028391007,-0.008757656046289274,0.1496211983245763,0.3302211888897201,-0.07855519643464633
57,15.85271270001249,0.014688754809172318,-0.02356673221385698,0.02218578313866084,0.003032489885572322,-0.00355740579013042,0.010406268513488958,0.11291259420022404,0.09589361612840287,-0.009135885673155432,0.1487035323213376,0.3314824228627482,-0.07946725778051832
58,15.857089700002687,0.014704565531541822,-0.023582663215718044,0.022235494627149976,0.0035747210930774584,-0.003094552294332996,0.010361623300703643,0.11362222883227871,0.09748344902790898,-0.009518496195908594,0.14775905771150166,0.33271393744250544,-0.08038544575736135
59,15.861799100006465,0.01472298011664192,-0.02359636026063227,0.022284988009227534,0.0041203385920621635,-0.0026240739498818114,0.010315135960634951,0.1143272777657162,0.09907910571259547,-0.009905516792756495,0.14678760309976827,0.33391531596568236,-0.08130969587331209
60,15.865630100001,0.01474401472254732,-0.023607786780723325,0.02233425441585829,0.004669320121032866,-0.0021459432228746354,0.010266785312214437,0.11502761143920275,0.10068044092186855,-0.010296976325984485,0.14578900192360736,0.33508614347672033,-0.08223994055693701
61,15.869469100012791,0.014767685399279445,-0.023616906077970977,0.022383284876279736,0.005221642796360646,-0.001660133279545596,0.010216550036981634,0.1157230995058191,0.10228730741300308,-0.010692903326853858,0.14476309255007627,0.3362260069056985,-0.08317610920475123
62,15.87380580000172,0.014794008085819202,-0.023623681327585456,0.022432070317348174,0.005777283108576699,-0.001166617995732525,0.010164408680702397,0.11641361085671577,0.10389955597056666,-0.011093325981673877,0.14370971834894072,0.3373344951474427,-0.08411812822862275
63,15.878111300000455,0.014822998607102256,-0.02362807558142702,0.02248060156289269,0.006336216918781954,-0.0006653719662968259,0.01011033965505322,0.117099013645355,0.10551703541580651,-0.011498272117153962,0.14262872766303114,0.3384111989231558,-0.08506592089378176
64,15.88207190000685,0.01485467267099743,-0.023630051771470508,0.022528869333077375,0.006898419455174636,-0.00015637051450094377,0.010054321239379818,0.11777917531088217,0.1071395926147488,-0.011907769184924775,0.14151997359876411,0.3394557105510778,-0.0860194072633156
65,15.886572300005357,0.014889045865268733,-0.02362957271331469,0.022576864243772133,0.00746386530968365,0.0003604102986493105,0.00999633158252965,0.11845396260036226,0.10876707248538979,-0.01232184424635899,0.14038331388182385,0.3404676237607457,-0.08697850418630222
66,15.890768199999002,0.01492613365452152,-0.023626601109736262,0.02262457680593245,0.00803252843470904,0.0008849936650961406,0.009936348704755828,0.11912324159076942,0.1103993180040168,-0.012740523956978762,0.13921861069905767,0.34144653356253474,-0.08794312526645323
67,15.894959299999757,0.014965951377133316,-0.02362109955428832,0.02267199742498843,0.008604382139965904,0.0014174020204479594,0.009874350499698922,0.11978687770970975,0.11203617021115031,-0.013163834550976276,0.13802573036441654,0.342392036314828,-0.08891318098050463
68,15.89876730000833,0.015008514242169762,-0.023613030534943222,0.022719116400243534,0.009179399089423262,0.0019576570347276594,0.009810314736439079,0.12044473575421247,0.11367746821850805,-0.013591801826754724,0.13680454298085887,0.3433037297793869,-0.08988857877298943
69,15.902717500008292,0.01505383732628613,-0.02360235643777964,0.022765923924283272,0.009757551298327881,0.002505779603157485,0.009744219061616263,0.12109667990821567,0.11532304921547722,-0.014024451132356232,0.1355549223120633,0.3441812130304376,-0.09086922305642661
70,15.907326400003512,0.015101935570614771,-0.023589039550713654,0.022812410082394236,0.010338810130310558,0.0030617898369692683,0.009676041001621886,0.12174257376012929,0.11697274847520812,-0.01446180735100464,0.1342767457626171,0.3450240864902226,-0.09185501523503325
71,15.91343460000644,0.015152823777638925,-0.023573042067273783,0.022858564851993772,0.010923146294578094,0.0036257070542476447,0.009605757964857471,0.12238228032013111,0.11862639936142683,-0.014903894886760461,0.13296989431856848,0.34583195195666605,-0.09284585367298968
72,15.917558900007862,0.015206516608053286,-0.02355432609041975,0.022904378102070647,0.011510529843185176,0.004197549770805513,0.009533347244063621,0.12301566203716062,0.12028383333479362,-0.01535073764975982,0.13163425267007914,0.34660441237412937,-0.09384163356798542
73,15.924307799999951,0.015263028577611696,-0.023532853636404873,0.022949839592637012,0.012100930168389055,0.004777335691088131,0.009458786018720008,0.12364258081738928,0.12194487995752082,-0.01580235904065871,0.130269709628589,0.34734107159227723,-0.0948422467259457
74,15.928895300006843,0.015322374053962376,-0.023508586638681925,0.02299493897419205,0.012694316000098264,0.005365081699092785,0.009382051357523284,0.12426289804520844,0.1236093668974226,-0.01625878193371511,0.1288761585140777,0.3480415344529687,-0.0958475813672835
75,15.932594900004917,0.015384567253471195,-0.023481486951852454,0.023039665787197662,0.013290655403428242,0.0059608038493116616,0.009303120220949038,0.12487647460540738,0.1252771199333647,-0.01672002865937823,0.12745349723998867,0.34870540678240386,-0.09685752209512691
76,15.937957600006484,0.015449622238033504,-0.023451516355659355,0.023084009461566645,0.013889915776362392,0.006564517357703694,0.009221969463896406,0.12548317090497424,0.12694796295923905,-0.017186120987066452,0.1260016282739133,0.349332295165834,-0.09787194986397968
77,15.943213400008972,0.015517552911875003,-0.023418636559022637,0.0231279593161637,0.01449206384751643,0.007176236592675484,0.009138575838414915,0.1260828468948977,0.12862171798725644,-0.017657080107456515,0.12452045871859409,0.34992180702654424,-0.09889074178989017
78,15.949726700011524,0.015588373018342174,-0.02338280920411834,0.02317150455831971,0.015097065674008177,0.007795975066084681,0.009052915996518663,0.1266753620927435,0.13029820515267745,-0.01813292661344395,0.12300990054300372,0.3504735508314464,-0.09991377073506585
79,15.953411400012556,0.015662096136682756,-0.023343995870500445,0.023214634283359698,0.015704886639438066,0.008423745424266193,0.008964966493095451,0.12726057560666837,0.13197724271907352,-0.018613680478455276,0.1214698709164379,0.35098713630455664,-0.10094090494060827
80,15.957533100008732,0.015738735678816836,-0.023302158079265698,0.023257337474144962,0.016315491451988847,0.009059559439085936,0.008874703788928608,0.12783834616119538,0.13365864708510164,-0.019099361033892138,0.1199002924973218,0.35146217471566443,-0.10197200797507458
81,15.963476500008255,0.015818304886099137,-0.023257257297261177,0.023299603000629956,0.01692884414265287,0.009703427999031912,0.008782104253822079,0.128408532123993,0.13534223279252933,-0.019589986946951014,0.11830109367410645,0.351898279148978,-0.10300693847729835
82,15.969450500007952,0.01590081682607313,-0.023209254941334422,0.023341419619434346,0.017544908063588188,0.010355361100344787,0.008687144169834607,0.12897099153395672,0.13702781253558138,-0.020085576195605054,0.11667220906348144,0.3522950648786808,-0.10404554965837966
83,15.978711100004148,0.015986284389217592,-0.023158112382625908,0.02338277597343086,0.018163645886614694,0.011015367838198462,0.00858979973464436,0.12952558213275822,0.1387151971725605,-0.020586146041655713,0.11501358023774616,0.3526521497565895,-0.10508768905275068
84,15.98215860000346,0.01607472028568631,-0.02310379095090362,0.023423660591349562,0.018785019601872285,0.011683456397941907,0.008490047065041112,0.13007216139989103,0.1404041957389056,-0.021091713003331226,0.11332515619302962,0.35296915444514715,-0.10613319841539874
85,15.987982100006777,0.016166137042041787,-0.023046251938939374,0.023464061887399124,0.019408990516652538,0.012359634046404755,0.008387862200553226,0.13061058658870253,0.14209461546104318,-0.02160229282735423,0.11160689326282837,0.3532457026309043,-0.10718191396283246
86,15.992082400000072,0.016260546997983787,-0.022985456606926646,0.023503968160905834,0.020035519254401852,0.013043907123271753,0.00828322110720727,0.13114071476061182,0.1437862617714895,-0.022117900463847304,0.1098587546313956,0.3534814210207244,-0.10823366711237602
87,15.996408999999405,0.01635796230307347,-0.022921366186939466,0.02354336759597087,0.020664565753880735,0.01373628103253295,0.00817609968139525,0.13166240281648275,0.1454789383226657,-0.022638550045478798,0.10808070985921307,0.353675939025406,-0.10928828517411698
88,16.00034840000444,0.01645839491345389,-0.022853941887432103,0.023582248261146316,0.02129608926846732,0.014436760233990417,0.008066473753833901,0.13217550752629859,0.14717244699897086,-0.023164254868993255,0.1062727346937631,0.3538288886607647,-0.11034559169470458
89,16.005323000004864,0.01656185658856748,-0.022783144897779287,0.023620598109130364,0.02193004836560076,0.015145348234824024,0.007954319093608747,0.1326798855587233,0.14886658792965002,-0.023695027377648847,0.10443481108490481,0.3539399046151611,-0.11140540649291938
90,16.016376700004912,0.0166683588878712,-0.022708936392856635,0.023658404976482035,0.022566400926367778,0.015862047581221363,0.007839611412301538,0.13317539351092336,0.15056115950151383,-0.02423087914308836,0.10256692725210434,0.3540086241740932,-0.11246754557279061
91,16.01992560000508,0.01677791316755008,-0.022631277537661018,0.023695656583355897,0.023205104145231588,0.016586859850065305,0.0077223263682078885,0.1336618879387729,0.15225595837108455,-0.024771820846944795,0.10066907781521647,0.3540346871687333,-0.11353182111957377
92,16.024087800004054,0.01689053057722976,-0.022550129491970567,0.02373234053325718,0.023846114529907623,0.017319785640680214,0.007602439570640821,0.1341392253879275,0.153950779476823,-0.02531786226267383,0.09874126376247121,0.35401773585777174,-0.11459804156695226
93,16.027760000011767,0.01700622205668885,-0.022465453415044065,0.02376844431281768,0.02448938790138997,0.018060824566636567,0.007479926584322349,0.1346072624237228,0.15564541605014331,-0.025869012237802833,0.09678349207122353,0.35395741465028885,-0.11566601185004606
94,16.032760400004918,0.017124998332571723,-0.02237721047035942,0.02380395529159294,0.025134879394113366,0.018809975247602626,0.007354762933856972,0.13506585565861745,0.15733965962498656,-0.0264252786781857,0.0947957752493002,0.353853369951648,-0.11673553379291432
95,16.03715440000815,0.01724686991510242,-0.02228536183039107,0.023838860721880965,0.02578254345624236,0.019567235301240715,0.007226924108274006,0.13551486177770025,0.15903330004736002,-0.026986668533961904,0.09277813092771646,0.35370525008461773,-0.11780640639702726
96,16.041305900012958,0.017371847094800223,-0.02218986868142604,0.0238731477385629,0.02643233385007754,0.020332601335150233,0.007096385565635513,0.13595413756223373,0.1607261254841557,-0.027553187786573258,0.09073058165148273,0.3535127052022193,-0.1188784261139952
97,16.045453600003384,0.017499939939197438,-0.02209069222841849,0.02390680335896587,0.02708420365257009,0.021106068938848352,0.006963122737702931,0.13638353991315852,0.16241792243185516,-0.02812484143733413,0.08865315507293758,0.3532753873193952,-0.11995138689313542
98,16.0495121999993,0.0176311582895599,-0.02198779369988256,0.02393981448274833,0.027738105255953063,0.021887632675796374,0.006827111034654441,0.1368029258764878,0.1641084757256511,-0.028701633494903612,0.08654588446180562,0.3529929502814106,-0.12102507984936692
99,16.053115800008527,0.0177655117576108,-0.02188113435282324,0.02397216789180807,0.028393990368499083,0.02267728607546777,0.00668832584987154,0.13721215267169515,0.1657975685478498,-0.0292835669606761,0.08440880917188964,0.3526650496333844,-0.12209929304575293
100,16.057011700002477,0.017903009722258445,-0.021770675477705163,0.02400385025021339,0.029051810015423382,0.023475021625454968,0.006546742564796277,0.1376110777215773,0.16748498243574358,-0.029870643814171458,0.08224197472388861,0.3522913426836555,-0.12317381146184157
101,16.061541000002762,0.01804366132632872,-0.021656378403459065,0.024034848104157614,0.029711514539927437,0.02428083076361278,0.006402336553857714,0.13799955868143482,0.1691704972906198,-0.030462864998122466,0.08004543290416297,0.35187148873680235,-0.12424841706888781
102,16.069435100012925,0.018187475473302857,-0.02153820450252578,0.02406514788193744,0.03037305360438139,0.025094703870251443,0.006255083189471932,0.13837745346988048,0.17085389138786441,-0.031060230404585196,0.0778192421128006,0.3514051490422964,-0.12532288900370267
103,16.074022000000696,0.018334460824061212,-0.021416115195937446,0.02409473589395531,0.031036376191662638,0.02591663026037677,0.006104957847101475,0.13874462030135246,0.17253494138547928,-0.031662738861690944,0.07556346756127491,0.3508919867789087,-0.12639700355679678
104,16.078294300008565,0.018484625793633844,-0.021290071958435807,0.024123598332746212,0.03170143060664956,0.02674659817596474,0.0059519359103822,0.13910091771881508,0.1742134223340365,-0.03227038811964307,0.07327818138275104,0.35033166749722694,-0.12747053418828708
105,16.087352200003807,0.018637978547958598,-0.021160036323627375,0.02415172127302913,0.03236816447787318,0.027584594778296966,0.0057959927763167884,0.13944620462732818,0.17588910768943247,-0.03288317483762124,0.07096346279068023,0.3497238595111282,-0.12854325162657698
106,16.09081390000938,0.018794527000647498,-0.021025969889175114,0.024179090671783567,0.03303652475933231,0.02843060614035739,0.005637103860526977,0.13978034032826622,0.17756176932659026,-0.03350109457072304,0.06861939815803485,0.3490682341190724,-0.12961492380916131
107,16.09462610000628,0.018954278809762207,-0.020887834322026403,0.02420569236835129,0.033706457732472814,0.02928461723929893,0.005475244602572096,0.1401031845536463,0.17923117755433243,-0.03412414175630149,0.06624608089392184,0.3483644657661868,-0.13068531581938997
108,16.100710600003367,0.01911724137459937,-0.020745591363676843,0.02423151208456377,0.034377909008331424,0.030146611948982587,0.0053103904713321095,0.14041459749916588,0.1808971011306352,-0.03475230970030121,0.06384361109218899,0.347612232182855,-0.1317541899219415
109,16.105095400009304,0.0192834218324866,-0.020599202835469652,0.024256535424895465,0.03505082352983134,0.03101657303259013,0.005142516970456971,0.14071443985516655,0.1825593072788282,-0.03538559056393554,0.06141209525525076,0.3468112145228994,-0.13282130580013635
110,16.109251400004723,0.0194528270555898,-0.020448630643930203,0.02428074787664343,0.03572514557422247,0.03189448213531831,0.004971599643877221,0.14100257283702755,0.18421756170417156,-0.036023975352294846,0.05895164623795239,0.34596109740284225,-0.1338864209037544
111,16.115056100010406,0.019625463647732513,-0.020293836786135364,0.02430413481013337,0.03640081875566803,0.03278031977715024,0.004797614081362413,0.14127885821559202,0.18587162861043166,-0.03666745390435372,0.056462383267480196,0.3450615689417838,-0.13494929052805155
112,16.119474300008733,0.019801337941228007,-0.020134783355117244,0.02432668147895246,0.03707778602797611,0.03367406534570835,0.0046205359241273825,0.14154315834775125,0.18752127071684,-0.037316014882335796,0.05394443199136276,0.344112320789421,-0.1360096678296765
113,16.123906400011037,0.01998045599372478,-0.019971432545300965,0.024348373020209074,0.037755989687479084,0.03457569708918809,0.004440340870492496,0.1417953362073304,0.18916624927493708,-0.03796964576187336,0.05139792441371664,0.3431130481371392,-0.13706730415469684
114,16.127886700007366,0.02016282358506621,-0.019803746657976056,0.024369194454819793,0.03843537137606088,0.03548519210937217,0.0042570046815841355,0.14203525541506243,0.19080632408563764,-0.038628332824512765,0.04882299865378756,0.34206344974578407,-0.13812194951697115
115,16.13190150000446,0.020348446214165046,-0.019631688106801114,0.02438913068782373,0.03911587208432338,0.036402526354727675,0.004070503187066703,0.14226278026716202,0.19244125351634034,-0.0392920611524541,0.04621979870953858,0.3409632279422931,-0.1391733530488394
116,16.136113000000478,0.020537329095893373,-0.01945521942334129,0.0244081665087244,0.03979743215488724,0.03732767461358407,0.0038808122908934686,0.142477775763036,0.19407079451796075,-0.03996081462537164,0.04358847429134449,0.3398120886707206,-0.14022126329356982
117,16.140312500006985,0.02072947715798871,-0.01927430326263825,0.024426286591859112,0.04047999128582364,0.03826061050739343,0.0036879079770690162,0.14268010763226502,0.1956947026425296,-0.04063457591795346,0.040929180774089025,0.3386097415001837,-0.14126542847027762
118,16.14442510000663,0.020924895037976822,-0.019088902408812215,0.024443475496796006,0.0411634885342134,0.03920130648407693,0.003491766315423649,0.14286964236185537,0.19731273206030184,-0.041313326499258306,0.03824207928093955,0.33735589956946,-0.14230559679416083
119,16.148851200006902,0.021123587080111906,-0.018898979780695605,0.024459717668758735,0.041847862319839634,0.04014973381144886,0.003292363467381991,0.14304624722402273,0.19892463557682438,-0.04199704663332121,0.035527336730214874,0.33605027968576445,-0.14334151650014504
120,16.153123299998697,0.021325557332334752,-0.018704498437498038,0.024474997439078734,0.04253305042901291,0.04110586257072654,0.0030896756917315965,0.1432097903038927,0.20053016465099094,-0.042685715378736756,0.03278512588292851,0.3346926023960383,-0.14437293575991675
121,16.15710320000653,0.021530809543249544,-0.01850542158450213,0.024489299025675124,0.04321899001852911,0.042069661650127224,0.00288367935039554,0.1433601405277397,0.20212906941279235,-0.04337931058847035,0.030015625433996326,0.3332825920225686,-0.14539960283216014
122,16.16126940000686,0.021739347159119928,-0.018301712578789774,0.02450260653356226,0.04390561761976493,0.04304109873854791,0.0026743509142028317,0.14349716769156087,0.20372109868171234,-0.04407780891087989,0.027219020055306666,0.3318199768211624,-0.14642126615341164
123,16.16872620000504,0.021951173320885017,-0.018093334934998477,0.024514903955384873,0.04459286914290933,0.044020140319338395,0.0024616669686512286,0.14362074248972723,0.20530599998599233,-0.04478118579039689,0.024395500415787103,0.33030448905987725,-0.14743767427090168
124,16.17454400000861,0.022166290861195974,-0.01788025233110724,0.024526175171980795,0.04528067988133337,0.04500675166416555,0.0022456042196711263,0.14373073654374965,0.20688351958178094,-0.045489415467905164,0.021545263193284453,0.3287358651575634,-0.14844857589791413
125,16.17804930001148,0.022384702301473852,-0.017662428614251643,0.02453640395297129,0.04596898451609704,0.04600089682696967,0.002026139499384745,0.14382702243104395,0.20845340247372526,-0.04620247098195201,0.01866851104655193,0.3271138460200091,-0.1494537199532973
126,16.181985400005942,0.02260640984898933,-0.017439827806567592,0.024545573957378917,0.046657717120594494,0.047002538638025955,0.001803249771858426,0.1439094737134285,0.2100153924373387,-0.046920324169505125,0.01576545245743454,0.32543817734426356,-0.15045285552191023
127,16.18590270000277,0.02283141539396503,-0.017212414111063255,0.02455366873427293,0.04734681116533376,0.04801163869811497,0.0015769121388545693,0.14397796496437837,0.21156923204250586,-0.047642945666785126,0.012836301434578963,0.323708609899244,-0.15144573189418148
128,16.190709200003766,0.02305972050670101,-0.016980151917518633,0.024560671723442222,0.04803619952284291,0.04902815737280917,0.0013471038455759607,0.14403237179468628,0.2131146626785371,-0.048370304910401216,0.00988127716098728,0.3219248998381323,-0.15243209860170562
129,16.19443100001081,0.02329132643472405,-0.01674300580841219,0.024566566256095712,0.0487258144726954,0.050052053786883266,0.0011138022864068359,0.14407257087634226,0.21465142458066433,-0.04910237013852449,0.00690060371757907,0.32008680899865977,-0.1534117055871865
130,16.19887990001007,0.02352623409996127,-0.01650094056487394,0.024571335555590258,0.049415587706644934,0.05108328581885441,0.0008769850106459733,0.1440984399655479,0.21617925685797051,-0.0498391083936507,0.0038945099846203262,0.3181941051165942,-0.15438430339024725
131,16.204923400000553,0.023764444095938572,-0.01625392117266436,0.024574962738185942,0.05010545033387112,0.052121810095659964,0.0006366297282213076,0.14410985792565226,0.21769789752192953,-0.05058048552555256,0.0008632296532439933,0.3162465619031564,-0.1553496430644413
132,16.209202099998947,0.024005956685004486,-0.01600191282817842,0.024577430813828686,0.05079533288633392,0.05316758198747094,0.0003927143153947561,0.1441067047502765,0.21920708351507684,-0.05132646619324793,-0.0021929985291456733,0.3142439590960489,-0.15630747591236602
133,16.21333300000697,0.02425077179557987,-0.015744880944474154,0.024578722686960163,0.05148516532424074,0.054220555602644264,0.00014521682045798824,0.14408886158859935,0.22070655074003792,-0.05207701386541605,-0.005273930304316127,0.31218608243773893,-0.15725755313382905
134,16.2190694000019,0.0244988890194341,-0.015482791157325043,0.024578821157354942,0.05217487704164292,0.055280683782814144,-0.0001058845305667329,0.14405621077283362,0.22219603408799102,-0.05283209081899717,-0.00837931556793963,0.31007272354728616,-0.15819962561634696
135,16.223957200010773,0.02475030760898836,-0.015215609331295553,0.024577708920984983,0.05286439687216594,0.05634791809811685,-0.000360611328217374,0.14400863584672177,0.2236752674664684,-0.05359165813760295,-0.011508898060220032,0.3079036798270943,-0.15913344384421005
136,16.227681100004702,0.025005026474646683,-0.014943301565839244,0.02457536857091144,0.05355365309487871,0.05742220884254824,-0.0006189849738760701,0.14394602159597444,0.22514398382692635,-0.054355675709245495,-0.014662414978539911,0.30567875439751285,-0.1600587577047807
137,16.232151700009126,0.02526304418215545,-0.01466583420141877,0.024571782598203886,0.054242573440315196,0.05850350502945253,-0.0008810266740382058,0.14386825408047454,0.22660191519192027,-0.055124102222893163,-0.017839596776726595,0.3033977560462557,-0.1609753163698967
138,16.23618200000783,0.025524358949992068,-0.014383173825647163,0.024566933392886986,0.054931085096652066,0.05959175438713996,-0.001146757434563378,0.14377522066663773,0.2280487926821904,-0.05589689516506413,-0.021040167148322138,0.3010604992892014,-0.16188286833935972
139,16.24046120001003,0.025788968646783626,-0.0140952872794498,0.02456080324491476,0.05561911471604011,0.06068690335463495,-0.0014161980549118633,0.14366681005977663,0.229484346544419,-0.05667401081679859,-0.024263843011505744,0.2986668044844713,-0.1627811614962905
140,16.244779100001324,0.026056870788756188,-0.013802141663246396,0.024553374345172446,0.056306588421091784,0.06178889707755946,-0.001689369122366591,0.14354291233660574,0.23090830617940833,-0.057455404250782285,-0.027510334579881033,0.29621649791408716,-0.16366994327312648
141,16.24913490000472,0.02632806253721556,-0.013503704343152378,0.02454462878650607,0.05699343181152381,0.06289767940415096,-0.0019662910062420713,0.14340341897692785,0.2323204001706197,-0.05824102932990802,-0.030779345488364182,0.2937094119128925,-0.16454896090860846
142,16.253391900012502,0.026602540696060186,-0.013199942957199009,0.024534548564779768,0.05767956997094811,0.06401319288141905,-0.002246983852092596,0.14324822289493366,0.23372035631358562,-0.059030838706859635,-0.03407057288923291,0.2911453850616674,-0.16541796161382674
143,16.257910600004834,0.02688030170932693,-0.012890825421571555,0.024523115579960803,0.058364927473814075,0.06513537875144496,-0.002531467575917182,0.14307721846996868,0.23510790164629788,-0.05982478382426332,-0.03738370765719443,0.28852426236236073,-0.166276692789591
144,16.261650100001134,0.02716134165877044,-0.012576319936864843,0.024510311637232364,0.05904942839249407,0.06626417694782918,-0.0028197618583692225,0.14289030157586938,0.23648276248029745,-0.060622814916352706,-0.040718434539271355,0.28584589533012933,-0.16712490232295657
145,16.266189500005567,0.027445656261476766,-0.012256394994355439,0.024496118448134034,0.05973299630450659,0.06739952609228864,-0.0031118861389773725,0.14268736961029507,0.2378446644319437,-0.06142488101195922,-0.044074432131708426,0.2831101420666999,-0.1679623388323346
146,16.273580000008224,0.027733240867511888,-0.011931019382289777,0.024480517631729908,0.060415554299882546,0.06854136349140362,-0.0034078596103838286,0.1424683215242852,0.23919333245420665,-0.06223092993852393,-0.04745137271336241,0.2803168673975949,-0.1687887517820982
147,16.27773590000288,0.02802409045760585,-0.011600162192187496,0.024463490715804233,0.06109702498867146,0.0696896251335194,-0.0037077012126036264,0.14223305785318638,0.24052849086925018,-0.06304090832618514,-0.050848921929368435,0.27746594295913113,-0.16960389139958817
148,16.283278500006418,0.028318199640873162,-0.011263792825159226,0.024445019138084483,0.06177733050860384,0.07084424568580512,-0.004011429627302056,0.14198148074923828,0.24184986340105713,-0.06385476161099567,-0.054266738590385694,0.27455724720369545,-0.1704075084971875
149,16.288472700005514,0.028615562652570294,-0.010921880998238081,0.024425084247491794,0.062456392532909355,0.07200515849146777,-0.004319063272084762,0.1417134940144228,0.24315717320806293,-0.0646724340373069,-0.05770447441886432,0.2715906655612908,-0.17119935432214267
150,16.292797900008736,0.028916173351890926,-0.010574396750724128,0.024403667305418705,0.06313413227829373,0.07317229556712351,-0.004630620294797986,0.14142900313547926,0.24445014291732756,-0.06549386865954822,-0.06116177363013425,0.2685660907464219,-0.1719791803549861
151,16.296381000007386,0.029220025219799824,-0.010221310450541043,0.02438074948703416,0.06381047051309215,0.07434558760033881,-0.004946118567835699,0.14112791532076435,0.24572849466010727,-0.06631900734268115,-0.06463827279024224,0.26548342295126004,-0.17274673816709543
152,16.30033930001082,0.02952711135690615,-0.009862592800604118,0.02435631188261576,0.06448532756559905,0.07552496394734237,-0.005265575682444196,0.14081013953662838,0.24699195010787597,-0.06714779076261497,-0.06813360093851482,0.2623425699731227,-0.1735017794919506
153,16.30402110000432,0.02983742448137708,-0.009498214845198827,0.024330335498909294,0.06515862333256983,0.07671035263091111,-0.005589008943033211,0.14047558654310177,0.24824023050911753,-0.0679801584073431,-0.07164737960307953,0.25914344743172896,-0.17424405620537564
154,16.307600700005423,0.03015095692689252,-0.009128147976369079,0.024302801260515452,0.06583027728789231,0.07790168033843438,-0.005916435361491381,0.14012416893012278,0.24947305672742714,-0.06881604857716958,-0.07517922277298818,0.25588597897872895,-0.17497332023058723
155,16.314782500005094,0.03046770064064176,-0.008752363940314308,0.024273690011303785,0.06650020849143527,0.07909887242016471,-0.006247871651499539,0.13975580115349082,0.25069014928030975,-0.06965539838493631,-0.07872873711298499,0.2525700963594549,-0.17568932360548986
156,16.318972500012023,0.030787647181362877,-0.008370834843794478,0.024242982515853866,0.06716833559806415,0.08030185288765351,-0.00658333422284835,0.13937039956903796,0.25189122837787264,-0.07049814375689388,-0.08229552215987165,0.24919573950000073,-0.17639181854192829
157,16.323686000003363,0.03111078771742573,-0.00798353316054215,0.024210659460923652,0.06783457686681675,0.08151054441237228,-0.00692283917575994,0.13896788246670222,0.2530760139624576,-0.07134421943349609,-0.08587917031067094,0.24576285675352808,-0.17708055745725587
158,16.32784260000335,0.03143711302495922,-0.007590431737680689,0.02417670145694501,0.06849885017024518,0.08272486832452772,-0.007266402295213144,0.13854817010481235,0.2542442257496917,-0.072193558970573,-0.08947926689835949,0.24227140520396603,-0.1777552931364831
159,16.336176500000875,0.03176661348602369,-0.007191503802147675,0.024141089039546416,0.06916107300391978,0.08394474461207599,-0.00761403904527636,0.13811118474343606,0.25539558327102707,-0.07304609474167796,-0.09309539019199839,0.23872135093713542,-0.17841577889046778
160,16.340433400007896,0.03209927908682923,-0.006786722967122544,0.02410380267110273,0.06982116249609038,0.08517009191994514,-0.007965764563455274,0.13765685067866357,0.25652980591738767,-0.07390175794077516,-0.09672711108758017,0.23511266929270475,-0.17906176842529847
161,16.344603500008816,0.03243509941600055,-0.006376063238457449,0.024064822742312017,0.07047903541751845,0.08640082754946721,-0.008321593655051439,0.1371850942789157,0.2576466129841212,-0.07476047858333612,-0.10037399284325936,0.23144534519210525,-0.1796930155933259
162,16.348702500006766,0.03277406366288939,-0.005959499021110335,0.024024129573799343,0.07113460819148594,0.08763686745803105,-0.008681540787520502,0.13669584402176246,0.25874572371778554,-0.07562218550664355,-0.10403559095020291,0.22771937346838844,-0.18030927440510827
163,16.35346950001258,0.033116160615935274,-0.0055370051255791254,0.023981703417747597,0.07178779690398003,0.0888781262589624,-0.009045620084833693,0.1361890305314676,0.25982685736425865,-0.07648680637100222,-0.10771145303992727,0.2239347592096158,-0.1809102990490619
164,16.357850000000326,0.03346137866107542,-0.005108556774335945,0.023937524459555277,0.07243851731406138,0.09012451722163727,-0.009413845321847643,0.1356645866166944,0.26088973321881276,-0.07735426766023094,-0.1114011187743981,0.2200915181629302,-0.18149584373334515
165,16.361212100004195,0.03380970578020472,-0.00467412960826022,0.02389157281952122,0.07308668486440986,0.09137595227184148,-0.009786229918670585,0.1351224473091024,0.26193407067809316,-0.0782244946813596,-0.11510411968026371,0.2161896770984935,-0.182065662745131
166,16.36535370000638,0.03416112954968668,-0.004233699693069458,0.02384382855455633,0.07373221469206238,0.09263234199238171,-0.010162786935029268,0.1345625499026403,0.2629595892936765,-0.07909741156568864,-0.11881997933004718,0.21222927422310722,-0.18261951058121173
167,16.371549000003142,0.03451563713891615,-0.0037872435257465,0.023794271659922223,0.0743750216393348,0.0938935956239578,-0.010543529064645306,0.133984833990408,0.26396600882800997,-0.07997294126973652,-0.12254821373836118,0.20821035975098082,-0.18315714188070936
168,16.377999200005434,0.03487321530893486,-0.003334738040961949,0.02374288207099682,0.0750150202649127,0.09515962106630936,-0.010928468629611162,0.1333892415001559,0.26495304931343405,-0.08085100557565496,-0.12628833149559454,0.2041329965854208,-0.18367831137748017
169,16.383345000009285,0.035233850411100366,-0.0028761606174904394,0.02368963966506683,0.07565212485511315,0.0964303248796532,-0.011317617574770471,0.13277571672986704,0.26592043111464847,-0.0817315250917207,-0.1300398339497246,0.1999972609966583,-0.18418277384894777
170,16.387328299999353,0.03559752838580933,-0.002411489084619309,0.023634524263147137,0.07628624943531614,0.09770561228642799,-0.011710987462098733,0.1321442063815157,0.26686787499422476,-0.08261441925226089,-0.1338022155781459,0.19580324311025743,-0.18467028414376363
171,16.390957499999786,0.03596423476127599,-0.0019407017285481619,0.023577515631827098,0.07691730778154963,0.09898538717335893,-0.012108589465082923,0.1314946595930895,0.26779510217974817,-0.08349960631840962,-0.13757496403491787,0.19155104709843634,-0.18514059738719407
172,16.394493100000545,0.03633395465236633,-0.0014637772987777717,0.02351859348514373,0.07754521343222752,0.10026955209384526,-0.012510434363109425,0.13082702797189577,0.2687018344311621,-0.0843870033799998,-0.14135755987490087,0.18724079120023254,-0.18559346903659643
173,16.399016000010306,0.03670667275948891,-0.0009806950144867882,0.023457737486481754,0.07816987970005354,0.10155800827066966,-0.012916532535861757,0.1301412656292247,0.26958779410810296,-0.08527652635685079,-0.14514947629185374,0.18287260771634262,-0.18602865469956326
174,16.403356599999825,0.03708237336754305,-0.0004914345708946988,0.023394927250500398,0.07879121968409118,0.10285065559903046,-0.013326893957720834,0.12943732921616327,0.2704527042371954,-0.08616808999891916,-0.14895017885714296,0.1784466429791642,-0.1864459098927548
175,16.407554700010223,0.0374610403449252,4.0238543904961475e-06,0.023330142345087068,0.07940914628201044,0.10414739264989538,-0.013741528192164133,0.12871517796076012,0.27129628857910026,-0.08706160788527734,-0.15275912537922642,0.17396305730750827,-0.1868449897099096
176,16.411981400000514,0.037842657142594355,0.000505699595041431,0.023263362293337784,0.08002357220251356,0.10544811667367562,-0.01416044438615618,0.12797477370518476,0.272118271695376,-0.08795699242108578,-0.15657576578375734,0.1694220249885905,-0.18722564845795558
177,16.416109900004813,0.038227206793197424,0.0010136114896988765,0.023194566575564537,0.08063440997793757,0.10675272360421978,-0.014583651264518724,0.12721608094404038,0.2729183790153545,-0.08885415483308767,-0.16039954185970323,0.16482373433980854,-0.1875876394397537
178,16.419977700003074,0.038614671910255305,0.001527777875679125,0.023123734631329638,0.08124157197704682,0.10806110806312823,-0.015011157124278094,0.1264390668639538,0.27369633690359385,-0.08975300516450105,-0.16422988728491508,0.16016838787494644,-0.18793071483163332
179,16.42360190000909,0.03900503468741071,0.002048216582702802,0.023050845861507196,0.08184497041801458,0.10937316336439282,-0.015442969828986462,0.1256437013816434,0.2744518727283455,-0.09065345226934096,-0.16806622783945144,0.15545620252934975,-0.18825462556461522
180,16.427864299999783,0.03939827689773855,0.00257494492664667,0.022975879630371832,0.08244451738158008,0.11068878151936681,-0.01587909680301484,0.12482995718146678,0.2751847149311628,-0.09155540380617438,-0.17190798122240075,0.15068740980898518,-0.1885591214548686
181,16.431682400012505,0.03979437989311972,0.003107979703320025,0.0228988152677148,0.08304012482438954,0.11200785324207102,-0.01631954502581456,0.12399780975524238,0.2758945930967954,-0.09245876623369145,-0.17575455669654327,0.1458622556524204,-0.18884395176111085
182,16.435364000004483,0.040193324603679206,0.003647337182267302,0.022819632070987646,0.08363170459253447,0.11333026795483292,-0.016764321026167855,0.1231472374431992,0.27658123802147644,-0.09336344480979702,-0.17960535482008402,0.1409810000197603,-0.18910886592007975
183,16.43883790000109,0.040595091537289504,0.004193033100598463,0.022738309307473364,0.08421916843528483,0.11465591379424658,-0.017213430876440648,0.12227822147636705,0.27724438177888094,-0.09426934359422354,-0.18345976711465156,0.13604391663951407,-0.18935361410389276
184,16.442347400006838,0.04099966077914021,0.004745082656848664,0.022654826216485093,0.08480242801903316,0.11598467761744333,-0.017666880186858153,0.12139074602070474,0.27788375778598984,-0.09517636545295886,-0.18731717625438235,0.13105129349838907,-0.18957794685211718
185,16.44831800000975,0.04140701199137494,0.005303500504868679,0.022569162011592078,0.0853813949414502,0.11731644500868221,-0.018124674099800054,0.1204847982176801,0.2784991008737377,-0.09608441205733652,-0.19117695715686892,0.12600343427465055,-0.1897816134590858
186,16.452650300008827,0.04181712441279645,0.005868300747747666,0.022481295882872978,0.08595598074581753,0.1186511002862971,-0.018586817284067393,0.11956036821795316,0.2790901473665999,-0.09699338387302325,-0.19503847811499067,0.12090066008493024,-0.18996436017924764
187,16.457514000008814,0.042229976858640765,0.006439496931770105,0.022391206999196726,0.08652609693550578,0.11998852651004917,-0.019053313929072314,0.11861744921111965,0.2796566351699651,-0.09790318014192682,-0.1989011011281629,0.1157433105344567,-0.1901259295549688
188,16.46520550000423,0.04264554772042095,0.007017102040408959,0.02229887451053146,0.08709165498859196,0.12132860548891043,-0.019524167738931737,0.11765603745622277,0.2801983038597772,-0.09881369886474778,-0.20276418158546242,0.11053174378063592,-0.190266061183579
189,16.46947330000694,0.04306381496584118,0.007601128488357134,0.02220427755028194,0.08765256637262979,0.12267121778927456,-0.01999938192649004,0.11667613231453054,0.2807148947705167,-0.09972483679023113,-0.2066270675864751,0.10526633609549668,-0.19038449311266178
190,16.474281400005566,0.04348475613878188,0.008191588115599249,0.022107395237655696,0.0882087425595809,0.12401624274358278,-0.020478959207309834,0.1156777362865499,0.2812061510806537,-0.100636489411077,-0.21048909910363875,0.09994748143396313,-0.19048096286805688
191,16.477863600011915,0.04390834835935682,0.008788492181525685,0.022008206680057985,0.08876009504093951,0.12536355845935276,-0.020962901793655484,0.11466085505282403,0.2816718178964954,-0.10154855096303468,-0.214349607601777,0.09457559128847097,-0.19055520804679285
192,16.481908700006898,0.04433456832404303,0.009391851359090804,0.021906690975515546,0.08930653534305426,0.12671304182860738,-0.021451211388475215,0.11362549751458915,0.28211164233624725,-0.10246091442649015,-0.21820791575363382,0.08915109466506824,-0.1906069669177917
193,16.48603520001052,0.044763392305884574,0.010001675729017263,0.02180282721512917,0.0898479750426421,0.12806456853770837,-0.021943889179399836,0.1125716758372954,0.2825253736136316,-0.10337347153131142,-0.22206333693467312,0.08367443791794163,-0.19063597909030666
194,16.490324500002316,0.04519479615477102,0.010617974774048388,0.021696594485554905,0.09038432578252684,0.1294180130775857,-0.02244093583277123,0.11149940549610048,0.2829127631203648,-0.10428611276483589,-0.2259151751513143,0.07814608465522872,-0.19064198622116288
195,16.4954146000091,0.04562875529779189,0.01124075737325043,0.021587971871513813,0.09091549928758862,0.13077324875436086,-0.02294235148771755,0.11040870532007768,0.2832735645088738,-0.10519872738348697,-0.22976272505622447,0.07256651578342442,-0.1906247327304342
196,16.498978100004024,0.04606524473966785,0.011870031796366639,0.0214769384583299,0.09144140738092568,0.13213014770036824,-0.023448135750292937,0.10929959753756316,0.28360753377519854,-0.10611120342761352,-0.2336052720046384,0.06693622952882189,-0.19058396641834288
197,16.502982999998494,0.04650423906325989,0.01250580569822505,0.02136347333449596,0.09196196200023803,0.1334885808855721,-0.02395828768769479,0.10817210781982464,0.28391442934191385,-0.10702342773901281,-0.23744209222815504,0.061255741496280665,-0.19051943891156603
198,16.507459900007234,0.04694571243015736,0.01314808611320187,0.021247555594266894,0.09247707521440728,0.13484841812938186,-0.02447280582257125,0.10702626532474478,0.28419401214159434,-0.10793528598004307,-0.24127245273890913,0.05552558478217078,-0.1904309060311205
199,16.51126579999982,0.04738963858134589,0.01379687944974237,0.02112916434028005,0.09298665924029856,0.1362095281128682,-0.02499168812742146,0.10586210274140737,0.2844460457008179,-0.10884666265466861,-0.24509561161540439,0.049746310069146274,-0.19031812822729519
200,16.51571380000678,0.047835990837956324,0.014452191484941247,0.021008278686202145,0.09349062645976727,0.13757177839138263,-0.025514932019104538,0.104679656331044,0.2846702962245377,-0.10975744113173654,-0.24891081850801308,0.04391848572030397,-0.19018087088783558
201,16.51951790000021,0.048284742102095435,0.015114027359184337,0.02088487775940219,0.09398888943685299,0.13893503540758137,-0.026042534353462703,0.10347896596678052,0.2848665326809875,-0.11066750366897257,-0.2527173147495024,0.038042697876966035,-0.190018904420917
202,16.52572620000865,0.048735864857759485,0.015782391570853666,0.020758940703649885,0.09448136093516676,0.14029916450485783,-0.026574491420059982,0.10226007517352553,0.2850345268869896,-0.1115767314370521,-0.2565143334735721,0.032119550535334815,-0.189832004282924
203,16.529573000007076,0.04918933117183143,0.016457287971097773,0.020630446681838915,0.09496795393546693,0.1416640299411833,-0.0271107989370358,0.10102303116658186,0.2851740535935941,-0.112485004543862,-0.26030109994731265,0.026149665646982997,-0.18961995115633754
204,16.53372840001248,0.04964511269516272,0.01713871975866927,0.020499374878734627,0.09544858165341612,0.14302949490335926,-0.027651452046075983,0.09976788488835202,0.2852848905723491,-0.1133922020602748,-0.26407683200616905,0.020133683263889535,-0.1893825311474989
205,16.53992900000594,0.05010318066374054,0.01782668947483163,0.020365704503745467,0.09592315755750844,0.14439542152168414,-0.028196445307513102,0.09849469104278528,0.2853668187023285,-0.11429820204630398,-0.2678407404566484,0.01407226172526144,-0.1891195357626425
206,16.54451250001148,0.050563505899941255,0.01852119899833716,0.02022941479371757,0.09639159538715632,0.1457616708850388,-0.028745772695547903,0.09720350812822749,0.28541962205819077,-0.11520288157664865,-0.2715920293055218,0.007966077811973978,-0.1888307618960941
207,16.548528500003158,0.051026058813870796,0.019222249540478225,0.020090485015751943,0.09685380917093223,0.14712810305639643,-0.02929942759359423,0.09589439846967367,0.2854430879986855,-0.11610611676673586,-0.27532989591047696,0.00181582684587809,-0.18851601181471184
208,16.552857700007735,0.05149080940479277,0.019929841640213726,0.019948894470043638,0.09730971324496426,0.14849457708875535,-0.02985740278974977,0.09456742825017544,0.2854370072556631,-0.11700778279811631,-0.27905353071168437,-0.004377777239673253,-0.1881750929757219
209,16.55709630000638,0.05195772726264496,0.020643975159372854,0.01980462249274229,0.09775922227147861,0.14986095104150118,-0.030419690472384145,0.09322266754566376,0.2854011740232564,-0.11790775394276255,-0.2827621166533208,-0.010614001962460385,-0.18780781792812842
210,16.56329679999908,0.052426781569644976,0.021364649277938227,0.01965764845883352,0.09820225125752852,0.15122708199719348,-0.03098628222584228,0.09186019036189474,0.28533538604629055,-0.1188059035875208,-0.28645482920068444,-0.016892096372579952,-0.18741400441519684
211,16.567476100011845,0.05289794110198608,0.022091862489410374,0.019507951785040632,0.09863871557389048,0.1525928260787743,-0.031557169026266596,0.09048007466910855,0.2852394447086877,-0.11970210425939033,-0.2901308364108855,-0.023211290955549437,-0.18699347560809695
212,16.571232600006624,0.05337117423162374,0.02282561259625562,0.019355511932746004,0.09906853097412506,0.15395803846720135,-0.03213234123754243,0.08908240243829846,0.2851131551228044,-0.12059622765221226,-0.29378929895616956,-0.029570797410941145,-0.18654606050899886
213,16.577184000008856,0.053846448928153934,0.023565896705439397,0.0192003084109316,0.09949161361382032,0.1553225734195118,-0.032711788607375746,0.08766725967564636,0.2849563262199556,-0.12148814465580825,-0.2974293706388041,-0.03596980840776056,-0.18607159453158315
214,16.58192070000223,0.05432373276078396,0.024312711224047084,0.019042320779137922,0.09990788006998233,0.15668628428732218,-0.03329550026351752,0.08623473645386222,0.2847687708420944,-0.12237772538822728,-0.30105019888765583,-0.04240749734370357,-0.1855699201820576
215,16.59025350000593,0.05480299290039642,0.02506605185499443,0.018881528650440668,0.10031724736057865,0.15804902353576994,-0.033883464710150205,0.08478492694186524,0.2845503058346407,-0.12326483923140458,-0.30465092520207687,-0.04888301814018703,-0.18504088767911658
216,16.59544590000587,0.05528419612170709,0.025825913592829746,0.01871791169444428,0.10071963296421302,0.15941064276290212,-0.034475669824453534,0.08331792943187338,0.2843007521401235,-0.12414935486934403,-0.3082306850500183,-0.05539550506945371,-0.1844843552344698
217,16.599250800005393,0.0557673088055173,0.026592290719629975,0.018551449640291484,0.1011149548399282,0.1607709927195135,-0.03507210285335653,0.08183384637006005,0.28401993489266497,-0.12503114032646298,-0.31178860728061936,-0.06194407270580565,-0.18390018912476555
218,16.608771200000774,0.056252296941061423,0.027365176800992805,0.018382122279687933,0.1015031314471742,0.16212992332943982,-0.03567275041047045,0.08033278438926765,0.2837076835120895,-0.12591006300646324,-0.31532381386441033,-0.06852781594622168,-0.18328826392003203
219,16.61290330000338,0.0567391261284504,0.02814456468212703,0.018209909469941114,0.10188408176592427,0.16348728371029697,-0.03627759847321295,0.07881485434215157,0.2833638317982105,-0.12678598973286304,-0.3188354195702453,-0.07514580983743917,-0.1826484627091902
220,16.617601900012232,0.05722776158121183,0.028930446484043235,0.01803479113701252,0.10225772531696051,0.16484292219467697,-0.03688663238012908,0.07728017133698696,0.28298821802659496,-0.12765878679002718,-0.32232253190837146,-0.08179710929619674,-0.18198067725083258
221,16.623698800001875,0.057718168128927744,0.02972281359984709,0.017856747278582216,0.10262398218233268,0.16619668635180404,-0.037499836828408295,0.07572885477135773,0.28258068504552863,-0.12852831996514258,-0.32578425141550627,-0.0884807489087757,-0.18128480815475154
222,16.62800120000611,0.05821031021997055,0.030521656691137374,0.017675757967124773,0.10298277302596633,0.1675484230096589,-0.038117195871607355,0.0741610283652339,0.28214108037370006,-0.1293944545909864,-0.3292196716790599,-0.09519574284381037,-0.18056076486960992
223,16.63196370001242,0.0587041519243381,0.03132696568451109,0.01749180335299564,0.10333401911443832,0.16889797827757008,-0.03873869291757678,0.07257682019442878,0.2816692562980003,-0.13025705558778353,-0.33262787915485736,-0.10194108463032478,-0.17980846532380684
224,16.636108100006822,0.05919965693658859,0.0321387297681778,0.017304863667526937,0.10367764233790527,0.1702451975692747,-0.03936431072658449,0.0709763627254214,0.2811650699733323,-0.13111598750253634,-0.3360079525898752,-0.10871574699543637,-0.17902783534831132
225,16.64034470000479,0.05969678857887595,0.03295693738868549,0.01711491922613178,0.10401356523121251,0.17158992562646527,-0.03999403140961885,0.0693597928543406,0.28062838352196423,-0.13197111454535618,-0.33935896269855165,-0.11551868202244304,-0.17821880813435897
226,16.647152700010338,0.060195509804086875,0.0337815762477604,0.016921950431416328,0.10434171099519571,0.1729320065428017,-0.040627836426860166,0.06772725194488656,0.28005906413182546,-0.13282230062360095,-0.34267997226513636,-0.12234882108510327,-0.17738132371643947
227,16.6511659000098,0.06069578319908018,0.03461263329926277,0.016725937776298744,0.10466200351815294,0.17427128378839926,-0.04126570658631052,0.06607888586633492,0.27945698415648923,-0.13366940937325666,-0.3459700358985805,-0.1292050747591941,-0.17651532844650586
228,16.65649000000849,0.061197570988029366,0.03545009474626108,0.016526861847134356,0.10497436739751019,0.17560760023479785,-0.04190762204256575,0.06441484503380514,0.2788220212143151,-0.1345123041880409,-0.34922820023040646,-0.13608633286553204,-0.17562077465726678
229,16.66120130001218,0.061700835035869435,0.03629394603822692,0.016324703326846376,0.10527872796167892,0.17694079818039918,-0.04255356229572394,0.06273528444437007,0.2781540582880199,-0.1353508482475606,-0.35245350489529903,-0.14299146421534403,-0.17469762047658818
230,16.665530400001444,0.06220553685184872,0.03714417186835275,0.016119442998061513,0.10557501129206731,0.17827071937638928,-0.04320350619042698,0.06104036370793593,0.27745298382625816,-0.13618490454463872,-0.3556449830131345,-0.14991931649306184,-0.17374582966972785
231,16.669701400009217,0.06271163759318645,0.03800075617099493,0.015911061746249868,0.10586314424523349,0.17959720505314833,-0.04385743191503069,0.059330247078736825,0.27671869184431497,-0.13701433591196138,-0.35880166091980276,-0.15686871651005227,-0.17276537149127888
232,16.67351010000857,0.06321909806883665,0.03886368211924438,0.015699540562868493,0.10614305447519831,0.1809200959471372,-0.04451531700090149,0.05760510348879184,0.27595108202325724,-0.137839005047987,-0.3619225579227128,-0.16383847026187193,-0.17175622047889857
233,16.678019300001324,0.06372787874335936,0.03973293212262702,0.015484860548508016,0.10641467045591889,0.1822392323282566,-0.04517713832183461,0.05586510658174045,0.27515005981007856,-0.13865877454161862,-0.3650066863951048,-0.17082736273659258,-0.17071835623597784
234,16.68342900001153,0.06423793974089974,0.040608487824936326,0.015267002916041777,0.10667792150392534,0.18355445402769233,-0.04584287209358697,0.05411043474539667,0.27431553651868534,-0.13947350689603225,-0.3680530520694528,-0.17783415789813206,-0.1696517633631295
235,16.688612099998863,0.06474924084927593,0.04149033010220043,0.01504594899377692,0.10693273780110601,0.18486560046624143,-0.04651249387352352,0.05234127114277529,0.2734474294302014,-0.1402830645526932,-0.37106065404473604,-0.1848575987195751,-0.16855643152087027
236,16.69239430000016,0.06526174152417635,0.042378439060785845,0.014821680228606915,0.10717905041764127,0.18617251068311774,-0.047185978560380065,0.05055780374457646,0.27254566189363505,-0.14108730991578458,-0.3740284846435178,-0.1918964070018016,-0.1674323554495306
237,16.696440100000473,0.06577540089346719,0.04327279403564036,0.014594178189164924,0.10741679133509971,0.1874750233652418,-0.0478633003941435,0.04876022536158028,0.2716101634279202,-0.14188610537641427,-0.3769555297218528,-0.19894928305526574,-0.16627953491974912
238,16.700307700011763,0.06629017776161074,0.04417337358867721,0.014363424568977469,0.10764589346968215,0.18877297687702344,-0.048544432956046386,0.046948733674164196,0.27064086982563024,-0.14267931333656939,-0.3798407688894133,-0.20601490563032773,-0.1650979746910635
239,16.704359399998793,0.06680603061419547,0.04508015550730309,0.014129401189617847,0.10786629069560043,0.1900662092906446,-0.04922934916867653,0.04512353126259014,0.26963772325568597,-0.14346679623292688,-0.3826831753991219,-0.21309193213103608,-0.16388768441342622
240,16.709640000000945,0.06732291762257825,0.04599311680309228,0.013892090003858751,0.10807791786861136,0.1913545584168254,-0.04991802129619954,0.043284825637578545,0.26860067236502283,-0.144248416559865,-0.3854817165902851,-0.220178998494333,-0.16264867847612458
241,16.71459540000069,0.06784079664863964,0.046912233710609215,0.013651473098823556,0.10828071084968828,0.19263786183608017,-0.050610420944688705,0.04143282926635281,0.2675296723824554,-0.1450240368918275,-0.38823535467826586,-0.22727471886725306,-0.16138097582670152
242,16.72075880000193,0.0683596252496528,0.04783748168638187,0.013407532699135777,0.10847460652880433,0.19391595693047808,-0.0513065190625617,0.03956775959565283,0.26642468522343504,-0.1457935199046013,-0.3909430471350884,-0.23437768549793897,-0.16008459972167544
243,16.725671899999725,0.06887936068326656,0.048768835408028406,0.013160251170066178,0.10865954284882438,0.19518868091590216,-0.052006285941114165,0.03768983907413539,0.26528567959495797,-0.14655672839529407,-0.3936037468474922,-0.2414864687728761,-0.15875957750689615
244,16.732104800001252,0.06939995991260293,0.04970626877353942,0.01290961102067712,0.10883545882950274,0.1964558708748142,-0.05270969121514767,0.035799295173874486,0.26411263109996636,-0.14731352530150904,-0.39621640254311247,-0.24859961755631074,-0.15740594039081288
245,16.736035599999013,0.06992137961147005,0.050649754900718276,0.012655594906963656,0.10900229459158094,0.19771736378951346,-0.05341670386368689,0.033896360408681374,0.2629055223390067,-0.14806377371915166,-0.3987799594230023,-0.25571565927171136,-0.15602372315120772
246,16.740560600010213,0.07044357616969038,0.0515992661267818,0.012398185634991017,0.10915999138096086,0.19897299657587486,-0.05412729221077807,0.0319812723495489,0.2616643430138511,-0.14880733691879666,-0.40129335925685805,-0.2628330997270703,-0.1546129638886897
247,16.7447691999987,0.07096650569854505,0.05255477400812362,0.012137366164028059,0.10930849159295038,0.20022260611759976,-0.05484142392636289,0.030054273642059887,0.2603890900308281,-0.14954407836113462,-0.4037555401939322,-0.26995042352486587,-0.15317370389419405
248,16.748571800009813,0.07149012403633428,0.05351624932024278,0.011873119609676379,0.10944773879660316,0.20146602930094346,-0.0555590660272248,0.028115612023641812,0.25907976760051893,-0.15027386171207038,-0.4061654375216699,-0.27706609451289416,-0.15170598753589296
249,16.75442870000552,0.07201438675405467,0.05448366205783959,0.011605429246994708,0.10957767775912951,0.2027031030499205,-0.05628018487800748,0.026165540333711813,0.257736387336772,-0.15099655085708694,-0.40852198560915454,-0.2841785563157096,-0.15020986196315497
250,16.761590699999942,0.07253924916119335,0.055456981435081286,0.011334278513618276,0.10969825447033328,0.2039336643619802,-0.05700474619229867,0.024204316512324322,0.256358968351311,-0.15171200991350942,-0.41082412081812403,-0.29128623351122807,-0.14868537658657516
251,16.768224300001748,0.0730646663116393,0.056436175886039455,0.011059651012872823,0.1098094161670098,0.20515755034411773,-0.05773271503376605,0.022232203582445237,0.25494753734148423,-0.15242010323989066,-0.41307078463486707,-0.2983875331092521,-0.1471325826568755
252,16.774198200000683,0.07359059300971105,0.05742121306530143,0.01078153051688309,0.10991111135721307,0.2063745982493897,-0.05846405581733094,0.02024946961861397,0.2535021286707169,-0.15312069544424353,-0.4152609257234313,-0.30548084565878253,-0.14555153328889092
253,16.778240200001164,0.0741169838163003,0.058412059848757324,0.010499900969675595,0.11000328984435362,0.20758464551379563,-0.059198732310383,0.018256387709559677,0.25202278444565895,-0.15381365139365608,-0.41739350063808806,-0.3125645455713762,-0.14394228380902635
254,16.784609599999385,0.07464379305513043,0.05940868233456454,0.010214746490275494,0.11008590275110781,0.20878752979353216,-0.05993670763404599,0.016253235920041974,0.2505095545935412,-0.1544988362258505,-0.41946747409356977,-0.3196369914872349,-0.14230489191755616
255,16.78995720000239,0.07517097481912895,0.06041104584429149,0.009926051375797239,0.11015890254315036,0.20998308900261506,-0.06067794426450311,0.014240297250879845,0.24896249693581818,-0.15517611536035228,-0.421481820608003,-0.3266965277900464,-0.14063941731936672
256,16.79548820000491,0.07569848297691326,0.06141911492424229,0.009633800104528745,0.11022224305268091,0.21117116135083858,-0.061422404034369736,0.012217859585062505,0.24738167725102103,-0.15584535450651368,-0.42343552749158575,-0.3337414868527741,-0.13894592114184137
257,16.799740000002203,0.07622627117938838,0.06243285334696394,0.009337977339008909,0.11027587950164063,0.21235158538199922,-0.06217004813409556,0.010186215619163915,0.24576716932689835,-0.1565064196691096,-0.4253275961596302,-0.34077019047984686,-0.13722446580361788
258,16.80365280000842,0.07675429286645495,0.06345222411293697,0.009038567929098353,0.11031976852458211,0.21352420001235428,-0.06292083711339089,0.008145662796882249,0.24411905500946116,-0.15715917715510458,-0.4271570405196072,-0.3477809501254607,-0.13547511560515405
259,16.807360899998457,0.07728250127382595,0.0644771894524508,0.008735556915043286,0.11035386819124969,0.21468884456931522,-0.0636747308826936,0.006096503255897257,0.2424374242530338,-0.15780349358490275,-0.4289228842985812,-0.3547720663406826,-0.13369793765164056
260,16.811073500008206,0.07781084943995087,0.06550771082766492,0.008428929530532203,0.11037813802894053,0.2158453588303854,-0.06443168871470313,0.0040390437869975634,0.24072237517459244,-0.15843923590795117,-0.4306241595089786,-0.3617418280864306,-0.13189300261619222
261,16.815559599999688,0.07833929021304652,0.06654374893485698,0.008118671205745057,0.11039253904469358,0.21699358306237362,-0.06519166924599684,0.001973595795627164,0.23897401411039365,-0.15906627142129673,-0.43225990638681866,-0.36868851289789456,-0.13006038531785188
262,16.819570200008457,0.07886777625823366,0.06758526370685944,0.007804767570394487,0.11039703374728255,0.2181333580608742,-0.06595463047874166,-9.95247383958851e-05,0.2371924556687387,-0.1596844677907234,-0.4338291738168296,-0.3756103876296815,-0.1282001652143098
263,16.82393779999984,0.07939626006477837,0.06863221431568566,0.007487204456758598,0.11039158616901916,0.21926452518998557,-0.0667205297825128,-0.002179997303403139,0.23537782277946795,-0.16029369307402663,-0.4353310201707193,-0.38250570925397975,-0.12631242665935608
264,16.82953310001176,0.07992469395343745,0.06968455917534679,0.0071659679027047795,0.11037616188733902,0.2203869264222642,-0.0674893238962283,-0.004267496904182897,0.2335302467390833,-0.16089381574461548,-0.4367645149224019,-0.38937272640902204,-0.12439725874981451
265,16.835699700008263,0.08045303008390639,0.07074225594486044,0.006841044154703964,0.11035072804614236,0.22150040437887536,-0.06826096893019366,-0.0063616941199684755,0.23164986724541717,-0.1614847047133215,-0.4381287413337355,-0.39620968175568033,-0.12245475495780721
266,16.839852300006896,0.08098122046236916,0.07180526153145197,0.006512419670834866,0.1103152533768247,0.22260480236987878,-0.06903542036824518,-0.008462255178459287,0.22973683242019236,-0.16206622934848008,-0.43942279933207473,-0.40301481434982467,-0.12048501296498224
267,16.844547300002887,0.08150921694914755,0.07287353209394884,0.006180081123777722,0.11026970821890889,0.22369996443459556,-0.06981263306998692,-0.010568842041359553,0.2277912988209774,-0.16263825949615227,-0.4406458078839849,-0.40978636180877925,-0.11848813504764591
268,16.852136400004383,0.08203697126644839,0.07394702304636837,0.005844015403797112,0.11021406454025681,0.22478573538200822,-0.07059256127312757,-0.012681112501125932,0.2258134314430042,-0.16320066550389334,-0.4417969078729463,-0.4165225625395385,-0.1164642290543361
269,16.85672880000493,0.08256443500620651,0.07502568906169894,0.005504209621713326,0.11014829595677517,0.22586196083114501,-0.07137515859594505,-0.014798720294058125,0.2238034037097899,-0.1637533182503342,-0.4428752647387641,-0.4232216576850923,-0.1144134095194707
270,16.862215000001015,0.0830915596380206,0.07610948407587441,0.005160651111861589,0.11007237775154437,0.22692848725139025,-0.07216037803990656,-0.016921315222316897,0.2217613974563199,-0.16429608917961241,-0.44388006887346626,-0.429881891868092,-0.1123357983703594
271,16.867354600006365,0.08361829651717928,0.07719836129194119,0.0048133274350383405,0.1099862868933561,0.22798516200270752,-0.07294817199246281,-0.019048543270805112,0.21968760291254963,-0.16482885033772257,-0.4448105343252141,-0.43650151299916173,-0.11023152502893745
272,16.871776900006807,0.08414459689277447,0.0782922731844178,0.004462226381433709,0.1098900020547232,0.22903183337579208,-0.07373849223001616,-0.02118004671677666,0.21758221868842287,-0.16535147440792142,-0.44566589777033505,-0.4430787721515547,-0.10810072614319849
273,16.87606080000114,0.08467041191589988,0.0793911715038464,0.004107335973549373,0.10978350362936776,0.23006835063215067,-0.07453128992105378,-0.02331546423687546,0.21544545175857363,-0.16586383474450692,-0.44644541871815985,-0.44961192433660446,-0.10594354532618501
274,16.87976000001072,0.08519569264793186,0.08049500728153608,0.0037486444691010386,0.10966677374920619,0.23109456404410741,-0.07532651562943919,-0.025454431018705564,0.21327751743992004,-0.16636580540572435,-0.4471483822780576,-0.4560992314277417,-0.10376013305001613
275,16.885538300004555,0.08572039006889046,0.08160373083449736,0.003386140363904784,0.10953979630076915,0.2321103249346691,-0.07612411931786053,-0.02759657889436246,0.21107863934837098,-0.1668572611865308,-0.4477741042688454,-0.4625389673630195,-0.10155064661031432
276,16.890122000011615,0.08624445508587746,0.08271729177056719,0.0030198123947465247,0.10940255694090813,0.2331154857171166,-0.07692405035143576,-0.029741536500921987,0.2088490493266096,-0.16733807765116065,-0.4483219355026459,-0.468929423158381,-0.0993152500436772
277,16.89437620001263,0.08676783854158789,0.08383563899372257,0.002649649542233841,0.10925504311167877,0.23410989993417872,-0.07772625750147269,-0.03188892945498642,0.20658898735280168,-0.16780813116509996,-0.44879126243194584,-0.47526890871138644,-0.09705411395798579
278,16.899077300011413,0.08729049122289052,0.0849587207095805,0.0022756410336294427,0.10909724405437639,0.23509342229674957,-0.07853068894938035,-0.03403838051936848,0.20429870145110973,-0.16826729892602724,-0.44918150424252173,-0.4815557514232129,-0.09476741525428525
279,16.90287970000645,0.08781236386947376,0.0860864844310824,0.0018977763456655477,0.10892915082282337,0.23606590872220565,-0.07933729229072527,-0.036189509749804324,0.20197844761359474,-0.16871545899312504,-0.44949210897865044,-0.4877882942377819,-0.0924553367752431
280,16.9080030000041,0.08833340718255335,0.08721887698436083,0.001516045207338512,0.10875075629599999,0.2370272163723755,-0.08014601453942344,-0.03834193462453934,0.19962848972950417,-0.16915249031465504,-0.4497225512170845,-0.4939648946643805,-0.09011806700372497
281,16.912170700001298,0.08885357183363919,0.08835584451478747,0.0011304376026830731,0.10856205519009121,0.23797720369117978,-0.08095680213206062,-0.04049527016877115,0.19724909951653136,-0.16957827275438367,-0.4498723310564956,-0.5000839245217883,-0.08775579993864874
282,16.915753300010692,0.08937280847335842,0.08949733249320026,0.0007409437735256159,0.10836304406992597,0.23891573044194273,-0.08176960093233734,-0.04264912907456009,0.19484055645255333,-0.16999268711796858,-0.44994097199871086,-0.5061437691637521,-0.08536873520717787
283,16.919443400009186,0.08989106774033172,0.09064328572230854,0.0003475542222158589,0.10815372135987596,0.2398426577443787,-0.0825843562356418,-0.04480312180498661,0.19240314771430567,-0.17039561518045848,-0.44992801862359544,-0.5121428258841876,-0.0829570782910506
284,16.9238919000054,0.09040830027010074,0.09179364834327436,-4.974028566366261e-05,0.10793408735429767,0.2407578481113166,-0.08340101277375814,-0.04695685669180049,0.1899371681243894,-0.17078693971484651,-0.4498330371587495,-0.5180795044046773,-0.08052104058561176
285,16.928877199999988,0.09092445670410443,0.0929483638424692,-0.0004509487186109884,0.10770414422749627,0.24166116548517882,-0.08421951471971277,-0.04910994004503265,0.1874429200852784,-0.17116654452013527,-0.44965561824639466,-0.5239522307177694,-0.07806083924389697
286,16.932786900011706,0.09143948769870179,0.09410737505840455,-0.0008560797765416493,0.1074638960431182,0.24255247527407403,-0.08503980569275135,-0.051261976277135246,0.18492071348952954,-0.17153431444839742,-0.44939537853997774,-0.5297594497139645,-0.07557669718918529
287,16.93649780000851,0.09195334393423817,0.0952706241888342,-0.001265141888149711,0.10721334876292647,0.24343164438741643,-0.08586182876344414,-0.053412568027879824,0.1823708656286386,-0.1718901354329609,-0.44905195827005173,-0.5354996223624686,-0.07306884364124795
288,16.940138400008436,0.09246597612415204,0.09643805279802582,-0.0016781432082935692,0.10695251025499747,0.24429854127114578,-0.08668552645893288,-0.055561316265192486,0.1797937011302427,-0.1722338945205079,-0.4486250142392569,-0.5411712171440602,-0.07053751502820177
289,16.943408899998758,0.09297733502411976,0.09760960182420049,-0.0020950916154072294,0.10668139030153083,0.24515303594274554,-0.08751084076834344,-0.05770782034298418,0.17718955194900013,-0.17256547990799057,-0.44811421140918023,-0.546772699570071,-0.06798295582068166
290,16.947783399999025,0.09348737144123712,0.09878521158713954,-0.0025159947089379233,0.10640000060649259,0.2459950000263755,-0.08833771314838616,-0.0598516780214363,0.17455875740414073,-0.1728847809827164,-0.447519218551855,-0.5523025275896867,-0.06540541885008766
291,16.95152100000996,0.09399603624323727,0.09996482179596043,-0.0029408598068110074,0.10610835480323079,0.24682430678824951,-0.08916608452915231,-0.06199248548319728,0.1719016642143175,-0.1731916883623109,-0.4468397122355227,-0.5577591565907961,-0.06280516501517633
292,16.955799000003026,0.09450328036774523,0.10114837155706234,-0.0033696939429230773,0.1058064684619636,0.24764083117210173,-0.08999589532009698,-0.06412983739182891,0.16921862648727748,-0.17348609393199407,-0.4460753888577613,-0.5631410525740407,-0.060182462700995226
293,16.962996100002783,0.09500905483156746,0.10233579938224158,-0.0038025038646641476,0.1054943590968353,0.24844444983446545,-0.09082708541619247,-0.06626332702321125,0.16651000562858165,-0.17376789087897948,-0.4452259798242901,-0.5684467100633755,-0.05753758741343193
294,16.96805609999865,0.09551331074001394,0.10352704319697496,-0.00423929603046968,0.10517204617214634,0.24923504117926548,-0.09165959420424054,-0.06839254646931474,0.16377617015979543,-0.17403697372625196,-0.4442912632517582,-0.5736746663562112,-0.05487082202190194
295,16.97383990000526,0.09601599929624739,0.10472204034886642,-0.004680076607403198,0.10483955110745836,0.25001248539135623,-0.09249336056934916,-0.07051708688165065,0.16101749549077396,-0.1742932383692903,-0.4432710686173689,-0.5788235071080676,-0.052182457450453704
296,16.982329400008894,0.09651707181065423,0.10592072761625149,-0.005124851468770327,0.10449689728149333,0.2507766644689339,-0.0933283229015964,-0.07263653871955991,0.1582343636843838,-0.1745365821164617,-0.4421652760294653,-0.5838918665796423,-0.04947279320568133
297,16.986431299999822,0.09701647971023114,0.10712304121695418,-0.005573626191765209,0.10414411003486145,0.25152746225482187,-0.09416441910289389,-0.07475049198667996,0.15542716322642258,-0.17476690373079878,-0.44097381279662456,-0.5888784252347833,-0.04674213756370583
298,16.99063310000929,0.09751417454798211,0.10832891681719108,-0.006026406055150254,0.10378121667169625,0.2522647644666802,-0.09500158659405068,-0.07685853644638518,0.15259628881333845,-0.17498410347218432,-0.4396966474839146,-0.5937819036907697,-0.043990807728375284
299,16.994708700003684,0.09801010801232068,0.10953828954061742,-0.00648319603697019,0.10340824646031986,0.25298845872625864,-0.09583976232204065,-0.07896026180134681,0.14974214118007126,-0.17518808314064294,-0.43833378227338526,-0.5986010539337997,-0.041219130205357786
300,16.998747500008903,0.09850423193647337,0.11075109397751126,-0.006944000812301392,0.10302523063315894,0.25369843458795743,-0.09667888276748081,-0.08105525783583074,0.14686512697187715,-0.17537874612210738,-0.4368852473194707,-0.6033346528054088,-0.038427441348082916
301,17.003399300010642,0.09899649830788106,0.111967264194093,-0.007408824751037529,0.10263220238604749,0.2543945835668535,-0.09751888395233686,-0.08314311454121459,0.14396565863453256,-0.1755559974369373,-0.43535109858345367,-0.6079814997799877,-0.03561608775786169
302,17.00792000000365,0.09948685927759579,0.11318673374197788,-0.007877671915712672,0.10222919687694114,0.2550767991662101,-0.0983597014478661,-0.0852234222375521,0.14104415430743739,-0.17571974378951638,-0.4337314177376225,-0.6125404176533249,-0.032785426276926134
303,17.01138140000694,0.09997526716966985,0.11440943566775891,-0.008350546059362987,0.10181625122405602,0.2557449769044793,-0.09920127038279779,-0.08729577169817256,0.1381010377072267,-0.17586989361670438,-0.43202631368376476,-0.6170102564958273,-0.029935823541974927
304,17.019787400000496,0.10046167449053472,0.11563530252271786,-0.008827450623428164,0.1013934045033901,0.25639901434169726,-0.10004352545173995,-0.08935975428578369,0.13513673798302475,-0.17600635713315987,-0.43023592497199264,-0.6213898999832216,-0.02706765527625149
305,17.024702900002012,0.10094603393836643,0.11686426637266097,-0.009308388735693597,0.100960697745559,0.2570388111051012,-0.10088640092379368,-0.09141496210022952,0.13215168953944492,-0.1761290463730145,-0.42836042165169025,-0.6256782704846177,-0.024181305685164866
306,17.028473800004576,0.10142829841243421,0.11809625880787511,-0.009793363208274291,0.10051817393190265,0.2576642689138298,-0.10172983065135896,-0.09346098813231471,0.12914633184312926,-0.1762378752294091,-0.42640000463854033,-0.6298743301028856,-0.021277167281898754
307,17.03252570000768,0.1019084210224286,0.11933121095320004,-0.010282376535641352,0.10006587798984834,0.258275291602688,-0.10257374807912747,-0.09549742640550217,0.12612110923578765,-0.1763327594944984,-0.42435490190330655,-0.6339770774390711,-0.018355641130847453
308,17.036349200003315,0.10238635509776568,0.12056905347821212,-0.010775430892691989,0.0996038567876607,0.25887178514505726,-0.10341808625327142,-0.09752387209324781,0.1230764707717156,-0.17641361690131785,-0.4222253643770835,-0.6379855421361297,-0.015417137223978701
309,17.040261400004965,0.10286205419686492,0.12180971660751584,-0.011272528132863984,0.09913215912868144,0.25945365767510487,-0.10426277783083723,-0.09953992162149397,0.12001287008307317,-0.17648036716739168,-0.4200116627726163,-0.6418987798925924,-0.012462074867197961
310,17.04374710000411,0.10333547211639826,0.12305313013114025,-0.011773669786295633,0.09865083574509795,0.2600208195094044,-0.10510775508935184,-0.10154517275557064,0.1169307652651432,-0.1765329320402989,-0.41771408464255105,-0.6457158692566541,-0.009490883070339351
311,17.048825500009116,0.1038065629005083,0.12429922341503744,-0.012278857058032186,0.09815993929135104,0.26057318316804623,-0.10595294993665269,-0.10353922467452381,0.11383061877230448,-0.17657123534501523,-0.41533293420639095,-0.649435911991934,-0.00650400083951027
312,17.053243400005158,0.10427528084999425,0.12554792541168108,-0.0127880908262799,0.09765952433719197,0.2611106633952622,-0.10679829392094727,-0.10552167805635995,0.11071289729978807,-0.17659520303227808,-0.412868535276199,-0.6530580372977441,-0.0035018773940277727
313,17.057080500002485,0.10474158053146368,0.12679916467076244,-0.013301371640708801,0.09714964736027393,0.2616331771794038,-0.10764371824110615,-0.10749213518038579,0.10757807163924453,-0.17660476322800547,-0.4103212340696557,-0.6565814051409815,-0.00048497244742529036
314,17.06117610000365,0.10520541678644751,0.12805286934998011,-0.013818699720805279,0.0966303667382293,0.2621406437721845,-0.10848915375719571,-0.10945020003938571,0.10442661652859987,-0.17659984628435152,-0.4076913998907232,-0.6600052059285115,0.0025462433722882112
315,17.066207100011525,0.10566674474047591,0.1293089672259203,-0.014340074954275688,0.09610174274018717,0.26263298470721985,-0.10933453100125999,-0.11139547844847843,0.10125901051075942,-0.17658038483314895,-0.40497942389730246,-0.663328658060025,0.005591287990636625
316,17.070535700011533,0.10612551981211209,0.1305673857050241,-0.01486549689550218,0.09556383751780824,0.2631101238179172,-0.11017978018836504,-0.11332757814549557,0.0980757358068934,-0.176546313842058,-0.40218571840450856,-0.6665510046766936,0.00864966746986443
317,17.074261800007662,0.10658169772194233,0.13182805183463897,-0.015394964764052043,0.09501671509584139,0.26357198725480285,-0.11102483122791838,-0.11524610889316778,0.09487727820626997,-0.17649757067199964,-0.3993107167261692,-0.669671510868851,0.011720875859073974
318,17.078235600012704,0.10703523450151942,0.13309089231415197,-0.015928477443241905,0.09446044136218025,0.2640185035023566,-0.11186961373526329,-0.11715068257798572,0.09166412696627524,-0.17643409513473934,-0.39635487157836563,-0.672689460674146,0.014804395064478785
319,17.08337640001264,0.10748608650225742,0.13435583350620242,-0.016466033478758083,0.09389508405747314,0.264449603395382,-0.1127140570435495,-0.11904091329710129,0.08843677473098673,-0.17635582955156245,-0.3933186529285644,-0.6756041530207773,0.017899694664089243
320,17.088488100009272,0.10793421040427569,0.13562280144797184,-0.017007631077334443,0.09332071276434771,0.26486522013506103,-0.1135580902158893,-0.12091641743659565,0.0851957174700339,-0.1762627188126322,-0.39020254749073685,-0.6784149006913439,0.021006232013696356
321,17.092762200001744,0.1083795632251904,0.13689172186255033,-0.017553268105489128,0.0927373988962715,0.2652652893047392,-0.11440164205779657,-0.12277681375354656,0.08194145440709204,-0.17615471043465042,-0.3870070616018347,-0.6811210360782634,0.024123452703927642
322,17.096578700002283,0.10882210232885199,0.13816252017037764,-0.018102942088321517,0.09214521568599084,0.2656497488852956,-0.11524464112989485,-0.12462172348183657,0.07867448790363886,-0.17603175461583956,-0.38373272711951617,-0.6837219213592944,0.027250791033201053
323,17.10113400001137,0.10926178543402597,0.1394351215007567,-0.018656650208370623,0.09154423817337837,0.2660185392698148,-0.11608701576088289,-0.1264507704706867,0.0753953232900253,-0.17589380428907522,-0.3803801062314994,-0.6862169569810662,0.03038767036744764
324,17.107531700006803,0.10969857062301396,0.1407094507034352,-0.019214389304536186,0.0909345431925456,0.26637160327733983,-0.11692869406075136,-0.1282635813365106,0.07210446866800865,-0.17574081517342408,-0.3769497930822871,-0.6886055857091833,0.033533503496178646
325,17.111845000006724,0.1101324163502112,0.14198543236025077,-0.019776155871063614,0.09031620935823653,0.2667088861656534,-0.11776960393424186,-0.13005978561702297,0.06880243470304657,-0.17557274582386734,-0.37344241363131037,-0.690887293695263,0.0366876929978061
326,17.115735200000927,0.1105632814505973,0.14326299079683485,-0.02034194605659393,0.08968931705146474,0.2670303356430422,-0.11860967309453972,-0.1318390159217355,0.06548973441661414,-0.175389557679341,-0.36985862272798986,-0.6930616082659574,0.0398496316028501
327,17.11979360000987,0.11099112514815616,0.14454205009437066,-0.02091175566327982,0.08905394840446611,0.26733590187908957,-0.11944882907719288,-0.13360090805806116,0.062166882999666294,-0.1751912151089819,-0.3661990991140615,-0.6951280927077272,0.0430187025552849
328,17.123821100001805,0.11141590706422273,0.1458225341014003,-0.02148558014596884,0.08841018728512855,0.2676255375146541,-0.12028699925424755,-0.1353451011339612,0.05883439765488688,-0.17497768545670825,-0.3624645423257347,-0.6970863426291392,0.046194279931107717
329,17.13210460000846,0.11183758722575386,0.1471043664456783,-0.02206341461145479,0.08775811928096199,0.267899197671152,-0.12112411084859386,-0.1370712376543898,0.05549279744497937,-0.17474893908441574,-0.35865567242406166,-0.6989359871913898,0.04937572887556215
330,17.13622290000785,0.1122561260735215,0.14838747054606752,-0.02264525381779829,0.08709783168260468,0.2681568399590828,-0.1219600909485151,-0.1387789636213596,0.052142603123134554,-0.17450494941428682,-0.35477323016783197,-0.7006766918606655,0.05256240552938818
331,17.140683200006606,0.11267148447022575,0.1496717696244744,-0.023231092173717452,0.08642941346683516,0.26839842448568885,-0.12279486652243853,-0.1404679286320417,0.04878433695496946,-0.1742456929726928,-0.350817975829059,-0.7023081570522489,0.055753656447052186
332,17.144475100009004,0.11308362370852532,0.15095718671781824,-0.023820923738049657,0.08575295527913931,0.2686239138617763,-0.12362836443390479,-0.14213778596749024,0.04541852256197671,-0.17397114943807324,-0.3467906870268307,-0.703830112401756,0.05894881772634883
333,17.148922000007587,0.1134925055189837,0.1522436446900316,-0.024414742219285572,0.08506854941587283,0.2688332732078756,-0.12446051145677724,-0.1437881926700033,0.04204568479831211,-0.17368130169317147,-0.3426921559592229,-0.7052423105658363,0.062147214238414926
334,17.153192000012496,0.11389809207792888,0.1535310662440887,-0.025012540975176547,0.08437628980608763,0.26902647015988274,-0.12529123429071148,-0.14541880960534506,0.038666349653597706,-0.17337613588028603,-0.33852318753749894,-0.7065445233046952,0.06534815925940834
335,17.15737210000225,0.11430034601522547,0.15481937393405973,-0.025614313012416727,0.08367627199309861,0.2692034748742893,-0.12612045957689363,-0.14702930152224286,0.035281044167216336,-0.1730556414570325,-0.3342845993067818,-0.7077365404071889,0.06855095443096308
336,17.16232430000673,0.11469923042195795,0.15610849017718945,-0.02622005098640114,0.08296859311574038,0.2693642600330032,-0.1269481139140438,-0.14861933711385006,0.03189029634140609,-0.17271981125197367,-0.329977220783406,-0.7088181692426961,0.07175488973447527
337,17.165977399999974,0.11509470885802335,0.15739833726599756,-0.026829747201061026,0.08225335188934556,0.26950880084774637,-0.12777412387468684,-0.1501885890708987,0.028494635059845366,-0.1723686415206275,-0.3256018929158116,-0.7097892334676099,0.07495924347655326
338,17.169862200011266,0.11548674535963235,0.15868883738039938,-0.027443393608777712,0.08153064858649263,0.26963707506409634,-0.12859841602169225,-0.1517367341380007,0.025094590013131714,-0.1720021320012366,-0.32115946912778814,-0.7106495726795484,0.07816328238879751
339,17.173730800001067,0.11587530444671768,0.159979912599845,-0.028060981810376293,0.08080058501744519,0.26974906296517037,-0.1294209169250788,-0.153263453176789,0.021690691620677563,-0.1716202859698209,-0.31665081588998223,-0.7113990427922082,0.08136626179024779
340,17.178010400006315,0.1162603511302479,0.16127148491547522,-0.028682503055200394,0.08006326451029529,0.26984474737491904,-0.13024155317908137,-0.15476843122769035,0.018283470952600127,-0.17122311029439177,-0.31207681317652747,-0.7120375148387441,0.08456742582369928
341,17.183282600002713,0.11664185091944569,0.16256347624229214,-0.02930794824126927,0.0793187918908112,0.2699241136610627,-0.1310602514194749,-0.15625135757743838,0.014873459663073879,-0.1708106154877422,-0.30743835595110997,-0.7125648739574253,0.08776600776637446
342,17.187799500010442,0.11701976982890876,0.1638558084313433,-0.02993730791551841,0.07856727346193443,0.26998714973774707,-0.13187693834114647,-0.15771192583507448,0.011461189921932053,-0.1703828157586864,-0.3027363563665919,-0.712981020588862,0.09096123056887523
343,17.19155150000006,0.11739407438563172,0.16514840328191777,-0.030570572274124897,0.0778088169828998,0.27003384606782455,-0.13269154071590988,-0.1591498340205205,0.00804719433655656,-0.16993972905969,-0.2979717468796397,-0.7132858724762302,0.09415230775327202
344,17.198535100003937,0.11776473163592716,0.1664411825537519,-0.031207731162918563,0.07704353164788447,0.2700641956647621,-0.13350398541053382,-0.16056478467039992,0.004632005864328812,-0.16948137712951095,-0.29314548417093167,-0.7134793687426251,0.0973384443617279
345,17.20290720000048,0.11813170915224308,0.16773406797924387,-0.03184877407787995,0.07627152806411482,0.27007819409408446,-0.13431419940496456,-0.1619564849641437,0.001216157695482006,-0.16900778553174753,-0.28825855297302483,-0.7135614749791239,0.10051883791421981
346,17.206851599999936,0.11849497503987436,0.16902698127567325,-0.032493690165725946,0.0754929182293081,0.27007583947416025,-0.1351221098107233,-0.1633246468664604,-0.002199816883162487,-0.16851898368830975,-0.28331196703548306,-0.7135321850179183,0.1036926791482564
347,17.21414850000292,0.11885449794356422,0.170319844157423,-0.03314246822458388,0.07470781550841538,0.27005713247634067,-0.13592764388944936,-0.16466898726268236,-0.005615384622319274,-0.16801500491088497,-0.27830676803241705,-0.7133915219139553,0.1068591523552785
348,17.220714800001588,0.11921024705399298,0.17161257834820035,-0.0337950967047547,0.07391633460976718,0.27002207632446135,-0.13673072907159867,-0.16598922809077646,-0.009030012455901031,-0.16749588643118865,-0.2732440263376249,-0.7131395418351681,0.11001743645524675
349,17.22763360000681,0.11956219211415121,0.1729051055932541,-0.03445156370956609,0.07311859156055263,0.26997067679358655,-0.1375312929752766,-0.16728509648411155,-0.012443167672388733,-0.16696166942214152,-0.26812484198958103,-0.7127763378527869,0.11316670663322821
350,17.231317900004797,0.11991030342559365,0.17419734767158346,-0.03511185699631595,0.07231470368159822,0.26990294220787026,-0.13832926342513938,-0.16855632491270833,-0.015854318096783167,-0.16641239901245128,-0.2629503424618519,-0.7123020381130994,0.11630613471756818
351,17.23467210000672,0.1202545518545709,0.17548922640813483,-0.03577596397730649,0.0715047895614945,0.2698188834375583,-0.1391245684713663,-0.1698026513046602,-0.019262932244471127,-0.165848124304169,-0.2577216773662557,-0.7117167986571172,0.11943488854403973
352,17.23982010000327,0.12059490883803564,0.176780663685982,-0.03644387172096935,0.07068896903021243,0.2697185138953762,-0.13991713640872938,-0.17102381913666978,-0.02266847943443054,-0.16526889839335868,-0.25244001432449054,-0.7110207998101219,0.12255213234251246
353,17.244814800011227,0.12093134638952172,0.17807158145848825,-0.03711556695308228,0.06986736313236319,0.2696018495324477,-0.14070689579576343,-0.1722195775159436,-0.02607042990852924,-0.1646747783839515,-0.24710653986969364,-0.710214250299592,0.12565702914167276
354,17.24868280001101,0.12126383710489433,0.1793619017614476,-0.037791036058077807,0.06904009410003044,0.2694689088335402,-0.14149377547396827,-0.17338968127936047,-0.029468254984156207,-0.16406582538539202,-0.2417224616461834,-0.7092973913967496,0.1287487433533591
355,17.253006200000527,0.12159235416796901,0.18065154672520126,-0.03847026508044372,0.0682072853250807,0.26931971281152184,-0.14227770458695643,-0.17453389109642706,-0.032861427213172575,-0.16344210450174937,-0.23628900712702106,-0.7082704946656277,0.13182644158766502
356,17.25692759999947,0.12191687135599673,0.1819404385867259,-0.039153239726215094,0.06736906133100991,0.26915428500108546,-0.143058612599551,-0.1756519735561678,-0.03624942051299185,-0.16280368482155932,-0.2308074215893983,-0.7071338560556617,0.13488929293844795
357,17.266783200000646,0.12223736304501327,0.18322849970169003,-0.03983994536455764,0.06652554774442183,0.26897265145195043,-0.14383642931683605,-0.17674370125069638,-0.03963171026897186,-0.16215063940420207,-0.22527896938135794,-0.7058877936876945,0.13793647042643506
358,17.270326700003352,0.12255380421505131,0.18451565255647706,-0.0405303670294421,0.06567687126607452,0.2687748407216063,-0.14461108490312413,-0.17780885287423354,-0.043007773444297626,-0.16148304525592758,-0.21970493724157386,-0.7045326518659308,0.14096715355688208
359,17.2775615999999,0.12286617045521259,0.18580181978017232,-0.041224489421409174,0.06482315964141072,0.26856088386746263,-0.14538250990077717,-0.17884721333846296,-0.04637708872078479,-0.16080098329174564,-0.2140866379359925,-0.7030688067412987,0.14398053134806124
360,17.28602559999854,0.12317443796859778,0.18708692415651093,-0.04192229690942415,0.06396454163049983,0.2683308144382446,-0.146150635248809,-0.17985857390636723,-0.049739136662984976,-0.16010453828245574,-0.20842541342121876,-0.701496669568246,0.14697580493525722
361,17.293418800007203,0.12347858357709096,0.1883708886357824,-0.04262377353281994,0.06310114697728698,0.2680846684645715,-0.14691539230119918,-0.18084273233787085,-0.05309339989017064,-0.1593937987916058,-0.20272263547635708,-0.6998166864540316,0.14995218867501728
362,17.299500799999805,0.12377858472599501,0.1896536363466884,-0.043328903003327,0.06223310637814054,0.26782248444870593,-0.14767671284489195,-0.18179949302972556,-0.05643936323804007,-0.15866885711194964,-0.19697970415328134,-0.6980293356687501,0.15290890997862816
363,17.306198300007964,0.12407441948851494,0.19093509060814903,-0.04403766870718875,0.0613605514497619,0.2675443033535839,-0.14843452911750163,-0.18272866714631586,-0.059776513904947745,-0.157929809204,-0.19119804777691293,-0.6961351285294745,0.1558452105175374
364,17.31624670000747,0.1243660665700861,0.19221517494105575,-0.04475005370736098,0.060483614696480614,0.267250168591164,-0.14918877382472331,-0.18363007275954696,-0.0631043416220743,-0.15717675462094502,-0.18537912604457427,-0.6941346189217497,0.15876035126323695
365,17.321711500000674,0.12465350531254434,0.19349381307996608,-0.04546604074579397,0.05960242947682487,0.2669401260098284,-0.1499393801573194,-0.18450353500932434,-0.06642233889081817,-0.15640979639894823,-0.17952443299893495,-0.6920284146844629,0.16165361858423577
366,17.326149200001964,0.12493671569813415,0.19477092898473572,-0.04618561224579453,0.05871712996928015,0.26661422388045897,-0.15068628180747992,-0.1853488862719055,-0.06973000126196724,-0.15562904092369087,-0.17363549630009567,-0.6898171780192037,0.1645243252943365
367,17.330311800003983,0.12521567835335104,0.19604644685208017,-0.04690875031446476,0.05782785113724785,0.26627251288116555,-0.15142941298453141,-0.18616596631341015,-0.07302682757700982,-0.15483459781063544,-0.16771387118517142,-0.6875016145807854,0.16737180571955915
368,17.334409600007348,0.12549037455261414,0.1973202911270605,-0.04763543674521449,0.05693472869333421,0.26591504608105165,-0.15216870843015082,-0.18695462240033955,-0.07631232014285612,-0.15402657981879864,-0.16176113205660317,-0.6850824616509217,0.1701954097392843
369,17.338319500006037,0.12576078622176665,0.1985923865144896,-0.04836565302034569,0.05603789906325079,0.26554187892326997,-0.15290410343324873,-0.18771470937255103,-0.07958598485992091,-0.15320510278806648,-0.15577886762724355,-0.6825604801336992,0.17299449943952983
370,17.34232160000829,0.12602689594140287,0.19986265799025565,-0.04909938031370744,0.05513749934940469,0.26515306920756165,-0.15363553384458323,-0.18844608970729496,-0.0828473313202076,-0.1523702855850097,-0.1497686792439501,-0.6799364511734293,0.17576844802227692
371,17.346285400009947,0.12628868695002005,0.20113103081256126,-0.04983659949342021,0.054233667294185973,0.2647486770723728,-0.1543629360911243,-0.18914863357613906,-0.08609587290300934,-0.1515222500506412,-0.143732179639053,-0.6772111765997388,0.17851663968802955
372,17.350648799998453,0.12654614314699386,0.2023974305330757,-0.05057729112466839,0.05332654124301285,0.26432876497647756,-0.15508624719016753,-0.18982221889705161,-0.08933112687725446,-0.15066112094735593,-0.1376709922813954,-0.6743854798074862,0.18123847003789112
373,17.355381400004262,0.1267992490953765,0.20366178300799812,-0.0513214354725597,0.05241626010712043,0.26389339768011455,-0.15580540476319044,-0.19046673138511236,-0.09255261450563217,-0.14978702590283866,-0.13158675118693164,-0.6714602072155914,0.18393334739402037
374,17.360920000006445,0.12704799002451583,0.2049240144090291,-0.05206901250505036,0.051502963326120414,0.26344264222561314,-0.15652034704942916,-0.19108206460278238,-0.09575986116090522,-0.14890009534436152,-0.12548110131433918,-0.6684362317478934,0.18660069553535144
375,17.365901600001962,0.1272923518324951,0.20618405123424843,-0.05282000189593451,0.05058679083030853,0.26297656791741636,-0.1572310129191058,-0.1916681200144027,-0.0989523964633622,-0.14800046241649936,-0.11935569922818624,-0.6653144559894284,0.18923995636181895
376,17.371644600003492,0.12753232108839116,0.20744182031889546,-0.05357438302789602,0.04966788300270245,0.262495246301391,-0.1579373418862172,-0.1922248070428135,-0.10212975442734923,-0.14708826288991916,-0.11321221287820635,-0.6620958115257398,0.19185059027496515
377,17.375808299999335,0.12776788503435066,0.20869724884604865,-0.05433213499562033,0.04874638064080714,0.2619987511434476,-0.15863927412088905,-0.19275204312173944,-0.10529147359239666,-0.14616363507545144,-0.1070523205561095,-0.6587812561602531,0.19443207517389297
378,17.381810800012317,0.12799903158748233,0.20995026435720132,-0.05509323660896457,0.047822424918151224,0.26148715840759534,-0.159336750461342,-0.19324975374242107,-0.10843709714310919,-0.14522671974249265,-0.10087771035722445,-0.6553717726189375,0.19698390640470503
379,17.386424100011936,0.1282257493415648,0.21120079476273107,-0.05585766639618395,0.04689615734560586,0.2609605462334139,-0.16002971242546446,-0.19371787250084582,-0.11156617302789062,-0.1442776600335607,-0.09469007992744977,-0.6518683678526879,0.1995055971114278
380,17.391029999998864,0.12844802756856863,0.21244876835225984,-0.056625402607212674,0.045967719732468916,0.2604189949129717,-0.1607181022219607,-0.19415634114195668,-0.11467825407215487,-0.14331660137933752,-0.08849113510387618,-0.6482720697756784,0.20199667603019028
381,17.39462240001012,0.12866585621999146,0.21369411380490233,-0.0573964232169971,0.045037254147360595,0.25986258686721403,-0.16140186276111024,-0.19456510959386808,-0.1177728980658228,-0.14234369143434358,-0.08228258719469225,-0.6445839186395199,0.2044566820242083
382,17.398551100006443,0.1288792259280057,0.2149367601994,-0.05817070592887964,0.044104902878979994,0.2592914066220433,-0.16208093766530002,-0.19494413598603172,-0.12084966779394722,-0.14135908004430406,-0.07606615044937014,-0.6408049589021676,0.20688515949228325
383,17.40293219999876,0.1290881280064179,0.21617663702414047,-0.05894822817803275,0.043170808396826806,0.2587055407844142,-0.16275527127947143,-0.19529338665923138,-0.12390813104636052,-0.14036291922578356,-0.06984354269104308,-0.6369362417574089,0.20928166000294487
384,17.40739220000978,0.12929255445144042,0.21741367418706267,-0.05972896713494285,0.0422351133118622,0.2581050780183215,-0.16342480868145745,-0.19561283618980324,-0.12694786067251762,-0.13935536311790653,-0.06361648809915108,-0.6329788347484269,0.21164574945905124
385,17.41164020000724,0.12949249794227422,0.21864780202544631,-0.06051289970894332,0.041297960336998625,0.25749010902037,-0.16408949569196746,-0.19590246742627251,-0.12996843468318642,-0.13833656789339627,-0.05738671822225132,-0.6289338287567509,0.21397701353043164
386,17.41559170000255,0.12968795184150209,0.21987895131558316,-0.06130000255179401,0.04035949224740992,0.2568607264947889,-0.16474927888407262,-0.19616227152327065,-0.1329694363722047,-0.1373066916582818,-0.05115597118698257,-0.6248023388615896,0.21627505726417984
387,17.419946800000616,0.12987891019529155,0.22110705328232727,-0.06209025206130501,0.03941985184069639,0.256217025127836,-0.16540410559223045,-0.19639224797059837,-0.1359504544263981,-0.13626589436666806,-0.04492598992653684,-0.6205855001885945,0.21853950150418602
388,17.42367300001206,0.13006536773340668,0.22233203960852121,-0.06288362438500258,0.03847918189691666,0.25555910156175954,-0.16605392392095425,-0.19659240461018185,-0.138911083007592,-0.13521433775472305,-0.03869851949355538,-0.6162844645609944,0.22076997996650216
389,17.427992700002505,0.13024731986902835,0.22355384244429702,-0.06368009542383597,0.03753762513859039,0.2548870543684173,-0.16669868275320557,-0.19676275763940868,-0.14185092183046652,-0.1341521852834493,-0.03247530525685364,-0.6119004005359532,0.22296613861408146
390,17.434565200004727,0.13042476269838307,0.2247723944162498,-0.06447964083592365,0.036595324190698206,0.2542009840224931,-0.16733833175851576,-0.19690333161081902,-0.1447695762449166,-0.13307960207865738,-0.026258091256537833,-0.6074344943468506,0.22512763670019056
391,17.43916390000959,0.1305976930001803,0.22598762863648228,-0.0652822360403379,0.03565242154068739,0.2535009928743272,-0.16797282140080375,-0.19701415941969308,-0.1476666573229286,-0.13199675486374746,-0.02004861818085688,-0.6028879527185882,0.22725414870502866
392,17.445645800005877,0.13076610823485832,0.2271994787115183,-0.06608785622092588,0.034709059498590614,0.2527871851223012,-0.16860210294585398,-0.19709528228437206,-0.15054178196789486,-0.13090381188114117,-0.013848622385364788,-0.5982620084062217,0.22934536734153677
393,17.449501200011582,0.1309300065436398,0.22840787875108293,-0.06689647633016584,0.03376538015722006,0.2520596667846217,-0.169226128468382,-0.19714674972445487,-0.15339457305451856,-0.12980094279628474,-0.007659834184975722,-0.5935579247149935,0.23140100612455672
394,17.45349320000969,0.13108938674739648,0.22961276337674583,-0.06770807109305585,0.03282152535249492,0.25131854567036577,-0.16984485085859327,-0.19716861952476675,-0.15622465958140427,-0.12868831859448304,-0.001483976051622454,-0.5887769954355261,0.23342079883185593
395,17.45854780000809,0.13124424834532492,0.23081406773042415,-0.06852261501103275,0.03187763662398045,0.25056393134980365,-0.170458223828261,-0.1971609576962999,-0.1590316768103424,-0.12756611149006306,0.0046772380182341245,-0.5839205419349374,0.23540449673028022
396,17.463675000006333,0.1313945915134334,0.23201172748274176,-0.06934008236591913,0.030933855175589477,0.24979593512411064,-0.17106620191641533,-0.19712383843412654,-0.16181526639104918,-0.12643449484976543,0.010822104496084747,-0.5789899119883758,0.23735186713691217
397,17.469924600009108,0.1315404171028414,0.23320567884124216,-0.07016044722389668,0.02999032183652438,0.24901466999449565,-0.17166874049468764,-0.1970573440592629,-0.1645750764892641,-0.12529364311568378,0.01694893316794286,-0.5739864817083856,0.2392626948106782
398,17.474395400000503,0.13168172663789252,0.2343958585584521,-0.07098368343950441,0.02904717702253521,0.24822025063068648,-0.17226579577226192,-0.19696156494932854,-0.16731076192996203,-0.12414373171533265,0.023056049031514633,-0.5689116591808039,0.24113678471741912
399,17.481893600008334,0.13181852231408303,0.23558220393979282,-0.0718097646596594,0.028104560697525566,0.24741279333868732,-0.17285732480035812,-0.19683659946224638,-0.17002198436026167,-0.1229849369581133,0.02914179365588961,-0.5637668872776684,0.24297396386601064
400,17.48632960001123,0.13195080699580733,0.23676465285133494,-0.07263866432769786,0.027162612335541212,0.24659241602770426,-0.1734432854761922,-0.19668255385388392,-0.17270841241956927,-0.12181743592780221,0.03520452578288167,-0.5585536413814467,0.24477408070973292
401,17.49282050000329,0.13207858421392238,0.23794314372739303,-0.0734703556874339,0.0262214708831645,0.24575923817627382,-0.17402363654643013,-0.19649954219599589,-0.17536972188069816,-0.12064140638474827,0.04124262066281502,-0.5532734222716295,0.2465370016790469
402,17.496944099999382,0.1322018581631332,0.23911761557795624,-0.07430481178723362,0.02528127472228861,0.2449133807978373,-0.1745983376102116,-0.19628768630022483,-0.17800559575190691,-0.11945702669155737,0.04725446913714233,-0.547927748847499,0.24826260594818966
403,17.50086430000374,0.13232063369920094,0.24028800799595323,-0.0751420054841028,0.024342161633239615,0.24405496640589244,-0.17516734912189244,-0.19604711564482705,-0.18061572434834477,-0.11826447576539563,0.05323847678469258,-0.542518152469911,0.24995078132663434
404,17.504864800008363,0.1324349163359752,0.24145426116434918,-0.07598190944778727,0.023404268758252265,0.24318411897888367,-0.17573063239361172,-0.19577796730684716,-0.1831998053399166,-0.11706393304301016,0.05919306382693532,-0.5370461745565542,0.25160142250291334
405,17.511774800004787,0.13254471224225248,0.24261631586307453,-0.07682449616488518,0.022467732565241434,0.2423009639248955,-0.17628814959769928,-0.19548038588975108,-0.18575754379970458,-0.11585557844984638,0.06511666677230177,-0.5315133669277293,0.2532144305846781
406,17.516391600001953,0.13265002823846161,0.243774113475784,-0.07766973794297045,0.021532688811970763,0.24140562804607923,-0.1768398637689471,-0.1951545234398575,-0.18828865225514388,-0.11463959236947244,0.07100773914354436,-0.5259212918741724,0.25478971314655086
407,17.519898500002455,0.13275087179317915,0.24492759599644479,-0.07851760691472674,0.020599272510624208,0.24049823950285631,-0.17738573880672406,-0.19480053936700686,-0.19079285073709368,-0.11341615561223829,0.07686475141471011,-0.5202715213322587,0.25632718329812937
408,17.524250100002973,0.13284725101947564,0.2460767060357527,-0.07936807504209115,0.01966761789273423,0.23957892777787526,-0.1779257394769474,-0.19441860036159625,-0.19326986682311592,-0.11218544939362335,0.08268619078960349,-0.5145656334343309,0.2578267569473825
409,17.52860160000273,0.13293917467109514,0.24722138682737543,-0.08022111412040707,0.01873785837454766,0.23864782363980064,-0.17845983141399005,-0.1940088803173695,-0.1957194356535184,-0.1109476553290965,0.08847055955730596,-0.5088052071684257,0.2592883501140144
410,17.532137500005774,0.13302665213846998,0.24836158223402194,-0.08107669578258618,0.017810126522693127,0.2377050591071164,-0.17898798112260283,-0.1935715602641967,-0.19814129992350432,-0.10970295543818631,0.09421637531337375,-0.502991819215622,0.26071187782094885
411,17.536618000012822,0.13310969344457152,0.2494972367533391,-0.08193479150327967,0.01688455402019051,0.23675076741199,-0.17951015597986092,-0.19310682828874656,-0.2005352098689353,-0.10845153214995425,0.0999221723833178,-0.4971270429653705,0.26209725395110345
412,17.540498400005163,0.1331883092405995,0.25062829552363525,-0.08279537260305887,0.01596127163287785,0.23578508296421208,-0.1800263242371383,-0.19261487945363714,-0.20290092324905348,-0.10719356830843615,0.1055865018858361,-0.491212447284686,0.26344439158379745
413,17.544823100004578,0.13326251080151133,0.2517547043294315,-0.08365841025260538,0.0150404091761949,0.23480814131522598,-0.18053645502210638,-0.19209591571750273,-0.20523820532046044,-0.10592924717489467,0.11120793233315175,-0.48524959481221136,0.26475320382863
414,17.549455500004115,0.13333231002139348,0.2528764096068408,-0.08452387547691084,0.014122095482375328,0.23382007912231656,-0.18104051834073007,-0.19155014584839686,-0.20754682880350622,-0.10465875242527689,0.11678505045390836,-0.47924004144922916,0.26602360455277585
415,17.552978700012318,0.13339771940867662,0.2539933584487767,-0.08539173915948618,0.013206458368059358,0.2328210341129615,-0.18153848507924195,-0.19097778533598056,-0.20982657385139508,-0.10338226814550347,0.12231646201521024,-0.47318533563359255,0.267255508874538
416,17.557242800001404,0.13345875208119687,0.2551054986099907,-0.08626197204658027,0.01229362460232672,0.23181114504931596,-0.18203032700609328,-0.19037905629705495,-0.21207722800962292,-0.1020999788242009,0.12780079327718508,-0.46708701729598223,0.2684488341416457
417,17.56107100000372,0.13351542176110498,0.2562127785119412,-0.08713454475140787,0.011383719875213737,0.23079055169295218,-0.18251601677385867,-0.18975418737382313,-0.21429858617508998,-0.10081206933862412,0.13323669140444175,-0.4609466184606709,0.2696035010691488
418,17.565709300004528,0.1335677427696261,0.2573151472474933,-0.08800942775838651,0.01047686876672035,0.2297593947697356,-0.1829955279210522,-0.18910341363548333,-0.21649045056129015,-0.09951872493649432,0.13862282427612646,-0.4547656631513411,0.27071943440463886
419,17.569780500009074,0.13361573002167224,0.25841255458545137,-0.0888865914273818,0.009573194716269376,0.2287178159348978,-0.1834688348738582,-0.18842697647830942,-0.21865263065652193,-0.09822013121555252,0.1439578816875956,-0.44854566691509595,0.27179656398770013
420,17.574226500000805,0.1336593990203096,0.2595049509749245,-0.08976600599796092,0.008672819992670177,0.2276659577383127,-0.18393591294775172,-0.18772512351573892,-0.2207849431845205,-0.09691647409525395,0.14924057715330255,-0.4422881362553467,0.2728348264243492
421,17.578343800007133,0.1336987658510835,0.2605922875495264,-0.09064764159365345,0.007775865664630258,0.22660396358994642,-0.1843967383489582,-0.1869981084611922,-0.22288721205723896,-0.09560793978029007,0.15446964958288265,-0.43599456698554034,0.27383416681382233
422,17.58270280000579,0.1337338471762034,0.2616745161314105,-0.09153146822621878,0.006882451571840852,0.22553197772558553,-0.18485128817572472,-0.1862461910021132,-0.22495926831971866,-0.09429471471575027,0.15964386476731776,-0.4296664427736608,0.2747945405653158
423,17.586552100008703,0.1337646602285909,0.2627515892351414,-0.09241745579991918,0.005992696296694479,0.22445014517281478,-0.1852995404193504,-0.18546963666855976,-0.22700095008893503,-0.09297698553324994,0.16476201645437613,-0.4233052340070758,0.27571591478748547
424,17.591715600006864,0.13379122280579406,0.2638234600714042,-0.09330557411579703,0.005106717136628689,0.22335861171733082,-0.18574147396494184,-0.18466871669694773,-0.22901210248779966,-0.09165493899278873,0.16982292710768973,-0.4169123979805588,0.276598268812875
425,17.59542950001196,0.1338135532637706,0.26489008255055363,-0.0941957928759551,0.004224630077148162,0.22225752386955183,-0.18617706859188687,-0.18384370789137372,-0.23099257758580635,-0.09032876192385764,0.17482544727412755,-0.4104893795273008,0.2774415941661242
426,17.600425600001472,0.13383167051054387,0.2659514112860035,-0.0950880816878384,0.00334654976549619,0.22114702883149953,-0.18660630497404612,-0.1829948924934162,-0.23294223433907463,-0.08899864116760159,0.17976845472990416,-0.4040376107664068,0.2782458939632279
427,17.60491880000336,0.13384559399973409,0.26700740159745895,-0.09598241006851624,0.002472589484923335,0.22002727446398282,-0.18702916467967304,-0.1821225580516335,-0.23486093852857828,-0.08766476352367825,0.1846508550182535,-0.3975585107252891,0.2790111825930167
428,17.609058100002585,0.13385534372396785,0.26805800951399156,-0.09687874744896328,0.0016028611296083632,0.2188984092540712,-0.18744563017109664,-0.18122699728621722,-0.23674856269657354,-0.08632731569547014,0.18947158217682888,-0.39105348552861374,0.27973748628820805
429,17.61320849999902,0.13386094020816924,0.2691031917769601,-0.09777706317833863,0.0007374751802227551,0.21776058228288708,-0.18785568480411702,-0.18030850795152586,-0.2386049860866367,-0.08498648423147609,0.19422960025568956,-0.3845239283971068,0.28042484339549073
430,17.617617900003097,0.1338624045027355,0.27014290584277767,-0.09867732652826107,-0.00012345931983222505,0.21661394319365332,-0.18825931282712693,-0.1793673926862046,-0.24043009458008074,-0.08364245546793747,0.19892390682769442,-0.377971218952944,0.28107330521062374
431,17.62329280000995,0.13385975817660056,0.271177109885526,-0.09957950669707971,-0.0009798347874260278,0.21545864216009425,-0.18865649937995801,-0.17840395884210955,-0.24222378062934274,-0.08229541546223419,0.20355353789046363,-0.37139672543252983,0.2816829384628148
432,17.628287600004114,0.13385302331019044,0.2722057627994204,-0.10048357281413824,-0.0018315451218238244,0.214294829855121,-0.18904723049236466,-0.17741851828749483,-0.24398594321558614,-0.08094554991172488,0.20811757406489978,-0.36480180728170114,0.2822538284455565
433,17.636312900009216,0.13384222248827504,0.27322882420112415,-0.101389493944031,-0.002678485725802668,0.21312265741963846,-0.1894314930820932,-0.17641138717659063,-0.24571648780693522,-0.07959304405716741,0.21261514616126187,-0.35818781369962227,0.2827860806607721
434,17.640590499999234,0.13382737879272136,0.2742462544319148,-0.1022972390908488,-0.0035205535255703785,0.21194227643163047,-0.18980927495244113,-0.17538288569949925,-0.2474153263021364,-0.07823808258581762,0.21704543657067243,-0.3515560823713049,0.28327981811581765
435,17.644603400010965,0.13380851579515451,0.27525801455970267,-0.10320677720241159,-0.004357646989487146,0.2107538388755062,-0.1901805647893985,-0.17433333783845045,-0.2490823769766574,-0.07688084956072902,0.22140767648208037,-0.3449079394097767,0.28373517619787314
436,17.648915800004033,0.13378565754953178,0.2762640663809034,-0.10411807717448689,-0.005189666145650738,0.20955749711170135,-0.19054535215853022,-0.17326307114434306,-0.2507175644257949,-0.07552152837292546,0.22570114107525546,-0.3382446973922025,0.28415229802704295
437,17.652913300000364,0.13375882858463523,0.2772643724221657,-0.10503110785499267,-0.006016512598478658,0.2083534038465693,-0.19090362750165962,-0.17217241653902382,-0.2523208194919711,-0.07416030171519143,0.2299251451248232,-0.33156765225899754,0.28453132983912655
438,17.657091100001708,0.13372805389648695,0.2782588959419554,-0.105945838048184,-0.006838089544400317,0.20714171210267837,-0.19125538213349977,-0.17106170813391713,-0.25389207917815254,-0.07279735157845128,0.23407904040699795,-0.32487808274854435,0.2848724177899897
439,17.6614733000024,0.13369335894069154,0.2792476009319991,-0.10686223651882365,-0.007654301786702704,0.20592257518953186,-0.1916006082383023,-0.1699312830571325,-0.2554312865697345,-0.07143285925615532,0.2381622144346365,-0.3181772513422071,0.2851757064240558
440,17.665400600002613,0.13365476962470912,0.28023045211858755,-0.10778027199633668,-0.008465055749567244,0.20469614667461328,-0.19193929886653083,-0.1687814812842052,-0.2569383907570078,-0.07006700535532207,0.24217408931858891,-0.3114664034440368,0.2854413374383208
441,17.669639200001257,0.13361231230006346,0.28120741496374224,-0.1086999131789492,-0.009270259491294933,0.2034625803548487,-0.19227144793161546,-0.1676126454761054,-0.2584133467491893,-0.06869996981275801,0.24611412154644263,-0.30474676687514607,0.2856694496666082
442,17.679618800000753,0.13356601375448837,0.2821784556662457,-0.10962112873781187,-0.010069822716792251,0.2022220302284751,-0.1925970502067815,-0.1664251208120973,-0.2598561153920478,-0.06733193190625063,0.24998180505019862,-0.2980195530109841,0.2858601802210861
443,17.683133200000157,0.13351590120401627,0.2831435411625385,-0.1105438873211083,-0.010863656789196053,0.2009746504672913,-0.19291610132191112,-0.1652192547983774,-0.26126666329282305,-0.06596307025985892,0.25377667354640837,-0.29128595804697277,0.28601366537550305
444,17.688216400012607,0.13346200228501331,0.2841026391274839,-0.11146815755814851,-0.011651674740527331,0.1997205953892452,-0.1932285977604227,-0.16399539707852864,-0.2626449627499693,-0.06459356284665013,0.25749829825928106,-0.28454716204927694,0.2861300408340567
445,17.69185170000128,0.1334043450461659,0.28505571797500256,-0.11239390806344746,-0.012433791281501343,0.19846001943135744,-0.19353453685615876,-0.16275389926395828,-0.26399099166898604,-0.06322358699141606,0.2611462841887729,-0.27780432731126875,0.2862094405453769
446,17.696221400008653,0.13334295794042197,0.28600274685857796,-0.11332110744078866,-0.013209922810557944,0.1971930771231144,-0.19383391679029127,-0.16149511478008213,-0.26530473347642586,-0.06185331938476499,0.2647202664421819,-0.27105859917408937,0.28625199453667743
