,time,x,y,z,vx,vy,vz,ax,ay,az,jx,jy,jz
0,20.697514999992563,0.0685157845927946,0.01029570771076497,0.06345870938512672,0.007928130724838974,0.011581794190901116,-0.0012194872624382192,0.04868219728428824,0.09892149075075223,-0.04276892782158124,0.0640896675523478,0.12330025945276792,-0.08931121372487681
1,20.70188860000053,0.06855244554788398,0.010349552914066971,0.06345270342242193,0.008150803136616777,0.012034189123398433,-0.0014154555803187587,0.0489736681893781,0.09948165920492626,-0.04317608071683273,0.06373447806924436,0.12236049418074306,-0.08924805114092921
2,20.705903499998385,0.06859012498935431,0.010405467004016568,0.06344579954944675,0.008374801053291183,0.012489128826734516,-0.001613279985509137,0.04926349538396978,0.10003749459824718,-0.043582925583862085,0.06336874899276741,0.12139986929412593,-0.08917608275006253
3,20.710062499987544,0.06862882894482966,0.010463461540505727,0.06343798930506755,0.008600116869432777,0.01294659332389544,-0.0018129589817420183,0.04955163061230202,0.1005889015556927,-0.04398942208260551,0.06299239687755638,0.12041827680506703,-0.089095228307926
4,20.71428259999084,0.06866856340674919,0.010523547991333254,0.06342926423539362,0.008826742758685838,0.013406562201804287,-0.0020144908879491936,0.04983802524141249,0.10113578421470344,-0.04439552950680975,0.06260533979641734,0.11941561092072421,-0.089005407881125
5,20.71834809999564,0.06870933433135573,0.010585737730211152,0.06341961589462371,0.009054670672058071,0.01386901460912094,-0.0022178738365969675,0.05012263026831294,0.10167804623536057,-0.04480120678736871,0.06220749779772406,0.11839176818498753,-0.08890654237767087
6,20.72264309998718,0.06875114763767662,0.010650042034761028,0.06340903584590016,0.009283892336256011,0.014333929254088475,-0.002423105772041327,0.05040539633083246,0.10221559081152062,-0.04520641249666097,0.061798793234444385,0.11734664776648454,-0.08879855369329866
7,20.73096289999376,0.0687940092064971,0.010716472084500812,0.06339751566217049,0.009514399252073646,0.014801284402434504,-0.0026301844489028912,0.050686273717793544,0.10274832068361989,-0.04561110485322095,0.06137915085579128,0.11628015183829152,-0.08868136509561142
8,20.73909920000005,0.06883792487932647,0.010785038958822026,0.0633850469270563,0.00974618269282064,0.015271057875334362,-0.0028391074304646817,0.05096521238069127,0.10327613815327248,-0.04601524172958003,0.06094849817300088,0.11519218596202363,-0.08855490162647818
9,20.74380649998784,0.06888290045735712,0.010855753634957915,0.06337162123572947,0.009979233702817473,0.015743227047445588,-0.0030498720871185887,0.051242161947205524,0.10379894509957786,-0.04641878066060781,0.0605067653312235,0.1140826593299752,-0.0884190895898499
10,20.747871599989598,0.06892894170041698,0.0109286269859428,0.06335723019579527,0.010213543095946903,0.016217768845019846,-0.0032624755948392208,0.05151707173171167,0.10431664299592737,-0.046821678846681855,0.06005388467055443,0.1129514847880561,-0.08827385571039914
11,20.75172649999149,0.06897605432591535,0.011003669778562984,0.06334186542818246,0.010449101454244976,0.016694659744090696,-0.0034769149336592786,0.05178989074478915,0.10482913292652092,-0.04722389315435519,0.05958979067119304,0.1117985787745449,-0.0881191269505931
12,20.755893099994864,0.06902424400778244,0.011080892671299573,0.06332551856804028,0.010685899126539203,0.017173875768736153,-0.003693186886149494,0.052060567703231996,0.10533631560261496,-0.04762538011785762,0.059114419971834135,0.11062386117319674,-0.08795483038264389
13,20.76015259999258,0.06907351637540286,0.011160306212263545,0.06330818126564244,0.01092392622713088,0.01765539248941465,-0.003911288035907696,0.052329051039725114,0.1058380913776994,-0.04802609593859537,0.05862771129630406,0.1094272552010464,-0.08778089278608404
14,20.765363599988632,0.06912387701254312,0.011241920837123385,0.06328984518729791,0.01116317263452152,0.018139185021366026,-0.004131214766034187,0.05259528891218569,0.10633436026272225,-0.04842599648298202,0.05812960538036416,0.10820868757370239,-0.08759724092216044
15,20.76870329999656,0.06917533145627344,0.011325746867025572,0.06327050201626877,0.011403627990180359,0.01862522802308634,-0.004352963257601025,0.05285922921277191,0.10682502194277418,-0.04882503728444079,0.05762004511835416,0.10696808865815503,-0.08740380206432376
16,20.77316449998761,0.06922788519588409,0.011411794506508307,0.06325014345369498,0.01164528169735297,0.019113495694881032,-0.004576529488145663,0.0531208195785618,0.10730997579370684,-0.049223173546073876,0.05709897563613841,0.10570539245447033,-0.08720050387007841
17,20.776948599988827,0.0692815436717963,0.0115000738414088,0.06322876121952599,0.011888122919926157,0.019603961777491317,-0.004801909230164575,0.05338000740122728,0.1077891208986504,-0.04962036014149592,0.05656634419951638,0.10442053665997639,-0.08698727439934505
18,20.780757599990466,0.06933631227446824,0.011590594836764471,0.06320634705345922,0.012132140581324804,0.020096599550797987,-0.005029098049614498,0.05363673983687765,0.10826235606521739,-0.05001655161767083,0.05602210069014515,0.10311346280835444,-0.08676404271812059
19,20.78509309999936,0.06939219634329588,0.011683367334708417,0.06318289271588536,0.012377323363466551,0.02059138183260471,-0.005258091304431935,0.05389096382007436,0.10872957984328878,-0.050411702201251005,0.05546619764184279,0.10178411639122097,-0.08653073904472831
20,20.789211799987243,0.06944920116550944,0.011778401052359513,0.06315838998884032,0.01262365970578646,0.021088280977504065,-0.0054888841430922085,0.0541426260740056,0.1091906905433267,-0.05080576580274803,0.05489858958215817,0.1004324469313219,-0.08628729423770076
21,20.793451499994266,0.06950733197506535,0.011875705579707537,0.06313283067696374,0.012871137804284494,0.021587268875827858,-0.005721471503167007,0.054391673118495756,0.10964558625482816,-0.0511986960182011,0.0543192333434655,0.09905840805760156,-0.08603363986893062
22,20.79761189999408,0.069566593951534,0.011975290377493699,0.06310620660846401,0.013119745610623236,0.022088316952681465,-0.005955848109898656,0.054638051283017415,0.11009416486532242,-0.05159044613401489,0.05372808833708449,0.09766195768617816,-0.08576970831511108
23,20.801706699989158,0.06962699221898348,0.012077164775086956,0.06307850963608984,0.013369470831294044,0.02259139616706742,-0.006192008474801785,0.05488170671720095,0.1105363240804753,-0.05198096912946194,0.05312511605965428,0.09624305816647825,-0.08549543231877192
24,20.805833699996583,0.06968853184485974,0.01218133796835655,0.06304973163810804,0.013620300926810616,0.023096477011103112,-0.006429946894260428,0.05512258539934432,0.11097196144441938,-0.052370217677516956,0.052510280202822154,0.09480167628815844,-0.08521074491514534
25,20.80989779999072,0.06975121783886294,0.012287819017541187,0.06301986451928782,0.013872223110952774,0.023603529509329813,-0.006669657448137292,0.055360633147923145,0.11140097435992151,-0.05275814414669213,0.051883546781080855,0.09333778330176538,-0.08491557943210284
26,20.814064499994856,0.06981505515182075,0.012396616845115274,0.06298890021189134,0.014125224350065,0.024112523218114305,-0.0069111339983876025,0.05559579563126641,0.11182326010890135,-0.053144700601870855,0.051244884040569455,0.09185135498261342,-0.08460986945355356
27,20.81825269998808,0.0698800486745583,0.012507740233652637,0.0629568306766706,0.014379291362388465,0.024623427225145045,-0.0071543701876759765,0.05582801837823475,0.11223871587318154,-0.053529838805809256,0.05059426271514065,0.09034237170173753,-0.08429354891098494
28,20.82248360000085,0.06994620323676533,0.012621197823688165,0.06292364790387062,0.014634410617456966,0.02513621014902306,-0.007399359438003958,0.056057246790231684,0.11264723875565338,-0.053913510220804775,0.04993165584324044,0.08881081850134559,-0.08396655215658856
29,20.82673679999425,0.0700135236058607,0.0127369981115778,0.06288934391423882,0.0148905683355385,0.025650840138951147,-0.007646094949342114,0.056283426150211695,0.11304872580171513,-0.05429566601086468,0.049257038603416625,0.0872566851772167,-0.0836288141644698
30,20.830763399993884,0.07008201448585444,0.01285514944735734,0.06285391076004074,0.015147750487113358,0.0261672848745203,-0.007894569698277345,0.056506501633191215,0.11344307402118924,-0.05467625704520978,0.048570388735086054,0.08567996640183989,-0.08328027067697158
31,20.83511099999305,0.07015168051620745,0.012975660032600485,0.06281734052608169,0.015405942792411573,0.026685511565598806,-0.008144776436676939,0.056726418319094356,0.11383018041088375,-0.05505523390177753,0.04787168672124485,0.08408066176827984,-0.08292085820457931
32,20.840278699994087,0.07022252627068935,0.013098537918276627,0.06277962533073468,0.01566513072100817,0.027205486952324456,-0.008396707690367834,0.05694312120493033,0.11420994197690962,-0.055432546870724866,0.04716091567899657,0.0824587757877515,-0.08255051417245093
33,20.847151299996767,0.07029455625623456,0.013223791002608827,0.06274075732697415,0.015925299491471676,0.027727177305197182,-0.008650355757832616,0.057156555216640724,0.11458225575721998,-0.05580814595926774,0.04643806135942212,0.08081431804019897,-0.08216917739598167
34,20.8514135999867,0.07036777491179683,0.013351427028932447,0.06270072870341573,0.016186434071067436,0.028250548425276835,-0.008905712708932924,0.057366665221275745,0.11494701884530083,-0.056181980899521415,0.04570311231192746,0.07914730342636564,-0.08177678840976588
35,20.856010499992408,0.07044218660720267,0.013481453583554934,0.06265953168536165,0.01644851917551717,0.028775565644491904,-0.009162770383676955,0.05757339604034044,0.11530412841500935,-0.05655400115634034,0.0449560601774665,0.07745775234579509,-0.08137328943121663
36,20.860190599996717,0.07051779564200372,0.013613878093617266,0.06261715853585174,0.016711539268824006,0.029302193826063833,-0.009421520391014375,0.057776692464645306,0.11565348174588809,-0.056924155934826644,0.04419689976136173,0.0757456906783621,-0.08095862440642564
37,20.86447169999883,0.07059460624432853,0.013748707824957603,0.06257360155671986,0.016975478563167504,0.02983039736504662,-0.009681954107672303,0.0579764992683167,0.11599497624783478,-0.05729239418858824,0.04342562872212904,0.07401114967721556,-0.08053273899168957
38,20.86849519998941,0.070672622569734,0.01388594987997766,0.06252885308965543,0.017240321018856464,0.030360140188976138,-0.009944062677025545,0.05817276122080934,0.11632850948544013,-0.05765866462707886,0.04264224759028371,0.07225416599616545,-0.0800955806083556
39,20.87246289999166,0.0707518487000567,0.014025611195512279,0.06248290551727024,0.0175060503443335,0.03089138575863171,-0.010207837007999524,0.0583654231010882,0.11665397920290743,-0.058022915724356396,0.04184676007906146,0.07047478174420119,-0.07964709847034682
40,20.876730399992084,0.07083228864226439,0.014167698540702744,0.06243575126416998,0.017772649996257214,0.031424097068912714,-0.010473267774020389,0.058554429712475015,0.11697128334888758,-0.058385095726673955,0.04103917301101496,0.06867304453842449,-0.07918724335554513
41,20.881198599992786,0.07091394632730808,0.014312218514874353,0.06238738279803059,0.018040103179642164,0.031958236649826666,-0.010740345411987188,0.058739725896160694,0.11728032010188147,-0.05874515265915308,0.04021949633673768,0.06684900764338376,-0.07871596788007787
42,20.885211699991487,0.0709968256089748,0.014459177545418743,0.0623377926306792,0.01830839284806429,0.03249376656759751,-0.011009060121282836,0.05892125654622257,0.11758098789634581,-0.05910303433587648,0.039387743354201685,0.06500273002125441,-0.07823322675446434
43,20.889279199996963,0.07108093026274158,0.014608581885681569,0.06228697331917946,0.018577501703937845,0.03303064842589181,-0.01127940186283834,0.05909896662513734,0.11787318544855324,-0.05945868836889744,0.038543930763273664,0.06313427638255022,-0.07773897662810836
44,20.893228599990834,0.0711662639846307,0.014760437612856014,0.06223491746692107,0.01884741219886231,0.03356884336716289,-0.011551360358225946,0.05927280117929551,0.11815681178316062,-0.05981206217691427,0.03768807846493364,0.06124371727725399,-0.07723317622641424
45,20.8977065999934,0.07125283039006686,0.014914750625882727,0.06218161772471334,0.019118106534040825,0.03410831207411935,-0.011824925088802467,0.05944270535268309,0.11843176625990032,-0.06016310299553025,0.036820209433354685,0.05933112903759837,-0.0767157863783899
46,20.901897099989583,0.07134063301273623,0.015071526643356729,0.062127066791882526,0.019389566660751884,0.03464901477131265,-0.012100085294896017,0.05960862440122935,0.11869794859962667,-0.060511757886179865,0.03594035017272943,0.05739659382615254,-0.07618676987939614
47,20.905731599996216,0.07142967530344793,0.015230771201441827,0.06207125741737285,0.01966177428089864,0.03519091122684318,-0.012376829975030753,0.059770503710655024,0.11895525891144579,-0.06085797374513695,0.035048530644278965,0.05544019985078229,-0.07564609154588649
48,20.91010739999183,0.07151996062899812,0.015392489651793084,0.062014182400850874,0.019934710847643377,0.03573396075419529,-0.012655147885195759,0.05992828881015436,0.11920359772072264,-0.06120169731294013,0.03414478362629688,0.05346204143821865,-0.07509371823381288
49,20.91418069999781,0.07161149227103722,0.015556687159487964,0.061955834593813194,0.0202083575660816,0.0362781222141988,-0.012935027538155763,0.06008192538440654,0.11944286599688184,-0.061542875183568914,0.033229145061236184,0.051462219067678776,-0.0745296187655647
50,20.91831359999196,0.07170427342494015,0.0157233687009667,0.06189620690069711,0.02048269539398607,0.03682335401711759,-0.01321645720280371,0.06023135929042334,0.11967296518172131,-0.061881453813202716,0.03230165445856064,0.04944083946220203,-0.07395376376515911
51,20.922974000000977,0.07179830719868037,0.015892539061982482,0.06183529227999421,0.020757705042634553,0.03736961412486934,-0.013499424903551367,0.060376536573234836,0.1198937972180462,-0.062217379527893794,0.03136235456542622,0.0473980156537053,-0.07336612557592652
52,20.9267453999928,0.07189359661170766,0.016064202835562074,0.06177308374536661,0.021033366977696904,0.0379168600533753,-0.013783918419751875,0.060517403479733466,0.12010526457857587,-0.06255059853157553,0.03041129145768244,0.04533386708968705,-0.07276667836130478
53,20.93099949999305,0.07199014459383023,0.016238364419977433,0.0617095743667658,0.0213096614201891,0.03846504887504367,-0.014069925285163397,0.06065390647518972,0.12030727029555097,-0.06288105691465466,0.029448514997653642,0.04324851970853814,-0.07215539793097853
54,20.93539869999222,0.07208795398410121,0.01641502801672897,0.06164475727155379,0.02158656834751095,0.03901413722138939,-0.014357432787450039,0.060785992261271474,0.12049971799032734,-0.06320870066043384,0.028474078852321952,0.04114210590342699,-0.07153226150299936
55,20.939329599990742,0.07218702752971025,0.016594197628541075,0.061578625645626474,0.02186406749456448,0.03956408128578745,-0.014646427967704071,0.060913607792725484,0.12068251190265372,-0.06353347565153425,0.027488040255513664,0.03901476448776729,-0.07089724816108713
56,20.94373009999981,0.07228736788488017,0.016775877057370478,0.06151117273453916,0.02214213835494378,0.04011483682635971,-0.01493689762000543,0.06103670029322773,0.12085555691995067,-0.06385532768048906,0.026490460135898643,0.03686664062664325,-0.07025033928463623
57,20.94744309999805,0.07238897760976944,0.01696006990242811,0.061442391844633966,0.02242076018219796,0.040666359168995254,-0.015228828291040556,0.061155217273232365,0.12101875860596283,-0.06417420246008794,0.02548140344610121,0.03469788577267637,-0.06959151829258521
58,20.95170099999814,0.07249185916938033,0.01714677955821501,0.06137227634416878,0.022699911991183788,0.04121860321049853,-0.015522206279756246,0.06126910654882371,0.12117202322945289,-0.06449004563163446,0.02446093912649864,0.032508657780716356,-0.06892077082607068
59,20.95635069999844,0.07259601493247375,0.0173360092125729,0.06130081966444785,0.02297957255950059,0.041771523421871404,-0.015817017637053805,0.06137831625923506,0.12131525779389996,-0.06480280277695653,0.02342913994022673,0.03029912101743922,-0.06823808509627495
60,20.960248499992304,0.07270144717049049,0.017527761844750026,0.06122801530095353,0.02325972042900267,0.04232507385173219,-0.016113248165552436,0.061482794884195814,0.1214483700671931,-0.06511241942983637,0.022386082454997652,0.028069446378956562,-0.06754345176555694
61,20.96423899999354,0.07280815805647978,0.017722040223482914,0.06115385681447901,0.023540333907392432,0.042879208129868514,-0.016410883419387647,0.06158249126128444,0.12157126861149029,-0.06541884108693677,0.02133184718961624,0.02581981133302279,-0.06683686395631082
62,20.96822070000053,0.07291614966403517,0.01791884690509462,0.06107833783226192,0.02382139106989106,0.043433879470928666,-0.01670990870407429,0.061677354604611954,0.12168386281329695,-0.06572201321931191,0.020266518613727434,0.02355039988241061,-0.06611831697676293
63,20.97316189999401,0.07302542396623829,0.018118184231610147,0.061001452049118304,0.024102869761002038,0.04398904067824882,-0.017010309076409956,0.06176733452217254,0.12178606291299084,-0.06602188128083271,0.01919018487359498,0.0212614025361409,-0.06538780814718424
64,20.977455999993253,0.07313598283461076,0.01832005432888961,0.06092319322857709,0.024384747596340108,0.04454464414781365,-0.017312069344414857,0.06185238103202599,0.1218777800346382,-0.06631839071811253,0.01810293771877936,0.01895301637921083,-0.06464533699207228
65,20.98131160000048,0.07324782803807467,0.018524459104779768,0.060843555204014625,0.024667001964542357,0.04510064187235552,-0.01761517406732575,0.061932444578979576,0.1219589262161546,-0.06661148698068542,0.017004872502342453,0.016625445141663055,-0.06389090506622822
66,20.985115899995435,0.07336096124192196,0.018731400247284584,0.060762531879789215,0.02494961002924933,0.04565698544559015,-0.017919607555628655,0.062007476050772344,0.12202941443975106,-0.0669011155293455,0.015896088290542294,0.014278899320787167,-0.0631245158174627
67,20.98925619998772,0.0734753840067929,0.018940879222755384,0.06068011723237534,0.025232548731163734,0.04621362606659352,-0.018225353871128832,0.062077426795757486,0.1220891586632094,-0.06718722184507298,0.014776687789511763,0.011913596282136072,-0.0623461749070339
68,20.993512999993985,0.0735910977876643,0.019152897274101334,0.06059630531149755,0.025515794790192822,0.046770514544322794,-0.018532396827064916,0.06214224863841789,0.12213807385124972,-0.06746975144029618,0.013646777327151742,0.009529760347029214,-0.061555890255142694
69,20.9991258999944,0.0737081039328475,0.01936745541902084,0.06051109024126367,0.02579932470764861,0.04732760130227927,-0.018840719988281608,0.062201893896883374,0.1221760760076039,-0.0677486498682325,0.012506467109095691,0.007127623002168966,-0.060753671739061266
70,21.003244699997595,0.07382640368299664,0.019584554448254552,0.060424466221297095,0.026083114768550016,0.047884836383321874,-0.019150306671429005,0.062256315400780776,0.1222030822082948,-0.0680238627313971,0.011355871035903568,0.0047074230186740845,-0.05993953133055944
71,21.00684389998787,0.07394599817012769,0.019804194923860662,0.06033642752786817,0.026367141043985905,0.04844216945463364,-0.019461139945212896,0.06230546650708389,0.12221901063479547,-0.06829533569219737,0.010195106739512879,0.0022694064892017935,-0.05911348315975032
72,21.01020809999318,0.07406688841664821,0.020026377177513207,0.060246968515024237,0.026651379393561776,0.04899954981283763,-0.019773202630690722,0.062349301118296035,0.12222378060764695,-0.06856301448202391,0.00902429543697343,-0.0001861729577600175,-0.058275543277285076
73,21.01433909998741,0.07418907533439877,0.020251101308824033,0.06015608361571829,0.026935805467928634,0.049556926389269985,-0.020086477301604785,0.06238777369696592,0.12221731262157191,-0.06882684490967603,0.007843561802486725,-0.002659053970383498,-0.05742572956309443
74,21.01851939999324,0.0743125597237057,0.020478367183689183,0.060063767342935975,0.027220394711362086,0.05011424775541617,-0.020400946284755053,0.062420839282703165,0.12219952838080271,-0.06908677286962042,0.006653034461057843,-0.005148967445386542,-0.056564061945601686
75,21.02259839999897,0.0744373422724461,0.02070817443266045,0.059970014290820876,0.0275051223644464,0.05067146212850621,-0.020716591660407697,0.062448453511196565,0.1221703508344514,-0.06934274435241601,0.00545284578762969,-0.00765563639172782,-0.055690562667061
76,21.026935899993987,0.07456342355512502,0.02094052244934279,0.059874819135797765,0.02778996346682706,0.051228517377273526,-0.021033395262762974,0.062470572629397585,0.12212970421308098,-0.0695947054553927,0.004243131723861526,-0.01017877577488032,-0.054805256256283005
77,21.030707999991137,0.07469080403196557,0.021175410388818403,0.059778176637693616,0.028074892860033306,0.05178536102788373,-0.021351338680461164,0.06248715351286755,0.12207751406549576,-0.06984260239282743,0.0030240322170601414,-0.012718092452013425,-0.053908169693175786
78,21.038699999990055,0.07481948404801192,0.02141283716609823,0.05968008164085626,0.028359885190388904,0.052341940270029,-0.02167040325714326,0.06249815368496445,0.12201370729590379,-0.07008638150812364,0.0017956914401003985,-0.015273285021932814,-0.05299933259149468
79,21.044186099999934,0.07494946383224586,0.0216528014546016,0.059580529075270276,0.028644914912009687,0.052898201963195855,-0.02199057009206799,0.06250353133619593,0.1219382122020758,-0.07032598928565416,0.0005582579740152439,-0.017844043756849632,-0.052078777427405396
80,21.047793099991395,0.07508074349671721,0.021895301684664897,0.05947951395767002,0.028929956289890837,0.05345409264310751,-0.022311820040780528,0.06250324534507147,0.12185095851313002,-0.07056137236502527,-0.0006881151920377659,-0.02043005067919763,-0.05114653982359407
81,21.05154689999472,0.0752133230356885,0.022140336042079982,0.0593770313926494,0.029214983403094603,0.054009558528336325,-0.02263413371585961,0.062497255297455034,0.12175187742699045,-0.07079247755551085,-0.0019432708800351177,-0.0230309796483908,-0.05020265829259596
82,21.055915199991432,0.07534720232479447,0.022387902466663154,0.05927307657376813,0.029499970148014098,0.05456454552708777,-0.022957491487717883,0.06248552150541747,0.1216409016473804,-0.07101925184797549,-0.0032070474306420465,-0.025646496526564897,-0.0492471740813565
83,21.060263599996688,0.0754823811202165,0.022637998650855445,0.05916764478465417,0.02978489024173296,0.05511899924415027,-0.023281873485457787,0.06246800502925647,0.12151796541976911,-0.07124164242789086,-0.004479278776317012,-0.028276259420315975,-0.04828013119917677
84,21.064156899999944,0.07561885905787279,0.02289062203835498,0.05906073140010218,0.03006971722548999,0.055672864988007074,-0.023607259597790607,0.06244466769568221,0.1213830045661605,-0.07145959668751375,-0.005759794898509484,-0.03091991878070797,-0.04730157623411157
85,21.06826619998901,0.07575663565262435,0.02314576982278212,0.058952331887167586,0.030354424468204667,0.05622608777810335,-0.023933629474003425,0.06241547211566736,0.12123595652012761,-0.07167306223722791,-0.007048421535082269,-0.03357711735414686,-0.04631155828023779
86,21.072464099997887,0.07589571029749734,0.02340343894637812,0.05884244180625621,0.030638985170104594,0.05677861235227758,-0.024260962524981628,0.062380381705301205,0.12107676036204944,-0.07188198691705866,-0.008344980125429518,-0.03624749016344608,-0.04531012891025215
87,21.0767543999973,0.07603608226292219,0.023663626098738046,0.058731056812209026,0.030923372366441222,0.057330383174350096,-0.02458923792428087,0.06233936070414027,0.1209053568543181,-0.07208631880776481,-0.00964928775566929,-0.03893066434733447,-0.04429734212937946
88,21.081758899992565,0.07617775069598977,0.02392632771557863,0.05861817265538198,0.031207558931284657,0.05788134444187554,-0.024918434609250754,0.062292374196562264,0.12072168847803937,-0.07228600624193295,-0.010961156737733254,-0.0416262589464136,-0.043273254558688384
89,21.08566019999853,0.07632071461972514,0.02419153997754191,0.05850378518272053,0.03149151758143415,0.05843144009406612,-0.02524853128220797,0.06223938813395568,0.12052569947019215,-0.07248099781674126,-0.012280394682733632,-0.04433388478854907,-0.04223792589222836
90,21.08926349999092,0.07646497293237942,0.024459258809035354,0.05838789033882874,0.031775220880415275,0.05898061381988303,-0.0255795064116764,0.0621803693554046,0.12031733586137426,-0.07267124240922322,-0.013606804281412407,-0.04705314452048446,-0.04119141925355339
91,21.093273699996644,0.07661052440673993,0.024729479877109287,0.05827048416703253,0.0320586412425791,0.05952880906630396,-0.02591133823369947,0.06211528561188073,0.12009654551267356,-0.07285668919228311,-0.014940182645670765,-0.049783632841484994,-0.04013380163481289
92,21.09749229998852,0.07675736768945951,0.025002198590372417,0.0581515628104368,0.03234175093732,0.06007596904675077,-0.026244004753226316,0.06204410559293387,0.11986327815128275,-0.07303728765396447,-0.01628032099739082,-0.052524936562810216,-0.0390651443725068
93,21.101569699996617,0.07690550130040512,0.025277410097946144,0.058031122512976006,0.03262452209341825,0.06062203674968186,-0.026577483745599893,0.06196679895372207,0.11961748540682814,-0.07321298761780487,-0.017627004723529117,-0.055276634451727265,-0.037985522991874715
94,21.10583419998875,0.0770549236320267,0.02555510928845844,0.057909159620457756,0.032906926703504376,0.0611669549473512,-0.02691175275812878,0.06188333634119963,0.11935912084840707,-0.07338373926068503,-0.018980013413153484,-0.05803829705376716,-0.0368950171792411
95,21.110496699999203,0.0772056329487466,0.02583529078907805,0.05778567058159903,0.033188936628640614,0.06171066620473845,-0.027246789111738074,0.061793689420809456,0.11908814002253781,-0.07354949313293138,-0.02033912074667024,-0.06080948660553805,-0.03579371116652556
96,21.11418709999998,0.07735762738637014,0.02611794896458982,0.0576606519490547,0.033470523603028705,0.06225311288865417,-0.027582569902724563,0.061697830903681375,0.11880450049099228,-0.07371020017967217,-0.02170409482547678,-0.0635897570301483,-0.03468169355739427
97,21.118459199991776,0.07751090495151798,0.026403077916511943,0.05753410038043778,0.0337516592388394,0.06279423717701497,-0.02791907200460239,0.061595734570317855,0.11850816186878757,-0.07386581175935439,-0.023074698648255204,-0.06637865390100496,-0.03355905676901081
98,21.122554899993705,0.07766546352108078,0.026690671482255887,0.05740601263933109,0.034032315031136316,0.06333398106829524,-0.02825627207002711,0.061487375293448214,0.11819908586234888,-0.07401627966000833,-0.024450689872413934,-0.0691757142581343,-0.03242589676703417
99,21.126774899996235,0.07782130084169644,0.02698072323432984,0.05727638559628993,0.034312462362913854,0.06387228639115036,-0.028594146532789706,0.06137272906389016,0.11787723630917636,-0.07416155611534751,-0.025831820667690058,-0.07198046622455566,-0.03128231312088263
100,21.131076399993617,0.07797841452925074,0.027273226479586403,0.05714521622983563,0.03459207251025694,0.06440909481423021,-0.02893267160988747,0.06125177301473922,0.1175425792195069,-0.07430159382153728,-0.027217838338336985,-0.07479242893329258,-0.030128408920892698
101,21.13495399999374,0.07813680206840158,0.027568174258515557,0.057012501627439274,0.03487111664759959,0.06494434785618239,-0.02927182330367098,0.061124485441555555,0.11719508281664671,-0.07443634595253917,-0.02860848565244988,-0.07761111262797839,-0.028964290485581655
102,21.13910539999779,0.07829646081212764,0.027865559344583582,0.056878238986495674,0.035149565853068734,0.06547798689583355,-0.02961157740405492,0.06099084582354974,0.1168347175777155,-0.07456576617420957,-0.030003500384849276,-0.08043601852938745,-0.02779006727994613
103,21.14366549999977,0.07845738798130136,0.028165374243618875,0.05674242561528697,0.03542739111393601,0.06600995318256425,-0.029951909490793648,0.06085083484793873,0.11646145627519638,-0.07468980865889889,-0.03140261500553002,-0.0832666389002501,-0.02660585218021611
104,21.147490599993034,0.07861958066428727,0.02846761119324551,0.05660505893393581,0.03570456333218375,0.06654018784686926,-0.030292794935825165,0.060704434433973234,0.11607527401708892,-0.07480842810196497,-0.032805557027500584,-0.08610245716920079,-0.025411761675008256
105,21.15177149999363,0.07878303581656579,0.028772262162365364,0.05646613647534758,0.035981053330175906,0.06706863191109859,-0.030634208905697298,0.06055162775412113,0.11567614828732851,-0.07492157973820691,-0.03421204920806114,-0.08894294785137424,-0.024207915737620947
106,21.1557199999952,0.07894775026038324,0.029079318850689644,0.05632565588614146,0.03625683185641725,0.06759522630038649,-0.030976126364061565,0.060392399256259055,0.1152640589866637,-0.07502921935721368,-0.035621808890162615,-0.09178757650903911,-0.02299443791745708
107,21.16033289999177,0.07911372068442821,0.02938877268832069,0.05618361492756992,0.0365318695914267,0.0681199118537653,-0.03131852207423933,0.06022673469086307,0.11483898847343454,-0.07513130332063181,-0.03703454783816467,-0.09463579971854913,-0.021771455559109264
108,21.16429570000037,0.0792809436435351,0.02970061483538487,0.05604001147642636,0.03680613715374449,0.06864262933546635,-0.03166137060187318,0.06005462113469821,0.11440092160475139,-0.07522778857951219,-0.03844997289589087,-0.097487065070687,-0.020539099738544626
109,21.173266899990267,0.07944941555841532,0.030014836181717453,0.0558948435259404,0.037079605106021596,0.0691633194464094,-0.032004646317651264,0.05987604701200729,0.11394984577727012,-0.07531863269099574,-0.03986778605995228,-0.10034081135351614,-0.01929750510804479
110,21.18336559999443,0.07961913271541633,0.030331427346600298,0.05574810918666072,0.037352243961220145,0.06968192283587543,-0.03234832340011089,0.059691002117531686,0.11348575096670314,-0.07540379383424596,-0.041287684461477035,-0.1031964687300392,-0.018046809255415363
111,21.18743399999221,0.07979009126630938,0.030650378678553185,0.055599806687324754,0.0376240241889128,0.07019838011335648,-0.032692375838508154,0.05949947763786678,0.11300862976697436,-0.07548323082129016,-0.042709360603593025,-0.10605345871718355,-0.01678715228365612
112,21.19094859999313,0.07996228722810608,0.03097168025517958,0.05544993437571534,0.03789491622167796,0.0707126318605855,-0.03303677743572042,0.059301466172316776,0.11251847742992177,-0.07555690310911838,-0.04413250258130806,-0.10891119426638274,-0.015518677268155735
113,21.1945357999939,0.08013571648290439,0.031295321883067696,0.05529849071950398,0.038164890461589336,0.07122461864374834,-0.033381501811226316,0.05909696175224467,0.11201529190371749,-0.0756247708146945,-0.04555679435627672,-0.11176907995575859,-0.014241530146670666
114,21.198317699992916,0.08031037477776441,0.03162129309774763,0.055145474307080285,0.03843391728678764,0.07173428102586399,-0.03372652240414509,0.058885959859421036,0.11149907387081757,-0.07568679472605172,-0.0469819157193488,-0.11462651207787553,-0.012955859417865982
115,21.201805499993498,0.08048625772461432,0.031949583163705345,0.05499088384836751,0.03870196705813752,0.07224155957934272,-0.034071812476317825,0.058668457445715576,0.11096982678558161,-0.07574293631455416,-0.048407542162607224,-0.11748287889098591,-0.011661816598505546
116,21.205737399999634,0.08066336080018685,0.03228018107445434,0.054834718175623916,0.038969010125978844,0.07274639489870946,-0.034417345115458645,0.05844445295261299,0.11042755690993104,-0.07579315775016217,-0.04983334509950386,-0.12033756087444454,-0.010359556424737727
117,21.21011469999212,0.08084167934598684,0.03261307555266567,0.054676976244229555,0.03923501683696163,0.07324872761348708,-0.034763093238375134,0.05821394632889677,0.10987227334863926,-0.07583742191552983,-0.05125899219376273,-0.12318993085299468,-0.00904923646771451
118,21.214418099989416,0.08102120856829001,0.032948255050357145,0.05451765713345825,0.03949995754095862,0.0737484984012417,-0.035109029594248116,0.05797693904716526,0.10930398808385633,-0.07587569241776447,-0.052684147340939194,-0.1260393542800397,-0.007731016786344849
119,21.21848250000039,0.08120194353817359,0.033285707749142315,0.054356760047234484,0.039763802598050846,0.07424564800078087,-0.03545512676795935,0.057733434121683636,0.10872271600781544,-0.075907933599357,-0.05410847074166362,-0.12888518962119472,-0.006405059982089938
120,21.22256399999605,0.0813838791915788,0.033625421560540034,0.05419428431487502,0.040026522385603024,0.07474011722549714,-0.035801357183470994,0.05748343612423192,0.10812847495385945,-0.07593411055044126,-0.05553161937768705,-0.1317267885469647,-0.005071531399827435
121,21.22675829999207,0.081567010329406,0.03396738412634516,0.05403022939181496,0.04028808730539366,0.07523184697684925,-0.0361476931072651,0.05722695119761518,0.10752128572738999,-0.07595418912155634,-0.05695324710255082,-0.13456349619816638,-0.003730598936340405
122,21.234339999995427,0.08175133161764221,0.034311582819061076,0.05386459486031801,0.04054846779081368,0.07572077825798794,-0.03649410665183949,0.056963987070684535,0.10690117213447316,-0.0759681359341592,-0.05837300484303356,-0.137394651917317,-0.0023824326193910444
123,21.23878239998885,0.08193683758752192,0.034658004742394666,0.05369738043017066,0.04080763431413353,0.07620685218749809,-0.03684056977924314,0.05669455307001004,0.10626816100611793,-0.07597591838954794,-0.059790541349714066,-0.14021958986055427,-0.0010272043147047931
124,21.244283899999573,0.08212352263572088,0.035006636731814166,0.053528585939360156,0.04106555739380824,0.07669001001324596,-0.03718705430465342,0.05641866012805612,0.10562228222130075,-0.07597750467670188,-0.06120550369003434,-0.14303763903567437,0.0003349125020967652
125,21.247926299998653,0.08231138102458355,0.03535746535517044,0.05335821135473611,0.041322207601819136,0.07717019312633128,-0.037533531899983,0.05613632079035736,0.10496356873089704,-0.07597286377912472,-0.06261753715721075,-0.14584812302703587,0.0017037426906123894
126,21.25178189999133,0.08250040688238383,0.03571047691338208,0.053186256772655566,0.041577555571044346,0.07764734307515278,-0.03787997409751951,0.05584754922452478,0.10429205658321482,-0.07596196548318525,-0.06402628506920545,-0.1486503597940243,0.003079109409777677
127,21.256106799992267,0.08269059420361975,0.036065657441184985,0.05301272241961138,0.041831572002682615,0.0781214015795932,-0.038226352293608504,0.0555523612292551,0.10360778494976429,-0.07594478038528771,-0.0654313892438553,-0.1514436616992489,0.004460834291298188
128,21.260189499997068,0.08288193684934193,0.03642299270794681,0.05283760865284372,0.042084227673706016,0.07859231054531983,-0.038572637752358516,0.055250774239003556,0.10291079615053438,-0.0759212798986307,-0.066832490675781,-0.15422733578231163,0.005848737201162545
129,21.26436069999181,0.08307442854751619,0.03678246821854697,0.052660915960934654,0.042335493444326376,0.07906001207820003,-0.038918801609385684,0.054942807326819325,0.10220113567726533,-0.07589143626255278,-0.06822922971964569,-0.15700068419889696,0.007242636112599341
130,21.268252099995152,0.08326806289342015,0.037144069214322624,0.0524826449643855,0.042585340265473844,0.07952444849881407,-0.039264814875604036,0.054628481207346896,0.10147885221472046,-0.07585522255044995,-0.06962124603510352,-0.15976300452273282,0.008642347499214744
131,21.27262169998721,0.08346283335007403,0.03750778067408099,0.05230279641617682,0.042833739186290694,0.07998556235706465,-0.039610648441042326,0.05430781824016364,0.10074399766120472,-0.07581261267553567,-0.07100817858654915,-0.16251358984668943,0.01004768639813364
132,21.27696959998866,0.08365873324870561,0.03787358731517858,0.05212137120231099,0.043080661361640335,0.08044329644687688,-0.039956273078686856,0.05398084243278342,0.09999662714891433,-0.07576358139818248,-0.0723896658993693,-0.16525172886402717,0.011458466282958076
133,21.28114849999838,0.08385575578924953,0.03824147359466761,0.05193837034233712,0.04332607805962851,0.08089759382099339,-0.04030165944836527,0.05364757944165702,0.09923679906371433,-0.07570810433284066,-0.07376534624286658,-0.16797670621622895,0.012874499127170107
134,21.285451699994155,0.08405389404088082,0.03861142371051018,0.051753794989858215,0.043569960669121416,0.0813483978058547,-0.04064677810065249,0.053308056573507345,0.09846457506231575,-0.07564615795480158,-0.07513485748394955,-0.17068780274091352,0.014295595075217202
135,21.28924869999173,0.08425314094258275,0.03898342160286037,0.051567646433020475,0.043812280707279105,0.08179565201655103,-0.04099159948081617,0.05296230278766432,0.09768002008979206,-0.07557771961011629,-0.07649783712400963,-0.1733842954156159,0.015721562022030258
136,21.293253699986963,0.08445348930374914,0.03935745095541481,0.05137992609498444,0.04405300982709489,0.08223930037186239,-0.041336093932813116,0.052610348697063734,0.09688320239726908,-0.07550276752619396,-0.07785392222525837,-0.17606545740399016,0.017152205474882096
137,21.29783039999893,0.08465493180482093,0.039733495196831975,0.051190635534377894,0.04429211982493784,0.08267928710937171,-0.04168023170333142,0.05225222657125398,0.09607419355902004,-0.07542128082298033,-0.0792027489896534,-0.17873055807516872,0.018587328344020604
138,21.30177749998984,0.08485746099795727,0.04011153750222054,0.05099977644573009,0.044529582648119626,0.08311555680066092,-0.04202398294588879,0.05188797034123538,0.09525306848997893,-0.07533323952546574,-0.08054395276007022,-0.1813788632034564,0.02002673067732743
139,21.306033199987723,0.08506106930774111,0.04049156079469731,0.05080735065988729,0.04476537040248116,0.08354805436658377,-0.04236731772498881,0.051517615602456206,0.09441990546101418,-0.07523862457728367,-0.08187716814808615,-0.18400963532484035,0.02147020953152353
140,21.310067099999287,0.08526574903191952,0.040873547747014884,0.05061336014440912,0.04499945535998675,0.08397672509260122,-0.042710206020343255,0.051141199618486566,0.09357478611319049,-0.07513741785439346,-0.0832020287399482,-0.18662213404963005,0.022917558735112573
141,21.314110299994358,0.08547149234217853,0.04125748078325942,0.05041780700394555,0.04523180996634425,0.08440151464418433,-0.04305261773115318,0.05075876132669617,0.09271779547019099,-0.07502960218084093,-0.08451816700673932,-0.18921561658262862,0.024368568431088804
142,21.31882809998933,0.0856782912849529,0.0416433420806188,0.05022069348059421,0.04546240684865102,0.08482236908226294,-0.04339452268047499,0.050370341342747545,0.09184902194783477,-0.07491516134661189,-0.08582521454176922,-0.19178933828100778,0.025823024930057083
143,21.322607599999174,0.08588613778227075,0.04203111357122131,0.05002202195423758,0.045691218823055026,0.08523923487871542,-0.0437358906196643,0.049975981964108664,0.09096855736141093,-0.07479408012473242,-0.08712280255347214,-0.19434255308506365,0.02728071072007601
144,21.32675449999806,0.0860950236326332,0.04242077694404504,0.04982179494285975,0.04591821890243285,0.08565205893188417,-0.04407669123289804,0.04957572717005062,0.09007649693126732,-0.07466634428903259,-0.0884105623242747,-0.19687451414749335,0.028741404374640147
145,21.33091649999551,0.08630494051192902,0.04281231364689811,0.04962001510284238,0.046143380304050775,0.08606078858211638,-0.04441689414178032,0.049169622620975094,0.08917293928440516,-0.07453194063208599,-0.08968812557519305,-0.19938447543511414,0.03020488055260701
146,21.338924999989104,0.08651587997438413,0.04320570488846982,0.04941668522923942,0.04636667645723667,0.08646537162729409,-0.044756468910028116,0.04875771565508668,0.08825798644545915,-0.07439085698297412,-0.09095512563655979,-0.2018716939246773,0.031670910392326716
147,21.34307329999865,0.08672783345354623,0.0436009316404525,0.04921180825603037,0.046588081011010696,0.08686575633829263,-0.04509538504823918,0.04834005527704259,0.08733174381826492,-0.07424308222163126,-0.09221119845500327,-0.20433543120141165,0.0331392623522925
148,21.34760749999259,0.08694079226330391,0.04399797463973363,0.04900538725635152,0.046807567841653686,0.08726189147434261,-0.04543361201870857,0.047916692145440705,0.08639432016225936,-0.07408860628894151,-0.0934559825561582,-0.20677495396318207,0.03460970254004774
149,21.351677799990284,0.08715474759894029,0.04439681439065783,0.048797425442705225,0.047025111060223744,0.08765372629827312,-0.04577111924028864,0.04748767856180938,0.08544582756944986,-0.07392742019808389,-0.0946891187334493,-0.20918953341708116,0.03608199454868718
150,21.355817499992558,0.0873696905382207,0.04479743116735803,0.04858792616714687,0.04724068502002418,0.0880412105916636,-0.04610787609330906,0.04705306846093399,0.08448638144631816,-0.0737595160461206,-0.09591024984714189,-0.2115784445283483,0.03755589942875032
151,21.360196499997983,0.08758561204251444,0.04519980501615559,0.04837689292144926,0.04745426432403191,0.08842429466992208,-0.04644385192454247,0.0466129174016795,0.08351610049763983,-0.07358488702559843,-0.09711902067862208,-0.21394096554625175,0.039031175148110976
152,21.36414549998881,0.08780250295795018,0.04560391575802905,0.048164329337244294,0.047665823832281656,0.08880292939728943,-0.046779016052230324,0.04616728255864608,0.08253510671271237,-0.07340352744106317,-0.0983150780026317,-0.21627637787529444,0.0405075757333143
153,21.36841999999888,0.08802035401660509,0.04600974299115108,0.047950239186141504,0.04787533866921827,0.08917706620179196,-0.04711333777119918,0.04571622271233285,0.08154352535034946,-0.07321543272849257,-0.0994980713376623,-0.21858396685180415,0.04198485093991657
154,21.37380509999639,0.08823915583772729,0.04641726609349357,0.04773462637982307,0.0480827842309912,0.08954665709010888,-0.047446786358063764,0.04525979823394944,0.08054148491802601,-0.07302059947481748,-0.10066765395243613,-0.2208630224406117,0.04346274622495522
155,21.37751179999032,0.08845889892899153,0.04682646422550026,0.047517494970114926,0.0482881361926683,0.08991165466233464,-0.047779331076521325,0.04479807106639998,0.07952911715051826,-0.07281902543760586,-0.1018234829561612,-0.22311283927992273,0.04494100292054623
156,21.38118050000048,0.08867957368778742,0.047237316332826414,0.047298849149033456,0.04849137051535685,0.09027201212665158,-0.048110941182734214,0.04433110470827147,0.0785065569886396,-0.07261070956300063,-0.10296521909808543,-0.2253327170563542,0.046419358563197476
157,21.38511079999444,0.08890117040254004,0.04764980114914526,0.04707869324880752,0.04869246345327133,0.09062768331389832,-0.048441585930787845,0.043858964196646026,0.07747394255446012,-0.0723956520024001,-0.10409252786539676,-0.22752196125465834,0.04789754723296808
158,21.38934039999731,0.08912367925406267,0.04806389719902058,0.04685703174187538,0.048891391560697675,0.09097862269201645,-0.048771234578225416,0.04338171608107565,0.07643141512320444,-0.07217385412730253,-0.10520508019616863,-0.22967988367873718,0.049375300119526386
159,21.39449639999657,0.08934709031694088,0.048479582800844905,0.04663386924085623,0.04908813169882369,0.09132478538036255,-0.04909985639164126,0.04289942839989197,0.07537911909371928,-0.07194531854082373,-0.10630255257027843,-0.23180580282867091,0.05085234603430888
160,21.398208300000988,0.08957139356094758,0.048896836069842624,0.04640921049849612,0.049282661042487234,0.09166612716388553,-0.04942742065232061,0.04241217065335184,0.07431720195693262,-0.0717100490878704,-0.10738462797935455,-0.23389904435549208,0.05232841148459542
161,21.402059399988502,0.08979657885248866,0.04931563492113748,0.04618306040758803,0.0494749570867617,0.09200260450715102,-0.049753896661925735,0.041920013771100495,0.07324581426217339,-0.07146805086598217,-0.10845099594554357,-0.23595894136348294,0.05380322065465832
162,21.40573589999985,0.09002263595607811,0.04973595707288362,0.045955424000865955,0.04966499765340746,0.09233417456821148,-0.05007925374823461,0.04142303008514601,0.07216510958287349,-0.07121933023567678,-0.10950135261201255,-0.23798483452178065,0.05527649569787445
163,21.410007899990887,0.09024955453584246,0.05015778004945956,0.04572630645087263,0.04985276089721082,0.09266079521231782,-0.050403461270921386,0.04092129329649702,0.07107524448186961,-0.07096389482862796,-0.11053540180440105,-0.23997607217148453,0.05674795705754499
164,21.4139725999994,0.09047732415705376,0.05058108118472431,0.04549571306980089,0.050038225312131215,0.09298242502547299,-0.05072648862736964,0.04041487843845606,0.06997637847612832,-0.07070175355508451,-0.11155285495799741,-0.24193201078443324,0.0582173234764008
165,21.41866919999302,0.09070593428769007,0.05100583762533498,0.04526364930930837,0.05022136973730536,0.09329902332782189,-0.05104830525852055,0.0399038618439215,0.06886867399786359,-0.07043291661196147,-0.11255343119006263,-0.24385201556746214,0.05968431166652681
166,21.4243404000008,0.09093537430002319,0.05143202633412497,0.04503012076030553,0.050402173362896215,0.09361055018685034,-0.05136888065475989,0.03938832110802124,0.06775229635375066,-0.0701573954932697,-0.11353685819619976,-0.2457354606258943,0.061148635897720446
167,21.428620499995304,0.09116563347223253,0.051859624093542014,0.04479513315271668,0.050580615735756354,0.09391696643040298,-0.05168818436186137,0.0388683350472392,0.06662741368455241,-0.06987520300196148,-0.11450287265374312,-0.2475817290909945,0.06261000776959649
168,21.432634599987068,0.09139670099004445,0.052288607509145095,0.04455869235521378,0.05075667676490412,0.09421823365951403,-0.05200618598698167,0.03834398365836984,0.06549419692317082,-0.06958635326243867,-0.11545122033095637,-0.24939021399899405,0.06406813593707363
169,21.439707099998486,0.0916285659483961,0.05271895301315947,0.04432080437492278,0.050930336726812624,0.09451431426104254,-0.05232285520471783,0.03781534807664872,0.06435281974625603,-0.06929086173490197,-0.11638165679938371,-0.2511603205145837,0.06552272579865376
170,21.444753899995703,0.09186121735312303,0.05315063686808888,0.044081475357102176,0.051101576270504045,0.09480517142006185,-0.05263816176323317,0.03728251052820991,0.06320345851197819,-0.06898874523070221,-0.11729394897168244,-0.2528914681876159,0.06697347902171227
171,21.44935599999735,0.0920946441226694,0.05358363517038354,0.0438407115847935,0.051270376422405006,0.0950907691319273,-0.052952075490454706,0.03674555427419058,0.06204629219105396,-0.06868002193101928,-0.11818787568719209,-0.25458309105452803,0.06842009295700648
172,21.45398719998775,0.09232883508981997,0.05401792385416242,0.043598519478443336,0.05143671859093107,0.0953710722140365,-0.05326456630036945,0.036204563557847645,0.06088150230359336,-0.06836471140755344,-0.1190632259910936,-0.2562346360753237,0.06986226048277716
173,21.457928599993465,0.0925637790034521,0.05445347869498851,0.04335490559549637,0.051600584570859774,0.09564604631732114,-0.0535756041994105,0.03565962356435749,0.05970927286438198,-0.06804283464262613,-0.11991979781787974,-0.25784556138554443,0.07129966998681982
174,21.461664899994503,0.09279946453030756,0.05489027531369591,0.043109876629959167,0.051761956547548504,0.09591565793750821,-0.05388515929293669,0.035110820379940205,0.05852979033567087,-0.06771441405003481,-0.12075739826678837,-0.25941533521738214,0.07273200556750556
175,21.465840299992124,0.09303588025678311,0.055328289180267796,0.04286343941193416,0.0519208171009347,0.09617987442618114,-0.0541932017918089,0.034558240949147154,0.057343243582298926,-0.06737947349332035,-0.12157584279610573,-0.2609434358002525,0.07415894750040361
176,21.46924969999236,0.0932730146907387,0.05576749561776438,0.042615600907123394,0.05207714920936415,0.09643866400163179,-0.054499702019036304,0.034001973041333684,0.056149823825389605,-0.06703803830236599,-0.12237495505833335,-0.26242935161537295,0.07558017230234454
177,21.472795999987284,0.09351085626332302,0.05620786980629989,0.04236636821630192,0.052230936253285426,0.0966919957594992,-0.05480463041650408,0.03344210520945009,0.054949724595151406,-0.06669013529108038,-0.12315456878469189,-0.26387258196248226,0.07699535284986943
178,21.4801257999934,0.09374939333081536,0.05664938678706753,0.0421157485747602,0.052382162018702334,0.09693983968319117,-0.05510795755178094,0.032878726739326444,0.053743141679405734,-0.06633579277291626,-0.1239145280957578,-0.26527263820588504,0.07840415876377053
179,21.48376439999265,0.09398861417648267,0.057092021466411534,0.04186374935171536,0.05253081070040578,0.09718216665405352,-0.05540965412498836,0.03231192760563038,0.05253027306502269,-0.06597504057504626,-0.12465468724587833,-0.26662904497028245,0.07980625656474165
180,21.488604899990605,0.09422850701245092,0.057535748619944864,0.04161037804969098,0.052676866905024516,0.09741894846125748,-0.055709690975737435,0.03174179842348303,0.05131131887554222,-0.06560791005246189,-0.12537491208600898,-0.26794134069030434,0.08120130980050037
181,21.49287799999001,0.09446905998158991,0.05798054289671143,0.041355642303865084,0.052820315653815744,0.0976501578114001,-0.05600803909012667,0.031168430391074774,0.050086481307597804,-0.06523443410098995,-0.12607508015514116,-0.26920907766656643,0.08258897905597047
182,21.497829999992973,0.09471026115941017,0.058426378823391384,0.041099549881386095,0.052961142385192464,0.09787576833781172,-0.05630466960779757,0.030591915240447343,0.048855964568026364,-0.06485464717129866,-0.1267550794003889,-0.27043182172483815,0.0839689215416236
183,21.501734999998007,0.09495209855597077,0.0588732308085482,0.040842108680656464,0.053099332957065176,0.09809575460958282,-0.05659955382906018,0.03001234519178318,0.047619974813400544,-0.06446858528566862,-0.1274148079017177,-0.2716091515865938,0.0853407906535545
184,21.506200599993463,0.09519456011779756,0.05932107314691631,0.04058332673058364,0.05323487364895233,0.09831009214031997,-0.056892663222101604,0.02942981290669814,0.046378720092879556,-0.06407628605601136,-0.12805417332424882,-0.2727406581745081,0.08670423590099896
185,21.510150099988092,0.0954376337298103,0.05976988002372804,0.04032321218979796,0.05336775116389603,0.09851875739665142,-0.057183969430275934,0.028844411447526218,0.04513241029407581,-0.06367778870130134,-0.12867309233285665,-0.2738259441351586,0.0880589031719169
186,21.51426399999764,0.09568130721725832,0.06021962551907883,0.04006177334583713,0.05349795263020111,0.09872172780648938,-0.05747344427947173,0.028256234235951475,0.04388125709025899,-0.06327313406317223,-0.1292714909932243,-0.2748646240046848,0.08940443543659861
187,21.519378099997997,0.09592556834766348,0.06067028361232952,0.039799018614296924,0.053625465602973564,0.09891898176705406,-0.05776105978554419,0.02766537500863488,0.042625473884711766,-0.06286236461693162,-0.12984930598060151,-0.27585632553507605,0.09074047390011948
188,21.52781459999096,0.09617040483276995,0.061121828186544755,0.039534956537947856,0.05375027806545492,0.09911049865262839,-0.05804678816178311,0.027071927764821622,0.04136527574583732,-0.06244552447664617,-0.13040648629881152,-0.27680069214472663,0.09206665952982351
189,21.53219469999021,0.09641580433049929,0.061574233032966004,0.03926959578581778,0.05387237843008277,0.09929625882199022,-0.05833060182639143,0.026475986706289534,0.040100879329164466,-0.0620226593922247,-0.13094299463314987,-0.2776973853696489,0.09338263479292819
190,21.536717700000736,0.09666175444690986,0.06202747185551774,0.03900294515224038,0.053991755539277465,0.09947624362545575,-0.058612473409926584,0.02587764617261713,0.038832502790098554,-0.06159381673865531,-0.13145880808301208,-0.2785460854397021,0.09468804481815606
191,21.541394699990636,0.09690824273815916,0.06248151827534471,0.03873501355586984,0.05410839866591227,0.09965043541151587,-0.05889237576268088,0.025277000574450006,0.03756036570067106,-0.061159045502493715,-0.13195391785017474,-0.27934649034568404,0.0959825381635668
192,21.548288699996192,0.0971552567124675,0.06293634583537865,0.03846581003866208,0.05422229751349138,0.09981881753312033,-0.059170281961999624,0.024674144331611948,0.0362846889707992,-0.060718396264097196,-0.13242832850725247,-0.28009831561978366,0.09726576815260189
193,21.55227859999286,0.09740278383208191,0.06339192800493283,0.03819534376482265,0.054333442216055586,0.09998137435359594,-0.05944616531949946,0.024069171813043463,0.035005694767037895,-0.060271921171927395,-0.1328820579984458,-0.28080129482039057,0.09853739431849246
194,21.55590339998889,0.09765081151523901,0.06384823818432281,0.03792362401972212,0.05444182333781255,0.10013809125218967,-0.059719999388152104,0.02346217727490606,0.033723606429417644,-0.059819673911610395,-0.13331513752876717,-0.28145517924831265,0.09979708282458617
195,21.5599147999892,0.09789932713812555,0.0643052497095115,0.03765066020877942,0.05454743187247792,0.10028895462922839,-0.05999175796922052,0.022853254801531116,0.03243864839278476,-0.05936170967640584,-0.13372761022907823,-0.28205973653907507,0.10104450589829152
196,21.56423079999513,0.09814831803683521,0.06476293585677696,0.03737646185631389,0.05465025924236699,0.10043395191094452,-0.06026141511907331,0.022242498255699843,0.031151046116478336,-0.05889808514142981,-0.1341195298946949,-0.2826147500219681,0.10227934151060493
197,21.572274799997103,0.09839777150932094,0.06522126984740154,0.03710103860436651,0.05475029729728238,0.1005730715539944,-0.060528945155885756,0.02163000123109686,0.02986102601151639,-0.05842885843704684,-0.13449096081989226,-0.28312002018346644,0.10350127403449695
198,21.57659969999804,0.09864767481734155,0.0656802248523808,0.03682440021149086,0.054847538313172045,0.10070630304961983,-0.06079432266621155,0.021015857004099584,0.028568815356925525,-0.05795408911708794,-0.13484197812722706,-0.2835753666524933,0.1047099954243957
199,21.580630799988285,0.0988980151884018,0.06613977399715068,0.03654655655151436,0.0549419749905772,0.1008336369274033,-0.06105752251139397,0.02040015848322817,0.027274642208820206,-0.05747383812148493,-0.1351726672557047,-0.2839806283362207,0.10590520558237582
200,21.585101699994997,0.09914877981768491,0.06659989036633066,0.03626751761227078,0.05503360045282931,0.10095506475860026,-0.06131851983379682,0.019782998165603142,0.02597873531549387,-0.05698816774114864,-0.13548312158313477,-0.28433566131785637,0.10708661151708562
201,21.58922119998897,0.09939995586997616,0.06706054700848126,0.035987293494304656,0.0551224082441009,0.10107057915912,-0.06157729006289524,0.019164468108080923,0.024681324045671686,-0.056497141588274354,-0.13577344087086737,-0.2846403367899695,0.10825392664807999
202,21.593345199988107,0.09965153048157759,0.06752171694087446,0.035705894409548224,0.055208392327339234,0.10118017379220348,-0.06183380892123583,0.018544659897896446,0.02338263832245101,-0.05600082456756487,-0.13604373097100952,-0.2848945403579792,0.10940687069628838
203,21.59743909999088,0.09990349076221279,0.0679833731542756,0.035423330679971506,0.05529154708204942,0.1012838433708017,-0.062088052430265016,0.017923664626469053,0.022082908557906775,-0.055499282847535004,-0.13629410285740035,-0.28509817193121423,0.11054516996745994
204,21.60199319999083,0.10015582379692141,0.0684454886177355,0.03513961273620607,0.055371867301989154,0.1013815836596571,-0.06233999691602743,0.017301572868883206,0.02078236558802554,-0.05499258382914944,-0.13652467204028826,-0.285251145741432,0.1116685579012026
205,21.606435099995,0.10040851664794287,0.0689080362833913,0.03485475111614314,0.05544934819276467,0.10147339147708855,-0.06258961901470823,0.016678474663032905,0.019481240607141976,-0.054480796112119645,-0.13673555840159135,-0.28535339052533026,0.11277677522604228
206,21.610744499994325,0.10066155635658895,0.0693709890912749,0.034568756463506815,0.05552398536933528,0.10155926469647468,-0.06283689567802411,0.01605445949060492,0.01817976510120831,-0.05396398946212747,-0.13692688584714124,-0.285404849744091,0.11386956983171867
207,21.6142744999961,0.10091492994510479,0.06983431997412734,0.03428163952640301,0.05559577485343589,0.10163920224743027,-0.06308180417846666,0.015429616259394967,0.016878170780228414,-0.05344223477828684,-0.13709878197777808,-0.2854054816751399,0.11494669677844713
208,21.618564299991704,0.1011686244185179,0.07029800186221793,0.03399341115584483,0.05566471307092024,0.1017132041166734,-0.0633243221143966,0.014804033287290751,0.015576689510690354,-0.05291560406028287,-0.13725137781450256,-0.28535525937527495,0.11600791835980952
209,21.622641099995235,0.10142262676647498,0.0707620076881666,0.03370408230425509,0.05573079684903731,0.10178127134858547,-0.06356442741498747,0.01417779828709493,0.014275553248336771,-0.052384170375259914,-0.13738480770771985,-0.2852541708089576,0.11705300426916752
210,21.62689669999236,0.1016769239650661,0.07122631039176804,0.03341366402394657,0.05579402341363619,0.1018434060454653,-0.0638020983450178,0.013550998351335913,0.01297499396942733,-0.05184800782344295,-0.13749920922738226,-0.28510221906719474,0.11808173178158998
211,21.63333139999304,0.10193150297863596,0.07169088292481644,0.03312216746558082,0.05585439038630392,0.10189961136746212,-0.06403731350950127,0.01292371993809279,0.011675243601512768,-0.0513071915033663,-0.13759472314355442,-0.2848994220570671,0.11909388555215406
212,21.63779419999628,0.10218635076158201,0.07215569825592906,0.03282960387660621,0.05591189578144107,0.10194989153219831,-0.06427005185816181,0.012296048855983384,0.01037653395752903,-0.05076179747933464,-0.13767149381212151,-0.2846458125753023,0.12008925746146504
213,21.64201499999035,0.10244145426013908,0.07262072937536741,0.03253598459967591,0.05596653800326266,0.10199425181410136,-0.0645002926897669,0.011668070246471282,0.009079096665900288,-0.05021190274806068,-0.1377296701435648,-0.2843414403195649,0.12106764733735771
214,21.647386099997675,0.10269680041415005,0.0730859492998548,0.032241321071046415,0.056018315842712385,0.102032698543389,-0.06472801565629836,0.01103986856001806,0.007783163086288862,-0.04965758519954379,-0.1377694069375093,-0.2839863748339861,0.12202886445585331
215,21.65187659999356,0.1029523761588224,0.07355133107738829,0.03194562481895748,0.05606722847424604,0.1020652391046328,-0.06495320076692895,0.010411527526218396,0.006488964212833173,-0.049098923570018056,-0.13779086599997692,-0.2835807076665955,0.12297272914071873
216,21.65609819999372,0.10320816842646954,0.07401684779204305,0.03164890746199438,0.05611327545247333,0.10209188193486078,-0.06517582839176396,0.00978313011976226,0.005196730570220543,-0.0485359973882419,-0.13779421663619926,-0.2831245528095831,0.12389907342160385
217,21.660755599994445,0.10346416414823671,0.0744824725687671,0.03135118070743372,0.056156456708630835,0.1021126365211731,-0.06539587926532789,0.009154758526075267,0.003906692112909687,-0.04796888692244353,-0.137779635339565,-0.2826180451621376,0.12480774039508608
218,21.667023499991046,0.10372035025581017,0.07494817857816387,0.031052456349573918,0.05619677254691049,0.10212751339792553,-0.06561333448982222,0.008526494110117857,0.002619078135223383,-0.0473976731324382,-0.13774730551785352,-0.282061339084707,0.12569858352432733
219,21.67285709999851,0.10397671368310955,0.07541393904126124,0.030752746268051252,0.05623422364064795,0.10213652414352514,-0.06582817553817535,0.007898417384522566,0.0013341171837570086,-0.046822437622961274,-0.13769741751150322,-0.28145460893168295,0.12657146664340826
220,21.67715979999048,0.10423324136796237,0.07587972723426495,0.030452062426142554,0.056268811028360455,0.10213968137681488,-0.06604038425687474,0.007270607978226595,5.203696261279495e-05,-0.04624326259574593,-0.13763016873975306,-0.28079805054869084,0.1274262640173836
221,21.682006599992743,0.1044899202537602,0.07634551649329456,0.03015041686905544,0.05630053610964912,0.10213699875300492,-0.06624994286857973,0.006643144603276176,-0.0012269357678478528,-0.045660230802308466,-0.1375457634256254,-0.2800918812372217,0.128262859614747
222,21.685669799990137,0.10474673729109575,0.07681128021909982,0.029847821722207152,0.05632940064093402,0.10212849095913379,-0.0664568339745231,0.0060161050259674624,-0.002502575285447519,-0.0450734255026616,-0.1374444109873612,-0.2793363370301492,0.12908114525129163
223,21.689415199987707,0.10500367943938026,0.07727699188175523,0.029544289189492888,0.056355406731093294,0.10211417370913839,-0.06666104055674732,0.005389566048322016,-0.003774656982591483,-0.04448293043502891,-0.13732632446522414,-0.27853166954316805,0.129881018495236
224,21.69380629999796,0.10526073366844073,0.07774262502533141,0.02923983155154425,0.056378556837029234,0.10209406373861829,-0.06686254598022988,0.004763603493576219,-0.005042957431994035,-0.043888829793664715,-0.13719171995336446,-0.2776781443673973,0.13066238158317106
225,21.698241699996288,0.10551788696009685,0.07820815327254196,0.028934461163978194,0.056398853759175076,0.10206817879930626,-0.06706133399491725,0.004138292192838514,-0.006307254448416728,-0.04329120820845571,-0.13704081616197647,-0.2767760401546573,0.1314251412382203
226,21.701880199994772,0.10577512630971735,0.07867355032936435,0.028628190455636922,0.05641630063693939,0.10203653765326949,-0.06725738873766413,0.003513705974572217,-0.00756732714605185,-0.04269015072439936,-0.13687383359416472,-0.275825647865572,0.13216920855058714
227,21.705702799998107,0.10603243872775525,0.07913878998963389,0.02832103192681915,0.05643090094411694,0.10199916006685678,-0.06745069473408029,0.0028899176587602452,-0.008822955993402899,-0.04208574278229505,-0.13669099417908706,-0.27482727035066173,0.13289449886794533
228,21.710024100000737,0.10628981124126245,0.07960384613960945,0.028012998147503142,0.05644265848427986,0.10195606680439917,-0.0676412369002937,0.002266999049733896,-0.010073922866847359,-0.04147807019922213,-0.1364925211450817,-0.2737812221491473,0.13360093176758486
229,21.714403699996183,0.10654723089538294,0.08006869276250998,0.027704101755561917,0.05645157738612308,0.10190727962166862,-0.06782900054461928,0.0016450209314947354,-0.01132001110368215,-0.040867219149485136,-0.13627863869001305,-0.272687829195331,0.13428843076362507
230,21.718236699991397,0.10680468475482487,0.08053330394302052,0.02739435545497105,0.05645766209881288,0.10185282125909487,-0.06801397136914829,0.0010240530635500272,-0.01256100555300841,-0.04025327614776225,-0.13604957187083078,-0.27154742838017015,0.13495692305660165
231,21.722598199994536,0.10706215990531139,0.08099765387176688,0.02708377201400938,0.056460917387294314,0.10179271543475993,-0.06819613547126335,0.0004041641772419116,-0.013796692624778225,-0.039636328032334425,-0.13580554592774624,-0.2703603675507776,0.135606339335777
232,21.726903299990227,0.10731964345500991,0.08146171684975778,0.026772364263453006,0.05646134832760626,0.10172698683716769,-0.06837547934507487,-0.00021457802225323424,-0.015026860340674856,-0.0390164619500369,-0.13554678590002536,-0.269127005456368,0.1362366132854932
233,21.73094909999054,0.10757712253594023,0.08192546729279354,0.026460145094762886,0.05645896030220712,0.10165566111777433,-0.06855198988279886,-0.0008321068560914095,-0.016251298382666462,-0.038393765343990686,-0.1352735163878404,-0.2678477111446704,0.13684768125217997
234,21.735093700001016,0.10783458430536114,0.08238887973584012,0.026147127458266264,0.056453758995288324,0.10157876488331505,-0.06872565437608137,-0.001448356667589568,-0.01746979813838124,-0.0377683259415912,-0.1349859606557313,-0.2665228638873585,0.1374394821928068
235,21.739238699999987,0.10809201594713577,0.08285192883736783,0.025833324361332195,0.056445750388138066,0.10149632568792068,-0.06889646051726686,-0.0020632628142152436,-0.018682152748981017,-0.037140231742709875,-0.1346843408525698,-0.26515285330917315,0.13801195778482253
236,21.743739499986987,0.108349404673076,0.08331458938365345,0.0255187488665414,0.0564349407545279,0.10140837202500774,-0.06906439640061499,-0.0026767616654213354,-0.019888157155714077,-0.036509571006680085,-0.13436887868863434,-0.26373807969955887,0.1385650531722135
237,21.752553999991505,0.10860673772426566,0.08377683629304497,0.02520341408985069,0.056421336656096215,0.10131493331897048,-0.06922945052345023,-0.0032887906008110786,-0.02108760815063107,-0.035876432233694244,-0.13403979574574523,-0.26227895593153294,0.13909871842942748
238,21.75689559998864,0.10886400237236284,0.08423864462018796,0.02488733319875235,0.05640494493775154,0.10121603991660838,-0.06939161178720907,-0.0038992880108014564,-0.022280304440639113,-0.03524090413843783,-0.13369731441058869,-0.26077590909076664,0.1396129098442876
239,21.76033409999218,0.10912118592088121,0.0846999895602121,0.024570519410428995,0.05638577272305,0.10111172307823393,-0.06955086949834913,-0.004508193303300666,-0.023466046713075936,-0.034603075619785505,-0.13334165824090655,-0.2592293800553441,0.14010759014287846
240,21.76424189998943,0.10937827570645013,0.08516084645287647,0.02425298598990467,0.056363827409537715,0.10100201496850213,-0.06970721336911995,-0.005115446907711407,-0.024644637695931126,-0.03396303573238405,-0.13297305114161165,-0.25763982228692117,0.14058272777351655
241,21.768623699987074,0.10963525910005349,0.08562119078667242,0.023934746248192678,0.056339116664091714,0.10088694864696895,-0.06986063351821294,-0.00572099027409401,-0.025815882212394888,-0.03332087366287913,-0.13259171681608733,-0.256007699911023,0.14103829587457936
242,21.77268409999669,0.10989212350824733,0.08608099820288274,0.023615813540440744,0.05631164841827,0.10076655805842336,-0.07001112047131534,-0.0063247658721652346,-0.026979587223570408,-0.03267667871091222,-0.13219787849267173,-0.25433348597985683,0.1414742715222735
243,21.77681119999033,0.11014885637435629,0.0865402444995964,0.0232962012640738,0.056281430863661594,0.10064087802305619,-0.07015866516158688,-0.006926717187966761,-0.028135561867178385,-0.032030540272208245,-0.13179175799141676,-0.25261766260010166,0.1418906356303705
244,21.78082469999208,0.11040544517964879,0.08699890563567797,0.022975922856934797,0.05624847244726696,0.10050994422643914,-0.07030325893005943,-0.007526788714352253,-0.029283617501434912,-0.031382547820486974,-0.13137357510156622,-0.2508607218651477,0.14228737333641692
245,21.78508279999369,0.11066187744449138,0.08745695773469105,0.022654991795423844,0.05621278186693483,0.10037379320929352,-0.0704448935259487,-0.008124925941978061,-0.030423567752258622,-0.030732790887028148,-0.13094354743583012,-0.24906316731835543,0.14266447484989173
246,21.79425969999284,0.11091814072948228,0.08791437708877434,0.02233342159263618,0.05617436806682481,0.10023246235703862,-0.07058356110686756,-0.008721075348461178,-0.03155522857049439,-0.03008135903484718,-0.13050188991797057,-0.24722551719186903,0.14302193718522532
247,21.8009325999883,0.11117422263656433,0.0883711401624697,0.022011225796499362,0.05613324023294307,0.10008598988903857,-0.07071925423890216,-0.009315184384696404,-0.03267841830866049,-0.029428341822454063,-0.13004881427088685,-0.24534830826486861,0.14335976635576492
248,21.80623509999714,0.11143011081011785,0.08882722359650025,0.02168841798791055,0.05608940778872974,0.09993441484745072,-0.0708519658964947,-0.00990720145934532,-0.033792957813361925,-0.028773828758018743,-0.12958452832168946,-0.24343209785784414,0.14367797824228754
249,21.81047949999629,0.11168579293803331,0.0892826042114966,0.021365011778874763,0.05604288039073611,0.09977777708562965,-0.07098168946210154,-0.010497075918815296,-0.03489867052022664,-0.028117909255208646,-0.12910923523278575,-0.24147746200348597,0.14397659683846134
250,21.814243699991493,0.11194125675276478,0.08973725901166925,0.021041020810645274,0.055993667924394606,0.09961611725610967,-0.07110841872567317,-0.011084758024735492,-0.03599538252963623,-0.02746067260335653,-0.1286231322584209,-0.23948499080032662,0.14425565138855906
251,21.818557899998268,0.11219649003236405,0.09019116518842524,0.020716458751866618,0.055941780499901395,0.09944947679831806,-0.07123214788404021,-0.011670198922594736,-0.037082922659284444,-0.02680220794940386,-0.1281264097024978,-0.23745528486512793,0.14451517456568755
252,21.8230188999878,0.11245148060149646,0.09064430012392842,0.020391339296720584,0.055887228448272444,0.09927789792607829,-0.07135287154022875,-0.012253350609712202,-0.03816112248755149,-0.026142604284684325,-0.12761925119217563,-0.2353889537398334,0.14475520161645805
253,21.826973799994448,0.11270621633243907,0.09109664139460218,0.020065676163075467,0.05583002231751825,0.09910142361492763,-0.07147058470272574,-0.012834165906370676,-0.03922981639153294,-0.025481950434668364,-0.12710183353206259,-0.2332866152162415,0.14497577013409663
254,21.830740499994132,0.11296068514606167,0.091548166774574,0.019739483090638762,0.05577017286896315,0.09892009758927349,-0.07158528278470083,-0.013412598422457376,-0.04028884158425463,-0.024820335047816052,-0.12657432622866974,-0.23114889502520403,0.14517692037458482
255,21.835153799998807,0.11321487501279129,0.09199885423906108,0.019412773839113513,0.05570769107372434,0.09873396430937165,-0.0716969616031701,-0.013988602524259947,-0.04133803814986687,-0.024157846582438226,-0.1260368915996826,-0.22897642641455035,0.1453586955506135
256,21.83937009998772,0.11346877395356111,0.09244868196769611,0.019085562186358627,0.05564258810933402,0.09854306895816156,-0.07180561737809803,-0.014562133302103904,-0.04237724907700975,-0.02349457329286833,-0.12548968499401061,-0.22676984971082856,0.14552114188429977
257,21.843408599990653,0.11372237004074424,0.09289762834779279,0.018757861926553425,0.05557487535651355,0.09834745742794032,-0.07191124673143513,-0.015133146539155614,-0.04340632029001015,-0.022830603215842734,-0.12493285468167921,-0.22452981149700166,0.14566430834693508
258,21.847580399989965,0.11397565139907312,0.09334567197755013,0.01842968686836673,0.05550456439608017,0.0981471763069134,-0.07201384668609571,-0.015701598678055487,-0.044425100674747135,-0.022166024159046227,-0.12436654146995497,-0.22225696433718545,0.1457882461675058
259,21.853746699998737,0.1142286062065451,0.09379279166919526,0.018101050833130735,0.05543166700602546,0.0979422728656327,-0.07211341466489102,-0.01626744678621978,-0.04543344210733838,-0.021500923691974944,-0.12379087923344757,-0.21995196728780697,0.14589300863400062
260,21.857604499993613,0.11448122269531523,0.09423896645206402,0.01777196765301983,0.05535619515873855,0.09773279504328568,-0.07220994848942364,-0.016830648527308652,-0.046431199484667666,-0.020835389136294062,-0.1232059956277179,-0.21761548606460432,0.14597865176339606
261,21.861839799996236,0.11473348915257651,0.09468417557561877,0.017442451169234544,0.055278161018344776,0.09751879143385495,-0.07230344637893274,-0.017391162133036507,-0.04741823075459446,-0.02016950755059003,-0.12261201201620711,-0.21524819375465098,0.14604523599496821
262,21.86857500000042,0.1149853939214284,0.09512839851240272,0.017112515230190917,0.05519757693818602,0.09730031127213187,-0.0723939069490494,-0.017948946373973606,-0.048394396952975496,-0.01950336570528422,-0.12200904359819646,-0.21285077215081788,0.14609282860981485
263,21.872762099999814,0.11523692540173404,0.09557161496093015,0.016782173689715785,0.055114455458425686,0.09707740441953853,-0.07248132921041303,-0.018503960532523487,-0.04935956224604547,-0.018837050045317605,-0.12139720021375405,-0.21042391308874547,0.14612150652240138
264,21.881633400000283,0.11548807205096698,0.09601380484851148,0.01645144040524877,0.05502880930377546,0.09685012134975476,-0.07256571256708635,-0.01905616438106618,-0.05031359397963266,-0.018170646639603764,-0.12077658725754266,-0.20796832064113965,0.14613135869507654
265,21.885506399994483,0.11573882238504767,0.09645494833401234,0.016120329236052028,0.05494065138129968,0.09661851313409123,-0.07264705681471083,-0.01960551816327013,-0.05125636274155297,-0.017504241121691695,-0.1201473058076937,-0.20548471316593198,0.14612248744601006
266,21.893520499987066,0.1159891649791701,0.0968950258105453,0.015788854041429056,0.05484999477831251,0.0963826314265474,-0.07272536213838043,-0.02015198257341082,-0.052187742429506016,-0.016837918627289603,-0.1195094527176462,-0.20297382359906493,0.1460950085713133
267,21.89773839998816,0.11623908846861918,0.0973340179080926,0.01545702867895384,0.054756852760370955,0.09614252844856541,-0.07280062911022726,-0.020695518738520335,-0.05310761031613957,-0.01617176373381389,-0.11886312118178094,-0.20043639837560795,0.1460490503115334
268,21.90183689999685,0.11648858154957903,0.09777190549605884,0.015124867002711677,0.05466123876933484,0.09589825697349455,-0.07287285868674397,-0.0212360882028649,-0.05401584710710557,-0.015505860407339174,-0.11820840101052092,-0.19787319563751696,0.1459847516328134
269,21.905857099991408,0.11673763297993268,0.09820866968575208,0.014792382861552742,0.054563166421501386,0.09564987031081562,-0.07294205220588548,-0.021773652912603535,-0.054912336989778196,-0.01484029195782416,-0.1175453786312503,-0.19528498334929853,0.14590226060431605
270,21.910138299994287,0.11698623158005338,0.09864429183279254,0.014459590097359351,0.05446264950580513,0.09539742229016114,-0.07300821138398313,-0.022308175200274,-0.05579696767412355,-0.014175141000860562,-0.11687413708689486,-0.1926725376877784,0.14580173308311148
271,21.91638739999325,0.1172343662335878,0.09907875353944802,0.014126502543327672,0.054359701982093986,0.0951409672451669,-0.07307133831249744,-0.022839617769438467,-0.056669630426731454,-0.01351048942489362,-0.11619475623728331,-0.19003664179923008,0.14568333163813083
272,21.92022289999295,0.11748202588823167,0.09951203665689531,0.013793134022264597,0.054254337979469214,0.09488055999718176,-0.07313143545463333,-0.023367943681006028,-0.057530220100349354,-0.012846418362785238,-0.11550731272353207,-0.18737808532290554,0.1455472246961676
273,21.92442189999565,0.1177291995564979,0.09994412328740704,0.013459498344900333,0.054146571794686224,0.09461625583884989,-0.0731885056418335,-0.023893116337553533,-0.05837863516356841,-0.012183008166823491,-0.11481188007715146,-0.1846976641172712,0.14539358606007724
274,21.929203299994697,0.1179758763164775,0.1003749957864633,0.013125609308217252,0.054036417890637546,0.0943481105175498,-0.07324255207016574,-0.024415099470643197,-0.05921477772786051,-0.01152033838468009,-0.11410852946977061,-0.18199617972999474,0.14522259518204272
275,21.93364059999294,0.11822204531259396,0.10080463676478751,0.012791480693795435,0.05392389089486931,0.09407618021872992,-0.07329357829659702,-0.02493385713198142,-0.06003855357243033,-0.010858487731927536,-0.11339733011628404,-0.17927444032951395,0.14503443826848178
276,21.93880289999652,0.11846769575635063,0.10123302909030603,0.012457126266175502,0.05380900559814486,0.09380052154912105,-0.07334158823513012,-0.025449353684413322,-0.0608498721797488,-0.01019753405791914,-0.11267835002399601,-0.1765332624257126,0.1448293100018887
277,21.945052799987025,0.11871281692707195,0.10166015589003086,0.012122559771239393,0.05369177695304335,0.09352119151974783,-0.07338658615276658,-0.025961553799914237,-0.06164864677609881,-0.00953755430260191,-0.11195165712688795,-0.17377347088727102,0.14460741508800518
278,21.94962210000085,0.11895739817263809,0.10208600055186438,0.011787794934610019,0.053572220072541685,0.09323824752877134,-0.07342857666524935,-0.026470422460929472,-0.06243479436726696,-0.008878624448285414,-0.11121731908525907,-0.17099589764306772,0.14436896834307167
279,21.953249499987574,0.11920142891021325,0.10251054672632556,0.01145284546007087,0.05345035022860092,0.09295174734417509,-0.07346756473258592,-0.02697592495653839,-0.06320823576724519,-0.008220819475658874,-0.11047540247969177,-0.16820137965270726,0.14411419337020784
280,21.95753979998699,0.1194448986269674,0.10293377832819674,0.011117725028006504,0.053326182850783145,0.09266174908634583,-0.07350355565438979,-0.027478026876442636,-0.06396889561541248,-0.007564213327632264,-0.10972597250033336,-0.1653907565644086,0.14384332117373047
281,21.96175799999037,0.11968779688079194,0.10335567953809095,0.010782447293864638,0.05319973352489275,0.09236831121060284,-0.0735365550650738,-0.027976694104296287,-0.06471670238387503,-0.006908878877991694,-0.10896909241738004,-0.16256486908742357,0.14355658956257367
282,21.965935299987905,0.11993011330100907,0.10377623480393944,0.010447025886640478,0.053071017991654146,0.09207149248971175,-0.07356656892890572,-0.02847189280686455,-0.06545158837980335,-0.006254887900681678,-0.10820482303171033,-0.15972455802209048,0.14325424309974036
283,21.970307899988256,0.12017183758907539,0.10419542884239943,0.01011147440738391,0.05294005214545186,0.09177135199639257,-0.07359360353492142,-0.028963589422343342,-0.0661734897439259,-0.0056023110389215565,-0.10743322298527029,-0.15687066345555645,0.14293653302172285
284,21.97477939999953,0.12041295951927979,0.10461324664018214,0.009775806427730217,0.05280685203311484,0.09146794908584724,-0.0736176654916988,-0.029451750652348913,-0.06688234644553073,-0.004951217775222698,-0.1066543492190175,-0.15400402424994328,0.1426037170197909
285,21.978690999996616,0.12065346893943592,0.10502967345530116,0.009440035488454943,0.0526714338527296,0.0911613433783132,-0.07363876172199749,-0.029936343454414146,-0.06757810227629087,-0.00430167640249971,-0.1058682566438525,-0.15112547769350612,0.14225605898891433
286,21.98251679999521,0.1208933557715693,0.10544469481824137,0.009104175098053495,0.052533813952492944,0.09085159474164733,-0.07365689945726923,-0.03041733503097687,-0.06826070484208425,-0.0036537539963776245,-0.10507499792082114,-0.14823585950164092,0.14189382877985435
287,21.98683859998709,0.12113261001259933,0.10585829653304848,0.008768238731346077,0.05239400882962557,0.09053876327395406,-0.0736720862320451,-0.030894692819871478,-0.06893010555682835,-0.003007516388564189,-0.10427462448536115,-0.14533600443898528,0.14151730190871525
288,21.99113909999141,0.12137122173501642,0.10627046467833948,0.008432239828108486,0.05225203512931149,0.09022290928622556,-0.073684329878203,-0.031368384492658996,-0.06958625963997406,-0.0023630281418061203,-0.1034671874067199,-0.1424267468127309,0.14112675907397465
289,21.995303399991823,0.12160918108755442,0.10668118560823385,0.008096191791729324,0.052107909643626875,0.08990409328499274,-0.07369363851912641,-0.03183837795295713,-0.07022912611483957,-0.0017203525276663805,-0.10265273704128484,-0.13950892038136833,0.14072248557374978
290,21.999468399997568,0.12184647829585793,0.10709044595320578,0.007760107987894076,0.051961649310494726,0.08958237595498061,-0.07370002056376927,-0.0323046413316085,-0.07085866780527204,-0.001079551506795327,-0.10183132281270477,-0.13658335782367093,0.14030477098465194
291,22.0034764999873,0.12208310366314518,0.10749823262085724,0.0074240017432964526,0.05181327121265776,0.08925781814178974,-0.07370348470063474,-0.03276714298300524,-0.07147485132913824,-0.0004406857096370335,-0.1010029936865984,-0.13365089064827637,0.13987390921066764
292,22.00763999999617,0.12231904757086602,0.10790453279661213,0.007087886344377383,0.05166279257666661,0.08893048083461094,-0.07370403989166414,-0.03322585148458688,-0.07207764709416149,0.00019618558374538523,-0.1001677987571248,-0.13071234952267122,0.1394301985342079
293,22.012298999994528,0.12255430047935555,0.1083093339443318,0.006751775036092096,0.0515102307718573,0.08860042514894477,-0.0737016953660317,-0.033680735638514835,-0.07266702929441295,0.000831004463429055,-0.09932578759432427,-0.12776856385161497,0.13897394123140103
294,22.01626099999703,0.12278885292848277,0.10871262380685155,0.006415681020705709,0.051355603309324156,0.08826771230934818,-0.07369646061385327,-0.03413176447433825,-0.07324297590230346,0.0014637144062972464,-0.09847701097482775,-0.12482036126563531,0.1385054428025107
295,22.023434399990947,0.12302269553829484,0.10911439040643878,0.006079617456617689,0.051198927840872994,0.08793240363222704,-0.07368834537982906,-0.034578907257333015,-0.07380546866040957,0.002094260288779592,-0.09762152187039828,-0.12186856815205636,0.13802501124823227
296,22.027460400000564,0.12325581900965624,0.10951462204517257,0.005743597457215423,0.05104022215791795,0.08759456050865737,-0.0736773596568362,-0.03502213350018371,-0.07435449307830878,0.002722588396917362,-0.09675937594200058,-0.11891401042240914,0.13753295644441813
297,22.031026599986944,0.12348821412488288,0.10991330730524512,0.005407634089757121,0.05087950419032813,0.08725424438720669,-0.07366351367947963,-0.03546141297582886,-0.07489003843140474,0.0033486464334007873,-0.09589063179529547,-0.11595751256082723,0.1370295892760685
298,22.03493799999705,0.1237198717483708,0.11031043504918471,0.005071740374284204,0.05071679200520727,0.08691151675676603,-0.07364681791762047,-0.03589671573147314,-0.07541209774908327,0.003972383519735793,-0.09501535114529802,-0.11299989572304742,0.13651522055761514
299,22.03894629998831,0.12395078282721916,0.11070599442000048,0.004735929282563234,0.050552103805612605,0.08656643912947926,-0.0736272830699072,-0.03632801210293442,-0.07592066779619931,0.004593750193433636,-0.09413359867024235,-0.11004197720538615,0.13599016015423332
300,22.044222699987586,0.1241809383918472,0.11109997484124973,0.004400213737057301,0.05038545792920369,0.08621907302374392,-0.07360492005732963,-0.03675527272732311,-0.07641574905638969,0.005212698402163458,-0.09324544204852953,-0.1070845699687761,0.13545471655826302
301,22.04805909999413,0.12441032955660493,0.11149236601702767,0.004064606609926742,0.05021687284684557,0.08586947994729281,-0.07357974001680338,-0.03717846855772621,-0.07689734570921893,0.005829181497078621,-0.09235095258016279,-0.10412848170635958,0.1349091967580821
302,22.05232969998906,0.12463894752037738,0.11188315793188039,0.0037291207220590482,0.05004636716112372,0.08551772138040327,-0.07355175429478476,-0.03759757088155454,-0.07736546560498789,0.006443154225773299,-0.09145020513145014,-0.10117451458724325,0.13435390606527065
303,22.055995499991692,0.12486678356718173,0.1122723408506415,0.003393768842127815,0.049873959604779874,0.08516385875920846,-0.07352097444091951,-0.03801255133472241,-0.07782012023954252,0.00705457272403245,-0.09054327777014612,-0.09822346468977221,0.1337891477524259
304,22.060323699988658,0.12509382906675726,0.11265990531819285,0.0030585636856805764,0.049699669039097616,0.08480795345913643,-0.07348741220173287,-0.03842338191666713,-0.07826132472391356,0.007663394505485051,-0.08963025205781723,-0.0952761211230149,0.13321522248394208
305,22.066697299989755,0.12532007547514779,0.11304584215915015,0.0027235179142553086,0.04952351445220123,0.08445006677849835,-0.07345107951437271,-0.03883003500719526,-0.0786890977511127,0.008269578448162427,-0.08871121317730425,-0.09233326562404402,0.13263242760114846
306,22.070296799996868,0.1255455143352761,0.11343014247747397,0.0023886441345253285,0.04934551495728766,0.08409025992223039,-0.07341198850042223,-0.03923248338266462,-0.07910346156209923,0.008873084777631504,-0.08778624984188063,-0.08939567257777503,0.13204105642496464
307,22.07429379998939,0.1257701372775103,0.11381279765600714,0.0020539548974722313,0.04916568979077774,0.08372859398579231,-0.07337015145979688,-0.03963070023200203,-0.07950444191275713,0.009473875047192916,-0.08685545381954007,-0.08646410896108593,0.13144139770136049
308,22.07903599999554,0.12599393602022127,0.11419379935593886,0.001719462697586451,0.04898405831040208,0.0833651299392106,-0.07332558086473766,-0.040024659168546514,-0.07989206803935209,0.01007191211595651,-0.08591891960359198,-0.08353933379312092,0.1308337352535189
309,22.082877499997267,0.12621690237033165,0.1145731395161965,0.0013851799720949838,0.0488006399932443,0.08299992861129207,-0.07327828935390807,-0.04041433424306267,-0.08026637262049499,0.010667160125866963,-0.08497674505295447,-0.08062209791740269,0.13021834789758713
310,22.086844299992663,0.12643902822385547,0.11495081035276586,0.001051119100215788,0.04861545443370817,0.08263305067401396,-0.07322828972659688,-0.04079969996142376,-0.08062739174061168,0.011259584479010881,-0.08402903179470972,-0.07771314405622293,0.12959550966455854
311,22.093480799987447,0.12666030556642852,0.11532680435794049,0.0007172924024383816,0.048428521341399605,0.08226455662707066,-0.0731755949370221,-0.041180731301296604,-0.0809751648524025,0.011849151816666119,-0.08307588551655466,-0.07481320633501518,0.12896549027740334
312,22.09765029999835,0.1268807264738287,0.11570111429950103,0.00038371213983019395,0.04823986053894164,0.08189450678260622,-0.07312021808872479,-0.041557403732492025,-0.08130973473597407,0.012435830000960612,-0.08211741735682071,-0.07192300978787057,0.12832855566456877
313,22.101625999988755,0.12710028311248645,0.11607373321982534,5.0390513368294235e-05,0.048049491959670766,0.08152296125013386,-0.07306217242904035,-0.04192969324632758,-0.08163114745678882,0.013019588098605131,-0.08115374452699382,-0.06904326966269765,0.12768496818386277
314,22.105740399987557,0.1273189677399841,0.11644465443493021,-0.00028266033670382976,0.047857435645184146,0.08114997992165193,-0.07300147134364071,-0.04229757638165579,-0.08193945231845935,0.013600396364594076,-0.08018498881117686,-0.06617469083714891,0.12703498637488006
315,22.11029719999351,0.12753677270554395,0.1168138715334458,-0.0006154283314947666,0.04766371174279854,0.08077562245699403,-0.07293812835115421,-0.042661030240541,-0.08223470181537092,0.014178226223680201,-0.07921127524913708,-0.06331796783597897,0.12637886434924286
316,22.114275699990685,0.1277536904505044,0.11718137837552371,-0.0009479014540593313,0.04746834050295453,0.08039994826937705,-0.07287215709787681,-0.04302003250227622,-0.08251695158563406,0.014753050248514026,-0.07823273213688964,-0.06047378450072099,0.12571685102769126
317,22.11835349998728,0.1279697135087843,0.1175471690916796,-0.001280067749968823,0.04727134227654761,0.08002301651118039,-0.07280357135259136,-0.0433745614390653,-0.08278626036069434,0.015324842134160348,-0.07724949102603494,-0.057642814027555854,0.12504918938868692
318,22.12260740000056,0.12818483450733495,0.11791123808157158,-0.0016119153278579238,0.047072737512189385,0.07964488605995362,-0.07273238500151119,-0.04372459593003369,-0.08304268991863037,0.015893576669384454,-0.07626168643155606,-0.05482571926092604,0.12437611587683786
319,22.126851399996667,0.12839904616657927,0.11827358001271521,-0.0019434323599488398,0.04687254675341087,0.07926561550462163,-0.0726586120433613,-0.04407011547424559,-0.0832863050364415,0.0164592297057731,-0.07526945619758758,-0.052023152325183085,0.1236978600865893
320,22.13108500000089,0.1286123413008383,0.11863418981913604,-0.002274607082553336,0.046670790635804954,0.07888526313192744,-0.07258226658460358,-0.04441110020805074,-0.08351717343998621,0.017021778126135777,-0.07427294248454519,-0.04923575462609244,0.12301464470183375
321,22.135250899998937,0.1288247128187444,0.11899306269996099,-0.0026054277965533285,0.04646748988407151,0.07850388691309396,-0.07250336283480618,-0.04474753092710479,-0.08373536575628357,0.01758119981307491,-0.07327229235528217,-0.046464157089393394,0.12232668556047187
322,22.139444499989622,0.12903615372364083,0.11935019411794925,-0.002935882867860686,0.046262665308959,0.07812154449070184,-0.07242191510215544,-0.045079389109062215,-0.08394095546562741,0.01813747361797596,-0.07226765803108214,-0.04370898003083912,0.12163419176485421
323,22.14357439999003,0.1292466571139669,0.11970557979796395,-0.003265960727856888,0.04605633780410261,0.07773829316578801,-0.07233793778910802,-0.04540665693793149,-0.08413401885270244,0.0186905793305849,-0.07125919718369582,-0.04097083269991793,0.12093736579622606
324,22.147629899991443,0.1294562161836288,0.12005921572538539,-0.0035956498738131696,0.04584852834274372,0.07735418988516932,-0.07225144538818035,-0.04572931732943158,-0.08431463495453696,0.019240497649042138,-0.07024707308173406,-0.03825031273199344,0.12023640363067283
325,22.151776999991853,0.12966482422235487,0.12041109814446709,-0.0039249388692917785,0.04563925797433681,0.0769692912290158,-0.07216245247787406,-0.046047353956682274,-0.08448288550662209,0.019787210150517504,-0.06923145433541923,-0.03554800643958438,0.11953149488442899
326,22.156098999999813,0.1298724746160354,0.12076122355663571,-0.004253816344528956,0.04542854782103456,0.07658365339866578,-0.07207097371873326,-0.046360751273232685,-0.08463885489352112,0.020330699262569456,-0.06821251449394526,-0.032864489122836044,0.11882282295100924
327,22.16011409999919,0.13007916084704596,0.12110958871873596,-0.0045822709968002355,0.045216419074084746,0.07619733220464957,-0.0719770238495312,-0.04666949453507926,-0.08478263009782049,0.020870948235030794,-0.06719043200793642,-0.0302003243946889,0.11811056508429195
328,22.164216399993165,0.13028487649455417,0.12145619064122128,-0.004910291590768641,0.04500289299011455,0.07581038305497016,-0.0718806176835839,-0.04697356982335183,-0.08491430064458423,0.021407941112125645,-0.06616538990071381,-0.027556064106981415,0.11739489241770439
329,22.168380099989008,0.13048961523480926,0.12180102658629181,-0.0052378669588163665,0.044787990887320495,0.07542286094363358,-0.07178177010519124,-0.04727296406333343,-0.08503395854963094,0.021941662704530157,-0.06513757533012184,-0.02493224939213211,0.11667596996605471
330,22.17260669999814,0.13069337084141408,0.12214409406598056,-0.0055649860013605125,0.04457173414157932,0.07503482043940131,-0.07168049606620533,-0.047567665043149895,-0.08514169827348905,0.02247209856150619,-0.0641071793317748,-0.02232941101163243,0.1159539566151917
331,22.178741999989143,0.13089613718557916,0.12248539084018875,-0.005891637687153468,0.04435414418246744,0.07464631567474056,-0.07157681058272575,-0.04785766143044793,-0.08523761667285222,0.022999234942867704,-0.06307439619645228,-0.019748068495889497,0.11522900500539095
332,22.182613400000264,0.13109790823635842,0.12282491491467115,-0.006217811053568506,0.04413524248921971,0.0742574003350195,-0.07147072873192367,-0.048142942785406186,-0.08532181294668947,0.023523058790050854,-0.062039422520092445,-0.017188730418823253,0.11450126132832276
333,22.18678039999213,0.13129867806086637,0.12316266453897295,-0.006543495206871198,0.043915050586630214,0.07386812764794902,-0.0713622656490009,-0.048423499568748654,-0.0853943885902051,0.0240435576962286,-0.06100245647199718,-0.014651895404005903,0.11377086527667063
334,22.19092689998797,0.13149844082447645,0.12349863820431878,-0.006868679322477277,0.04369359004093793,0.07347855037319787,-0.0712514365242866,-0.048699323148081335,-0.08545544735012536,0.024560719876921298,-0.05996369812323461,-0.012138051922810162,0.11303795029971275
335,22.195505099996808,0.1316971907910007,0.12383283464145482,-0.007193352645197567,0.043470882455669754,0.07308872079224223,-0.07113825660046436,-0.04897040580890086,-0.08550509517681744,0.025074534142442366,-0.05892334937406802,-0.009647678295730006,0.11230264403257402
336,22.20025209999585,0.13189492232285016,0.1241652528184453,-0.007517504489470562,0.04324694946742574,0.07269869069841757,-0.07102274116992023,-0.04923674076026926,-0.08554344017958815,0.025584989872423924,-0.05788161289342428,-0.007181242617818513,0.11156506872747703
337,22.204394999993383,0.13209162988117612,0.12449589193842386,-0.007841124239583162,0.04302181274167035,0.07230851138717594,-0.07090490557220218,-0.049498322136149894,-0.08557059257812281,0.02609207699219573,-0.056838692154763726,-0.004739201917200481,0.1108253417300395
338,22.208636199997272,0.13228730802599215,0.12482475143730117,-0.008164201349880083,0.04279549396850555,0.07191823364658068,-0.07078476519158353,-0.04975514500140937,-0.08558666465010915,0.02659578595165496,-0.05579479194841174,-0.002322001809397586,0.11008357635162319
339,22.217963099988992,0.13248195141627675,0.1251518309814296,-0.008486725344962372,0.0425680148584073,0.07152790774804145,-0.0706623354547151,-0.050007205357826254,-0.08559177067952334,0.0270961077096015,-0.05475011834526822,6.992365063647876e-05,0.10933988331623956
340,22.22281319998729,0.13267555481005655,0.12547713046522635,-0.008808685819875399,0.04233939713794382,0.07113758343728063,-0.07053763182833162,-0.05025450014976198,-0.08558602690290436,0.02759303372580441,-0.053704879172195095,0.0024361527185927344,0.10859437213471991
341,22.226781699995627,0.13286811306446988,0.12580065000875576,-0.009130072440286456,0.04210966254546039,0.07074730992555832,-0.0704106698169761,-0.05049702727450542,-0.08556955145079892,0.0280865559578705,-0.05265928412170051,0.00477627639872928,0.10784715151144603
342,22.230973999990965,0.1330596211358106,0.12612238995527233,-0.009450874942651994,0.04187883282670328,0.07035713588117279,-0.07028146496073491,-0.05073478558894417,-0.08554246429004168,0.028576666857020438,-0.05161354325223113,0.007089897676115286,0.10709832880665837
343,22.235142699995777,0.13325007407955178,0.12644235086872557,-0.009771083134374563,0.04164692973044366,0.06996710942121195,-0.07015003283300064,-0.05096777490623084,-0.08550488717220257,0.029063359360053234,-0.050567865634523576,0.009376630657468904,0.10634800939683417
344,22.2392167999933,0.1334394670503496,0.12676053353122776,-0.010090686893949645,0.041413975004131964,0.06957727810352402,-0.07001638903828042,-0.05119599599010825,-0.08545694358370311,0.029546626879288596,-0.049522459021950384,0.011636100643569422,0.10559629666284484
345,22.243370799988043,0.1336277953020274,0.12707693894048558,-0.010409676171102604,0.041179990389573554,0.06918768891892388,-0.0698805492100506,-0.05141945054856905,-0.08539875869360326,0.030026463294423416,-0.04847752952211659,0.013867944330605361,0.10484329256334429
346,22.24752499999886,0.13381505418754017,0.12739156830719678,-0.010728040986915955,0.0409449976186409,0.06879838828364003,-0.06974252900863928,-0.05163814122518566,-0.08533045930188139,0.03050286294770377,-0.04743328170613153,0.016071809426306354,0.10408909812374523
347,22.251678399989032,0.13400123915891946,0.12770442305241292,-0.011045771433947,0.040709018409028346,0.06840942203199267,-0.06960234411912505,-0.05185207159376654,-0.0852521737907222,0.030975820640241174,-0.046389919047289674,0.018247354466767333,0.10333381354899672
348,22.2559770999942,0.13418634576719912,0.12801550480486928,-0.011362857676335929,0.040472074460013004,0.06802083540928487,-0.0694600102492531,-0.052061246153687186,-0.08516403207446732,0.0314453316282132,-0.04534764329979673,0.020394249072864242,0.10257753817503543
349,22.26050279999617,0.13437036966232163,0.12832481539828275,-0.011679289949904456,0.040234187448252114,0.0676326730649372,-0.06931554312736865,-0.05226567031887995,-0.08506616554856467,0.03191139161873691,-0.04430665438849287,0.022512173767242547,0.10182037024990803
350,22.26422779999848,0.13455330659302545,0.1286323568686191,-0.011995058562245068,0.039995379023644355,0.06724497904584448,-0.06916895850037064,-0.05246535041215927,-0.08495870704118814,0.03237399676407321,-0.04326715125059345,0.024600819937776415,0.1010624066147911
351,22.268315799999986,0.13473515240671358,0.1289381314513303,-0.012310153892800994,0.039755670805178965,0.06685779678995167,-0.06902027213169805,-0.05266029366188871,-0.08484179076252028,0.03283314365459095,-0.04222933187230744,0.026659889800037327,0.10030374263592648
352,22.27266639999289,0.13491590304930312,0.1292421415785632,-0.012624566392937093,0.03951508437682745,0.06647116912007323,-0.0688694997993478,-0.05285050819664012,-0.08471555225671429,0.0332888293123505,-0.04119339361756867,0.02868909636159774,0.09954447237278818
353,22.27680169999076,0.13509555456505634,0.1295443898763405,-0.012938286586001746,0.039273641283441414,0.06608513823790708,-0.06871665729391953,-0.05303600304485895,-0.0845801283515022,0.033741051185601646,-0.040159533557943286,0.03068816408199659,0.09878468892458123
354,22.28078209998785,0.1352741030963928,0.12984487916171483,-0.013251305067379905,0.03903136302664732,0.06569974571831363,-0.0685617604166837,-0.053216788132532375,-0.08443565710413771,0.03418980714552743,-0.03912794825308655,0.03265682872342633,0.09802448493406524
355,22.284820399989258,0.13545154488368294,0.13014361243989744,-0.013563612504537371,0.0387882710607656,0.06531503250382276,-0.0684048249776561,-0.05339287428085221,-0.08428227775236607,0.034635095485337275,-0.03809883393274703,0.03459483694935593,0.09726395305851726
356,22.2889981999906,0.1356278762650231,0.1304405929013623,-0.013875199637056279,0.03854438678872671,0.06493103889935996,-0.06824586679367417,-0.05356427320554304,-0.08412013066402778,0.03507691492130623,-0.03707238664391061,0.036501946289819016,0.09650318655980036
357,22.29322300000058,0.13580309367599178,0.1307358239189267,-0.014186057276661827,0.038299731557996375,0.06454780456721307,-0.06808490168646207,-0.05373099751586719,-0.08394935728834507,0.03551526459724995,-0.036048802324378126,0.038377925394991824,0.09574228009046144
358,22.301621399994477,0.13597719364938746,0.13102930904480936,-0.014496176307240122,0.03805432665650074,0.06416536852220267,-0.06792194548066618,-0.053893060714623915,-0.08377010010321279,0.03595014409273361,-0.035028276801839515,0.04022255502383139,0.09498133066351405
359,22.306044599987217,0.1361501728149478,0.13132105200766697,-0.014805547684846983,0.037808193308551605,0.06378376912712953,-0.06775701400184529,-0.05405047719714592,-0.08358250255746791,0.036381553436391906,-0.034011005537961735,0.04203562797200271,0.0942204386994491
360,22.310019399999877,0.13632202789905018,0.13161105670961087,-0.015114162437707461,0.037561352670780715,0.06340304408847158,-0.06759012307438461,-0.05420326224896449,-0.08338670901883774,0.03680949312368739,-0.03299718348241793,0.043816948558040025,0.09345970840593983
361,22.31412989999808,0.13649275572439393,0.13189932722320433,-0.015422011666205616,0.03731382582808631,0.06302323045230608,-0.067421288519324,-0.054351432043474666,-0.083182864720896,0.037233964133693585,-0.031987004524096425,0.045566333062859204,0.09269924718109968
362,22.318503699993016,0.13666235320966383,0.13218586778844194,-0.015729086542864226,0.037065633789588714,0.06264436460049039,-0.0672505261521189,-0.05449500363459505,-0.08297111570700237,0.03765496794141066,-0.030980660283596424,0.04728361005983033,0.09193916470725837
363,22.32246640000085,0.13683081736917543,0.13247068280971214,-0.016035378312314146,0.036816797484643816,0.062266482247095446,-0.06707785178035627,-0.05463399494341978,-0.0827516087742481,0.03807250652628324,-0.02997833971100507,0.04896861964545136,0.09117957215919989
364,22.3266922999901,0.1369981453125023,0.1327537768527441,-0.016340878291253184,0.03656733775892041,0.0618896184350978,-0.06690328120143779,-0.054768424747209825,-0.0825244914244123,0.0384865823772947,-0.02898022974453383,0.05062121263497373,0.09042058141172253
365,22.330712199996924,0.13716433424408542,0.13303515464153998,-0.01664557786839433,0.03631727537051408,0.06151380753326038,-0.06672683020024932,-0.05489831267205214,-0.08228991181524398,0.03889719849425744,-0.027986515054106605,0.0522412510749036,0.08966230430275364
366,22.335009199989145,0.1373293814628251,0.13331482105529346,-0.016949468504403372,0.036066630986091495,0.06113908323326886,-0.06654851454683239,-0.05502367917951232,-0.08204801870674394,0.03930435838618634,-0.02699737705356522,0.053828608096115796,0.08890485207881373
367,22.33906929999648,0.13749328436165525,0.13359278112529588,-0.01725254173182589,0.03581542517712603,0.0607654785471024,-0.06636834999406846,-0.05514454555028444,-0.08179896141378656,0.03970806606753127,-0.02601299448640302,0.055383167218747316,0.08814833507136591
368,22.343276199986576,0.13765604042710078,0.13386904003183067,-0.017554789155003758,0.03556367841619117,0.06039302580460212,-0.06618635227538479,-0.055260933876185976,-0.0815428897587415,0.04010832605359872,-0.025033544267249914,0.056904822316256015,0.08739286258003653
369,22.34761289999005,0.13781764723881818,0.13414360310105744,-0.0178562024499812,0.03531141107326918,0.06002175665127392,-0.06600253710248043,-0.05537286705148252,-0.0812799540244232,0.04050514335571918,-0.024059201334983314,0.05839347772494572,0.08663854276651223
370,22.353249299994783,0.1379781024691193,0.13441647580188634,-0.01815677336440056,0.035058643412123607,0.059651702046286136,-0.06581692016307618,-0.05548036876354297,-0.08101030490571377,0.040898523475701,-0.023090138982047453,0.059849048645601845,0.08588548262200765
371,22.35668509999232,0.13813740388247875,0.13468766374284386,-0.01845649371738784,0.03480539558669315,0.059282892260713586,-0.06562951711869118,-0.055583463487167833,-0.08073409345884928,0.04128847240070113,-0.022126528891735244,0.06127146107116597,0.0851337880765395
372,22.36059969999769,0.13829554933502486,0.13495717266893117,-0.018755355399428186,0.03455168763751595,0.05891535687599773,-0.06544034360243964,-0.05568217647558448,-0.08045147105370225,0.04167499659867561,-0.021168540808205513,0.06266065149404254,0.08438356401310693
373,22.364293599996017,0.13845253677401442,0.13522500845847593,-0.01905335037223133,0.03429753948820556,0.05854912478262595,-0.0652494152168489,-0.05577653375176578,-0.08016258932573753,0.04205810301337959,-0.020216343085013824,0.06401656672284242,0.08363491427185843
374,22.368356899998616,0.1386083642372915,0.13549117711997855,-0.01935047066858717,0.03404297094195442,0.058184224179029916,-0.06505674753170182,-0.05586656210442827,-0.0798676001299662,0.042437799059855875,-0.019270103271767355,0.06533916369968784,0.08288794159504392
375,22.37277929999982,0.13876302985273034,0.1357556847889539,-0.01964670839221155,0.033788001678046325,0.05782068257068482,-0.06486235608189593,-0.05595228908470151,-0.07956665549456778,0.04281409261893288,-0.018329987381248143,0.06662840928051401,0.08214274721227532
376,22.376925299991854,0.1389165318376623,0.13601853772476943,-0.019942055717582303,0.033532651248390256,0.057458526769430716,-0.06466625636533602,-0.05603374299544192,-0.07925990757684782,0.04318699202893046,-0.01739615915761057,0.06788427968652926,0.08139943037741125
377,22.38098699999682,0.13906886849828723,0.13627974230748072,-0.020236504889765805,0.033276939074130346,0.0570977828929735,-0.06446846384086896,-0.056110952881227624,-0.07894750862186323,0.04355650607593398,-0.01646878048003157,0.06910676028458647,0.08065808784254107
378,22.384950399995432,0.1392200382290694,0.13653930503466494,-0.020530048224234192,0.033020884442270956,0.056738476364583575,-0.06426899392626498,-0.056183948521353874,-0.07862961092038297,0.04392264398070256,-0.015548010739769072,0.07029584511163821,0.07991881314095776
379,22.38923709999653,0.1393700395121181,0.13679723251825368,-0.0208226781066735,0.032764506502350514,0.05638063191298025,-0.06406786199627189,-0.05625276041414625,-0.07830636677185063,0.04428541538240339,-0.014634005925603601,0.0714515361798051,0.07918169621579947
380,22.39341209999111,0.13951887091655335,0.13705353148136545,-0.021114386992783132,0.032507824263209674,0.05602427357236823,-0.0638650833807447,-0.05631741976161475,-0.0779779284486834,0.044644830322132976,-0.01372691869757954,0.0725738434395992,0.07844682328774709
381,22.397752399992896,0.1396665310978569,0.13730820875513874,-0.02140516740806694,0.032250856589805116,0.05566942468264763,-0.0636606733628502,-0.056377958454439554,-0.07764444815957,0.045000899225444785,-0.01282689780135147,0.07366278441422669,0.07771427673257707
382,22.401933599991025,0.1398130187972089,0.13756127127556647,-0.02169501194761632,0.031993622200114646,0.0553161078897852,-0.06345464717735584,-0.056434409051283586,-0.07730607801710508,0.04535363288475366,-0.011934087592638368,0.07471838328487267,0.07698413521278832
383,22.40589699998964,0.1399583328408107,0.13781272608033243,-0.02198391327588568,0.03173613966213968,0.05496434514631954,-0.06324702000899488,-0.05648680475944101,-0.0769629700094299,0.045703042443063994,-0.011048628146952606,0.07574067048821956,0.0762564739420268
384,22.409870499992397,0.14010247213919416,0.13806258030565036,-0.022271864126460632,0.031478427390986836,0.05461415771199097,-0.06303780699090364,-0.05653517941515059,-0.07661527597153764,0.046049139378785894,-0.010170654527976972,0.07672968275364983,0.07553136497453015
385,22.414048799997545,0.1402454356865179,0.1383108411831061,-0.02255885730181921,0.031220503646049978,0.05426556615450847,-0.06282702320312512,-0.056579567457571325,-0.07626314755657472,0.04639193549210324,-0.009300295836302668,0.07768546244419954,0.07480887755280204
386,22.418171599987545,0.1403872225598508,0.1385575160365037,-0.022844885673086398,0.030962386528329163,0.0539185903504413,-0.06261468367117065,-0.0566200039004197,-0.07590673621315706,0.046731442892960856,-0.008437675282752126,0.07860805664156928,0.07408907848156249
387,22.422416499990504,0.14052783191844387,0.1388026122787157,-0.02312994217978224,0.030704093977871372,0.053573249486192825,-0.06240080336463298,-0.05665652430661408,-0.0755461931650167,0.04706767399084324,-0.0075829106640899,0.0794975170738125,0.07337203244363018
388,22.42693869999493,0.14066726300299037,0.13904613740853808,-0.023414019829563728,0.03044564377132072,0.053229562059077765,-0.062185397195841215,-0.05668916476425075,-0.07518166938897752,0.04740064148564276,-0.006736114142975076,0.08035390018840954,0.07265780221054989
389,22.431317099995795,0.14080551513487535,0.13928809900755038,-0.023697111697960623,0.030187053519578292,0.052887545878496894,-0.06196848001855719,-0.05671796185924133,-0.0748133155939354,0.04773035835935948,-0.005897391297250828,0.08117726718821505,0.07194644878856636
390,22.435254299998636,0.14094258771541449,0.1395285047369814,-0.023979210928105465,0.029928340665601922,0.05254721806720603,-0.06175006662670609,-0.056742952642617715,-0.07444128219850611,0.04805683786830068,-0.005066840827526513,0.08196768370263312,0.07123803144181326
391,22.439437799999723,0.14107848022508343,0.13976736233458087,-0.024260310730457823,0.02966952248236423,0.052208595062694575,-0.06153017175314398,-0.0567641746005025,-0.07406571931300453,0.04838009353499219,-0.004244554959032425,0.08272521942218773,0.07053260751405888
392,22.443431599996984,0.14121319222273812,0.14000467961149773,-0.02454040438252305,0.029410616070926283,0.05187169261861886,-0.06130881006846219,-0.05678166562507909,-0.07368677672042546,0.048700139138752145,-0.003430619368463581,0.08344994864655454,0.0698302321216514
393,22.448272099994934,0.14134672334482654,0.14024046444916488,-0.024819485228565637,0.02915163835866041,0.05153652580635417,-0.06108599617984084,-0.05679546398389483,-0.07330460385342454,0.04901698870480177,-0.0026251132575498054,0.08414194988216137,0.06913095838283213
394,22.452190799987875,0.14147907330459278,0.14047472479619155,-0.02509754667931751,0.02889260609760384,0.051203109016638035,-0.06086174462995251,-0.05680560829150219,-0.07291934977896908,0.049330656496930615,-0.0018281096091024634,0.0848013050378305,0.06843483834588547
395,22.46038169998792,0.14161024189127383,0.14070746866526312,-0.025374582211681384,0.028633535862940148,0.05087145596126223,-0.060636069895882674,-0.05681213748109718,-0.07253116318265528,0.04964115701507264,-0.0010396750037876673,0.08542809909553846,0.0677419238620682
396,22.46501770000032,0.14174022896928978,0.14093870413004891,-0.02565058536842921,0.02837444405161159,0.05054157967485914,-0.0604089863880555,-0.05681509077448937,-0.07214019235636196,0.04994850499593313,-0.0002598690715505576,0.08602241912221151,0.06705226740499373
397,22.4686001999944,0.14186903447742794,0.14116843932211826,-0.025925549757895742,0.02811534688107443,0.050213492516706315,-0.060180508449148545,-0.05681450764873697,-0.07174658519158077,0.05025271541803805,0.0005112550329142155,0.08658435401413,0.0663659226325953
398,22.47248959999706,0.14199665842802167,0.14139668242786477,-0.026199469053667074,0.027856260388215592,0.04988720617257371,-0.05995065035297249,-0.05681042781045344,-0.07135048916940114,0.05055380350748642,0.0012736495690124838,0.08711399475294249,0.06568294422688356
399,22.476942199995392,0.14212310090612468,0.14162344168543928,-0.026472336994263993,0.02759720042834232,0.04956273165661958,-0.0597194263033334,-0.05680289117212092,-0.07095205135150545,0.050851784741538175,0.002027272942002861,0.0876114334170274,0.06500338820516821
400,22.48888479999732,0.1422483620686806,0.14184872538169138,-0.026744147382820146,0.027338182674314853,0.04924007931331981,-0.05948685043287971,-0.056791937819722804,-0.07055141837917105,0.05114667485720505,0.0027720897399468756,0.08807676150002479,0.06432731358467632
401,22.493447999993805,0.14237244214368938,0.14207254184911997,-0.02701489408675487,0.02707922261583133,0.04891925881937296,-0.05925293680188615,-0.05677760798872014,-0.07014873647960138,0.05143848987002082,0.003508069781911359,0.0885100686667227,0.06365478423443731
402,22.497586499986937,0.14249534142937034,0.14229489946283214,-0.02728457103744026,0.02682033555877955,0.04860027918557183,-0.05901769939692952,-0.056759942040365205,-0.0697441514762751,0.05172724609952252,0.004235188557391853,0.08891144238643013,0.06298586950622963
403,22.501801099992008,0.14261706029332263,0.14251580663751082,-0.02755317222986194,0.026561536624737914,0.04828314875861412,-0.058781152129440205,-0.05673898043367011,-0.06933780879862117,0.052012960193775284,0.004953426750770616,0.0892809692504385,0.06232064340260097
404,22.505924999990384,0.1427375991716838,0.1427352718243902,-0.02782069172227291,0.026302840750582854,0.04796787522288574,-0.05854330883415431,-0.056714763706057575,-0.06892985348035177,0.052295649147265436,0.005662769143541339,0.0896187361062937,0.061659183049056945
405,22.512468699991587,0.1428569585682866,0.14295330350823957,-0.02808712363584019,0.026044262688166248,0.04765446560228667,-0.058304183267501926,-0.056687332455341966,-0.06852043015879218,0.05257533031149072,0.006363204980451571,0.08992482969201494,0.061001567235804494
406,22.516175199998543,0.14297513905381462,0.14316991020435546,-0.02835246215428399,0.025785817004087202,0.04734292626202043,-0.058063789105962695,-0.0566567273170406,-0.0681096830765499,0.05285202139955317,0.007054728883772003,0.09019933725736501,0.06034787535680269
407,22.52008709999791,0.1430921412649571,0.1433851004555618,-0.02861670152350933,0.02552751807957639,0.047033262910404654,-0.057822139944412196,-0.056622988938016074,-0.06769775607517806,0.05312574048707284,0.007737340926573634,0.0904423472230838,0.05969818681468666
408,22.52447619999293,0.14320796590356338,0.1435988828292185,-0.028879836051230144,0.025269380110508236,0.046725480600718385,-0.05757924929446917,-0.056586157953119255,-0.06728479259083199,0.053396506011353206,0.00841104586472984,0.09065394896092062,0.05905258082516046
409,22.529375799989797,0.1433226137357979,0.14381126591423857,-0.029141860106585826,0.02501141710749829,0.04641958373305228,-0.05733513058284952,-0.05654627496583622,-0.06687093564993887,0.05366433677051084,0.009075853356177306,0.09083423312278166,0.058411136654058976
410,22.533639999994197,0.1434360855912956,0.14402225831811347,-0.02940276811975031,0.024753642896091915,0.04611557605619535,-0.057089797149721455,-0.05650338052293143,-0.06645632786185224,0.05392925192480296,0.009731779094802287,0.09098329123909579,0.05777393426189375
411,22.539233999996213,0.1435483823623184,0.14423186866394747,-0.029662554581533628,0.02449607111709294,0.04581346066955222,-0.056843262247047416,-0.05645751508475297,-0.06604111141818479,0.05419127100163575,0.010378844298571568,0.09110121465703089,0.05714105527437972
412,22.543461499997647,0.14365950500291388,0.14444010558750056,-0.029921214042975857,0.02423871522702318,0.04551324002503591,-0.05659553903689352,-0.056408719004544236,-0.06562542809514706,0.05445041390574375,0.011017074429247061,0.0911880947237563,0.05651258410160326
413,22.547569799993653,0.14376945452807588,0.14464697773423998,-0.030178741114933263,0.023981588498639766,0.04521491592896377,-0.05634664058967864,-0.05635703251042619,-0.06520941925120871,0.05470670093440565,0.01164649933840074,0.09124402274998733,0.05588860855120655
414,22.553362099992228,0.14387823201290773,0.14485249375640047,-0.030435130467656276,0.02372470402155902,0.044918489543971624,-0.056096579882345086,-0.05630249568337733,-0.06479322582976973,0.05496015279321632,0.012267153011334443,0.09126908898532346,0.0552692197373825
415,22.55776119999064,0.1439858385917887,0.1450566623100532,-0.03069037683035895,0.023468074702974615,0.044623961390885314,-0.05584536979646381,-0.056245148441551505,-0.0643769883661673,0.0552107906104726,0.01287907283565547,0.09126338309429713,0.05465451178308176
416,22.561884399998235,0.1440922754575438,0.1452594920521832,-0.03094447499077966,0.02321171326842446,0.044331331350570935,-0.05559302311627391,-0.05618503052492898,-0.06396084698600506,0.055458635950229235,0.013482299930436158,0.09122699510721419,0.054044581148026044
417,22.566096899987315,0.14419754386061712,0.14546099163777504,-0.031197419794732673,0.022955632262648885,0.04404059866582163,-0.05533955252666875,-0.056122181476632074,-0.06354494140348776,0.05570371082055575,0.014076879292560547,0.09116001509074328,0.05343952552180174
418,22.570128299994398,0.14430164510824947,0.14566116971690754,-0.031449206145650485,0.02269984405052792,0.043751761943223,-0.05508497061116013,-0.056056640626241466,-0.06312941092275501,0.05594603767649671,0.014662859650374671,0.09106253340450962,0.05283944307454629
419,22.574031599986483,0.14440458056366037,0.1458600349318565,-0.031699829004116824,0.022444360818091636,0.043464819155027756,-0.05482928984983744,-0.05598844707244664,-0.06271439443387554,0.05618563942149438,0.015240293792757131,0.09093464106653062,0.05224443231447319
420,22.577489599992987,0.14450635164523482,0.14605759591420642,-0.031949283387390365,0.022189194573615692,0.04317976764105765,-0.05457252261731883,-0.05591763966336086,-0.06230003041084799,0.05642253940904952,0.015809238788749777,0.09077642978965932,0.05165459200571411
421,22.580967999994755,0.14460695982571525,0.1462538612819706,-0.03219756436891905,0.021934357148811194,0.042896604110596356,-0.05431468118069523,-0.055844256977168424,-0.06188645690726281,0.05665676144339474,0.016369755768342417,0.09058799220156048,0.05107002101825422
422,22.586268399987603,0.14470640663139925,0.14644883963672015,-0.03244466707784507,0.02167986020009675,0.042615324644330974,-0.05405577769747539,-0.05576833730443905,-0.061473811552296705,0.05688832977978659,0.016921910068406362,0.09036942096668392,0.05049081836337902
423,22.58987409999827,0.14480469364134305,0.14664253956072182,-0.0326905866985004,0.021425715209949646,0.04233592469628144,-0.05379582421352719,-0.05568991862744413,-0.06106223155438268,0.05711726912550222,0.017465771305853684,0.09012080834675205,0.049917083344745525
424,22.59366959999897,0.14490182248657155,0.14683496961408454,-0.03293531846989303,0.02117193348836654,0.04205839909570857,-0.05353483266101364,-0.05560903860180381,-0.06065185370121311,0.05734360464150932,0.01800141235371959,0.08984224678625079,0.04934891586092018
425,22.597612499987008,0.1449977948492952,0.14702613833191472,-0.033178857685183714,0.020918526174382026,0.04178274204904343,-0.05327281485631894,-0.05552573454514205,-0.06024281435806977,0.05756736194622212,0.018528908462851965,0.08953382883968869,0.04878641690812149
426,22.602623699989635,0.14509261246213384,0.14721605422148032,-0.03342119969115321,0.020665504237632814,0.0415089471418106,-0.05300978249795023,-0.05544004342674445,-0.059835249468490316,0.05778856712175668,0.019048337920382692,0.08919564728120348,0.048229689091800663
427,22.606684099999256,0.14518627710734783,0.14740472575938374,-0.033662339887659924,0.02041287847997061,0.0412370073405515,-0.052745747164406574,-0.055352001850207604,-0.05942929455159867,0.058007246722352794,0.019559782378970166,0.08882779532377881,0.0476788368829699
428,22.610705099999905,0.1452787906160766,0.14759216138874343,-0.03390227372708774,0.020160659537184544,0.04096691499477198,-0.05248072031200392,-0.05526164604009406,-0.05902508470077207,0.05822342778296716,0.020063325503478623,0.08843036665577682,0.04713396627120371
429,22.61434679999365,0.14537015486758553,0.1477783695163845,-0.034140996713783796,0.01990885788073577,0.04069866183887778,-0.052214713272665705,-0.05516901183692479,-0.05862275458063827,0.05843713782453044,0.02055905370268785,0.08800345609974332,0.046595184096904246
430,22.61864770000102,0.1454603717885203,0.14796335851003808,-0.034378504403486165,0.019657483819525565,0.04043223899414954,-0.05194773725169986,-0.0550741346771605,-0.058222438419733895,0.05864840485645028,0.021047057665209166,0.08754715950263935,0.04606259754764344
431,22.62457229998836,0.1455494433521699,0.14814713669554982,-0.034614792402741366,0.01940654750181251,0.04016763697074524,-0.05167980332556661,-0.054977049574185595,-0.057824270008502765,0.05885725737727471,0.02152743122571406,0.08706157336998321,0.04553631397507015
432,22.62848609998764,0.14563737157773843,0.14832971235409756,-0.034849856368311685,0.01915605891715403,0.03990484566969342,-0.051410922439649384,-0.05487779110863018,-0.05742838269529112,0.059063724375525206,0.02200027088980377,0.08654679537784736,0.04501644084135877
433,22.632605499995407,0.14572415852962584,0.14851109371941806,-0.035083692006572346,0.01890602789841184,0.03964385438493215,-0.05114110540601505,-0.05477639341368754,-0.05703490937967624,0.0592678353298717,0.02246567619932168,0.08600292440939462,0.044503085544784785
434,22.63761209999211,0.14580980631671805,0.14869128897504322,-0.035316295072898414,0.0186564641238274,0.03938465180536313,-0.05087036290118322,-0.05467289016210422,-0.05664398250812837,0.05946962020837477,0.022923749951738286,0.08543006099405596,0.043996355601824855
435,22.64117709999846,0.14589431709168663,0.14887030625154554,-0.035547661371041615,0.01840737711914603,0.03912722601693021,-0.05059870546389341,-0.0545673145494966,-0.05625573406333382,0.059669109470321516,0.023374598127412636,0.08482830789285004,0.0434963587580947
436,22.64531629999692,0.1459776930502982,0.1490481536237933,-0.035777786752496876,0.018158776259844505,0.03887156450477086,-0.050326143492857585,-0.054459699282004406,-0.05587029555451842,0.059866334066479586,0.023818328572472444,0.08419776954993004,0.04300320281384552
437,22.64948719998938,0.1460599364307345,0.1492248391082157,-0.03600666711585865,0.0179106707733678,0.03861765415538296,-0.05005268724452499,-0.05435007657162023,-0.055487798011772796,0.060061325439341444,0.024255050486571495,0.08353855212854024,0.0425169961089368
438,22.653437999993912,0.14614104951292223,0.14940037066007772,-0.036234298406167056,0.01766306974139928,0.038365481258828014,-0.049778346830832494,-0.054238478128515,-0.05510837197604793,0.060254115527801674,0.024684874569157935,0.08285076402326003,0.042037848209087146
439,22.66285599999537,0.1462210346178737,0.14957475617076535,-0.03646067661424371,0.01741598210216742,0.038115031510989196,-0.04950313221692675,-0.05412493515503345,-0.05473214748880845,0.060444736773660274,0.025107913092790257,0.0821345155678037,0.04156587053615449
440,22.668433099999675,0.1462998941070378,0.14974800346508113,-0.03668579777601707,0.01716941665277079,0.03786629001586894,-0.04922705321885523,-0.054009478337350925,-0.054359254084693186,0.060633222132048505,0.02552427950087324,0.08138991833976551,0.041101177292364864
441,22.673215499991784,0.1463776303816619,0.1499201202985503,-0.036909657971837206,0.01692338205156085,0.037619241287913906,-0.04895011950119328,-0.05389213784313771,-0.053989820787509676,0.06081960508636173,0.02593408738287378,0.08061708512407666,0.04064388571656764
442,22.6767519999994,0.14645424588216444,0.15009111435473754,-0.037132253325779525,0.016677886820488243,0.037373869254349115,-0.04867234057459897,-0.05377294332256253,-0.05362397610322801,0.06100391966102247,0.026337451206277843,0.07981613046112596,0.04019411494070087
443,22.681150399992475,0.14652974308751823,0.15026099324257436,-0.037353580004937215,0.016432939347476444,0.03713015725756681,-0.04839372579332373,-0.053651923899280966,-0.0532618480109761,0.061186200425983495,0.02673448730438343,0.07898717057444134,0.039751984233667166
444,22.690636499988614,0.14660412451464483,0.15042976449369766,-0.03757363421870227,0.01618854788885023,0.03688808805754274,-0.04811428435272616,-0.05352910816242967,-0.05290356395669314,0.061366482493473935,0.027125313912758454,0.07813032326082921,0.039317611876662925
445,22.694389599986607,0.14667739271781988,0.15059743555979924,-0.03779241221803528,0.015944720571782364,0.03664764383428287,-0.04783402528681232,-0.053404524157282286,-0.05254925084512686,0.06154480151224467,0.027510051462063406,0.07724570814595859,0.03889111481591877
