,time,x,y,z,vx,vy,vz,ax,ay,az,jx,jy,jz
0,6.7984226999979,-0.020529844506458138,0.0019367012638380175,-0.0716905568782248,0.009732364660309464,0.002402327400707176,0.005838488821095001,0.0005363283054093486,0.0045534865273228215,-0.057441927936023776,0.011615546194501516,0.022123919705897454,-0.02383012415553028
1,6.8025458000047365,-0.020486712314047667,0.001947391373455588,-0.07166524880014287,0.009734855333078213,0.0024227224465464305,0.005583712971363442,0.0005910937738743731,0.004653519504939547,-0.05754916979657757,0.01310151567129008,0.023023674373039742,-0.024578775921164503
2,6.8070401000004495,-0.020443568547031925,0.0019581728416219186,-0.0716410707608371,0.009737603277700992,0.0024435696016706595,0.005328454550579372,0.0006524415701475814,0.004757535743062178,-0.05765975936767483,0.014586262175382853,0.023921691942031722,-0.025340914452079633
3,6.811264799995115,-0.020400412000735273,0.0019690477108736193,-0.07161802493159208,0.009740637650381148,0.002464886500011352,0.005072698591639972,0.000720365727135696,0.004865527475554604,-0.057773755743906634,0.016069538733919343,0.024817941663357768,-0.026116236440997666
4,6.815164100000402,-0.020357241341341033,0.001980018101812134,-0.07159611355059622,0.009743987578455335,0.002486690740784222,0.0048164298685561754,0.0007948591844180937,0.004977486800856984,-0.05789121667016732,0.017551098852391655,0.02571239315041369,-0.02690443618839143
5,6.819315000000643,-0.02031405510603014,0.001991086212948575,-0.0715753389240757,0.00974768215555334,0.0025089998878925312,0.004559632902456269,0.000875913790323562,0.005093405683529417,-0.05801219853176066,0.019030696554729797,0.02660501636454833,-0.027705205542599656
6,6.8234988000040175,-0.020270851703141222,0.00200225432054593,-0.07155570342740168,0.009751750436766956,0.002531831469337244,0.004302291967631773,0.0009635203044482413,0.005213275955792035,-0.05813675634256144,0.020508086408059626,0.027495781607240092,-0.028518233740281257
7,6.829419200003031,-0.02022762941235206,0.0020135247784586674,-0.07153720950617075,0.009756221433832129,0.002555202976633999,0.004044391097645966,0.0010576683999518007,0.005337089318999337,-0.058264943733707664,0.02198302340818904,0.02838465947000741,-0.029343207526074826
8,6.833536100006313,-0.020184386384882375,0.0020249000179697768,-0.07151985967725795,0.009761124110318176,0.0025791318642363285,0.0037859140914799777,0.0011583466650604926,0.0054648373447363586,-0.058396812942822604,0.023455262984532953,0.029271620724730423,-0.03017981115264951
9,6.837190699996427,-0.020141120643717925,0.002036382547625263,-0.07150365652984271,0.009766487376823256,0.0026036355489623478,0.0035268445197368355,0.0012655426054069756,0.005596511475320972,-0.058532414802707454,0.024924561049828056,0.030156636220511873,-0.031027726619938616
10,6.841755600005854,-0.020097830083855867,0.0020479749530661045,-0.07148860272640697,0.009772340086184323,0.002628731409422425,0.0032671657308877716,0.0013792426459739709,0.005732103023985978,-0.05867179873268364,0.026390673880782076,0.031039676814554246,-0.03188663367503785
11,6.846208599992679,-0.02005451247257131,0.002059679896857676,-0.07147470100370572,0.009778711028689824,0.0026544367854474827,0.003006860857552994,0.0014994321323763295,0.005871603174768799,-0.05881501272728454,0.02785335821765792,0.0319207132862139,-0.032756209533154355
12,6.851158399993437,-0.020011165449705097,0.002071500118316639,-0.07146195417370943,0.009785628927301015,0.002680768977515693,0.0027459128228482193,0.001626095333687261,0.006015002981931868,-0.05896210334512469,0.029312371468433254,0.032799716214238016,-0.03363612915676335
13,6.857012399996165,-0.019967786527972722,0.0020834384333352856,-0.07145036512451838,0.009793122432889705,0.0027077452461756408,0.002484304346764089,0.0017592154455297816,0.006162293368764324,-0.059113115700065555,0.030767471768762714,0.033676655780494835,-0.034526065335311704
14,6.8620833000022685,-0.019924373093294315,0.002095497734203315,-0.07143993682124858,0.00980122011948697,0.002735382811462398,0.002222017952590996,0.001898774593434364,0.006313465125262945,-0.05926809345079113,0.032218418176464085,0.034551501555699436,-0.03542568848583219
15,6.865918399998918,-0.019880922405145655,0.0021076809894270015,-0.07143067230688907,0.009809950479550657,0.002763698852300135,0.0019590359733908888,0.002044753837654034,0.006468508905034819,-0.0594270787902066,0.033664970965389715,0.03542422245704777,-0.03633466649346041
16,6.870899999994435,-0.019837431596930112,0.002119991243545679,-0.07142257470313056,0.009819341919256772,0.0027927105058907454,0.0016953405585160535,0.002197133179126481,0.006627415222602806,-0.05959011243360055,0.035106891794889204,0.03629478690954656,-0.0372526646516767
17,6.874812900001416,-0.019793897676371384,0.0021324316169454897,-0.07141564721116493,0.009829422753819818,0.002822434867092575,0.001430913680185831,0.0023558915657910314,0.0067901744517380085,-0.059757233607514,0.03654394375484225,0.037163163087784556,-0.038179346080933034
18,6.878430500000832,-0.019750317525926913,0.0021450053056703607,-0.07140989311245559,0.009840221202840175,0.0028528889877942674,0.0011657371401040475,0.0025210068989498656,0.00695677682490795,-0.05992848004161269,0.03797589141532914,0.03802931914264751,-0.03911437210741252
19,6.884506000002148,-0.01970668790322186,0.0021577155812302056,-0.07140531576947833,0.009851765385680812,0.002884089876288606,0.0008997925761077649,0.002692456040025202,0.007127212433618327,-0.06010388796091298,0.03940250089637707,0.03889322338076875,-0.04005740222319244
20,6.888953699992271,-0.019663005441503487,0.0021705657904063516,-0.07140191862643272,0.009864083316874552,0.002916054496649386,0.0006330614688536099,0.002870214817538645,0.007301471229451584,-0.060283492077301035,0.040823539853184945,0.03975484439789322,-0.041008094185916034
21,6.893234699993627,-0.019619266650115846,0.002183559355054217,-0.07139970520992378,0.00987720290156264,0.0029487997681144594,0.0003655251485416864,0.0030542580337374232,0.007479543025590614,-0.06046732558264204,0.04223877737636263,0.04061415116913656,-0.041966104058652094
22,6.898820500005968,-0.019575467914994583,0.0021966997719032725,-0.07139867912961373,0.009891151930960735,0.0029823425644761132,9.716480166297468e-05,0.003244559470689599,0.00766141749865726,-0.060655420140652706,0.04364798391209137,0.0414711131287798,-0.042931085990613065
23,6.9068935999966925,-0.0195316054991818,0.0022099906123543137,-0.07139884407884385,0.009905958077851494,0.0030166997134804083,-0.00017203852220472617,0.0034410918962027226,0.007847084190943206,-0.060847805878067054,0.04505093118252721,0.042325700226946934,-0.043902692237088
24,6.911024400003953,-0.019487675543360825,0.0022234355222741004,-0.07140020383522605,0.00992164889210302,0.003051887996237328,-0.00044210390357110434,0.00364382706921361,0.008036532512750789,-0.06104451137668557,0.04644739210598363,0.043177882932724315,-0.04488057301988148
25,6.915114200004609,-0.019443674066410777,0.002237038221787402,-0.0714027622612042,0.009938251796209217,0.003087924146640863,-0.0007130505461669282,0.0038527357449996097,0.00822975174465153,-0.06124556366330412,0.04783714082179977,0.04402763222731415,-0.04586437646751632
26,6.920295000003534,-0.019399596965980866,0.0022508025050664957,-0.07140652330458487,0.009955794080854417,0.003124824850799176,-0.0009848977700290967,0.004067787680788776,0.008426731039766273,-0.061450988201233174,0.04921995271536376,0.044874919580331483,-0.04685374909369773
27,6.923741599995992,-0.01935544001908427,0.0022647322401181625,-0.07141149099903735,0.00997430290050346,0.0031626067464748954,-0.0012576650045590702,0.004288951641192907,0.008627459425813649,-0.061660808884467115,0.05059560433336971,0.045719716853278615,-0.0478483362956985
28,6.928048400004627,-0.01931119888271151,0.0022788313685682252,-0.07141766946456286,0.009993805269014472,0.0032012864225334347,-0.0015313717815562463,0.004516195403066679,0.00883192580653474,-0.06187504803362044,0.05196387334388728,0.0465619961512454,-0.048847782294572005
29,6.932031399992411,-0.019266869094463214,0.002293103905443655,-0.0714250629079329,0.010014328055272003,0.0032408804183959106,-0.001806037728240375,0.0047494857605867935,0.00904011896242723,-0.06209372638956725,0.05332453856123031,0.04740172968897144,-0.049851730095281606
30,6.935951799998293,-0.019222446073202195,0.0023075539389522596,-0.07143367562309656,0.010035897978844828,0.0032814052234939706,-0.0020816825602285637,0.004988788530331515,0.009252027550983038,-0.06231686310902403,0.05467737987636433,0.04823888971484369,-0.05085982206483019
31,6.941396199996234,-0.019177925119724697,0.0023221856302599606,-0.0714435119915566,0.010058541605664101,0.003322877276724817,-0.0023583260745185445,0.005234068555743048,0.009467640106748887,-0.06254447576331292,0.05602217828672246,0.04907344848967793,-0.051871699533524725
32,6.945106600003783,-0.019133301417450774,0.00233700321326565,-0.07145457648271464,0.010082285343720698,0.00336531296590657,-0.0026359881424547183,0.005485289712471318,0.009686945041375883,-0.06277658033041061,0.05735871598580717,0.049905378283047336,-0.05288700249596889
33,6.948813800001517,-0.01908857003313367,0.002352010994373641,-0.07146687365418487,0.010107155438790736,0.0034087286272337335,-0.0029146887026409557,0.005742414913630457,0.00990993064364755,-0.06301319119106169,0.05868677622378525,0.05073465139319119,-0.05390537042846223
34,6.952871600005892,-0.019043725917588076,0.0023672133522636986,-0.07148040815207644,0.010133177970179503,0.0034531405447328044,-0.003194447753872194,0.0060054061139070926,0.010136585079705851,-0.06325432112807179,0.060006143217710105,0.051561240215498405,-0.05492644206963531
35,6.958658699993976,-0.018998763906437243,0.0023826147376586654,-0.07149518471124452,0.010160378846483385,0.0034985649497197417,-0.0034752853480409743,0.0062742243140211686,0.010366896393686167,-0.06349998132047675,0.06131660226616822,0.05238511733726032,-0.055949855101499225
36,6.962790000005043,-0.01895367872087879,0.002398219673089685,-0.0715112081555098,0.010188783801373327,0.003545018020261205,-0.0037572215830173625,0.006548829565850302,0.010600852508783067,-0.06375018134000912,0.06261793988888206,0.05320625563422819,-0.056975246588055535
37,6.968068400004995,-0.018908464968469176,0.0024140327526590523,-0.0715284833978465,0.010218418389402182,0.003592515880641468,-0.0040402765955241705,0.006829180978127847,0.010838441228741034,-0.06400492914915447,0.06390994393621108,0.05402462835345111,-0.058002253134802076
38,6.975856999997632,-0.01886311714392669,0.0024300586418007117,-0.07154701544053865,0.010249307981838669,0.003641074600836868,-0.0043244705539996495,0.007115236722537707,0.0110796502396544,-0.06426423109903155,0.06519240373381206,0.05484020918679941,-0.05903051066938686
39,6.979716200003168,-0.018817629629952825,0.0024463020770384503,-0.07156680937530494,0.010281477762528732,0.0036907101959986724,-0.004609823651453926,0.00740695404069447,0.011324467112109679,-0.06452809192550465,0.06646511019231656,0.055652972351974556,-0.060059654481491156
40,6.983705799997551,-0.018771996698071954,0.002462767865741814,-0.07158787038339162,0.010314952723791368,0.0037414386259465157,-0.00489635609829724,0.007704289251210242,0.01157287930370345,-0.06479651474741721,0.06772785581219014,0.056462892649169726,-0.06108931970135468
41,6.988438500004122,-0.018726212509489082,0.0024794608858798094,-0.0716102037356338,0.010349757662342614,0.0037932757946735787,-0.005184088115180726,0.008007197756717849,0.01182487416168686,-0.06506950106694512,0.06898043479848821,0.05726994549533549,-0.06211914110031309
42,6.993067699993844,-0.018680271115965635,0.0024963860857724353,-0.07163381479248494,0.010385917175253617,0.003846237549863464,-0.005473039925827781,0.008315634051954703,0.01208043892578718,-0.0653470507660626,0.07022264315545011,0.05807410696846189,-0.06314875301113673
43,6.998395899994648,-0.018634166460713045,0.0025135484838401034,-0.07165870900401455,0.010423455655946266,0.0039003396824203816,-0.0057632317498435255,0.008629551731624352,0.012339560731244767,-0.06562916210618955,0.07145427867156799,0.05887535383680331,-0.06417778996597227
44,7.001965499992366,-0.01858789237930402,0.0025309531683510053,-0.07168489190987402,0.010462397290220934,0.003955597926012939,-0.006054683795543048,0.00894890349834802,0.012602226611893632,-0.06591583173031114,0.07267514094461061,0.059673663558905125,-0.06520588651686726
45,7.006869299992104,-0.01854144260060134,0.00254860529716649,-0.07171236913923072,0.010502766052322586,0.004012027956631629,-0.006347416252779649,0.009273641170747927,0.012868423503198625,-0.06620705466103459,0.0738850312669107,0.06046901426678647,-0.06623267673740982
46,7.011130600003526,-0.01849481074770399,0.0025665100974845098,-0.07174114641067028,0.010544585701040153,0.0040696453921595386,-0.00664144928575586,0.009603715690382184,0.013138138245186972,-0.06650282429829205,0.07508375244589566,0.061261384759033505,-0.06725779446196309
47,7.015285999994376,-0.018447990338910515,0.0025846728655811923,-0.07177122953206698,0.010587879775834108,0.004128465791955814,-0.006936803025831335,0.00993907712823755,0.01341135758542424,-0.06680313241951752,0.07627110864456585,0.062050754500913345,-0.06828087346511566
48,7.019320199993672,-0.018400974788699488,0.0026030989665505955,-0.07180262440042229,0.01063267159299338,0.004188504656452746,-0.007233497564335438,0.010279674690250552,0.013688068181946891,-0.0671079691789402,0.0774469051574114,0.06283710358191608,-0.0693015471426544
49,7.023508900005254,-0.018353757408726922,0.0026217938340427085,-0.07183533700167155,0.010678984241811856,0.00424977742676523,-0.007531552945368864,0.010625456721814286,0.013968256605861953,-0.06741732310493398,0.07861094832560402,0.06362041261170377,-0.07031944847163746
50,7.027588500001002,-0.018306331408840613,0.002640762969999745,-0.07186937341045874,0.010726840580785246,0.004312299484310882,-0.007830989158592743,0.010976370712547917,0.014251909343357414,-0.06773118109895691,0.07976304545210114,0.06440066253889712,-0.07133421022982027
51,7.032369199994719,-0.018258689898111267,0.0026600119443907786,-0.07190473978987921,0.01077626323382985,0.004376086150437321,-0.008131826132020861,0.011332363300051088,0.014539012796695882,-0.06804952843484542,0.08090300458253297,0.06517783442421302,-0.07234546465673998
52,7.037299699994037,-0.018210825885880355,0.0026795463949447315,-0.07194144239119062,0.010827274586512699,0.004441152686051095,-0.008434083724802506,0.011693380272731507,0.014829553284214383,-0.06837234875475008,0.08203063441052144,0.06595190924182506,-0.07335284315454993
53,7.041416599997319,-0.018162732282824647,0.002699372026881722,-0.07197948755349166,0.010879896782295378,0.004507514291244953,-0.008737781719978674,0.01205936657272024,0.015123517039557569,-0.06869962406577845,0.08314574411802411,0.06672286771230894,-0.0743559765073564
54,7.0460277999955,-0.018114401902037353,0.0027194946126427497,-0.07201888170336883,0.010934151718790005,0.004575186104919983,-0.009042939817235156,0.012430266297284333,0.015420890210196974,-0.06903133473787476,0.08424814312121681,0.06749069015875467,-0.07535449478159693
55,7.0506908999959705,-0.01806582746012585,0.002739919991617694,-0.07205963135451092,0.010990061044015578,0.0046441832043997554,-0.009349577625639958,0.01280602269948997,0.01572165885538901,-0.06936745949957981,0.08533764096099264,0.06825535637724477,-0.07634802706691453
56,7.054671599995345,-0.018017001578325993,0.0027606540698715807,-0.0721017431072914,0.011047646152659829,0.004714520605034366,-0.009657714656358807,0.013186578188644632,0.016025808943546323,-0.06970797543361416,0.0864140471483408,0.06901684549343126,-0.07733620117699679
57,7.05899700000009,-0.017967916783632968,0.002781702819869069,-0.07214522364831838,0.011106928182339486,0.004786213259791286,-0.009967370315353427,0.01357187432958991,0.016333326348924693,-0.07005285796998668,0.08747717105957205,0.0697751357851313,-0.0783186436894293
58,7.06277129999944,-0.017918565509948758,0.0028030722801970936,-0.07219007974995227,0.011167928009855861,0.004859276058830034,-0.01027856389603597,0.013961851842215097,0.01664419684742213,-0.07040208088193094,0.08852682189159634,0.07053020443055157,-0.0792949806435653
59,7.067084299997077,-0.017868940099246174,0.0028247685552855828,-0.07223631826979066,0.011230666247450808,0.004933723829055802,-0.010591314571931276,0.014356450600353638,0.01695840611103438,-0.07075561628519868,0.08956280842772585,0.07128202711577371,-0.08026483708203289
60,7.073615799992695,-0.0178190328027495,0.002846797815126143,-0.07228394615012088,0.011295163239052521,0.00500957133364499,-0.010905641389325043,0.014755609629221136,0.017275939700175342,-0.07111343462993279,0.09058493868370818,0.07203057754080633,-0.08122783621324944
61,7.077760600004694,-0.017768835782131807,0.002869166294988573,-0.0723329704173398,0.01136143905650879,0.005086833271530765,-0.011221563259854062,0.015159267101174745,0.017596783053754922,-0.07147550469253851,0.09159301957878507,0.07277582703008402,-0.08218359990989617
62,7.082026799995219,-0.01771834111072897,0.002891880295134988,-0.07238339818134071,0.011429513495795218,0.005165524276840661,-0.011539098953082345,0.015567360330235898,0.01792092147804745,-0.07184179357197412,0.09258685702540256,0.07351774433692228,-0.08313174904795417
63,7.086205500003416,-0.017667540774770587,0.0029149461805313506,-0.07243523663486728,0.011499406073199932,0.0052456589182834894,-0.011858267089058482,0.015979825768644772,0.01824834013503651,-0.07221226668462694,0.09356625628812454,0.07425629557442127,-0.08407190354640595
64,7.090261399993324,-0.01761642667462782,0.0029383703805561617,-0.07248849305283453,0.011571136021501267,0.005327251698483639,-0.01217908613084636,0.016396599004563917,0.018579024030670986,-0.07258688776095583,0.09453102216798288,0.07499144421164548,-0.08500368268629546
65,7.094276400006493,-0.01756499062607818,0.00296215938870609,-0.07254317479161655,0.01164472228613212,0.005410317053263903,-0.012501574377052767,0.01681761476026653,0.018912958003176022,-0.07296561884319491,0.09548095920190867,0.07572315106670015,-0.08592670527020413
66,7.098913499998162,-0.01751322436158737,0.0029863197622983085,-0.07259928928830127,0.011720183521341578,0.0054948693508761895,-0.012825749954337756,0.017242806891607565,0.019250126711247727,-0.07334842028340946,0.09641587167759628,0.07645137425953387,-0.08684058996112723
67,7.102671000000555,-0.01746111953160807,0.003010858122169305,-0.07265684405991181,0.011797538086354592,0.005580922891179719,-0.013151630809925015,0.01767210838634375,0.01959051462194583,-0.07373525074420288,0.0973355634839414,0.07717606911408806,-0.08774495538222081
68,7.107583599994541,-0.017408667705895838,0.0030357811523699357,-0.07271584670259484,0.011876804041518708,0.005668491904764432,-0.013479234704118508,0.018105451362279184,0.019934105998021184,-0.07412606719765667,0.09823983820097118,0.07789718803050033,-0.08863941985762726
69,7.111168400006136,-0.017355860374842037,0.0030610955998564672,-0.07277630489077566,0.011957999144447309,0.00575759055201688,-0.013808579202803442,0.018542767066382356,0.020280884884675804,-0.07452082492374043,0.09912849922418808,0.07861468035935722,-0.08952360163168989
70,7.115159900000435,-0.017302688950823902,0.0030868082741773513,-0.07283822637628004,0.01204114084615852,0.005848232922126289,-0.014139681669948816,0.018983985874033767,0.02063083509577593,-0.07491947751119461,0.10000134982952238,0.07932849227389646,-0.09039711926775576
71,7.119586600005277,-0.017249144769571713,0.0031129260471554577,-0.07290161898742288,0.012126246287211784,0.005940433032028261,-0.014472559260116218,0.019429037288718594,0.020983940199479453,-0.07532197685947498,0.10085819317834654,0.08003856661931906,-0.09125959188738497
72,7.123549700001604,-0.01719521909155308,0.0031394558525654876,-0.07296649062806368,0.012213332293844041,0.006034204825283466,-0.0148072289109796,0.01987784994131874,0.021340183503113487,-0.07572827318175535,0.10169883220263004,0.08074484274575322,-0.09211063921017738
73,7.127838300002622,-0.017140903103374364,0.003166404685806269,-0.07303284927662887,0.01230241537410003,0.006129562170887315,-0.01514370733586069,0.02033035158878769,0.021699548037321426,-0.07613831500722502,0.10252306957523258,0.0814472563718426,-0.09294988155387446
74,7.131973900002777,-0.017086187919199268,0.00319377960356762,-0.07310070298510114,0.012393511713956723,0.00622651886200815,-0.015482011016269129,0.020786469113179263,0.02206201653973155,-0.07655204918409246,0.10333070785940385,0.08214573948264628,-0.09377694029281594
75,7.136100100004114,-0.017031064582184598,0.003221587723491462,-0.07317005987797567,0.012486637173445022,0.006325088614652189,-0.015822156194464504,0.021246128521647437,0.022427571438199227,-0.07696942088594577,0.10412154963831549,0.08284022022795495,-0.09459143807722968
76,7.140225099996314,-0.01697552406593322,0.0032498362238268523,-0.07324092815118352,0.012581807282774193,0.0064252850662531915,-0.016164158866052852,0.02170925494662309,0.02279619483357432,-0.07739037361669988,0.10489539761970067,0.0835306228021451,-0.09539299845441411
77,7.144379699995625,-0.016919557275964177,0.003278532343078595,-0.07331331607098224,0.012679037238455121,0.006527121774184678,-0.01650803477259254,0.022175772646741185,0.023167868481878594,-0.07781484921359975,0.10565205486514853,0.08421686730458866,-0.09618124624775773
78,7.148621899992577,-0.016863155051200004,0.0033076833796490887,-0.07338723197281374,0.012778341899432968,0.006630612214191644,-0.016853799394217384,0.02264560500904967,0.023542573775836,-0.0782427878555266,0.106391324979556,0.0848988696013501,-0.09695580843359411
79,7.152705600004992,-0.016806308165471115,0.0033372966914730416,-0.07346268426012956,0.012879735783230003,0.006735769778739089,-0.017201467942316143,0.023118674551615686,0.023920291725824352,-0.07867412807377233,0.10711301231046896,0.0855765411707548,-0.09771631406148114
80,7.156907600001432,-0.016749007329037304,0.0033673796956446797,-0.07353968140318379,0.01298323306210136,0.006842607775274914,-0.017551055352251134,0.023594902927501146,0.024301002940036946,-0.07910880675963923,0.10781692220712887,0.08624978890765472,-0.09846239415495053
81,7.161162999997032,-0.016691243190126204,0.0033979398680370667,-0.07361823193779383,0.0130888475592131,0.0069511394244026305,-0.01790257627610507,0.024074210929664767,0.02468468760369953,-0.07954675917433478,0.10850286111029207,0.0869185149820351,-0.09919368250852147
82,7.167468800005736,-0.01663300633648866,0.0034289847429131194,-0.0736983444640691,0.013196592744841409,0.007061377857960066,-0.01825604507548737,0.02455651849573368,0.02507132545797882,-0.07998791896363494,0.10917063651742244,0.08758261685900377,-0.09990981614620593
83,7.170956899994053,-0.016574287296970865,0.003460521912527899,-0.07378002764510794,0.013306481732592955,0.007173336117005147,-0.018611475814410954,0.025041744712596972,0.02546089577937661,-0.08043221817184253,0.10982005703232135,0.08824198746822004,-0.10061043502273781
84,7.174556199999643,-0.016515076543103243,0.003492559026721775,-0.07386329020566322,0.013418527275644798,0.007287027149711987,-0.018968882252222267,0.025529807821617158,0.025853377360139873,-0.08087958725380259,0.11045093251974479,0.08889651544433003,-0.1012951820036924
85,7.178139299998293,-0.016455364490705907,0.0035251037925040714,-0.07394814093077665,0.013532741763010928,0.007402463809183052,-0.01932827783658455,0.026020625224594023,0.026248748489785763,-0.08132995508868461,0.11106307424505325,0.08954608531519004,-0.10196370316403655
86,7.182407600004808,-0.016395141501510616,0.0035581639736268398,-0.07403458866438212,0.013649137215835033,0.007519658851181507,-0.019689675696530008,0.026514113490213747,0.02664698693717984,-0.0817832489946438,0.11165629503857337,0.0901905775261303,-0.10261564828695702
87,7.188858099994832,-0.016334397884799106,0.0035917473901484085,-0.07412264230787846,0.013767725283714193,0.007638624931784551,-0.020053088635573032,0.027010188361469428,0.027048069932276125,-0.0822393947470242,0.11223040964942967,0.09082986820064508,-0.10325067128260647
88,7.194356899999548,-0.01627312389905762,0.003625861917986359,-0.07421231081867179,0.013888517241057413,0.007759374604953937,-0.020418529124923684,0.027508764765246062,0.027451974146074413,-0.08269831659673117,0.11278523532867274,0.09146382860353357,-0.1038684299283309
89,7.198528399996576,-0.016211309753647513,0.0036605154884595424,-0.07430360320868805,0.014011523983494267,0.007881920320011674,-0.020786009296763747,0.02800975682490909,0.027858675667602372,-0.08315993728613222,0.11332059230288255,0.09209232456263408,-0.10446858640764263
90,7.202652599997236,-0.01614894561049161,0.0036957160878186845,-0.07439652854285582,0.014136756024344992,0.008006274419006547,-0.021155540937601133,0.02851307787408672,0.028268149978747936,-0.08362417807220618,0.11383630398842177,0.09271521630864735,-0.10505080820716886
91,7.206910099994275,-0.016086021585776097,0.0037314717567650635,-0.07449109593755995,0.014264223491151282,0.008132449133966772,-0.021527135481751097,0.029018640471157327,0.028680371929821813,-0.08409095875039332,0.11433219722068533,0.0933323588615692,-0.10561476791681962
92,7.211946499999613,-0.016022527751667626,0.0037677905899567653,-0.07458731455906659,0.014393936122274784,0.008260456584049935,-0.021900804004902016,0.029526356415063505,0.029095315717814676,-0.08456019767597353,0.11480810251824178,0.09394360257263833,-0.10616014315044904
93,7.215782600003877,-0.015958454138045346,0.003804680735502103,-0.07468519362191978,0.014525903263568033,0.00839030877260295,-0.02227655721778607,0.03003613676214044,0.029512954866762725,-0.08503181178721322,0.11526385427215351,0.09454879351989975,-0.10668661668557775
94,7.219467200004146,-0.015893790734247522,0.0038421503944398167,-0.07478474238731041,0.014660133865122101,0.008522017584137988,-0.02265440545995016,0.03054789184360784,0.029933262209510595,-0.08550571662798186,0.11569929094055137,0.09514777376981055,-0.10719387662262307
95,7.224052299992763,-0.01582852749083238,0.0038802078202056895,-0.07488597016141763,0.014796636478092554,0.008655594781230805,-0.023034358693627036,0.031061531284122736,0.030356209870395418,-0.08598182637231004,0.11611425532267036,0.09574038147147955,-0.10768161660399608
96,7.22805970000627,-0.015762654321352862,0.0039188613180852604,-0.07498888629372343,0.014935419251611518,0.008791052001343207,-0.023416426497723856,0.03157696402170007,0.030781769247844936,-0.0864600538489478,0.11650859469578366,0.09632645083106783,-0.10814953565494981
97,7.231931500005885,-0.01569616110414484,0.00395811924465228,-0.07509350017530081,0.015076489929790198,0.008928400753567154,-0.023800618061910965,0.032094098327479094,0.03120991099683469,-0.08694031056451218,0.1168821607031392,0.09690581215525505,-0.10859733832319501
98,7.236323499993887,-0.015629037684128426,0.003997990007192564,-0.07519982123707598,0.015219855848806117,0.00906765241529175,-0.02418694218081561,0.03261284182465078,0.03164060501187136,-0.0874225067292829,0.11723480921952295,0.09747829206326054,-0.10902473487790867
99,7.240305200000876,-0.015561273874622016,0.0040384820631129146,-0.07530785894806506,0.015365523934073377,0.009208818228796531,-0.02457540724833932,0.03313310150703277,0.032073820411328995,-0.08790655128211365,0.11756640023654809,0.0980437138568019,-0.10943144095100991
100,7.244409000006271,-0.01549285945916867,0.004079603919334779,-0.0754176228135859,0.015513500697494529,0.009351909297779641,-0.02496602125207241,0.03365478375698014,0.03250952552371115,-0.08839235191304855,0.11787679769796092,0.09860189786771978,-0.1098171773778704
101,7.248471999992034,-0.015423784193374505,0.004121364131672399,-0.07552912237344528,0.015663792234789566,0.009496936583829366,-0.025358791767811806,0.03417779436250074,0.03294768787506797,-0.08887981508682172,0.11816586935537915,0.09915266162059332,-0.11018167025705129
102,7.254020799999125,-0.015354037806758761,0.004163771304195206,-0.07564236720010219,0.015816404222899476,0.009643910902840785,-0.025753725954183803,0.03470203853388745,0.03338827417669953,-0.08936884606600314,0.11843348666873044,0.09969581989449648,-0.11052465095015908
103,7.259199099993566,-0.015283610004615198,0.004206834088574204,-0.07575736689680733,0.015971341917462644,0.00979284292137833,-0.026150830547367027,0.03522742091995111,0.033831250313120224,-0.08985934893449699,0.11867952472356041,0.10023118481200007,-0.11084585610168239
104,7.26353399999789,-0.015212490469884526,0.004250561183412132,-0.07587413109571962,0.01612861015036227,0.009943743152985775,-0.02655011185592345,0.03575384562391992,0.03427658133055088,-0.09035122662086327,0.1189038622437124,0.100758565982461,-0.1111450274997627
105,7.267408400002751,-0.01514066886503754,0.004294961333557145,-0.07599266945599993,0.016288213327343676,0.010096621954446794,-0.026951575755728048,0.03628121621978477,0.03472423142615309,-0.09084438092058225,0.11910638172110248,0.10127777068028043,-0.11142191191664638
106,7.2710980999981984,-0.015068134833968667,0.004340043329399833,-0.0761129916618826,0.016450155425706593,0.010251489521999549,-0.027355227684997124,0.03680943576934877,0.03517416393810116,-0.09133871251796205,0.11928696950783982,0.10178860404656474,-0.11167626098885373
107,7.275666799992905,-0.014994878003899557,0.004385816006153354,-0.07623510742072512,0.016614439992073567,0.010408355887509256,-0.02776107263941213,0.03733840683938897,0.03562634133660364,-0.09183412100734108,0.11944551590569266,0.10229086924886852,-0.11190783103788042
108,7.27954960000352,-0.014920887987292403,0.00443228824311653,-0.07635902646103648,0.016781070140234344,0.0105672309146032,-0.0281691151673359,0.03786803151949886,0.03608072521539102,-0.09233050491340658,0.11958191530328263,0.10278436753595041,-0.11211638301039471
109,7.286017099992023,-0.014846154383772634,0.004479468962919732,-0.07648475853048443,0.016950048549072404,0.010728124294767865,-0.028579359365116547,0.03839821144046592,0.036537276283222564,-0.09282776171186707,0.11969606617640106,0.10326889827498328,-0.11230168257802049
110,7.290079900005367,-0.014770666782060616,0.004527367130753382,-0.07661231339388218,0.017121377460572223,0.010891045543408666,-0.028991808872486906,0.03892884779211695,0.03699595435570376,-0.09332578785065522,0.11978787104007874,0.1037442590638603,-0.11246350017695714
111,7.294334899997921,-0.014694414761912007,0.004575991753578917,-0.07674170083115489,0.01729505867790396,0.01105600399587457,-0.029406466868056338,0.039459841341270854,0.03745671834778849,-0.09382447877095139,0.11985723638161933,0.10421024600527731,-0.11260161072907982
112,7.298532899993006,-0.014617387896066428,0.004625351879322059,-0.07687293063528647,0.017471093563589828,0.011223008803451381,-0.029823336064896504,0.03999109244899042,0.03791952626802554,-0.09432372892591477,0.11990407239173602,0.10466665418391681,-0.112715793263133
113,7.302720199993928,-0.014539575752204072,0.004675456596048273,-0.07700601261024691,0.017649483037741675,0.011392068929335362,-0.03024241870619917,0.04052250108615234,0.03838433521528986,-0.09482343179834973,0.11992829269245006,0.10511327815491489,-0.11280583107400603
114,7.306883199998992,-0.014460967894909993,0.004726315031120348,-0.07714095656890058,0.017830227576365345,0.01156319314459755,-0.03066371656101855,0.041053966848287424,0.038851101377358165,-0.09532347992084853,0.1199298141553282,0.10554991229780221,-0.11287151172313402
115,7.310871900001075,-0.014381553887645742,0.004777936350338088,-0.07727777233089586,0.018013327209729788,0.011736390024144762,-0.03108723092010764,0.04158538896953976,0.03931978003077701,-0.09582376489346119,0.1199085567620837,0.10597635105933996,-0.11291262667934167
116,7.315295799999149,-0.014301323294728111,0.004830329757060105,-0.07741646972053653,0.018198781520795126,0.011911667942682735,-0.03151296259181714,0.042116666336271494,0.03979032554159056,-0.0963241774006552,0.11986444363906341,0.10639238910672681,-0.11292897155811528
117,7.319327299992437,-0.014220265683314703,0.004883504491307724,-0.07755705856463506,0.018386589643702343,0.012089035070683582,-0.03194091189808211,0.0426476975013276,0.040262691366566454,-0.09682460723110597,0.11979740115496287,0.10679782145741554,-0.11292034624131307
118,7.323371199992835,-0.014138370625396057,0.004937469828851039,-0.07769954869034838,0.01857675026232777,0.0122684993703598,-0.03237107867049629,0.04317838069850671,0.0407368300550741,-0.09732494329571743,0.11970735885355281,0.10719244357991295,-0.11288655457781023
119,7.327789899994968,-0.01405562769979403,0.004992235080277142,-0.07784394992299645,0.018769261608901026,0.01245006859164837,-0.032803462246458436,0.04370861385622966,0.04121269325120389,-0.09782507364475944,0.11959424939302765,0.10757605139870774,-0.11282740432422231
120,7.33182079999824,-0.013972026494166172,0.0050478095900405836,-0.07799027208386386,0.01896412146268064,0.012633750268203547,-0.033238061465398566,0.044238294611472745,0.04169023169568916,-0.09832488548536304,0.11945800861902357,0.1079484412694653,-0.11274270742398357
121,7.340213200004655,-0.013887556607015844,0.005104202735496089,-0.0781385249879849,0.019161327148695482,0.01281955171339799,-0.033674874665079325,0.04476732032408346,0.042169395227805564,-0.09882426520113126,0.1192985756196993,0.10830940996891449,-0.11263228008645704
122,7.34442379999382,-0.013802207649707752,0.005161423925913578,-0.07828871844191246,0.01936087553654725,0.013007480016332392,-0.034113899677996024,0.04529558809120189,0.04265013278720341,-0.09932309837033544,0.11911589284959526,0.10865875469996794,-0.11249594218906861
123,7.3486509999929694,-0.013715969248488667,0.005219482601475515,-0.07844086224147113,0.01956276303927972,0.013197542037852847,-0.034555133827839285,0.04582299476267413,0.043132392415852414,-0.09982126978022741,0.1189099061671749,0.10899627319137675,-0.11233351729772144
124,7.352941699995426,-0.01362883104651299,0.005278388232256637,-0.0785949661694948,0.01976698561231783,0.013389744406577713,-0.034998573926021924,0.04634943695580643,0.043616121260757236,-0.10031866344541678,0.11868056469312305,0.10932176393810865,-0.1121448331451739
125,7.356922799997847,-0.013540782705872877,0.005338150317186085,-0.07875103999354893,0.01997353875246769,0.013584093514939046,-0.03544421626830446,0.046874811069522744,0.04410126557803261,-0.10081516262642269,0.1184278207479368,0.10963502646940013,-0.1119297212317232
126,7.3609748000017134,-0.013451813909632654,0.005398778382992053,-0.07890909346363828,0.020182417496981155,0.013780595515245584,-0.035892056631486424,0.047399013298565794,0.044587770737994484,-0.10131064984451223,0.11815162979701609,0.1099358615492744,-0.11168801664613547
127,7.365290500005358,-0.013361914363867241,0.005460281983129027,-0.07906913630989987,0.020393616422681664,0.013979256315769295,-0.03634209027016336,0.04792193964716797,0.045075581231012296,-0.10180500689866512,0.11785195045795221,0.11022407139328572,-0.11141955842476732
128,7.370456100004958,-0.013271073799704316,0.005522670696687748,-0.07923117824028189,0.020607129645149987,0.01418008157686023,-0.03679431191356848,0.04844348594331697,0.04556464067452101,-0.10229811488359485,0.11752874458066036,0.11049945992153747,-0.11112418943158635
129,7.373755699998583,-0.01317928197536995,0.005585954127288023,-0.07939522893820877,0.020822950817976506,0.01438307670709522,-0.03724871576248942,0.048963547853136904,0.04605489182111579,-0.10278985420565008,0.11718197720730787,0.1107618330028773,-0.11080175611903365
130,7.3777342999965185,-0.013086528678237402,0.005650141901954551,-0.07956129806023271,0.021041073132074397,0.014588246859464462,-0.03770529548625078,0.0494820208947988,0.046546276567728216,-0.10328010459871638,0.11681161654219363,0.1110109986941777,-0.11045210864764035
131,7.3818887999950675,-0.012992803726878836,0.005715243669975941,-0.07972939523367199,0.021261489315055202,0.014795596927601544,-0.03816404421977182,0.04999880045263474,0.047038735965841634,-0.10376874514117775,0.11641763389004203,0.11124676745085284,-0.11007510086623164
132,7.385990700000548,-0.012898096973119652,0.005781269101747124,-0.07989953005423647,0.0214841916306671,0.015005131542060563,-0.03862495456069933,0.05051378179050149,0.04753221023253309,-0.10425565427164288,0.11600000354826612,0.11146895229632259,-0.10967059025186408
133,7.390214300001389,-0.012802398304095188,0.005848227887595377,-0.08007171208364047,0.021709171878288917,0.015216855066644016,-0.039088018566604696,0.051026860064939845,0.04802663876219053,-0.10474070980537442,0.11555870285189364,0.11167736895786477,-0.10923843804939773
134,7.394287999995868,-0.012705697644309526,0.00591612973659019,-0.08024595084720341,0.02193642139248501,0.01543077159478376,-0.03955322775226239,0.05153793033893638,0.048521960138758785,-0.10522378895125219,0.11509371231605792,0.1118718360148005,-0.10877850921222419
135,7.399482499997248,-0.012607984957696142,0.005984984375337218,-0.08042225583143861,0.022165931042621257,0.015646884945977428,-0.040020573086997344,0.052046887596345646,0.049018112148770054,-0.1057047683276771,0.11460501581498714,0.11205217507297979,-0.10829067258106882
136,7.403022600003169,-0.012509250249680118,0.0060548015467565665,-0.08060063648163038,0.022397691232547756,0.01586519866228488,-0.04049004499210442,0.052553626757238237,0.04951503179513628,-0.10618352398111906,0.11409260066927975,0.11221821091564699,-0.10777480102313373
137,7.4069044000061695,-0.0124094835692416,0.006125591008845687,-0.08078110219939996,0.022631691900350828,0.016085716004886855,-0.040961633338360164,0.053058042693096455,0.050012655311516684,-0.10665993140325408,0.11355645755385467,0.11236977161673321,-0.10723077113446682
138,7.411748900005477,-0.012308675010980213,0.0061973625334271676,-0.0809636623402606,0.0228679225181704,0.01630843995070875,-0.04143532744359412,0.0535600302413466,0.05051091817711423,-0.10713386554687435,0.1129965804106274,0.11250668860310191,-0.10665846367796496
139,7.416239199999836,-0.012206814717180131,0.006270125904881708,-0.08114832621116193,0.0231063720920808,0.01653337318911041,-0.04191111607034163,0.05405948421978069,0.051009755131594794,-0.10760520084690718,0.11241296645358344,0.11262879666594068,-0.10605776410044969
140,7.420580599995446,-0.012103892879875552,0.006343890918866571,-0.08133510306802422,0.023347029162035952,0.01676051811864213,-0.04238898742360141,0.05455629944113375,0.05150910018998459,-0.10807381124090777,0.11180561615871273,0.11273593394298376,-0.10542856215543288
141,7.426359699995373,-0.011999899742916258,0.006418667381019805,-0.08152400211326293,0.023589881801879355,0.016989876843866478,-0.042868929148669965,0.0550503707274163,0.05200888665743181,-0.10853957018673484,0.11117453321161917,0.11282794193260189,-0.10477075172370233
142,7.431342600000789,-0.011894825604032992,0.006494465105650533,-0.08171503249330375,0.023834917619416314,0.017221451172245116,-0.04335092832905585,0.05554159292402733,0.05250904714422887,-0.10900235068145328,0.11051972446034745,0.11290466554230243,-0.10408423111121266
143,7.4358840999921085,-0.011788660816902384,0.006571293914415582,-0.08190820329608868,0.024082123756548994,0.01745524261109376,-0.04383497148448156,0.05602986091366872,0.053009513581003934,-0.10946202528164994,0.10984119991291132,0.11296595308599143,-0.1033689031495196
144,7.440175499999896,-0.011681395793211133,0.006649163634982784,-0.08210352354857334,0.024331486889471964,0.017691252364603647,-0.04432104456897787,0.0565150696304363,0.0535102172337189,-0.10991846612322637,0.10913897274192705,0.11301165625446535,-0.10262467511619856
145,7.444769299996551,-0.011573021004719195,0.006728084099681211,-0.08230100221421614,0.024582993228932135,0.0179294813309294,-0.044809132969061145,0.05699711407377537,0.05401108871859935,-0.11037154494100924,0.10841305910059762,0.11304163004138457,-0.1018514587540957
146,7.449742199998582,-0.011463526985321663,0.006808065144138664,-0.08250064819045952,0.024836628520547986,0.01816993009934282,-0.04529922150200147,0.057475889320940846,0.05451205801647653,-0.1108211330887138,0.10766347798066114,0.11305573261653998,-0.10104917043149123
147,7.453427000000374,-0.011352904333109126,0.006889116605906686,-0.08270247030620369,0.025092378045179935,0.01841259894744787,-0.045791294414176884,0.05795129053969387,0.05501305448659408,-0.11126710155997371,0.10689025137140329,0.11305382522139211,-0.1002177314608418
148,7.456827300004079,-0.011241143712426268,0.006971248323073365,-0.0829064773192733,0.025350226619362086,0.01865748783845681,-0.04628533537952789,0.05842321300217122,0.055514006880024225,-0.11170932101112935,0.10609340433748893,0.11303577206398684,-0.09935706789912688
149,7.463945199997397,-0.011128235855928398,0.00705447013286421,-0.08311267791387751,0.025610158595795518,0.0189045964185241,-0.04678132749811367,0.05889155209827171,0.0560148433525432,-0.11214766178048825,0.10527296491162531,0.11300144025296269,-0.09846711022955126
150,7.468080899998313,-0.011014171566635679,0.007138791870231325,-0.08332108069806386,0.025872157863898675,0.019153924014136632,-0.04727925329473727,0.0593562033485743,0.05651549147746255,-0.11258199390829246,0.10442896412671994,0.11295069980510554,-0.09754779387913598
151,7.473557100005564,-0.01089894171998478,0.007224223366431151,-0.08353169420116614,0.026136207850415136,0.019405469629561353,-0.04777909471767877,0.05981706241800949,0.05701587825857155,-0.11301218716056616,0.10356143616809477,0.11288342368037428,-0.09659905919894424
152,7.47761950000131,-0.01078253726587772,0.007310774447591027,-0.08374452687124702,0.026402291520085174,0.019659231944350212,-0.048280833137531856,0.0602740251301265,0.057515930143278896,-0.11343811104890775,0.10267041846571132,0.11279948785544966,-0.09562085080680266
153,7.482118600004469,-0.01066494923072756,0.007398454933264814,-0.08395958707253563,0.02667039137637997,0.01991520931090424,-0.048784449346112375,0.06072698748158196,0.05801557303620694,-0.11385963484851233,0.10175595185858245,0.1126987714292985,-0.09461311794561655
154,7.486121499998262,-0.010546168719500752,0.007487274634977868,-0.08417688308286053,0.026940489462301577,0.020173399752098982,-0.049289923555454626,0.06117584565786419,0.05851473231326899,-0.11427662762113937,0.10081808073187892,0.11258115667057453,-0.0935758152008946
155,7.490166000003228,-0.010426186917755738,0.007577243354761624,-0.08439642309107838,0.02721256736125649,0.020433800958973337,-0.04979723539692349,0.06162049604899708,0.059013332835683614,-0.11468895823949428,0.0998568530019485,0.11244652902052941,-0.09250890238140014
156,7.494464799994603,-0.010304995093677547,0.007668370883678077,-0.08461821519449901,0.02748660619799479,0.020696410288479194,-0.05030636392042678,0.06206083526513154,0.05951129896407775,-0.11509649540913837,0.09887232020599115,0.11229477718369867,-0.09141234447947326
157,7.498497900000075,-0.010182584600108084,0.007760667000334429,-0.08484226739630717,0.0277625866396219,0.02096122476129526,-0.05081728759372158,0.062496760153044145,0.060008554573304736,-0.11549910769251878,0.09786453760427136,0.11212579326735153,-0.09028611234880388
158,7.502810199992382,-0.010058946876571754,0.007854141469388197,-0.0850685876029814,0.028040488896683934,0.021228241059708025,-0.051329984301839535,0.06292816781263447,0.060505023067783256,-0.11589666353688524,0.0968335642448652,0.11193947287875125,-0.08913018286362588
159,7.507393399995635,-0.009934073451296129,0.007948804040043072,-0.08529718362171072,0.028320292724325676,0.02149745552556153,-0.0518444313466406,0.06335495561399752,0.0610006273971774,-0.11628903129973088,0.09577946309335708,0.11173571518620505,-0.087944538739024
160,7.5110010000062175,-0.009807955943227316,0.00804466444453586,-0.08552806315780954,0.028601977423527235,0.0217688641582773,-0.05236060544646384,0.06377702121507059,0.061495290072276644,-0.11667607927511643,0.09470230116234318,0.11151442296287992,-0.08672916895029666
161,7.515181900002062,-0.009680586064039662,0.008141732396614795,-0.08576123381213123,0.028885521842418407,0.022042462612944846,-0.05287848273591445,0.06419426257985335,0.06198893318106424,-0.1170576757228277,0.09360214967592381,0.11127550265266065,-0.08548406857358329
162,7.519334500000696,-0.00955195562013947,0.008240017590009557,-0.08599670307848116,0.02917090437767682,0.02231824619848401,-0.05339803876577296,0.06460657799751254,0.06248147840518088,-0.1174336888932873,0.09247908421910367,0.11101886444219385,-0.0842092388050433
163,7.523721000005025,-0.009422056514662316,0.008339529696893295,-0.08623447834102947,0.029458102976011615,0.022596209875881377,-0.05391924850300305,0.06501386610192621,0.06297284703663154,-0.1178039870568821,0.09133318483769073,0.11074442222515676,-0.08290468761900242
164,7.528137500004959,-0.009290880749463614,0.008440278366337014,-0.0864745668717242,0.02974709513573479,0.02287634825650068,-0.05444208633092068,0.06541602589167367,0.06346295999393252,-0.11816843853470782,0.09016453605817508,0.11045209348630199,-0.08157042934929438
165,7.532558599996264,-0.009158420427102009,0.008542273222756629,-0.08671697582770549,0.030037857908422047,0.023158655600462322,-0.054966526049474364,0.06581295674975596,0.0639517378377906,-0.11852691172418613,0.08897322683509168,0.11014179923387847,-0.08020648462980746
166,7.536403499994776,-0.00902466775281522,0.008645523864352989,-0.08696171224872126,0.030330367900658926,0.023443125815092742,-0.05549254087564134,0.06620455846311932,0.06443910078665115,-0.11887927512928229,0.08775935055900334,0.10981346389278257,-0.07881288105237859
167,7.540087300003506,-0.00888961503648796,0.008750039861545187,-0.08720878305454492,0.030624601275874665,0.023729752453441725,-0.05602010344397565,0.06659073124244635,0.06492496873143036,-0.11922539739195288,0.08652300511109363,0.10946701516245709,-0.0773896532456765
168,7.544546599994646,-0.008753254694611527,0.008855830755397443,-0.08745819504239585,0.030920533756263732,0.024018528712862336,-0.05654918580728303,0.06697137574216339,0.06540926124980395,-0.11956514732306263,0.0852642928754106,0.1091023839519165,-0.07593684301557693
169,7.548812199995154,-0.008615579252234688,0.008962906056039829,-0.08770995488436314,0.031218140624797015,0.02430944743365487,-0.05707975943744297,0.0673463930803401,0.06589189762036354,-0.11989839393507613,0.08398332070166917,0.10871950426777192,-0.07445449936504171
170,7.552775499993004,-0.008476581344905454,0.009071275241083135,-0.08796406912483336,0.03151739672731971,0.024602501097772244,-0.05761179522637336,0.06771568485836724,0.06637279683591299,-0.1202250064731509,0.08268019993282166,0.10831831309730816,-0.07294267829437742
171,7.556985499992152,-0.008336253720603367,0.00918094775402812,-0.0882205441779228,0.031818276474736895,0.024897681827581786,-0.0581452634871281,0.0680791531811006,0.06685187761658852,-0.12054485444605889,0.08135504649961692,0.10789875043287073,-0.0714014431804036
172,7.560919900002773,-0.008194589241661904,0.009291933002669403,-0.08847938632491502,0.03212075384528997,0.025194981384686906,-0.05868013395513578,0.06843670067737675,0.0673290584233712,-0.1208578076606399,0.08000798099649092,0.10746075925468183,-0.06983086509518564
173,7.566308099994785,-0.008051580886680594,0.009404240357494275,-0.08874060171170406,0.032424802386924044,0.025494391168808642,-0.05921637578960268,0.06878823052082966,0.06780425747105476,-0.12116373625554794,0.07863912877787034,0.1070042854589694,-0.0682310225668958
174,7.57015830000455,-0.007907221752426434,0.009517879150076671,-0.08900419634624439,0.03273039521974884,0.02579590221672226,-0.059753957575050476,0.06913364645125986,0.06827739274112112,-0.12146251073358522,0.07724862006452114,0.10652927789229437,-0.06660200163935605
175,7.573637399997096,-0.007761505055724201,0.009632858671466562,-0.08927017609600778,0.0330375050385955,0.02609950520125291,-0.06029284732300584,0.06947285279639358,0.06874838199501243,-0.12175400199597622,0.07583658993573647,0.10603568838153901,-0.06494389587265817
176,7.577932800006238,-0.007614424135335205,0.009749188170575027,-0.08953854668544821,0.033346104115670315,0.02640519043032984,-0.060833012473841895,0.06980575449318276,0.06921714278727238,-0.1220380813747072,0.07440317819475026,0.10552347175908319,-0.06325680652223058
177,7.581982200004859,-0.007465972453824085,0.009866876852555257,-0.08980931369347507,0.03365616430330032,0.026712947846098536,-0.061374419898754404,0.07013225710837134,0.06968359247904136,-0.12231462066838725,0.07294852926042977,0.10499258596992661,-0.06154084275757207
178,7.586046500000521,-0.007316143599413229,0.009985933877179767,-0.09008248255093558,0.03396765703676927,0.02702276702409453,-0.061917035901921075,0.0704522668588354,0.07014764825214714,-0.12258349217652631,0.07147279205666134,0.10444299223083126,-0.05979612092575031
179,7.590230300003895,-0.007164931287824432,0.01010636835721407,-0.09035805853810712,0.03428055333724352,0.027334637172480417,-0.06246082622278153,0.07076569063116914,0.07060922712401047,-0.12284456872886897,0.06997611980961527,0.10387465521756377,-0.05802276455059842
180,7.594295799994143,-0.0070123293641073895,0.01022818935678713,-0.09063604678219986,0.034594823814781586,0.027648547131351765,-0.0630057560384566,0.0710724360002282,0.07106824596339516,-0.12309772371966535,0.06845866988059542,0.10328754321198995,-0.05622090501065413
181,7.598770900003728,-0.00685833180445468,0.010351405889758886,-0.09091645225487054,0.03491043867142433,0.02796448537211372,-0.06355178996633197,0.07137241124723433,0.07152462150661738,-0.12334283114301317,0.06692060369828173,0.10268162822128561,-0.05439068132042909
182,7.602625700004864,-0.0067029327180028716,0.010476026918085177,-0.09119927976974798,0.03522736770436502,0.028282439996930576,-0.06409889206679076,0.0716655253777182,0.07197827037435225,-0.12357976562519016,0.06536208675051876,0.10205688614773967,-0.052532239890029774
183,7.607000399992103,-0.006546126348619413,0.010602061350180391,-0.09148453397997111,0.03554558030919853,0.028602398738251326,-0.0646470258460837,0.07195168813955125,0.07242910908934798,-0.12380840245786569,0.06378328863731304,0.10141329695814841,-0.05064573478496293
184,7.61108790000435,-0.0063879070766749415,0.010729518039278184,-0.09177221937573989,0.03586504548325118,0.028924348958416227,-0.06519615425935602,0.0722308100413582,0.07287705409473375,-0.12402861763273576,0.06218438317367108,0.10075084472108986,-0.048731327507943574
185,7.615173300000606,-0.006228269420800661,0.010858405781790639,-0.09206234028188014,0.03618573182899314,0.029248277649344602,-0.06574623971382461,0.07250280237146035,0.07332202177206422,-0.1242402878728009,0.06056554852034132,0.10006951759950779,-0.0467891872366167
186,7.619895600000746,-0.006067208039630409,0.010988733315666223,-0.09235490085542268,0.03650760755753615,0.02957417143230133,-0.06629724407208211,0.07276757721744678,0.0737639284595617,-0.12444329066910798,0.05892696731827678,0.09936930788313485,-0.044819491899297015
187,7.623586699992302,-0.005904717733527039,0.011120509318746875,-0.09264990508319743,0.03683064049221937,0.029902016557746318,-0.06684912865559971,0.07302504748630931,0.07420269047044797,-0.12463750432156188,0.05726882682449745,0.09865021188883971,-0.042822427738927825
188,7.628168499999447,-0.0057407934462927026,0.011253742407124626,-0.09294735677944353,0.03715479807228557,0.030231798905263462,-0.06740185424839289,0.07327512692521782,0.07463822411030328,-0.12482280797180295,0.055591319124917674,0.09791222979101345,-0.04079818897347964
189,7.63277919999382,-0.005575430266862652,0.011388441133498062,-0.093247259583436,0.03748004735665108,0.03056350398356396,-0.06795538110081564,0.0735177301435414,0.07507044569389497,-0.1249990816410089,0.053894641401042984,0.09715536553193672,-0.038746979209254066
190,7.636337399992044,-0.005408623430982115,0.01152461398552897,-0.09354961695712949,0.03780635502777715,0.030897116930564426,-0.06850966893356124,0.07375277263598734,0.07549927156174206,-0.1251662062752977,0.05217899609508488,0.09637962674718258,-0.03666901148275868
191,7.640581600004225,-0.005240368322865782,0.011662269384199495,-0.0938544321828203,0.03813368739564497,0.031232622513536996,-0.0690646769418588,0.07398017080608554,0.0759246180962828,-0.12532406378390074,0.05044459101297731,0.09558502469331322,-0.0345645076232383
192,7.643981700006407,-0.005070660476839456,0.011801415682170113,-0.09416170836082743,0.03846201040183517,0.03157000512933073,-0.06962036379981242,0.07419984199024053,0.07634640173779843,-0.12547253707891598,0.048691639435671966,0.09477157418266406,-0.03243369894844634
193,7.648687900000368,-0.004899495578963382,0.011942061162138756,-0.09447144840719304,0.038791289623715995,0.031909248804662865,-0.07017668766495,0.07441170448220227,0.07676453900000273,-0.1256115101196475,0.04692036021862364,0.09393929352382285,-0.03027682638549513
194,7.654962899992824,-0.0047268694686367786,0.012084214035201364,-0.09478365505140375,0.03912149027873969,0.03225033719647835,-0.07073360618295538,0.07461567755799983,0.07717894648543831,-0.1257408679534297,0.04513097792430019,0.09308820449233036,-0.028094140411687382
195,7.658617399996729,-0.004552778140183094,0.012227882439214192,-0.09509833083413309,0.03945257722885165,0.032593253592377566,-0.07129107649257899,0.0748116815015866,0.0775895409008065,-0.12586049675944244,0.04332372290884486,0.0922183323495008,-0.025885901331540114
196,7.66290919999301,-0.004377217744415458,0.012373074437158158,-0.09541547810500632,0.039784514985014056,0.032937980911111726,-0.07184905523075823,0.07499963763054197,0.07799623907253038,-0.12597028389199041,0.04149883130415004,0.09132970596509014,-0.02365237907907594
197,7.666994900006102,-0.004200184590181848,0.01251979801550554,-0.09573509902038825,0.040117267711842854,0.03328450170314851,-0.07240749853791176,0.07517946832155775,0.07839895796317187,-0.12607011792256603,0.03965654496987695,0.09042235804207265,-0.021393853357938506
198,7.671137600002112,-0.004021675145889444,0.012668061082589334,-0.09605719554119498,0.040450799232357254,0.03363279815131299,-0.07296636206343263,0.07535109703571456,0.07879761468898687,-0.12615988868437064,0.037797111449999234,0.08949632536211062,-0.01911061369952127
199,7.675180999998702,-0.003841686041007704,0.012817871466975633,-0.09638176943073039,0.0407850730328407,0.03398285207150881,-0.07352560097137714,0.0755144483435831,0.07919212653851782,-0.12623948731489254,0.03592078391360932,0.08855164891630123,-0.016802959284159067
200,7.679538299998967,-0.0036602140675496375,0.012969236915839379,-0.09670882225254833,0.04112005226781286,0.03433464491352391,-0.07408516994633535,0.075669447949976,0.0795824109913076,-0.1263088062988435,0.03402782107443821,0.08758837397972971,-0.01447119924008694
201,7.683713999998872,-0.0034772561815308136,0.013122165093343876,-0.09703835536834113,0.04145569976510994,0.034688157761917575,-0.07464502319950043,0.07581602271833576,0.07996838573715283,-0.12636773951338634,0.03211848712831558,0.08660655034010442,-0.012115652923126025
202,7.68795959999261,-0.0032928095044056143,0.013276663579024411,-0.09737036993585554,0.041791978031072825,0.035043371336996774,-0.07520511447494004,0.07595410069493237,0.08034996869684408,-0.12641618227355017,0.03019305167462026,0.08560623247497426,-0.009736649797237838
203,7.691867100002128,-0.0031068713244802597,0.013432739866176418,-0.09770486690683688,0.04212884925584185,0.03540026599588702,-0.07576539705606813,0.0760836111325551,0.08072707804298973,-0.12645403137639938,0.028251789603036995,0.08458747951965467,-0.007334529153432193
204,7.696370899997419,-0.0029194390983021358,0.013590401360248585,-0.09804184702500231,0.0424662753187549,0.035758821733693255,-0.07632582377230783,0.07620448451370647,0.08109963222047198,-0.12648118514395768,0.026294981031099524,0.08355035531228755,-0.004909640351471003
205,7.700415700004669,-0.002730510452024979,0.01374965537724131,-0.09838131082404399,0.04280421779384775,0.03611901818475203,-0.07688634700594364,0.07631665257374053,0.08146754996767001,-0.1264975434695192,0.02432291133703975,0.08249492847255205,-0.002462342958909491
206,7.704926399994292,-0.002540083182749457,0.01391050914211091,-0.09872325862566314,0.04314263795545722,0.03648083462398046,-0.07744691869919472,0.07642004832434794,0.0818307503376136,-0.1265030078618048,0.02233587126271805,0.08142127224803868,6.9935501488195885e-06
207,7.708826899994165,-0.0023481552598386946,0.014072969787180022,-0.0990676905376359,0.04348149678392965,0.03684424996831589,-0.07800749036145849,0.07651460607760652,0.08218915271784474,-0.12649748148860337,0.02033415704490398,0.08032946433473154,0.0024979893736504486
208,7.713162100000773,-0.002154724826208263,0.014237044350554577,-0.0994146064519115,0.04382075497143724,0.037209242778240864,-0.07856801307677062,0.07660026147062976,0.08254267684998029,-0.12648086922466287,0.018318070568978873,0.07921958679662357,0.005010254562176117
209,7.717467199996463,-0.0019597901995901577,0.014402739774547722,-0.0997640060427443,0.04416037292790493,0.037575791259396175,-0.07912843751147315,0.0766769514909796,0.08289124284886117,-0.1264530776937311,0.01628791952478216,0.07809172589459666,0.007543389357635472
210,7.722349100004067,-0.0017633498737702595,0.014570062904111078,-0.10011588876485993,0.04450031078705197,0.037943873264275556,-0.079688713922047,0.07674461450269615,0.0832347712205984,-0.1264140153134451,0.014244017547517526,0.07694597192192222,0.01009698329606492
211,7.727786400006153,-0.0015654025197987698,0.014739020485273686,-0.10047025385165669,0.044840528412549534,0.038313466293998635,-0.08024879216317794,0.07680319027295925,0.0835731828802645,-0.12636359234532346,0.012186684402027878,0.07578241903641704,0.012670615248970127
212,7.732073999999557,-0.001365946987173099,0.014909619163588983,-0.10082710031344322,0.04518098540429852,0.038684547500162446,-0.0808086216960322,0.07685261999975133,0.08390639916845191,-0.1263017209392893,0.010116246193056157,0.07460116497933408,0.01526385409914646
213,7.736759999999776,-0.0011649823049926632,0.015081865482590153,-0.10118642693571324,0.04552164110483235,0.03905709368676112,-0.08136815159671698,0.07689284634038246,0.08423434186647308,-0.12622831517767302,0.008033035517637295,0.07340231100883736,0.017876258561003045
214,7.742562100000214,-0.0009625076830850286,0.015255765882254115,-0.10154823227745818,0.04586245460584762,0.039431081312172114,-0.08192733056494607,0.07692381344050377,0.0845569332123293,-0.12614329112132774,0.005937391540894891,0.0721859621080548,0.020507376684230354
215,7.746382500001346,-0.000758522513102829,0.015431326697474476,-0.10191251466951874,0.04620338475486396,0.03980648649121742,-0.08248610693290905,0.07694546696330422,0.08487409591775463,-0.12604656685803084,0.0038296600283689148,0.07095222712024087,0.023156745454327228
216,7.750286299997242,-0.0005530263695908865,0.015608554156543794,-0.10227927221297611,0.04654439016201349,0.04018328499730086,-0.08304442867436586,0.07695775411881062,0.08518575318538273,-0.12593806255213966,0.0017101933882491985,0.06970121880398807,0.0258238908510992
217,7.754481900003157,-0.00034601901102295797,0.015787454379645467,-0.10264850277758414,0.04688542920696035,0.04056145226462142,-0.08360224341395611,0.07696062369345862,0.08549182872627999,-0.1258177004924747,-0.0004206492568835278,0.0684330539696296,0.028508328029731213
218,7.758275800006231,-0.00013750038080752943,0.01596803337735561,-0.10302020400024306,0.047226460045952205,0.04094096339046594,-0.08415949843671801,0.07695402608002855,0.08579224677832127,-0.12568540514037055,-0.0025625020080595395,0.06714785367880532,0.03120956136002872
219,7.762052000005497,7.252939173793122e-05,0.016150297049155275,-0.10339437328351601,0.04756744061900512,0.04132179313758533,-0.08471614069782349,0.0769379133077659,0.08608693212549177,-0.12554110317721123,-0.004714992171001092,0.06584574333191466,0.03392708442571927
220,7.765560700005153,0.00028406999044485636,0.016334251181953367,-0.10377100779418907,0.047908328657221985,0.04170391593665827,-0.08527211683251847,0.07691223907248484,0.08637581011703775,-0.12538472355248736,-0.00687774026221841,0.06452685266786314,0.03666037976646981
221,7.7693003000022145,0.0004971209113841863,0.016519901448620714,-0.10415010446187584,0.048249081690244194,0.04208730588883721,-0.08582737316628387,0.07687695876663463,0.08665880668676616,-0.12521619753361793,-0.009050360013522574,0.06319131590849639,0.03940891865828689
222,7.775456300005317,0.0007116814619902925,0.01670725340653555,-0.10453165997766752,0.048589657053836534,0.04247193676838308,-0.08638185572521745,0.07683202950936313,0.08693584837347546,-0.1250354587559536,-0.011232458375550319,0.06183927178650896,0.042172161332237994
223,7.781868799997028,0.000927750760218807,0.016896312496140924,-0.10491567079282954,0.048930011897605305,0.04285778202539235,-0.08693551024663794,0.07677741017655207,0.08720686234050255,-0.12484244327066009,-0.013423635530405436,0.060470863393157305,0.044949557293733955
224,7.786371700000018,0.0011453277337389479,0.017087084039514356,-0.10530213311754563,0.0492701031928494,0.04324481478860502,-0.08748828218989126,0.07671306143076845,0.08747177639480398,-0.12463708959189185,-0.015623484931673403,0.05908623820024631,0.04774054536245593
225,7.790078100006212,0.0013644111191609297,0.017279573238950133,-0.10569104291971017,0.04960988774054387,0.043633007868300745,-0.08804011674737276,0.07663894575094515,0.08773051900669772,-0.12441933874432153,-0.01783159337862555,0.05768554813035775,0.05054455363294516
226,7.794572300001164,0.0015849994612990438,0.017473785175554635,-0.10608239592376995,0.049949322179454046,0.04402233375928181,-0.08859095885575466,0.07655502746167478,0.08798301932956672,-0.12418913431066292,-0.020047541094236173,0.05626894967206494,0.05336099913502982
227,7.800301499999477,0.0018070911124709813,0.017669724807855062,-0.10647618760961605,0.05028836299437874,0.04441276464394387,-0.08914075320742945,0.07646127276219877,0.08822920722062186,-0.12394642248220998,-0.0222709017802093,0.054836603943347995,0.056189287833460146
228,7.80427769999369,0.002030684231833969,0.017867396970421976,-0.10687241321152705,0.050626966524521276,0.044804272395442955,-0.08968944426218524,0.07635764975521359,0.0884690132611675,-0.12369115210636297,-0.024501242646575497,0.053388676498039446,0.059028814927924236
229,7.808658199995989,0.0022557767847582815,0.0180668063725061,-0.1072710677171643,0.05096508897198797,0.0451968285809458,-0.09023697625907039,0.07624412847559751,0.08870236877564905,-0.12342327473450856,-0.02673812443758378,0.051925337286692755,0.06187896473343162
230,7.812840600003255,0.002482366542238695,0.018267957596689664,-0.10767214586662033,0.05130268641041377,0.04559040446496565,-0.09078329322849316,0.07612068091898738,0.08892920585157167,-0.1231427446706061,-0.028981101493442896,0.05044676066461373,0.0647391106594651
231,7.8170071999920765,0.002710451080344446,0.018470855097552766,-0.10807564215152138,0.05163971479371403,0.04598497101278915,-0.09132833900451698,0.0759872810699582,0.08914945735861907,-0.12284951901925245,-0.031229721888584316,0.048953125144067036,0.0676086150110303
232,7.822227299999213,0.0029400277797082476,0.01867550320035509,-0.10848155081418472,0.05197612996495984,0.046380498893981575,-0.09187205723738606,0.07584390492937446,0.0893630569663761,-0.12254355773603152,-0.03348352766170173,0.04744461318057353,0.07048682946765213
233,7.827235299992026,0.0031710938250549066,0.018881906099733333,-0.10888986584683222,0.05231188766537222,0.046776958485970785,-0.0924143914062669,0.07569053054053107,0.08956993916155359,-0.12222482367133396,-0.03574205511046476,0.04592141097670173,0.0733730955409876
234,7.831946299993433,0.0034036462047700522,0.01909006785841469,-0.1093005809908606,0.05264694354342916,0.047174319877705116,-0.0929552848321622,0.07552713801389274,0.08977003926397205,-0.12189328261665097,-0.03800483503746473,0.04438370822365913,0.07626674411739308
235,7.836283800003002,0.003637681710509464,0.019299992405946688,-0.10971368973616943,0.05298125316407903,0.047572552873379,-0.09349468069106273,0.07535370955105516,0.08996329344149628,-0.12154890335244814,-0.04027139281735046,0.04283169804732869,0.07916709585563102
236,7.84016690000135,0.0038731969368494563,0.019511683537443703,-0.11012918532054797,0.05331477201805999,0.0479716269962232,-0.09403252202728551,0.07517022946888942,0.0901496387255409,-0.12119165769093451,-0.04254124830663322,0.041265577196868755,0.08207346170491801
237,7.844206699999631,0.004110188280978799,0.01972514491235038,-0.11054706072912134,0.05364745553132738,0.048371511492367854,-0.09456875176700467,0.07497668422430252,0.09032901302767636,-0.12082152051934514,-0.04481391566444459,0.039685546308682144,0.08498514286711813
238,7.848633799992967,0.004348651942432655,0.01994038005322238,-0.11096730869385728,0.05397925907459259,0.0487721753347799,-0.09510331273197328,0.07477306243997038,0.09050135515747397,-0.12043846984304526,-0.04708890316055889,0.038091810195921755,0.08790143091440657
239,7.852863799998886,0.004588583922869037,0.020157392344524704,-0.111389921693134,0.054310137972978484,0.049173587227284245,-0.0956361476534362,0.07455935493079975,0.09066660484167768,-0.12004248682777005,-0.049365713086879946,0.0364845779877087,0.09082160786860374
240,7.8569434999953955,0.004829980025888319,0.02037618503144808,-0.11181489195137016,0.054640047515792795,0.04957571560867111,-0.09616719918622627,0.07433555473044565,0.0908247027432829,-0.11963355584202566,-0.05164384176716058,0.03486406320413979,0.09374494622397145
241,7.86097759999393,0.005072835856896311,0.020596761218743678,-0.1122422114387177,0.054968942966418584,0.04997852865688631,-0.09669640992305294,0.07410165711768717,0.09097559048137308,-0.11921166449912694,-0.05392277962864493,0.033230483916278745,0.09667070914368442
242,7.865225799992913,0.0053171468230114255,0.020819123869576642,-0.11267187187081841,0.055296779572321375,0.050381994293314365,-0.09722372240897104,0.07385765964230996,0.09111921065161642,-0.11877680369785729,-0.05620201134155758,0.03158406267521062,0.09959815045964719
243,7.869500000000698,0.005562908133016439,0.021043275804398767,-0.11310386470862503,0.055623512575169,0.05078608018715045,-0.09774907915602973,0.07360356215024583,0.09125550684547376,-0.11832896766450791,-0.05848101601620304,0.029925026372905048,0.10252651501474805
244,7.873950099994545,0.0058101147973553475,0.021269219699840764,-0.11353818115828766,0.05594909722106155,0.05119075375985376,-0.09827242265811388,0.07333936680770836,0.09138442366946213,-0.11786815399050449,-0.06075926748663379,0.028253606297786414,0.10545503909872478
245,7.877914400000009,0.006058761628175794,0.02149695808762442,-0.11397481217110633,0.05627348877086509,0.05159598218969015,-0.09879369540592646,0.07306507812381853,0.09150590676485512,-0.11739436367058351,-0.06303623460499588,0.026570038233852792,0.10838295026830708
246,7.882578599994304,0.006308843239417504,0.02172649335349512,-0.11441374844355025,0.05659664251064217,0.05200173241636011,-0.09931283990216826,0.07278070297213166,0.09161990282782492,-0.11690760114201292,-0.0653113814624003,0.024874562614740293,0.11130946780730654
247,7.886129399994388,0.006560354046947157,0.021957827736175016,-0.11485498041734488,0.05691851376217632,0.05240797114571991,-0.0998297986768679,0.0724862506113055,0.09172635963050808,-0.11640787431869092,-0.06758416759369061,0.023167424658894976,0.11423380288580297
248,7.890260000000126,0.006813288268740096,0.02219096332633739,-0.11529849827962706,0.057239057893585694,0.0528146648545963,-0.10034451430286377,0.07218173270481246,0.09182522604234553,-0.11589519462895577,-0.06985404817003274,0.021448874539361784,0.11715515834053374
249,7.894276599996374,0.007067639925109261,0.0224259020656025,-0.1157442919631693,0.05755823033002232,0.05322177979569675,-0.10085692941146908,0.07186716333990084,0.09191645205265307,-0.11536957705163094,-0.07212047416712239,0.019719167447392376,0.12007272925317197
250,7.8987101999955485,0.0073234028389817215,0.022662645745555467,-0.1161923511466737,0.057875986564453745,0.05362928200262417,-0.10136698670827325,0.0715425590458163,0.09199998879252519,-0.11483104014870983,-0.07438289255723463,0.017978563413909146,0.12298570334894002
251,7.902776200004155,0.007580570636223168,0.02290119600678655,-0.11664266525513634,0.058192282168523804,0.05403713729498134,-0.10187462898909672,0.07120793881106102,0.09207578855582323,-0.11427960609786822,-0.07664074653255981,0.016227327210021406,0.1258932613950285
252,7.906879699992714,0.007839136746010694,0.02314155433795427,-0.11709522346028255,0.05850707280348722,0.054445311283571565,-0.10237979915608038,0.07086332409963586,0.09214380482019748,-0.11371530072161795,-0.07889347568444892,0.014465728176797983,0.12879457765944144
253,7.912581800002954,0.008099094401254198,0.023383722074871795,-0.1175500146810739,0.0588203142312143,0.054853769375689455,-0.10288244023389881,0.07050873886671094,0.09220399226656675,-0.1131381535157528,-0.08114051621207563,0.012694039971545272,0.131688820629235
254,7.918876800002181,0.008360436639066694,0.023627700399616938,-0.11800702758428722,0.05913196232526445,0.05526247678049423,-0.10338249538610182,0.0701442095730185,0.09225630679789183,-0.11254819767213678,-0.08338130144895894,0.010912540373281987,0.13457515438564507
255,7.923183799997787,0.008623156301283857,0.023873490339666164,-0.11846625058516633,0.059441973082018394,0.055671398514466834,-0.10387990793152962,0.06976976519585718,0.09230070555693103,-0.11194547009496274,-0.08561526260098061,0.009121510934127691,0.13745273956048298
256,7.927707800001372,0.008887246035032992,0.02412109276705296,-0.1189276718481466,0.05975030263184924,0.05608049940694065,-0.10437462136079849,0.06938543723694404,0.09233714694192402,-0.11133001141506457,-0.08784182912157124,0.007321236660042276,0.14032073375559553
257,7.932007700001122,0.00915269829335158,0.024370508397550852,-0.11939127928765277,0.06005690725032428,0.05648974410569758,-0.10486657935284274,0.06899125973009382,0.09236559062151799,-0.11070186600245836,-0.09006042850666701,0.0055120061304439315,0.14317829098399731
258,7.935492999997223,0.00941950533585553,0.024621737789881377,-0.11985706056897011,0.060361743369444124,0.05689909708263106,-0.10535572579151159,0.06858726925088815,0.09238599755151154,-0.11006108198560753,-0.09227048597243795,0.0036941118372546345,0.14602456031488514
259,7.942209200002253,0.009687659229457333,0.02487478134494728,-0.12032500310918935,0.06066476758893018,0.05730852263949054,-0.10584200478228184,0.06817350492721092,0.09239832999278567,-0.10940771127597268,-0.09447142460918319,0.0018678501748456006,0.14885868593317625
260,7.94639919999463,0.009957151849134342,0.025129639305091406,-0.12079509407822593,0.06096593668755714,0.05771798491370339,-0.1063253606690723,0.06775000844755363,0.09240255152795859,-0.10874180958674909,-0.09666266611642164,3.352115600448008e-05,0.1516798084748888
261,7.950177299993811,0.010227974878747367,0.025386311753381487,-0.12126732039991396,0.06126520763451413,0.05812744788426701,-0.10680573805112259,0.06731682406503596,0.0923986270767994,-0.10806343644558163,-0.09884363172307359,-0.0018085718721710421,0.15448706604432863
262,7.954398600006243,0.01050011981190965,0.025644798612921255,-0.12174166875317506,0.06156253760077277,0.05853687537770733,-0.10728308179992017,0.06687399859755591,0.092386522910365,-0.10737265520428735,-0.10101374276009865,-0.0036581224074261833,0.1572795951704708
263,7.958938900002977,0.010773577952906196,0.025905099646188045,-0.12221812557326235,0.06185788397044967,0.0589462310740962,-0.10775733707616537,0.06642158142673531,0.09236620666482606,-0.1066695330430944,-0.10317242077241436,-0.005514820703398947,0.16005653152607846
264,7.963264799996978,0.011048340417663461,0.026167214454397222,-0.12269667705307963,0.062151204352165146,0.05935547851313244,-0.10822844934673599,0.06595962449707811,0.0923376473563922,-0.10595414097399136,-0.10531908755212573,-0.007378353604676032,0.16281700972645669
265,7.96699030000309,0.01132439813476935,0.026431142476893692,-0.12317730914457571,0.062442456590398265,0.0597645811002915,-0.10869636440168196,0.06548818231462136,0.09230081539659979,-0.10522655384674971,-0.10745316539983867,-0.00924840451649608,0.165560164027529
266,7.971073599997908,0.011601741846543528,0.026696882990570825,-0.12366000756021424,0.06273159877683361,0.060173502113041996,-0.10916102837124335,0.06500731194377762,0.09225568260750568,-0.10448685034608642,-0.1095740778290093,-0.01112465347471187,0.16828513000205628
267,7.974950400006492,0.011880362110157996,0.026964435109317057,-0.12414475777451883,0.06301858926168831,0.06058220470713003,-0.1096223877428199,0.06451707299974355,0.09220222223635491,-0.10373511298283075,-0.11168125095239444,-0.013006777350661348,0.17099104569497386
268,7.982386599993333,0.012160249298807779,0.027233797783490516,-0.12463154502569329,0.06330338666499155,0.060990651922925715,-0.11008038937791075,0.06401752763305478,0.0921404089689588,-0.10297142808084764,-0.11377411552895025,-0.014894450200295855,0.17367705401500239
269,7.986109299992677,0.012441393602931465,0.027504969799421866,-0.12512035431731688,0.06358594988777472,0.06139880669182607,-0.11053498052896799,0.06350874050385374,0.09207021894126843,-0.10219588574700861,-0.1158521088906682,-0.01678734359678669,0.17634230514710245
270,7.9901950000057695,0.01272378503148108,0.02777794977894568,-0.1256111704201139,0.06386623812312285,0.0618066318427041,-0.11098610885607034,0.06299077874936779,0.09199162974980503,-0.10140857983673456,-0.11791467560355244,-0.01868512663583502,0.17898595669329304
271,7.994398800001363,0.013007413413240555,0.028052736178960435,-0.12610397787379676,0.06414421086707656,0.062214090108404146,-0.11143372244347134,0.06246371195231899,0.09190462046318636,-0.1006096079227187,-0.11996126682289636,-0.020587465633084917,0.18160717341239993
272,7.998483899995335,0.01329226839819223,0.02832932729101746,-0.12659876098898215,0.0644198279294035,0.06262114413229311,-0.11187776981599576,0.06192761211411625,0.09180917163523879,-0.09979907126277582,-0.12199133943565414,-0.022494023754065503,0.184205126582388
273,8.002831999998307,0.013578339458930786,0.028607721240938994,-0.12709550384917948,0.06469304944426271,0.06302775647487201,-0.11231819995530287,0.06138255363086587,0.09170526531980341,-0.09897707477421662,-0.1240043558438257,-0.024404460938837417,0.18677899312313032
274,8.006822099996498,0.01386561589212425,0.028887915988465705,-0.12759419031285119,0.0649638358807635,0.06343388962045843,-0.11275496231605578,0.06082861326848343,0.09159288508451591,-0.0981437270094715,-0.12599978424768377,-0.026318434232646723,0.1893279563335377
275,8.010920799992164,0.014154086820021523,0.029169909326933998,-0.12809480401554446,0.06523214805340917,0.0638395059839202,-0.11318800684196864,0.06026587013619423,0.09147201602268219,-0.097299140123932,-0.12797709911486851,-0.02823559809390011,0.19185120716880913
276,8.015401299999212,0.01444374119200593,0.029453698882983208,-0.12859732837209378,0.06549794713242106,0.06424456791746311,-0.11361728398169098,0.05969440565748779,0.09134264476432885,-0.09644342984025489,-0.12993578172440273,-0.030155604657598454,0.19434794419908769
277,8.019383199993172,0.014734567786194249,0.02973928211629305,-0.1291017465788934,0.06576119465392488,0.06464903771746248,-0.11404274470453855,0.05911430353879694,0.0912047594857441,-0.09557671541657003,-0.13187532047730866,-0.032078103946822166,0.19681737408845848
278,8.024434299994027,0.015026555211080546,0.030026656319351374,-0.1296080416162393,0.06602185252999715,0.06505287763133549,-0.11446434051609591,0.05852564973769937,0.09105834991865386,-0.09469911960653926,-0.13379521115296925,-0.0340027441200941,0.1992587134301742
279,8.02801310000359,0.01531969190722423,0.03031581861725251,-0.13011619625073995,0.0662798830585697,0.06545604986445404,-0.11488202347359329,0.05792853242932478,0.0909034073575705,-0.09381076861129943,-0.13569495739590084,-0.0359291719097413,0.201671188904075
280,8.031937499996275,0.015613966148981672,0.030606765967526296,-0.1306261930377946,0.06653524893317843,0.06585851658708218,-0.11529574620108322,0.05732304197024234,0.0907399246650839,-0.09291179203812616,-0.13757407118114212,-0.037857032908118475,0.20405403707818162
281,8.036178499998641,0.015909366046280665,0.030899495159997903,-0.1311380143241385,0.06678791325254772,0.06626023994133594,-0.11570546190445113,0.05670927086074327,0.09056789627667344,-0.09200232285413529,-0.13943207311867784,-0.0397859716598324,0.20640650576527475
282,8.040183699995396,0.016205879546436975,0.031194002816678543,-0.13165164225045414,0.06703783953000494,0.06666118204816335,-0.11611112438618161,0.05608731370603034,0.09038731820518177,-0.09108249733292378,-0.14126849279462098,-0.0417156318873797,0.2087278550588037
283,8.04444670000521,0.016503494436012244,0.03149028539168716,-0.1321670587540475,0.06728499170272091,0.06706130501434392,-0.11651268805989608,0.05545726717547669,0.09019818804362707,-0.0901524549990904,-0.14308286923766098,-0.0436456568204823,0.2110173574915447
284,8.048660700005712,0.01680219834271244,0.031788339171203175,-0.13268424557158803,0.06752933414076329,0.0674605709394936,-0.1169101079646274,0.05481922995968143,0.09000050496675806,-0.08921233857347047,-0.1448747513051211,-0.04557568929450016,0.21327429779725773
285,8.05289890000131,0.017101978737325982,0.032088160273450246,-0.1332031842419114,0.06777083165595647,0.06785894192307806,-0.11730333977887221,0.05417330272630692,0.08979426973299404,-0.08826229391976886,-0.14664369800805563,-0.04750537166138412,0.21549797434660478
286,8.057101099999272,0.017402822935700727,0.03238974464871117,-0.13372385610888413,0.06800944951054361,0.06825638007143481,-0.11769233983439249,0.05351958807425321,0.08957948468676909,-0.08730246997706888,-0.14838927877486457,-0.04943434580928542,0.2176877006608082
287,8.060924999997951,0.017704718100758857,0.032693088079373905,-0.13424624232432847,0.06824515342564032,0.06865284750480723,-0.1180770651296698,0.05285819048715904,0.08935615376029836,-0.08633301869305025,-0.15011107361296394,-0.051362253258322166,0.21984280473529946
288,8.065489100001287,0.018007651244548784,0.03299818618000877,-0.13477032385100643,0.06847790958948462,0.06904830636438242,-0.11845747334311499,0.05218921628614343,0.0891242824750735,-0.08535409496249227,-0.15180867331462167,-0.053288735249447994,0.22196262983692228
289,8.069430699993973,0.018311609230333155,0.03330503439747686,-0.13529608146566172,0.06870768466547184,0.06944271881933844,-0.11883352284597738,0.05151277358148244,0.08888387794284132,-0.08436585655342652,-0.15348167957250644,-0.055213432853469004,0.22404653569833202
290,8.073538900003769,0.01861657877471197,0.03361362801106972,-0.13582349576211808,0.06893444579997624,0.06983604707389085,-0.11920517271490005,0.05082897222432671,0.0886349488661331,-0.08336846403505449,-0.15512970508870866,-0.05713598698182333,0.22609389820136278
291,8.078260399997816,0.018922546449779906,0.03392396213268018,-0.1363525471544326,0.06915816062995804,0.0702282533743446,-0.11957238274419013,0.05013792375741201,0.08837750553914771,-0.08236208070670657,-0.156752373843826,-0.059056038446653185,0.22810411029367297
292,8.082158200006234,0.01922949868531685,0.034236031707004545,-0.13688321588010274,0.06937879729034822,0.07061930001614843,-0.11993511345774449,0.049439741364391984,0.08811155984774846,-0.08134687251763578,-0.15834932129732715,-0.0609732279705196,0.23007658298348668
293,8.086438800004544,0.01953742177101067,0.034549831511775944,-0.13741548200332537,0.06959632442120649,0.07100914935094674,-0.12029332612060922,0.04873453981877298,0.0878371252702602,-0.08032300798716076,-0.1599201944112279,-0.06288719615583795,0.23201074514241107
294,8.090527099993778,0.019846301858711196,0.03486535615802902,-0.13794932541830623,0.06981071117465348,0.07139776379364103,-0.12064698275019758,0.048022435433036935,0.08755421687773704,-0.07929065812620707,-0.16146465172076116,-0.06479758338575423,0.23390604378442229
295,8.094382800001767,0.020156124964714417,0.035182600090395866,-0.13848472585261837,0.07002192722157789,0.07178510582944418,-0.12099604612715412,0.047303546006949894,0.08726285133563788,-0.07824999635497767,-0.16298236353880796,-0.06670402945594125,0.23576194490228936
296,8.098728700002539,0.020466876972075904,0.03550155758743322,-0.1390216628706079,0.07022994275811052,0.07217113802095669,-0.12134047980584295,0.04657799077487312,0.08696304690735743,-0.07720119841708133,-0.16447301204423453,-0.06860617354350178,0.23757793414551492
297,8.102669700005208,0.0207785436329524,0.03582222276198114,-0.13956011587684544,0.07043472851186443,0.07255582301525228,-0.12168024812445087,0.0458458903532887,0.08665482345617732,-0.07614444229119474,-0.16593629127800819,-0.0705036540378653,0.23935351749827735
298,8.106993699999293,0.021091110570970524,0.03614458956155296,-0.14010006411962134,0.07063625574794395,0.07293912355097142,-0.12201531621469273,0.04510736668814509,0.08633820245029582,-0.0750799080991827,-0.16737190732800766,-0.0723961078739966,0.241088221997657
299,8.111103799994453,0.021404563283621635,0.03646865176875686,-0.14064148669448312,0.07083449627471819,0.0733210024654515,-0.12234565001110023,0.044362543000744846,0.08601320697068841,-0.07400777801139487,-0.16877957877232616,-0.0742831703412231,0.24278159605184124
300,8.115139899993665,0.021718887144681696,0.03679440300174902,-0.14118436254781314,0.07102942244935045,0.07370142270189008,-0.12267121625988799,0.04361154373116131,0.08567986171783182,-0.07292823615196575,-0.17015903707663976,-0.07616447520389405,0.2444332099590542
301,8.11960679999902,0.02203406740665514,0.03712183671471864,-0.1417286704804445,0.07122100718307027,0.07408034731653454,-0.12299198252740304,0.042854494480604646,0.08533819301849524,-0.07184146849951249,-0.17151002666522966,-0.07803965441321703,0.24604265650545254
302,8.123744600001373,0.02235008920324147,0.03745094619840483,-0.1422743891513136,0.07140922394619205,0.07445773948590559,-0.12330791720811086,0.04209152195420913,0.0849882288350182,-0.07074766278713593,-0.17283230498193825,-0.07990833784577538,0.2476095510446347
303,8.128007799998159,0.02266693755182358,0.03778172458064568,-0.14282149708114691,0.07159404677288003,0.07483356251406918,-0.12361898953215862,0.0413227539028589,0.08462999877441928,-0.0696470084024137,-0.17412564265731947,-0.08177015363373115,0.24913353225544813
304,8.132052899993141,0.022984597355976615,0.038114164826959555,-0.14336997265618048,0.0717754502656514,0.07520777983994066,-0.12392516957247483,0.040548319064493896,0.0842635340947474,-0.0685396962806852,-0.17538982351428706,-0.08362472860478411,0.25061426214162896
305,8.136429499994847,0.023303053407996183,0.0384482597411589,-0.1439197941319096,0.071953409599621,0.07558035504461302,-0.12422642825138687,0.03976834710588554,0.08388886771029148,-0.06742591880504786,-0.1766246442995526,-0.08547168853907083,0.2520514256337385
306,8.140322899998864,0.023622290391444825,0.03878400196599651,-0.14447093963686708,0.0721279005264885,0.07595125185870721,-0.12452273734683435,0.038982968566322815,0.08350603419565492,-0.06630586970317003,-0.1778299143148893,-0.0873106584287102,0.25344473162558806
307,8.144457799993688,0.02394229288371559,0.03912138398384447,-0.14502338717642785,0.07229889937828399,0.07632043416973651,-0.1248140694980721,0.03819231480265594,0.08311506978866491,-0.06517974393810176,-0.1790054552574047,-0.08914126292764941,0.2547939126553293
308,8.148544600000605,0.024263045358611682,0.039460398117405676,-0.14557711463663783,0.07246638307086804,0.07668786602948259,-0.12510039821091587,0.03739651793439801,0.08271601239046027,-0.06404773760791412,-0.18015110105964174,-0.09096312722818854,0.25609872426638675
309,8.15268840000499,0.024584532188941056,0.039801036530458155,-0.1461320997880651,0.07263032910719086,0.07705351166136071,-0.12538169786255585,0.03659571079018579,0.08230890156063239,-0.06291004784217376,-0.18126669762084097,-0.09277587787798444,0.257358945207808
310,8.156911600002786,0.024906737649124953,0.040143291228631875,-0.1466883202896713,0.07279071558031779,0.07741733546775269,-0.12565794370588484,0.035790026855263085,0.08189377851007232,-0.061766872699806574,-0.18235210229808627,-0.0945791433187559,0.2585743767183441
311,8.161056600001757,0.025229645917819312,0.04048715406021802,-0.1472457536927012,0.07294752117622301,0.0777793020373087,-0.12592911187340664,0.03497960022245129,0.08147068609133741,-0.06061841107191722,-0.18340718300539174,-0.09637255450450147,0.2597448425232733
312,8.165270800003782,0.02555324108054806,0.04083261671701056,-0.14780437744458882,0.07310072517638058,0.07813937615219492,-0.12619517938070288,0.034164565547617175,0.08103966878601937,-0.05946486257968086,-0.1844318175346993,-0.09815574533862731,0.2608701889146046
313,8.169368500006385,0.025877507132347485,0.0411796707351797,-0.14836416889287762,0.07325030746016344,0.07849752279528328,-0.1264561241294365,0.033345058006661134,0.08060077269123686,-0.058306427476451914,-0.18542589324720746,-0.09992835294479835,0.2619502837167718
314,8.17385700000159,0.026202427980420797,0.04152830749617723,-0.14892510528915326,0.0733962485070532,0.07885370715727948,-0.12671192490995103,0.032521213253720614,0.08015404550460307,-0.05714330655482242,-0.18638930685410823,-0.101690017787084,0.26298501600552704
315,8.177626200005761,0.02652798744680208,0.04187851822767312,-0.14948716379298688,0.07353852939866881,0.07920789464377949,-0.12696256140345036,0.03169316738010161,0.07969953650965356,-0.05597570105122211,-0.18732196420721736,-0.1034403834581173,0.26397429630759106
316,8.181992900004843,0.02685416927102883,0.042230294004523376,-0.15005032147588712,0.07367713182061233,0.0795600508822684,-0.1272080141837525,0.030861056874337628,0.07923729656269123,-0.05480381255120735,-0.18822377982616065,-0.10517909633172841,0.26491805604374724
317,8.185958300004131,0.02718095711282226,0.042583625749768726,-0.150614555325259,0.0738120380641436,0.0799101417290604,-0.12744826471862994,0.030025018585311536,0.07876737808129276,-0.05362784289899684,-0.1890946759898611,-0.10690580507511956,0.2658162459708278
318,8.189795400001458,0.027508334554774697,0.04293850423566394,-0.15117984224836775,0.07394323102769922,0.08025813327619566,-0.12768329537076178,0.029185189690366303,0.07828983503547703,-0.05244799411656858,-0.18993458198015248,-0.10862016022888217,0.26666883431097727
319,8.194137200000114,0.02783628510504334,0.043294920084737655,-0.15174615907630618,0.07407069421828454,0.08060399185830211,-0.127913089398357,0.02834170766513039,0.07780472293993357,-0.051264468329775145,-0.1907434345699584,-0.11032181413791622,0.2674758070301091
320,8.198628099999041,0.028164792200049985,0.0436528637708825,-0.152313482567964,0.07419441175272527,0.08094768405942346,-0.12813763095545172,0.02749471024730195,0.07731209884580328,-0.050077467684972794,-0.19152117972706664,-0.11201042157972137,0.2682371714235459
321,8.202918700000737,0.028493839207185886,0.044012325620475426,-0.15288178941399788,0.07431436835873852,0.08128917671980808,-0.1283569050917937,0.026644335391374386,0.07681202132733865,-0.048887194243358696,-0.1922677740560532,-0.11368564077026216,0.26895295935006264
322,8.206884200000786,0.02882340942752097,0.04437329581352804,-0.1534510562407997,0.07443054937578307,0.08162843694261883,-0.12857089775220315,0.025790721219641384,0.0763045504647698,-0.047693849868938085,-0.19298318478768337,-0.11534713341450073,0.26962322710891923
323,8.211404799993034,0.02915348609851624,0.04473576438486635,-0.15402125961446086,0.07454294075569626,0.08196543210057008,-0.12877959577546422,0.024934005977016397,0.07578974783051694,-0.04649763612395129,-0.1936673889495523,-0.11699456408818058,0.2702480540451031
324,8.215240599995013,0.029484052396738614,0.04509972122533995,-0.15459237604473094,0.07465152906314385,0.08230012984251536,-0.1289829868927591,0.024074327989387943,0.07526767647753536,-0.04529875416920204,-0.1943203729851505,-0.11862760045726192,0.27082754139451753
325,8.220123299994157,0.029815091440577337,0.04546515608306015,-0.15516438198896795,0.07475630147588777,0.08263249809998106,-0.12918105972567623,0.02321182562181516,0.07473840092358315,-0.044097404669719106,-0.19494213339152172,-0.12024591459370063,0.2713618126808196
326,8.227746899996419,0.030146586292961186,0.04583205856466703,-0.1557372538560793,0.07485724578486556,0.08296250509361466,-0.12937380378380817,0.022346637231231807,0.07420198712790499,-0.04289378769156761,-0.19553267832727125,-0.12184918475890388,0.2718510169059934
327,8.231818999993266,0.03047851996407558,0.046200418136624774,-0.15631096801045094,0.07495435039403892,0.08329011933951182,-0.12956120946184535,0.02147890111039071,0.0736585024596938,-0.041688102579233936,-0.19609202901898007,-0.1234370970700452,0.272295331181897
328,8.23655790000339,0.030810875414078447,0.04657022412654476,-0.1568855007758624,0.0750476043199763,0.08361530965538504,-0.12974326803608735,0.020608755428103295,0.07310801566000674,-0.04048054782911473,-0.19662021953222217,-0.1250093460863098,0.27269495921607373
329,8.240341600001557,0.031143635555813638,0.04694146572453557,-0.15746082843938514,0.07513699719117191,0.08393804516655327,-0.1299199716604153,0.01973633817521343,0.07255059680503119,-0.03927132098032144,-0.19711729505259165,-0.1265656340525033,0.27305012752115265
330,8.244555099998252,0.031476783257520756,0.04731413198457918,-0.1580369272552618,0.07522251924714947,0.08425829531178504,-0.13009131336183546,0.018861787120071482,0.07198631727470431,-0.03806061852176384,-0.197583310234763,-0.12810566986296784,0.27336108234689
331,8.248572500000591,0.03181030134554062,0.04768821182593272,-0.1586137734487651,0.07530416133738656,0.08457602984900987,-0.13025728703562817,0.01798523976913975,0.0714152497251614,-0.036848635810144574,-0.1980183283206547,-0.12962916860096613,0.2736280871298951
332,8.25284180000017,0.03214417260701558,0.04806369403455532,-0.15919134322003411,0.07538191492006928,0.08489121886091729,-0.13041788744016458,0.017106833330281873,0.07083746806143776,-0.0356355669996447,-0.19842242069153143,-0.1311358519692685,0.2738514210939351
333,8.256856799998786,0.032478379792583924,0.04844056726455949,-0.15976961274788717,0.07545577206069123,0.0852038327604263,-0.1305731101914325,0.0162267046773378,0.07025304740610086,-0.034421604972323175,-0.19879566670280527,-0.13262544885730718,0.274031379013177
334,8.261009900001227,0.03281290561906777,0.0488188200396864,-0.1603485581936097,0.07552572543049424,0.08551384229600638,-0.13072295175723628,0.015344990314877275,0.0696620640669258,-0.03320694126990065,-0.1991381534896819,-0.13409769536113977,0.27416827053513143
335,8.265181199996732,0.033147732772153694,0.04919844075480445,-0.16092815570471566,0.07559176830475492,0.0858212185568605,-0.13086740945111802,0.014461826344497287,0.06906459550535053,-0.031991766030159435,-0.19944997571414758,-0.13555233471489483,0.2742624197000654
336,8.269306400005007,0.0334828439090654,0.049579417677430494,-0.1615083814186815,0.07565389456092673,0.08612593297796654,-0.1310064814259939,0.013577348431817914,0.0684607203047589,-0.03077626792298656,-0.1997312356080798,-0.13698911733901203,0.27431416398549335
337,8.275741499994183,0.033818221661227874,0.04996173894927306,-0.16208921146665126,0.07571209867663407,0.0864279573449792,-0.13114016666750844,0.012691691772397684,0.06785051813850834,-0.029560634095241997,-0.19998204307872913,-0.1384078007702722,0.2743238535492605
338,8.27962380000099,0.03415384863692232,0.050345392587797036,-0.16267062197711157,0.0757663757275122,0.08672726379898804,-0.13126846498718234,0.011804991057794588,0.06723406973883299,-0.02834505011350994,-0.20020251547036969,-0.13980814956427076,0.2742918519055332
339,8.283958800006076,0.03448970742393114,0.050730366487809056,-0.16325258907953605,0.07581672138490056,0.08702382484114388,-0.13139137701525933,0.010917380443593833,0.06661145686573576,-0.02712969990297604,-0.20039277749221374,-0.14118993551361614,0.2742185357247974
340,8.288643599997158,0.03482578059217242,0.05111664842306318,-0.16383508890799695,0.07586313191339937,0.08731761333714105,-0.1315089041933122,0.010028993516107717,0.06598276227395765,-0.025914765691951204,-0.20055296179935034,-0.14255293829406876,0.2741042954752236
341,8.29376630000479,0.03516205069632328,0.05150422604788603,-0.1644180976047439,0.0759056041682678,0.0876086025215511,-0.1316210487665982,0.009139963255254764,0.06534806967614334,-0.024700427945064666,-0.2006832098284658,-0.1438969470914615,0.27394953773405867
342,8.299144799995702,0.035498500278431266,0.051893086898820835,-0.16500159132374798,0.07594413559265159,0.0878967660019786,-0.13172781377607276,0.008250421993852959,0.0647074636953918,-0.023486865287302903,-0.20078367278374612,-0.14522176200775808,0.273754686700404
343,8.30508479999844,0.03583511187051317,0.05228321839628943,-0.1655855462342095,0.07597872421462043,0.08818207776297428,-0.1318292030500718,0.007360501371761237,0.06406102981596058,-0.02227425442379558,-0.20085451192840684,-0.14652719321190183,0.27352018407683476
344,8.308826399996178,0.03617186799714016,0.05267460784627099,-0.1661699385240285,0.07600936864398918,0.08846451216975401,-0.13192522119561464,0.006470332292589015,0.06340885434334205,-0.021062770064903615,-0.20089589708799482,-0.14781305906571385,0.273246486518424
345,8.312985700002173,0.03650875117800838,0.05306724244199695,-0.1667547444032354,0.07603606806897158,0.08874404397175809,-0.13201587358942216,0.0055800448911022945,0.06275102437157712,-0.019852584868613375,-0.20090800476639617,-0.14907918458020591,0.27293406184603086
346,8.3170184000046,0.03684574393049447,0.053461109265661305,-0.16733994010738182,0.0760588222527126,0.0890206483060805,-0.1321011663687093,0.004689768506630224,0.06208762775701253,-0.018643869399184776,-0.2008910172090522,-0.1503254004093557,0.27258338681087757
347,8.321002900003805,0.03718282877219545,0.053856195290145945,-0.16792550190088978,0.07607763152970648,0.08929430070079568,-0.13218110642183684,0.0037996316587735283,0.0614187530945323,-0.017436792089357098,-0.2008451220140761,-0.15155154241969981,0.2721949474532249
348,8.325062899995828,0.03751998822345243,0.054252487380760404,-0.16851140608035958,0.07609249680211376,0.0895649770781771,-0.13225570137876877,0.0029097620242575836,0.06074448969512954,-0.016231519195818302,-0.20077051206263877,-0.15275745139085434,0.2717692385853897
349,8.329667600002722,0.03785720480985789,0.054649972296995725,-0.16909762897783442,0.0761034195359742,0.08983265375782522,-0.13232495960132948,0.0020202864132578056,0.060064927564792085,-0.015028214765992644,-0.20066738556967764,-0.15394297319749958,0.27130676223797684
350,8.334668399998918,0.038194461064745854,0.05504863669429195,-0.16968414696402195,0.076110401757314,0.09009730745969903,-0.13238889017336683,0.001131330745803318,0.059380157380461415,-0.013827040607280384,-0.20053594644133027,-0.15510795972514047,0.2708080293334404
351,8.339603800006444,0.038531739531664624,0.05544846712581883,-0.17027093645147173,0.07611344604814957,0.09035891530703088,-0.13244750289073665,0.0002430200249345502,0.0586902704608023,-0.01262815623901333,-0.20037640560007167,-0.15625227047422827,0.2702735623946632
352,8.343934000004083,0.03886902276683156,0.05584945004426917,-0.170857973897708,0.07611255554235688,0.09061745482909897,-0.13250080825104005,-0.0006445216986372296,0.05799535872794509,-0.011431718837689534,-0.2001889822736315,-0.15737577439503297,0.2697038955887769
353,8.348576399992453,0.03920629334156919,0.05625157180366409,-0.17144523580831614,0.07610773392136203,0.09087290396380311,-0.13254881744312255,-0.0015311713647954532,0.057295514661993605,-0.010237883188540483,-0.1999739033147568,-0.15847835017599482,0.269099574087913
354,8.352772800004459,0.039543533844721826,0.056654818661169205,-0.17203269873998248,0.07609898540967142,0.09112524106003406,-0.13259154233638218,-0.002416806933330059,0.05659083126021191,-0.009046801636431186,-0.19973140114724894,-0.15955988469066507,0.2684611522330943
355,8.35703129999456,0.03988072688505203,0.0570591767789209,-0.17262033930348594,0.07608631477030259,0.09137444487988756,-0.1326289954698334,-0.0033013074039996157,0.05588140200529632,-0.007858624053700029,-0.1994617121830428,-0.16062027160029832,0.26778918943054875
356,8.361138599997503,0.04021785509361674,0.057464632225862115,-0.17320813416664088,0.07606972730013659,0.0916204946007525,-0.1326611900411302,-0.004184552831814361,0.05516732083694682,-0.006673497827428122,-0.1991650758045012,-0.16165941094465536,0.26708424911350903
357,8.365153399994597,0.04055490112612258,0.05787117097958711,-0.17379606005719153,0.07604922882521332,0.09186336981727297,-0.13268813989551723,-0.005066424338078824,0.05444868212376561,-0.005491567836480292,-0.1988417336967227,-0.16267720914430178,0.2663468991807436
358,8.369370600004913,0.040891847665260245,0.05827877892819468,-0.17438409376565686,0.0760248256959861,0.09210305054318738,-0.1327098595146494,-0.0059468041197573915,0.05372558063480812,-0.004312976434887909,-0.19849192960760292,-0.16367357904901117,0.26557770984347434
359,8.373556999998982,0.041228677423017765,0.058687441872149186,-0.17497221214812597,0.07599652478253398,0.0923395172130384,-0.1327263640053957,-0.00682557545839045,0.05299811151105263,-0.0031378634479717494,-0.19811590914959407,-0.16464843986745212,0.26477725246844286
360,8.377825400006259,0.041565373142972484,0.05909714552614894,-0.1755603921290037,0.07596433346973723,0.09257275068375923,-0.1327376690886245,-0.007702622727703028,0.05226637023757444,-0.001966366165978244,-0.19771391960976878,-0.165601717526919,0.2639461001782861
361,8.384533899996313,0.041901917602561546,0.059507875521001306,-0.17614861070370666,0.07592825965242232,0.0928027322361369,-0.13274379108795095,-0.00857783140083762,0.05153045261182729,-0.0007986193348814632,-0.19728621014841383,-0.16653334588043936,0.2630848284476718
362,8.390165899996646,0.042238293615330845,0.059919617405504014,-0.17673684494130906,0.07588831173047328,0.09302944357611745,-0.13274474691844074,-0.009451088059722872,0.050790454705119475,0.0003652448552639345,-0.1968330324988797,-0.167443268120254,0.26219401585950974
363,8.394435299996985,0.04257448403316219,0.060332356648331864,-0.17732507198713868,0.07584449860389358,0.09325286683592783,-0.13274055407525429,-0.010322280408508891,0.05004647281836821,0.0015250967862227049,-0.19635464174305065,-0.16833143792380056,0.2612742453452808
364,8.398655600001803,0.04291047174847849,0.060746078639927974,-0.17791326906532204,0.07579682966779851,0.0934729845749889,-0.1327312306222096,-0.011191297289808591,0.04929860343341932,0.0026808094342185857,-0.19585129632123902,-0.16919781944646597,0.260326104620742
365,8.402713899995433,0.04324623969642655,0.06116076869439857,-0.178501413481279,0.07574531480733306,0.09368977978060594,-0.1327167951802258,-0.012058028698220691,0.048546943168865854,0.0038322583896957694,-0.1953232568581138,-0.17004238556586565,0.25935018351268246
366,8.406857399997534,0.043581770857037176,0.06157641205141036,-0.1790894826241655,0.07568996439254445,0.09390323586849007,-0.13269726691571088,-0.01292236578616576,0.04779158874692802,0.004979321856266629,-0.19477078489533922,-0.17086511586693448,0.2583470712125323
367,8.411337900004582,0.043917048257362576,0.06199299387808994,-0.17967745396926527,0.07563078927324837,0.09411333668315525,-0.1326726655290145,-0.01378420086617712,0.047032636967129074,0.0061218806461330695,-0.19419414274086216,-0.1716659959060278,0.2573173569898161
368,8.415235399996163,0.04425205497359096,0.06241049927092468,-0.18026530508033026,0.0755678007738811,0.09432006649820635,-0.13264301124285632,-0.014643427415401181,0.04627018467969721,0.007259818185357296,-0.19359359389949357,-0.1724450179683725,0.2562616308720373
369,8.423743299994385,0.04458677413313827,0.06282891325766471,-0.1808530136118697,0.0755010106883259,0.09452341001650047,-0.1326083247907322,-0.015499940081704416,0.04550432875252849,0.008393020515308694,-0.1929694037808853,-0.17320218282095717,0.2551804840842699
370,8.43030419999559,0.04492118891671698,0.06324822079922521,-0.18144055731138786,0.07543043127471105,0.09472335237014223,-0.13256862740532957,-0.0163536346944482,0.044735166029053614,0.00952137630183052,-0.1923218410628315,-0.17393750187692555,0.25407451127786357
371,8.435422900001868,0.04525528256038172,0.06366840679158835,-0.18202791402157042,0.0753560752501407,0.09491987912027164,-0.13252394080685242,-0.017204408282678142,0.04396279327601872,0.01064477685643886,-0.19165117868953843,-0.17465099902037848,0.25294431145203194
372,8.44050110000535,0.04558903835755135,0.06408945606770372,-0.18261506168241876,0.0752779557853317,0.09511297625659658,-0.13247428719124887,-0.01805215909474619,0.043187307125179694,0.011763116153656975,-0.1909576936634898,-0.17534271056467443,0.25179048731425313
373,8.444290100000217,0.04592243966100705,0.06451135339938613,-0.18320197833333196,0.07519608649917059,0.09530263019666398,-0.13241968921838246,-0.01889678661465535,0.04240880402145253,0.012876290846545754,-0.19024166616555688,-0.17601268317002214,0.25061364396396674
374,8.448469299997669,0.046255469884866195,0.06493408349920955,-0.18378864211513632,0.07511048145320556,0.09548882778493276,-0.13236017000012207,-0.019738191573883675,0.04162738018306315,0.013984200272372219,-0.18950337832049757,-0.17666097146105722,0.24941438614158865
375,8.45275660000334,0.0465881125065316,0.06535763102239672,-0.18437503127206178,0.07502115514609863,0.09567155629169181,-0.13229575308846303,-0.02057627595678814,0.04084313157081222,0.015086746443759144,-0.18874311294196464,-0.17728763634251107,0.24819331611465095
376,8.45684810000239,0.04692035106861623,0.0657819805687035,-0.18496112415366614,0.0749281225080697,0.0958508034118606,-0.13222646246369546,-0.02141094300130616,0.04005615386315245,0.016183834035619297,-0.18796115273318345,-0.17789274386329648,0.2469510326834206
377,8.46108429999731,0.047252169180843205,0.06620711668429784,-0.18554689921670664,0.07483139889534256,0.0960265572636862,-0.13215232252264114,-0.022242097197275386,0.039266542435520545,0.017275370367492274,-0.18715777995884764,-0.17847636469581554,0.24568813058052183
378,8.465429799995036,0.047583550521921286,0.06663302386363257,-0.18613233502695992,0.07473100008460383,0.09619880638736074,-0.13207335806697842,-0.0230696442842274,0.03847439234002922,0.018361265385157848,-0.1863332765444144,-0.17903857439763868,0.2444051996338037
379,8.469412299993564,0.04791447884139579,0.06705968655131214,-0.18671741026099015,0.07462694226746848,0.09636753974353851,-0.13198959429164206,-0.0238934912505875,0.037679798282479984,0.019441431635553643,-0.185487924057024,-0.17957945335195402,0.24310282420942966
380,8.47410160000436,0.048244937961475,0.0674870891439523,-0.18730210370786615,0.0745192420449459,0.09653274671174963,-0.13190105677337038,-0.024713546331299307,0.0368828546025829,0.02051578424345282,-0.18462200320671932,-0.18009908626649265,0.2417815843274652
381,8.47814059999655,0.048574911778832046,0.06791521599203268,-0.18788639427082807,0.07440791642192643,0.09669441708874187,-0.13180777145931186,-0.02552971900260406,0.036083655255410206,0.021584240896268737,-0.18373579363618758,-0.18059756181679973,0.2404420555413791
382,8.482027999998536,0.04890438426638246,0.06834405140174186,-0.18847026096890346,0.07429298280169376,0.09685254108672992,-0.1317097646557069,-0.026341919977801782,0.03528229379477763,0.022646721819664713,-0.18282957408154518,-0.18107497246636894,0.2390848072651908
383,8.48600190000434,0.04923333947503741,0.06877357963681445,-0.1890536829384737,0.074174458980449,0.09700710933158996,-0.13160706301671066,-0.027150061203455575,0.034478863356292064,0.023703149747532883,-0.1819036221924738,-0.1815314147652436,0.23771040265297055
384,8.490174099992146,0.049561761535432736,0.06920378492036006,-0.18963663943479098,0.07405236314185668,0.09715811286095871,-0.1314996935333408,-0.027954055853558698,0.0336734566380865,0.024753449896536023,-0.18095821448204044,-0.18196698929152913,0.2363193997939358
385,8.497219099997892,0.04988963465963383,0.0696346514366836,-0.1902191098334468,0.07392671385162056,0.09730554312225721,-0.13138768352252592,-0.028753818325294143,0.03286616588438605,0.025797549946678055,-0.1799936266862505,-0.18238180078920996,0.23491235247325876
386,8.502337300000363,0.050216943142816606,0.07006616333309676,-0.19080107363179194,0.07379753005206721,0.09744939197064424,-0.13127106061622568,-0.029549264236388293,0.03205708286502151,0.026835380022588583,-0.17901013425117013,-0.1827759592849756,0.23348980961020688
387,8.507394800006296,0.0505436713649244,0.07049830472172013,-0.19138251045030838,0.07366483105674528,0.09758965166685854,-0.13114985275064492,-0.03034031042518765,0.031246298849097374,0.027866872669113873,-0.1780080132612279,-0.18314958114568056,0.23205231561751977
388,8.511273399999482,0.05086980379230105,0.07093105968127554,-0.1919634000339338,0.07352863654500834,0.09772631487493887,-0.13102408815557015,-0.031126874956239652,0.03043390457513356,0.0288919628357864,-0.17698754058939742,-0.1835027891974269,0.2306004122788649
389,8.515414099994814,0.05119532497929978,0.07136441225886803,-0.19254372225333904,0.07338896655656475,0.09785937465980159,-0.13089379534372136,-0.031908877121700395,0.029619990223678092,0.029910587869054928,-0.17594899288744398,-0.1838357113502515,0.2291346375887234
390,8.519293000004836,0.051520219569868,0.07179834647175667,-0.1931234571061581,0.07324584148604804,0.09798882448471802,-0.13075900310015734,-0.032686237437966434,0.02880464539963763,0.030922687486472457,-0.1748926460205296,-0.18414847870353304,0.2276555228423878
391,8.523679499994614,0.05184447229910806,0.07223284630911421,-0.19370258471817178,0.07309928207759656,0.09811465820873541,-0.13061974047185623,-0.03345887764207165,0.02798795912168112,0.031928203743136166,-0.17381877487780853,-0.18444122433022048,0.22616359263773167
392,8.527917200000957,0.05216806799481401,0.07266789573377502,-0.19428108534444533,0.07294930941945582,0.09823687008406039,-0.1304760367574183,-0.034226720686640434,0.027170019815345222,0.032927081005891035,-0.17272765325087008,-0.1847140826994272,0.22465936519253027
393,8.53181559999939,0.052490991578984514,0.07310347868397155,-0.1948589393704208,0.07279594493860292,0.09835545475341882,-0.13032792149687517,-0.03498969073520724,0.02635091530755526,0.03391926592258208,-0.17161955375546184,-0.18496718959551012,0.22314335162818436
394,8.536282300003222,0.05281322806931198,0.07353957907505888,-0.1954361273129644,0.07263921039539031,0.09847040724739071,-0.13017542446166494,-0.035747713156476034,0.025530732820447818,0.0349047073899099,-0.17049474783078786,-0.1852006823979382,0.22161605676550933
395,8.540159099997254,0.05313476258064799,0.07397618080122757,-0.19601262982137002,0.07247912787822111,0.09858172298171533,-0.13001857564472644,-0.03650071451963364,0.024709558963411326,0.0358833565297357,-0.16935350631797322,-0.18541470075888014,0.22007797984242822
396,8.549638399999822,0.05345558032644525,0.07441326773720433,-0.1965884276783188,0.07231571979823442,0.09868939775455553,-0.12985740525068434,-0.03724862259373586,0.023887479720903486,0.0368551666632974,-0.16819610058713896,-0.18560938839690877,0.21852961527406886
397,8.55827429999772,0.05377566662017592,0.07485082373994056,-0.1971635018007956,0.07214900888398607,0.09879342774369493,-0.12969194368617185,-0.037991366353009634,0.02306458042859501,0.037820093294251095,-0.16702280427085525,-0.18578489586954217,0.21697145532141535
398,8.565731800001231,0.054095006876726394,0.07528883265028828,-0.1977378332409628,0.07197901817608693,0.09889380950359082,-0.12952222155016616,-0.03872887599160202,0.022240945736615163,0.038778094106538354,-0.1658338950082015,-0.18594138256589898,0.21540399156769194
399,8.570832299999893,0.05441358661376816,0.07572727829466248,-0.19831140318699128,0.07180577102175296,0.09899053996224559,-0.12934826962433002,-0.03946108294433922,0.021416659568035425,0.03972912896051219,-0.16462965478470928,-0.18607901654661954,0.21382771463989944
400,8.574506799996016,0.054731391453104246,0.07616614448668935,-0.19888419296384846,0.07162929106925958,0.09908361641789168,-0.1291701188633816,-0.04018791990448836,0.020591805083533754,0.040673159888336495,-0.1634103685467965,-0.18619797207257383,0.21224311253278694
401,8.578046099995845,0.055048407121990925,0.07660541502883923,-0.19945618403404392,0.07144960226233421,0.09917303653554985,-0.1289878003854767,-0.04090932083223681,0.01976646466178028,0.04161015107525805,-0.1621763223972842,-0.1862984265353138,0.2106506674589132
402,8.581825799992657,0.05536461945443449,0.07704507371404437,-0.20002735799833232,0.07126672883453555,0.0992587983435403,-0.1288013454627447,-0.04162522095646158,0.01894071989130568,0.04254006882708936,-0.16092780252786443,-0.18638055876107193,0.20905085477439675
403,8.586165799992159,0.055680014392463124,0.07748510432730095,-0.20059769659637508,0.07108069530363047,0.0993409002299689,-0.12861078551195892,-0.04233555677374754,0.01811465156591783,0.04346288154196009,-0.15966509458180225,-0.18644454807433405,0.20744414277855783
404,8.590599300005124,0.05599457798737386,0.07792549064725565,-0.20116718170736061,0.07089152646598192,0.09941934093919765,-0.12841615208532295,-0.04304026604450873,0.017288339684869335,0.044378559676024144,-0.15838848328677857,-0.1864905735615914,0.20583099179303602
405,8.594447600000422,0.0563082964009547,0.07836621644777647,-0.20173579535058433,0.07069924739096023,0.09949411956833237,-0.12821747686144488,-0.043739287788752614,0.016461863454799254,0.04528707570704973,-0.15709825240294828,-0.18651881396921477,0.20421185432646116
406,8.598953099994105,0.056621155906682034,0.07880726549950812,-0.20230351968598895,0.07050388341536859,0.09956523556371047,-0.12801479163644633,-0.044432562281741035,0.01563530129080572,0.04618840410158586,-0.15579468443335232,-0.18652944748525147,0.20258717547340802
407,8.602631799993105,0.05693314289089338,0.0792486215714117,-0.2028703370146656,0.07030546013789275,0.09963268871739805,-0.12780812831522773,-0.045120031047187995,0.014808730820321504,0.047082521282088174,-0.15447806026736813,-0.1865226517805923,0.20095739290944886
408,8.606955499999458,0.05724424385393559,0.0796902684322891,-0.20343622977931686,0.07010400341358682,0.09969647916371205,-0.1275975189028686,-0.045801636849760644,0.013982228883821795,0.0479694055940416,-0.15314865936940733,-0.18649860440527535,0.1993229361752261
409,8.613287899992429,0.057554445411288735,0.08013218985229183,-0.2040011805646815,0.0698995393483894,0.09975660737572363,-0.12738299549618434,-0.04647732368994941,0.013155871535187484,0.04884903726674119,-0.151806759926451,-0.18645748265067155,0.19768422680012804
410,8.617451199999778,0.05786373429466571,0.08057436960441439,-0.20456517209792274,0.06969209429365487,0.09981307416178352,-0.12716459027547397,-0.047147036797876546,0.012329734043634345,0.04972139838151089,-0.15045263878073023,-0.18639946370903127,0.19604167953484988
411,8.621607699999004,0.058172097353087635,0.08101679146597236,-0.20512818724897997,0.06948169484072443,0.09986588066204254,-0.1269423354963586,-0.047810722627569614,0.011503890892662315,0.05058647284340805,-0.14908657212709975,-0.18632472503091874,0.19439570234891795
412,8.62807089999842,0.05847952155393536,0.08145943922006495,-0.20569020903088447,0.06926836781550805,0.09991502834496757,-0.12671626348178006,-0.04846832885695058,0.010678415778816884,0.05144424634942024,-0.14770883617897018,-0.1862334449241741,0.19274669695543978
413,8.634154999992461,0.05878599398397686,0.08190229665702213,-0.2062512206000404,0.06905214027305565,0.09996051900385117,-0.12648640661412106,-0.04911980438801117,0.009853381605330032,0.0522947063648204,-0.1463197072502843,-0.18612580357108785,0.19109505996274312
414,8.638324700004887,0.05909150185037059,0.08234534757583631,-0.20681120525647056,0.06883303949213752,0.10000235475327113,-0.12625279732741346,-0.049765099347528485,0.009028860471866816,0.05313784210157016,-0.14491946193414693,-0.18600198304819063,0.18944118295352666
415,8.642167800004245,0.05939603248164488,0.08278857578557809,-0.2073701464440284,0.06861109296980916,0.10004053802550923,-0.1260154680996499,-0.0504041650888235,0.008204923667990924,0.05397364449537647,-0.14350837679327233,-0.185862166487706,0.18778545137245128
416,8.64694249999593,0.05969957332865311,0.08323196510679617,-0.20792802775057564,0.06838632841597607,0.10007507156695293,-0.12577445144519525,-0.051036954189733204,0.007381641670342957,0.05480210617423611,-0.14208672766349223,-0.18570653775969362,0.18612824368512337
417,8.653088199993363,0.06000211196550494,0.08367549937290125,-0.20848483290812694,0.06815877374797656,0.10010595843448905,-0.12552977990737715,-0.05166342044819641,0.006559084138923013,0.055623221428038716,-0.14065478981189322,-0.1855352819309007,0.18446993289616978
418,8.657033099996625,0.06030363609047346,0.08411916243153393,-0.20904054579296197,0.06792845708518573,0.10013320199187255,-0.12528148605116682,-0.05228351888162741,0.005737319910202359,0.056436986190565384,-0.13921283872429496,-0.18534858580241442,0.18281088706480153
419,8.661271599994507,0.06060413352687862,0.08456293814591646,-0.20959515042570512,0.06769540674360378,0.10015680590605916,-0.12502960245592906,-0.05289720572948084,0.004916416988641031,0.057243398013660914,-0.13776114996726113,-0.18514663822822508,0.18115146743160407
420,8.665153399997507,0.06090359222394641,0.08500681039618815,-0.21014863097137337,0.06745965123043723,0.10017677414349899,-0.12477416170833208,-0.05350443845140242,0.004096442536976209,0.05804245603263092,-0.1362999983598042,-0.18492962945831054,0.17949202858055785
421,8.6694897999987,0.06120200025764423,0.08545076308072425,-0.21070097173939317,0.06722121923870371,0.10019311096638307,-0.12451519639540412,-0.05410517572245298,0.003277462873561785,0.05883416094185001,-0.13482965730462693,-0.18469774960306776,0.17783291931221185
422,8.673946099996101,0.06149934583149232,0.08589478011743806,-0.21125215718358673,0.06698013964185542,0.1002058209289134,-0.12425273909765942,-0.05469937742533228,0.0024595434762658456,0.05961851496789748,-0.13335039808156307,-0.18445118849320158,0.1761744806930816
423,8.677624499992817,0.061795617277351444,0.08633884544506684,-0.21180217190212797,0.06673644148845287,0.10021490887358404,-0.12398682238239299,-0.05528700463934108,0.001642748981051982,0.06039552182787811,-0.13186248968820688,-0.18419013621967345,0.17451704493794432
424,8.681999299995368,0.0620908030561871,0.08678294302444091,-0.21235100063746945,0.06649015399688618,0.10022037992743854,-0.12371747879717591,-0.05586801963119254,0.0008271431810914341,0.06116518669265208,-0.13036619930759838,-0.1839147828524195,0.1728609366847939
425,8.685978499997873,0.062384891758810436,0.08722705683973635,-0.21289862827624065,0.06624130655013022,0.1002222394983432,-0.12344474086347602,-0.056442385848119184,1.2789027837286367e-05,0.061927516156455205,-0.12886179247801566,-0.18362531850166,0.1712064732761231
426,8.690312699996866,0.062677872106596,0.08767117089971115,-0.2134450398491183,0.06598992869052704,0.10022049327125404,-0.12316864107042245,-0.05701006791018908,-0.0008002513704067511,0.06268251820262173,-0.12734953275427124,-0.18332193347762274,0.16955396451881216
427,8.694349099998362,0.06296973295217641,0.08811526923892478,-0.2139902205306695,0.06573605011460908,0.10021514720447733,-0.12288921186873007,-0.057571031600411056,-0.0016119167488277053,0.06343020217107653,-0.12582968172750048,-0.18300481792975198,0.16790371332124865
428,8.698530699999537,0.06326046328011416,0.08855933591894122,-0.21453415563916808,0.06547970066796929,0.10020620752593354,-0.12260648566475216,-0.05812524385722622,-0.0024221466843370215,0.06417057872970446,-0.12430249949320125,-0.1826741616099509,0.16625601613204602
429,8.702860599994892,0.06355005220755089,0.0890033550295154,-0.21507683063638514,0.06522091034015091,0.10019368072943356,-0.12232049481465856,-0.05867267276876123,-0.0032308815938136407,0.0649036598457307,-0.12276824446253486,-0.1823301545489315,0.16461116278207882
430,8.70723430000362,0.06383848898483392,0.08944731068976322,-0.21561823112735376,0.06495970925956852,0.1001775735709582,-0.12203127161874205,-0.05921328756364746,-0.004038062738331889,0.06562945875569016,-0.1212271729638949,-0.1819729872751275,0.16296943648342088
431,8.711594199994579,0.06412576299612045,0.08989118704931506,-0.21615834286010902,0.06469612768847914,0.10015789306489693,-0.1217388483158626,-0.05974705860174312,-0.004843632223344687,0.06634798993679845,-0.11967953949062894,-0.1816028497393892,0.1613311143468666
432,8.715228600005503,0.06441186375995955,0.09033496828945244,-0.21669715172540358,0.06443019601798555,0.10013464648032576,-0.12144325707800743,-0.0602739573671479,-0.005647532993381461,0.06705926908150778,-0.11812559685227711,-0.1812199314340696,0.159696467024314
433,8.719433999998728,0.06469678092985208,0.0907786386242285,-0.2172346437563994,0.0641619447630693,0.10010784133729297,-0.12114453000496088,-0.06079395646026544,-0.00644970883328676,0.06776331306570853,-0.11656559612350778,-0.18082442193138326,0.1580657585889667
434,8.724223700002767,0.06498050429478865,0.09122218230157181,-0.21777080512833613,0.06389140455766436,0.10007748540308604,-0.1208426991191462,-0.061307029590365415,-0.00725010436768942,0.0684601399222235,-0.1149997868635608,-0.1804165103844477,0.1564392478507622
435,8.727862300002016,0.06526302377976588,0.09166558360437375,-0.21830562215817712,0.06361860614975604,0.10004358668852206,-0.12053779636053034,-0.06181315156959084,-0.008048665057819118,0.06914976882066752,-0.11342841727685792,-0.17999638558788683,0.15481718879525483
436,8.732480000006035,0.06554432944628096,0.09210882685155942,-0.2188390813042326,0.06334358039650777,0.10000615344424285,-0.12022985358164427,-0.062312298306943584,-0.008845337201512635,0.06983222004483135,-0.11185173419144609,-0.17956423613667066,0.15319983062283835
437,8.73715309999534,0.06582441149280466,0.0925518963991422,-0.2193711691657616,0.06306635825941333,0.09996519415700536,-0.11991890254268815,-0.06280444680210061,-0.009640067931438148,0.07050751497288889,-0.11026998284131595,-0.17912024972873908,0.15158741715190704
438,8.740712800004985,0.06610326025523296,0.09299477664126175,-0.21990187248255177,0.06278697079947841,0.09992071754599251,-0.11960497490672713,-0.06328957513747027,-0.010432805208920932,0.07117567604949154,-0.10868340678477993,-0.1786646129065124,0.14998018633968074
439,8.744539999999688,0.06638086620731737,0.09343745201120594,-0.22043117813447866,0.06250544917244326,0.0998727325591583,-0.11928810223504378,-0.06376766247128521,-0.011223497819876773,0.07183672676172874,-0.10709224814502996,-0.1781975116526734,0.14837837147695648
440,8.748562900000252,0.06665721996107418,0.09387990698241643,-0.22095907314104438,0.06222182462402545,0.09982124836957469,-0.118968315982547,-0.06423868903179056,-0.012012095373917833,0.07249069162181083,-0.10549674743167575,-0.17771913197075245,0.14678220099109832
441,8.753779399994528,0.06693231226717267,0.09432212606947817,-0.2214855446608962,0.06193612848519404,0.09976627437178467,-0.11864564749327786,-0.06470263610875523,-0.012798548305431546,0.07313759614128364,-0.1038971432591204,-0.17722966014397357,0.1451918980075032
442,8.757442100002663,0.06720613401530241,0.09476409382909273,-0.22201057999132542,0.06164839216748757,0.09970782017813955,-0.11832012799604706,-0.06515948604516424,-0.013582807874980535,0.07377746680982476,-0.10229367238754586,-0.17672928213505346,0.14360768134416999
443,8.761518400002387,0.06747867623452004,0.09520579486103535,-0.22253416656774722,0.06135864715836185,0.09964589561513958,-0.11799178860012875,-0.06560922222909314,-0.01436482616506217,0.0744103310782726,-0.10068656950434976,-0.1762181830508465,0.14202976515373017
444,8.766006499994546,0.06774993009357533,0.09564721380909576,-0.22305629196316137,0.061066925016579975,0.09958051071980889,-0.1176606602910483,-0.0660518290834634,-0.015144556076763857,0.07503621733425017,-0.09907606698466052,-0.17569654777876526,0.1404583581668794
