,time,x,y,z,vx,vy,vz,ax,ay,az,jx,jy,jz
0,32.19889590004459,0.00556121213466676,-0.001136804765754065,0.037118425214433017,-0.006562953476461107,0.009255223075427496,0.010449390229803544,0.007763396132958066,-0.0025972783294089664,0.0021670321860620015,0.03807926560303895,-0.027705259293944125,-0.03253001395712026
1,32.20237260009162,0.005532044919223836,-0.0010955896130160532,0.037165008843705785,-0.006527982021002042,0.009243374617885084,0.010458723510702251,0.007933824492774029,-0.0027199344090856996,0.0020205853142669906,0.03841579636546652,-0.027342063452651364,-0.033203712717889265
2,32.20655480003916,0.005503035227299264,-0.0010544284744012872,0.037211632607913395,-0.006492247801858892,0.009230983215137753,0.010467397541140806,0.008105754953710341,-0.002840948837018133,0.0018711230807931943,0.03875346044968405,-0.02696845660025285,-0.033883397678472246
3,32.21085780009162,0.005474186472653299,-0.0010133237529554367,0.03725829353952304,-0.006455744114468525,0.009218056285696781,0.01047539882533919,0.008279192551616368,-0.002960275359233782,0.0017186189053990466,0.039092250886675256,-0.026584502568157257,-0.03456902546876475
4,32.21476350002922,0.005445502098971494,-0.0009722778182083,0.03730498861060131,-0.0064184642318975416,0.009204601453545526,0.010482713749509296,0.008454142288617844,-0.0030778680163821145,0.0015630464062541594,0.039432159564172606,-0.026190269703003442,-0.035260550395227144
5,32.21923270006664,0.00541698557996405,-0.0009312930052611541,0.03735171473229029,-0.006380401405004223,0.009190626546781698,0.010489328582758127,0.008630609128268189,-0.003193681163590987,0.0014043794103345132,0.03977317735649674,-0.02578583073641828,-0.03595792414693881
6,32.223380299983546,0.005388640419464388,-0.0008903716138803521,0.03739846875428784,-0.006341548862620338,0.009176139596172483,0.010495229478045464,0.008808597991365736,-0.003307669489688907,0.001242591966353178,0.040115294250735935,-0.02537126263721355,-0.03666109563851246
7,32.22874550009146,0.005360470151526874,-0.0008495159075975503,0.03744524746433221,-0.006301899811750366,0.0091611488336255,0.010500402473202303,0.008988113752229554,-0.0034197880357442595,0.0010776583565554401,0.040458499468043814,-0.02494664646926207,-0.03737001121617068
8,32.23242970008869,0.005332478340523619,-0.0008087281128169317,0.03749204758769142,-0.006261447437786495,0.009145662690578704,0.010504833491993638,0.009169161235597672,-0.00352999221302097,0.0009095531078129842,0.04080278159608688,-0.024512067281830426,-0.03808461473602681
9,32.23653059999924,0.0053046685812402836,-0.0007680104179297824,0.03753886578665732,-0.0062201849047354854,0.009129689796311334,0.010508508345235775,0.009351745214083261,-0.003638237820540384,0.000738251002721386,0.041148128698090855,-0.02406761409086028,-0.03880484779938576
10,32.24046600004658,0.005277044498970859,-0.0007273649724367681,0.037585698660044936,-0.006178105355456338,0.009113238976177296,0.010511412731958011,0.009535870406044675,-0.003744481062870112,0.0005637270885973106,0.04149452840338435,-0.023613380079038897,-0.0395306500469957
11,32.248529299977235,0.005249609749611357,-0.0006867938860782543,0.03763254274269691,-0.006135201911906142,0.009096319249757578,0.010513532240600126,0.00972154147384855,-0.003848678569468923,0.0003859566859536548,0.04184196796390374,-0.023149463032895532,-0.04026195942350766
12,32.2542447000742,0.005222368019752392,-0.0006462992279730478,0.03767939450499346,-0.006091467675393221,0.009078939828921237,0.010514852350249598,0.009908763022243408,-0.003950787416370959,0.00020491539513990114,0.04219043428118969,-0.02267596571594564,-0.04099871255994591
13,32.2582490000641,0.005195323026770621,-0.0006058830257659982,0.03772625035236791,-0.006046895726837477,0.009061110115784565,0.010515358431898275,0.010097539596863356,-0.004050765148856066,2.0579101408711293e-05,0.042539913968734085,-0.02219299578925213,-0.041740845087486184
14,32.26291210006457,0.005168478518919005,-0.0005655472647849265,0.0377731066248278,-0.006001479127036869,0.00904283970057004,0.010515035749724736,0.01028787568315732,-0.004148569802426053,-0.000167076021240089,0.04289039343533934,-0.021700665302448012,-0.04248829194114296
15,32.267777999979444,0.00514183827541587,-0.0005252938872073078,0.03781995959648187,-0.005955210916937299,0.00902413835937855,0.010513869462385224,0.010479775705635628,-0.004244159920939055,-0.0003580735076993559,0.04324185889749124,-0.021199090209505434,-0.04324098728146694
16,32.27302970003802,0.005115406106532768,-0.0004851247912370534,0.03786680547507268,-0.005908084117905808,0.009005016051886736,0.010511844624317044,0.010673244026909515,-0.004337494573270362,-0.0005524365972128156,0.043594296318038746,-0.020688390216935533,-0.04399886423980498
17,32.277182499994524,0.005089185853681103,-0.0004450418302917147,0.037913640401515174,-0.005860091732009018,0.00898548291897073,0.010508946187069964,0.010868284946391225,-0.004428533370093945,-0.0007501882287446854,0.04394769125537614,-0.020168688764611337,-0.044761854888573524
18,32.28170080005657,0.005063181389497505,-0.00040504681220044275,0.03796046044944121,-0.005811226742297918,0.00896554928025395,0.010505159000650886,0.01106490269798944,-0.004517236480372387,-0.0009513510361729409,0.04430202860372491,-0.019640112776313515,-0.045529889917913714
19,32.28552040003706,0.005037396617927925,-0.0003651414984130454,0.03800726162475008,-0.00576148211310684,0.008945225631583877,0.010500467814898082,0.011263101446494792,-0.004603564645915285,-0.0011559473407773105,0.044657292360331675,-0.019102792154160594,-0.046302898302561527
20,32.28991460008547,0.005011835474310342,-0.0003253276032204341,0.03805403986516529,-0.0057108507903704565,0.0089245226424501,0.010494857280892812,0.011462885283200571,-0.00468747919336358,-0.0013639991434637132,0.04501346546120786,-0.018556859286797858,-0.0470808072917131
21,32.294260299997404,0.004986501925456029,-0.000285606792986691,0.03810079103979768,-0.005659325701961789,0.008903451153354306,0.010488311952402853,0.011664258220824368,-0.004768942044364978,-0.0015755281171619335,0.04537052969046597,-0.018002448747261233,-0.04786354243853289
22,32.29802600003313,0.004961399969729253,-0.0002459806853929544,0.03814751094871504,-0.005606899758054457,0.008882022173137627,0.010480816287361867,0.01186722418832079,-0.004847915724865659,-0.0017905555993130335,0.04572846570732632,-0.01743969714288145,-0.048651027590565325
23,32.30291399999987,0.004936533637125312,-0.0002064508486933042,0.03819419532251842,-0.005553565851506921,0.008860246876267826,0.01047235464937989,0.012071787026043787,-0.004924363373948059,-0.002009102584181578,0.04608725313915073,-0.01686874303654394,-0.04944318489925764
24,32.306609000079334,0.004911906989346808,-0.00016701880098282377,0.038240839821925235,-0.005499316858267843,0.008838136600087889,0.010462911309291204,0.012277950481388479,-0.004998248752420852,-0.0022311897154279133,0.04644687070646605,-0.016289726916853382,-0.05023993502590542
25,32.310813300078735,0.004887524119878074,-0.00012768600947800585,0.03828744003735934,-0.005444145637799165,0.008815702842026651,0.010452470446731024,0.012485718205067674,-0.005069536251390836,-0.0024568372802557625,0.046807296307633035,-0.01570279120084209,-0.05104119732809381
26,32.315916800056584,0.0048633891540576756,-8.8453889809673e-05,0.03833399148854818,-0.005388045033514659,0.008792957256771,0.01044101615173553,0.012695093747508272,-0.005138190900877058,-0.002686065203646057,0.04716850701993781,-0.01510808022438136,-0.051846889879114594
27,32.31984140002169,0.004839506249148927,-4.932380532858464e-05,0.03838048962412716,-0.005331007873235118,0.008769911653399734,0.010428532426369935,0.012906080555137499,-0.005204178378297246,-0.0029188930426775755,0.047530479103284326,-0.014505740190394634,-0.05265692956599178
28,32.32424009998795,0.00481587959440834,-1.029706642390047e-05,0.038426929821251295,-0.005273026969660002,0.008746577992480128,0.010415003186379137,0.01311868196681222,-0.005267465016620411,-0.0031553399816343706,0.04789318804926093,-0.01389591907989644,-0.053471232207208785
29,32.32816979999188,0.004792513411151936,2.8625070145337467e-05,0.03847330738521425,-0.00521409512085445,0.008722968383129144,0.010400412262859387,0.01333290121054246,-0.005328017812060462,-0.0033954248273755853,0.04825660864972376,-0.013278766539180153,-0.05428971252330927
30,32.33296330005396,0.004769411952819355,6.744140190555097e-05,0.038519617549074917,-0.005154205110750128,0.008699095080041434,0.010384743403950202,0.013548741400531911,-0.00538580443122344,-0.0036391660041808767,0.04862071508508053,-0.0126544337426948,-0.05511228391135943
31,32.336804300080985,0.004746579505035701,0.00010615078131065741,0.03856585547329156,-0.005093349709658617,0.008674970480486845,0.010367980276551975,0.013766205534688243,-0.005440793217579097,-0.0038865815471102556,0.04898548100755188,-0.01202307322853377,-0.05593885828810269
32,32.341054400079884,0.0047240203856710765,0.0001447521163706579,0.038612016245363666,-0.005031521674794444,0.008650607121280756,0.010350106468077063,0.013985296492405633,-0.005492953197142016,-0.004137689095451717,0.0493508795264929,-0.011384838716711922,-0.05676934610963924
33,32.34529239998665,0.004701738944897772,0.00018324437126666893,0.038658094879481686,-0.0049687137508082355,0.008626017675730948,0.01033110548822579,0.01420601703194425,-0.005542254083323693,-0.004392505886256461,0.04971688304424239,-0.010739884937488963,-0.057603656234063175
34,32.349514700006694,0.004679739565245042,0.00022162656695230124,0.03870408631618474,-0.004904918670333102,0.008601214950564704,0.01031096077079515,0.014428369786749896,-0.005588666281083682,-0.004651048746562358,0.05008346291290205,-0.010088367509646135,-0.058441695833265694
35,32.35467020003125,0.00465802666165143,0.0002598977817413059,0.03874998542202646,-0.00484012915455059,0.008576211882838684,0.01028965567552411,0.014652357259774726,-0.005632160890696892,-0.004913334086143162,0.05045058901526902,-0.009430442877057452,-0.05928337058911781
36,32.35846590006258,0.004636604681514498,0.0002980571518814143,0.03879578698924917,-0.004774337913787679,0.008551021536832445,0.010267173489966941,0.014877981816062189,-0.005672709711339456,-0.005179377891480346,0.05081822951246747,-0.008766268263237221,-0.06012858485014033
37,32.3624399000546,0.004615478104737832,0.0003361038721142996,0.03884148573546638,-0.00470753764814882,0.008525657100926367,0.010243497431392235,0.015105245674818664,-0.005710285244450961,-0.0054491957199085455,0.051186350816984236,-0.008096001616189815,-0.060977241582622584
38,32.366875500069,0.004594651443775141,0.00037403719622159276,0.0388870763033539,-0.004639721048183583,0.008500131884465204,0.01021861064870841,0.015334150901758095,-0.005744860696828823,-0.005722802693151765,0.0515549177188147,-0.007419801542862601,-0.06182924216474235
39,32.37104180001188,0.004574129243671306,0.0004118564375568924,0.038932553260349535,-0.004570880795586925,0.008474459314608433,0.010192496224420339,0.015564699402297825,-0.005776409983406363,-0.006000213489634038,0.05192389357046422,-0.006737827225033173,-0.06268448631782972
40,32.37495470000431,0.004553916082100247,0.0004495609695637114,0.038977911098361594,-0.0045010095639274736,0.008448652933169053,0.010165137176623379,0.015796892915551954,-0.005804907729597577,-0.006281442337403058,0.05229324041576875,-0.006050238311105782,-0.06354287244960997
41,32.379044600063935,0.004534016569399476,0.000487150226279314,0.039023144233486365,-0.0044301000194013245,0.008422726393443032,0.010136516461023063,0.016030733008675215,-0.0058303292731109084,-0.006566503009499795,0.052662919056020954,-0.00535719479602564,-0.06440429780124184
42,32.38326899998356,0.004514435348601246,0.0005246237028244072,0.03906824700573462,-0.0043581448216107365,0.008396693457031939,0.010106616972970396,0.016266221071445642,-0.005852650665223826,-0.006855408818192522,0.05303288912459433,-0.00465885690549541,-0.06526865823156525
43,32.387945800088346,0.004495177095460168,0.000561980955878661,0.03911321367876725,-0.004285136624366202,0.008370567990661038,0.01007542154953293,0.01650335831127349,-0.0058718486715647385,-0.007148172608423664,0.053403109188778025,-0.003955384998299874,-0.06613584852100667
44,32.39187649998348,0.004476246518477209,0.0005992216041420427,0.039158038439640205,-0.004211068076509627,0.008344363962994953,0.010042912971588465,0.016742145748691442,-0.005887900772517098,-0.007444806754752205,0.05377353686129001,-0.0032469395202188943,-0.06700576295993001
45,32.398431200068444,0.0044576483589199726,0.0006363453287819595,0.03920271539855879,-0.004135931822756589,0.008318095441452155,0.010009073965923373,0.01698258421335734,-0.005900785163590591,-0.007745323160043878,0.05414412891787362,-0.0025336810222003005,-0.0678782955150922
46,32.40234600007534,0.004439387390839193,0.0006733518738662027,0.03924723858864131,-0.0040597205045551435,0.00829177658901732,0.009973887207337965,0.017224674340592397,-0.0059104807559871965,-0.008049733253897011,0.0545148413904206,-0.0018157701704729363,-0.06875334004543959
47,32.40710449998733,0.004421468421081361,0.0007102410467816824,0.03929160196569215,-0.003982426760958931,0.008265421661050773,0.009937335320758856,0.017468416568213824,-0.005916967177062505,-0.008358047993255884,0.054885629547393795,-0.0010933676633071907,-0.06963079075311718
48,32.410679200082086,0.004403896289297437,0.0007470127186389384,0.03933579940798419,-0.003904043229514211,0.008239045002096736,0.009899400883338854,0.017713811132898584,-0.005920224770149949,-0.008670277864855934,0.05525644772596208,-0.0003666340495104059,-0.0705105424381436
49,32.414821900078095,0.00438667586794757,0.0007836668246624297,0.03937982471605066,-0.003824562547165376,0.008212661042694337,0.009860066426547541,0.017960858065520016,-0.005920234593404571,-0.008986432888106754,0.055627249112591544,0.00036427046712194625,-0.07139249048884436
50,32.41888450004626,0.004369812062301744,0.0008202033645666254,0.03942367161248615,-0.0037439773511835444,0.00818628429619616,0.009819314438245467,0.018209557185556228,-0.005916978417884534,-0.009306522617452044,0.055997985521285966,0.0010991861410988095,-0.07227653079347986
51,32.42301370005589,0.004353309810436221,0.0008566224029179412,0.039467333741756955,-0.0036622802801219074,0.008159929355596354,0.009777127364753694,0.018459908094450417,-0.005910438725385234,-0.009630556144465044,0.05636860719750701,0.001837953715441372,-0.07316255986767076
52,32.427491900045425,0.0043371740832256695,0.0008929240694825631,0.03951080467002055,-0.0035794639748034924,0.008133610890368487,0.009733487612909326,0.018711910168271815,-0.005900598706251602,-0.009958542101344092,0.056739062721377354,0.002580414423539753,-0.07405047490356313
53,32.43146280001383,0.004321409884330808,0.0009291085595602025,0.03955407788495421,-0.0034955210793419173,0.008107343643313147,0.009688377552103894,0.018965562550213363,-0.00588744225719567,-0.01029048866344621,0.057109299017498914,0.0033264099843031527,-0.07494017358338738
54,32.4357390999794,0.004306022250181438,0.0009651761343038265,0.039597146795592696,-0.0034104442421960123,0.008081142427415249,0.009641779516316304,0.019220864143340153,-0.005870953979152092,-0.010626403551121114,0.05747926145782327,0.004075782582262835,-0.0758315540305987
55,32.440691300085746,0.0042910162499546845,0.0010011271210254053,0.03964000473217497,-0.0033242261172552003,0.008055022122710746,0.009593675806134884,0.019477813604003878,-0.005851119175273033,-0.010966294031809369,0.0578488939376807,0.004828374823691848,-0.07672451491766595
56,32.44455460004974,0.004276396985548359,0.0010369619134877185,0.03968264494599992,-0.003236859364952809,0.008028997673161807,0.009544048690771634,0.01973640933526884,-0.00582792384917475,-0.011310166922837005,0.05821813878633809,0.005584029675797731,-0.07761895543649756
57,32.448539300006814,0.00426216959154928,0.001072680972182255,0.039725060609290985,-0.003148336653410038,0.008003084083539154,0.00949288041005936,0.019996649479529297,-0.005801354703474386,-0.011658028593250108,0.05858693652922108,0.006342590400651347,-0.07851477524964764
58,32.45214800001122,0.004248339235196435,0.0011082848245932344,0.03976724481506971,-0.003058650659615064,0.007977296416310274,0.00944015317644958,0.02025853190981641,-0.005771399138625376,-0.012009884966174588,0.058955225568100386,0.007103900479679954,-0.07941187477456407
59,32.45652240002528,0.004234911116338798,0.001143774065447775,0.039809190577038196,-0.0029677940706444796,0.007951649788532147,0.009385849176988629,0.020522054219565437,-0.005738045252127152,-0.012365741523183975,0.05932294186494514,0.007867803523679367,-0.08031015529133324
60,32.46071100002155,0.004221890467387607,0.0011791493569522236,0.039850890829470215,-0.002875759584933594,0.007926159368746492,0.009329950575276632,0.020787213711105205,-0.005701281838162516,-0.01272560330761939,0.059690018727469124,0.008634143177714831,-0.08120951878590038
61,32.46483180008363,0.004209282553262856,0.001214411429014654,0.039892338427111144,-0.0027825399136004523,0.007900840373875725,0.00927243951341403,0.021054007383514102,-0.005661098387654859,-0.01308947492756014,0.06005638677355973,0.009402763016150242,-0.0821098676951991
62,32.469381600036286,0.0041970926713337745,0.0012495610794535335,0.03993352614508645,-0.0026881277818243616,0.007875708066117702,0.00921329811393408,0.021322431920792546,-0.0056174850888410285,-0.0134573605568723,0.0604219740832726,0.01017350642596933,-0.08301110465219234
63,32.473093100008555,0.004185326151353038,0.0012845991741925482,0.0399744466788188,-0.002592515930275317,0.00785077774983657,0.009152508481740023,0.02159248368107354,-0.005570432828368379,-0.013829263935907127,0.060786706473337115,0.01094621650433769,-0.08391313233883371
64,32.47749610000756,0.004173988355384505,0.0013195266474415606,0.04001509264395384,-0.002495697116588683,0.007826064768447728,0.009090052706031375,0.02186415868724152,-0.005519933192780559,-0.014205188371239252,0.06115050782795867,0.011720735991101499,-0.08481585285875184
65,32.48252040008083,0.004163084677724283,0.0013543445018636736,0.040055456576294474,-0.0023976641168782236,0.007801584501295443,0.009025912862243425,0.022137452619090985,-0.0054659784702161315,-0.014585136730774493,0.061513300329239,0.012496907250298415,-0.08571916713913687
66,32.486416800064035,0.004152620544814987,0.0013890538087283626,0.040095530931743915,-0.0022984097272806645,0.007777352360522671,0.008960071014017114,0.022412360805998847,-0.005408561652059129,-0.014969111438157708,0.061875004430223875,0.01327457229249008,-0.0866229749209327
67,32.4900970000308,0.004142601415153037,0.0014236557080506427,0.04013530808625752,-0.0021979267655340274,0.00775338378793396,0.008892509215188383,0.02268887821884286,-0.0053476764344386534,-0.015357114467793203,0.0622355386784162,0.014053572818086175,-0.08752717467068381
68,32.49385430000257,0.0041330327791888515,0.0014581514087162431,0.04017478033580358,-0.002096208072594215,0.007729694251851912,0.008823209511802424,0.02296699946110112,-0.005283317219493328,-0.015749147338466964,0.06259481951974671,0.014833750272930867,-0.0884316635118882
69,32.498529399978,0.004123920159219739,0.0014925421885927602,0.04021393989633309,-0.0019932465142926646,0.007706299243968814,0.008752153944159865,0.023246718759023517,-0.0052154791163755146,-0.016145211107755294,0.06295276110859463,0.015614945904414318,-0.08933633734263564
70,32.50269840005785,0.004115269109275314,0.0015268293946267735,0.04025277890375878,-0.0018890349830405257,0.00768321427619415,0.008679324548880856,0.023528029951038133,-0.005144157942015704,-0.016545306366695423,0.06330927525753391,0.01639700083034003,-0.09024109069826591
71,32.506892399978824,0.004107085214995208,0.0015610144429269034,0.040291289413943304,-0.0017835663995807226,0.007660454877499423,0.008604703360998743,0.02381092647747484,-0.005069350221512993,-0.01694943323297017,0.06366427157709527,0.017179756110248513,-0.09114581658484927
72,32.51139100000728,0.004099374093498868,0.0015950988188328092,0.0403294634026969,-0.001676833714783714,0.007638036590762185,0.008528272416084894,0.02409540137121726,-0.004991053188263843,-0.017357591344094543,0.06401765770119952,0.0179630527757993,-0.09205040634193408
73,32.51491090003401,0.00409214139324726,0.0016290840769701209,0.04036729276578452,-0.0015688299114828656,0.00761597496960971,0.008450013752403096,0.024381447249435396,-0.004909264784081795,-0.01776977984937721,0.06436933952978217,0.018746731834800755,-0.09295474942672559
74,32.51990549999755,0.004085392793896317,0.001662971841291308,0.04040476931894269,-0.0014595480063438874,0.007594285575261962,0.008369909413106016,0.024669056306399845,-0.004823983659290314,-0.018185997401183724,0.06471922143223657,0.019530634298741814,-0.09385873321814507
75,32.52382220001891,0.00407913400614198,0.0016967638051024762,0.04044188479790624,-0.0013489810517642454,0.007572983973374435,0.008287941448467465,0.024958220307027504,-0.004735209172597142,-0.01860624214515178,0.0650672063870999,0.020314601229609368,-0.09476224283056511
76,32.52749730006326,0.004073370771556717,0.0017304617310761,0.04047863085844502,-0.0012371221378001192,0.007552085730882242,0.008204091918166052,0.025248930580940656,-0.004642941390769914,-0.019030511709794466,0.0654131961119616,0.021098473796927766,-0.09566516108436542
77,32.53224580001552,0.004068108862417392,0.0017640674512496939,0.04051499907641099,-0.001123964394118759,0.007531606412845849,0.008118342893610108,0.02554117801717041,-0.004547181088002175,-0.019458803196453107,0.06575709123746026,0.021882093382282898,-0.09656736840788584
78,32.53633889998309,0.004063354081524385,0.0017975828670104342,0.040550980947795696,-0.0010095009919726453,0.007511561579300813,0.008030676460310884,0.025834953059766425,-0.004447929744657484,-0.019891113168026733,0.06609879155235855,0.022665301733011213,-0.09746874282766274
79,32.539914500084706,0.00405911226201187,0.0018310099490657559,0.040586567888798455,-0.0008937251461909721,0.0074919667821147055,0.007941074720307905,0.026130245704684456,-0.0043451895452657685,-0.020327437638837917,0.0664381962890819,0.023447941158567652,-0.09836916000760178
80,32.544394400087185,0.004055389267149181,0.0018643507373999632,0.040621751235905466,-0.0007766301171815446,0.007472837561854709,0.007849519794632493,0.02642704549794077,-0.004238963375517411,-0.020767772063711335,0.06677520434062374,0.024229854774476006,-0.09926849311174844
81,32.549771600053646,0.004052190990133253,0.0018976073412169108,0.040656522245979966,-0.0006582092129387095,0.00745418944467133,0.007755993825830451,0.026725341534432734,-0.004129254818085533,-0.021212111326616635,0.06710971437939922,0.02501088674952269,-0.10016661310821391
82,32.554248000029474,0.004049523353872096,0.0019307819388688422,0.0406908720963638,-0.0005384557910557642,0.007436037939203225,0.007660478980526796,0.027025122457152446,-0.004016068147417112,-0.02166044973245556,0.06744162491115785,0.025790882519510276,-0.10106338900440877
83,32.55836140003521,0.004047392310759296,0.001963876777771487,0.04072479188499045,-0.000417363260739895,0.007418398533507336,0.007562957452021638,0.027326376456487795,-0.0038994083236503062,-0.022112780997801198,0.06777083423333465,0.026569688959272423,-0.1019586877098593
84,32.56271950004157,0.004045803842439536,0.0019968941743055404,0.04075827263050973,-0.0002949250848308149,0.007401286692017924,0.007463411462937444,0.02762909126906492,-0.003779280985872588,-0.02256909824146254,0.06809724032230588,0.027347154529625325,-0.10285237432045306
85,32.56887399998959,0.004044763959565106,0.002029836513704661,0.04079130527242441,-0.0001711347818260184,0.0073847178525367875,0.007361823267899004,0.027933254176044496,-0.003655692444728449,-0.023029393977756905,0.06842074071941606,0.028123129399254487,-0.10374431253018701
86,32.573385299998336,0.004044278701543373,0.002062706249930126,0.04082388067123879,-4.598592791460178e-05,0.007368707423258177,0.007258175156240652,0.028238852000948476,-0.0035286496745912843,-0.023493660110743966,0.06874123243050566,0.02889746548955647,-0.10463436476842325
87,32.577397100045346,0.004044354136275169,0.0020955059055323155,0.04085598960861945,8.052784097811364e-05,0.0073532707798287765,0.007152449454737617,0.02854587110706097,-0.0033981603057714753,-0.023961887928721386,0.069058611886695,0.029670016420351265,-0.10552239231752801
88,32.581754000042565,0.004044996359884039,0.0021282380714991666,0.04088762278756819,0.000208412827133598,0.007338423262442057,0.0070446285303623,0.028854297394905516,-0.003264232617172078,-0.02443406809950724,0.06937277496643483,0.030440637372967153,-0.10640825557759316
89,32.58570759999566,0.004046211496436294,0.0021609054070917625,0.04091877083260732,0.0003376752689730073,0.007324180172963712,0.0069346947930576655,0.029164116299842443,-0.0031268755297170843,-0.024910190667294826,0.06968361697100624,0.03120918492476811,-0.10729181426245331
90,32.58976390003227,0.004048005697651841,0.00219351063966717,0.0409494242899773,0.00046832133897878813,0.00731055677208458,0.006822630698521548,0.029475312789327815,-0.002986098600481792,-0.02539024504968198,0.06999103255589068,0.03197551687977106,-0.10817292731148015
91,32.594404399977066,0.004050385142605713,0.002226056564488654,0.04097957362784688,0.0006003571416031435,0.007297568276498383,0.006708418751006523,0.029787871359899177,-0.002841912017630591,-0.025874220033739802,0.07029491569401271,0.03273949207932179,-0.10905145283076134
92,32.59793779999018,0.004053356037420255,0.0022585460445233635,0.04100920923653568,0.0007337887111627751,0.00728522985609977,0.006592041506139242,0.0301017760341069,-0.0026943265962345764,-0.026362103772517763,0.07059515968676863,0.03350097022068872,-0.10992724827934619
93,32.602292100084014,0.004056924614947899,0.002290982010227576,0.04103832142874944,0.0008686220097200013,0.007273556631199327,0.006473481573751453,0.030417010357598234,-0.0025433537748260153,-0.026853883782772238,0.07089165720200023,0.03425981169107661,-0.1108001704790728
94,32.606519200024195,0.004061097134444461,0.0023233674593195644,0.04106690043982786,0.0010048629249515125,0.007262563669752322,0.0063527216207195794,0.030733557396387053,-0.0023890056126952166,-0.02734954694155919,0.0711843002862774,0.035015877423056084,-0.11167007535968665
95,32.61078089999501,0.004065879881232925,0.0023557054565401417,0.041094936428005116,0.001142517268005158,0.007252265984597812,0.006229744373826104,0.031051399734047382,-0.002231294787733399,-0.027849079481691227,0.07147298031953604,0.03576902883254428,-0.11253681804706112
96,32.61591390008107,0.00407127916635764,0.002387999133400925,0.04112241947468323,0.0012815907713436896,0.007242678530706609,0.006104532622639638,0.031370519468578884,-0.002070234594282274,-0.02835246698911649,0.07175758789988154,0.036519127839095715,-0.11340025318670222
97,32.61928220000118,0.004077301326228886,0.0024202516879203544,0.04114933958471826,0.001422089086573614,0.007233816202439549,0.005977069222399659,0.031690898208573744,-0.0019058389407960823,-0.028859694401258764,0.07203801264142412,0.03726603686784612,-0.11426023501234596
98,32.62333500001114,0.004083952722257725,0.002452466384347522,0.041175686686719344,0.0015640177822547764,0.007225693830816299,0.005847337096911377,0.0320125170682805,-0.0017381223476738551,-0.029370746005007706,0.07231414297205774,0.038009618802771226,-0.11511661753225721
99,32.62748680007644,0.004091239740481042,0.0024846465528738514,0.04120145063336072,0.0017073823416852213,0.00721832618079294,0.005715319241448381,0.032335356661968725,-0.001567099945338003,-0.029885605436719233,0.07258586601337816,0.03874973696961754,-0.11596925483316657
100,32.63172030006535,0.004099168791176657,0.0025167955893326635,0.04122662120170662,0.0018521881606605554,0.0072117279485479,0.005580998725647503,0.032659397097922725,-0.0013927874722186968,-0.030404255682914414,0.07285306753534004,0.039486255172716346,-0.11681800094295126
101,32.63609060004819,0.0041077463084684,0.0025489169548866693,0.04125118809354911,0.0019984405452052804,0.007205913758777501,0.005444358696405237,0.03298461797240211,-0.0012152012725043745,-0.030926679079056083,0.07311563202242406,0.04021903775184883,-0.11766270955617326
102,32.64016399998218,0.004116978749921,0.0025810141757034344,0.041275140935758764,0.0021461447092783327,0.007200898162001935,0.005305382380783501,0.03331099836422516,-0.001034358293619343,-0.03145285730780174,0.0733734428231818,0.040947949672386866,-0.11850323403409062
103,32.644208700046875,0.004126872596124713,0.0026130908426188616,0.041298469280648425,0.0022953057724561434,0.007196695631883295,0.005164053088921631,0.033638516830062144,-0.000850276083170957,-0.03198277139778028,0.07362638227884377,0.041672856633136385,-0.11933942728700553
104,32.64806000003591,0.004137434350269568,0.0026451506107887544,0.04132116260634984,0.002445928757596233,0.007193320562558755,0.005020354216953044,0.03396715140016483,-0.0006629727854661283,-0.03251640172079637,0.07387433179561231,0.042393625134898624,-0.12017114143116556
105,32.65238019998651,0.004148670537709167,0.0026771971993285334,0.04134321031720337,0.002598018588482213,0.0071907872659896475,0.004874269249942145,0.034296879574304086,-0.0004724671378474919,-0.0330537279875495,0.07411717190723595,0.04311012252957035,-0.12099822766127052
106,32.65680820005946,0.0041605877055139445,0.0027092343909411744,0.04136460174416085,0.0027515800874511765,0.007189109969327293,0.004725781764839139,0.034627678318057006,-0.00027877846677233794,-0.03359472924370219,0.07435478234236131,0.043822217091194944,-0.1218205362700989
107,32.66120840003714,0.004173192422013824,0.00274126603153345,0.0413853261452016,0.0029066179730056103,0.007188302812297023,0.004574875433451984,0.034959524059344785,-8.192668351557486e-05,-0.03413938386577391,0.07458704213725599,0.04452977810901905,-0.12263791650152728
108,32.66496299998835,0.004186491276330196,0.0027732960298205533,0.04140537270576177,0.0030631368574099327,0.007188379844602305,0.004421534025437794,0.03529239268572442,0.00011806772058065216,-0.034687669555899435,0.07481382982821567,0.04523267598252594,-0.12345021630533998
109,32.668834700016305,0.004200490877897155,0.002805328356919206,0.041424730539177036,0.003221141244278269,0.007189355023351099,0.004265741411321499,0.035626259542641286,0.00032118367925092884,-0.03523956333553762,0.07503502361698401,0.045930782287058956,-0.1242572822686375
110,32.67336720007006,0.004215197855971975,0.0028373670459293466,0.04144338868713882,0.003380635526155415,0.0071912422105058285,0.0041074815655433245,0.03596109943219506,0.0005273995566417848,-0.035795041539618475,0.07525050154112901,0.04662396977185579,-0.12505895965514308
111,32.67764710006304,0.004230618859134796,0.0028694161915045107,0.041461336120164165,0.003541623982093617,0.007194055170357279,0.003946738569529607,0.036296886612910674,0.0007366931524381426,-0.03635407981060227,0.0754601416823323,0.04731211230310702,-0.12585509233645467
112,32.68123290000949,0.004246760554777499,0.0029014799494110084,0.0414785617380793,0.0037041107752314923,0.007197807567020258,0.0037834966147932154,0.0366335948003605,0.0009490417066910729,-0.0369166530920139,0.07566382227908619,0.04799508482849618,-0.12664552280186642
113,32.6856853000354,0.004263629628581815,0.0029335625360759864,0.04149505437051717,0.0038680999503763534,0.0072025129619505196,0.0036177400060619968,0.036971197167939646,0.0011644219046282268,-0.03748273562258952,0.07586142169369568,0.04867276336729452,-0.12743009235449657
114,32.68971750000492,0.004281232783986659,0.0029656682281244753,0.041510802777428864,0.00403359543159004,0.007208184811483293,0.003449453164431355,0.03730966634719408,0.0013828098813933164,-0.0380523009315588,0.07605281826639919,0.04934502497366681,-0.1282086414249707
115,32.69398380001076,0.004299576741644719,0.002997801361905516,0.04152579564960924,0.004200601019774166,0.007214836464392447,0.0032786206305347424,0.03764897442729584,0.001604181226529531,-0.03862532183558709,0.07623789013888249,0.05001174765453562,-0.1289810096988533
116,32.69827890000306,0.004318668238868273,0.003029966333007454,0.04154002160923663,0.004369120390251275,0.0072224811594689695,0.0031052270677234908,0.03798909295379834,0.0018285109879870298,-0.03920177043519331,0.07641651510853968,0.050672810235975606,-0.1297470360088127
117,32.70588530006353,0.004338514029064219,0.003062167595762485,0.041553469210426776,0.004539157090338994,0.007231132023115852,0.0029292572652692256,0.03832999292681277,0.0020557736754156742,-0.03978161811073111,0.07658857051813205,0.05132809220951312,-0.1305065584522527
118,32.710058900061995,0.004359120881158275,0.0030944096627405168,0.04156612693980109,0.00471071453691494,0.007240802066955911,0.002750696141579514,0.03867164479878003,0.0022859432628027534,-0.04036483551985509,0.07675393320793256,0.05197747360098851,-0.13125941436193148
119,32.71468079998158,0.004380495579008308,0.003126697104232394,0.04157798321706925,0.004883796013971013,0.007251504185450179,0.002569528747422858,0.03901401847222066,0.002518993190597026,-0.04095139259324012,0.07691247959670877,0.05262083489509317,-0.1320054400510582
120,32.71824299998116,0.004402644920806736,0.003159034547722535,0.041589026395626186,0.005058404670158251,0.00726325115352466,0.002385740269182493,0.039357083298228485,0.002754896367673927,-0.04154125852977586,0.0770640859206962,0.05325805702135784,-0.13274447087209482
121,32.72234420001041,0.004425575718471978,0.0031914266773510093,0.04159924476316368,0.005234543516327702,0.0072760556242062275,0.002199316032124206,0.03970080807635025,0.0029936251733347365,-0.04213440179281013,0.07720862855329688,0.05388902131679254,-0.13347634129522665
122,32.72669849998783,0.004449294797028941,0.0032238782333651027,0.04160862654229649,0.005412215423074205,0.007289930126267199,0.0020102415036836133,0.04004516105592841,0.003235151458938837,-0.04273079010604277,0.07734598427476089,0.05451360943575653,-0.13420088490831403
123,32.730683500063606,0.0044738089939785775,0.0032563940115604042,0.04161715989120322,0.005591423118289225,0.0073048870618757835,0.0018185022967705737,0.04039010993838415,0.00347944654909965,-0.043330390449768545,0.07747603044501158,0.055131703271623,-0.13491793436788976
124,32.73530479997862,0.0044991251586565684,0.0032889788627114332,0.04162483290428193,0.0057721691847249824,0.007320938704251311,0.0016240841730899474,0.04073562188010035,0.0037264812426187747,-0.04393316905633432,0.07759864512979328,0.055743184940769325,-0.13562732152664306
125,32.73965320002753,0.00452525015158117,0.0033216376919918285,0.041631633612820546,0.005954456057572986,0.007338097195323005,0.0014269730464864943,0.04108166349582887,0.003976225813539246,-0.0445390914075181,0.07771370722809957,0.05634793683219011,-0.1363288776980634
126,32.74377220007591,0.004552190843790314,0.0033543754583841116,0.041637549985682316,0.006138286022058519,0.007356374543394601,0.0012271549862889928,0.041428200862709104,0.004228650012521823,-0.04514812223234466,0.07782109659723889,0.05694584164798124,-0.13702243352899418
127,32.7482416999992,0.00457995411616802,0.0033871971740790626,0.04164256993000604,0.00632366121105499,0.007375782620815381,0.001024616220674603,0.041775199524789856,0.004483723068259034,-0.04576022550332884,0.07792069413736617,0.0575367824241984,-0.13770781908790122
128,32.752745300065726,0.0046085468587602355,0.0034201079038647278,0.041646681291921464,0.006510583602718718,0.0073963331616573955,0.000819343140046466,0.04212262449780126,0.004741413689037359,-0.04637536443507777,0.07801238183188576,0.05812064256946258,-0.13838486406091585
129,32.75686650001444,0.004637975970080167,0.0034531127645050954,0.041649871857279634,0.006699055018145809,0.0074180377594004225,0.0006113223004105237,0.04247044027403669,0.0050016900644953245,-0.0469935014822813,0.07809604269479327,0.05869730592181387,-0.1390533976537912
130,32.76090960006695,0.004668248356403239,0.003486216924108472,0.041652129352398384,0.006889077119050449,0.007440907864624853,0.0004005404267710271,0.04281861082665539,0.005264519867692357,-0.0476145983374405,0.07817156062355932,0.05926665681069842,-0.13971324860173517
131,32.76462869998068,0.004699370931051737,0.003519425601485596,0.041653441444822956,0.007080651405460122,0.007464954782715089,0.00018698441652759997,0.043167099613253324,0.0055298702574193065,-0.04823861592894568,0.07823882026199884,0.0598285800938045,-0.14036424497332214
132,32.76914620003663,0.004731350613669222,0.0035527440654975493,0.041653795744101746,0.007273779213425733,0.007490189671573023,-2.9358657112124553e-05,0.043515869578943704,0.00579770788059558,-0.04886551441705739,0.07829770687524698,0.06038296120776781,-0.14100621394501353
133,32.773087900015526,0.004764194329484769,0.003586177634393491,0.04165317980257735,0.007468461712744274,0.007516623539342797,-0.0002485015416996234,0.0438648831588136,0.006067998875031545,-0.04949525318997495,0.07834810619153589,0.06092968624601593,-0.14163898184038345
134,32.778167900047265,0.004797909008567086,0.0036197316751382935,0.0416515811161929,0.00766469990469084,0.007544267242148898,-0.0004704568020978098,0.044214102279594436,0.006340708872519409,-0.05012779086016706,0.07838990422097933,0.06146864204527173,-0.14226237406148898
135,32.78312260005623,0.00483250158506854,0.003653411602730119,0.04164898712531384,0.007862494619756187,0.007573131481848465,-0.0006952368170154515,0.04456348836050359,0.006615803002366532,-0.05076308525982872,0.07842298705591204,0.061999716272429325,-0.14287621485359214
136,32.79056190000847,0.004867978996459113,0.003687222879508022,0.041645385215565135,0.008061846515386242,0.007603226803800876,-0.0009228537755190092,0.044913002313135546,0.006893245895260543,-0.05140109343511501,0.07844724070156356,0.06252279745340711,-0.14348032710908484
137,32.79503300006036,0.004904348182750284,0.0037211710144496512,0.04164076271868414,0.008262756073718696,0.007634563594654496,-0.0011533196735156667,0.04526260454079447,0.007173001687059786,-0.052041771639850624,0.07846255102091032,0.06303777495236469,-0.14407453231848402
138,32.79887140006758,0.00494161608570881,0.0037552615624591263,0.041635106913389154,0.008465223599316564,0.0076671520801500454,-0.0013866463102091095,0.04561225493789388,0.007455034022473217,-0.052685075329326946,0.07846880380358312,0.06354453895440515,-0.14465865067825937
139,32.80382839997765,0.004979789648060414,0.0037895001236451635,0.04162840502626388,0.00866924921689943,0.0077010023229401444,-0.0016228452845272743,0.045961912889903325,0.0077393060586967,-0.05333095915497251,0.07846588497402011,0.06404298042527626,-0.14523250116925635
140,32.80806810001377,0.005018875812683345,0.0038238923425895203,0.04162064423265781,0.008874832869076525,0.007736124220425086,-0.0018619279915306317,0.046311537274603104,0.008025780468733758,-0.05397937695884898,0.0784536808474067,0.06453299099552227,-0.14579590158613068
141,32.81265740003437,0.0050588815217918635,0.0038584439076058343,0.04161181165760267,0.009081974314089162,0.007772527502601976,-0.0021039056187908836,0.04666108646431186,0.008314419443999441,-0.05463028176858394,0.07843207830393104,0.0650144627968791,-0.1463486686941722
142,32.81870180007536,0.005099813716109684,0.003893160549988899,0.04160189437674513,0.009290673123563666,0.007810221729923712,-0.0023487891427540885,0.04701051832869423,0.008605184696183044,-0.055283625793264464,0.07840096493208748,0.06548728828827065,-0.14689061819989863
143,32.82312349998392,0.005141679334033429,0.003928048043254423,0.04159087941729561,0.00950092868027882,0.007849216291164722,-0.0025965893250827613,0.0473597902382656,0.00889803745830126,-0.05593936041810784,0.07836022909603396,0.06595136008356682,-0.14742156475108564
144,32.82967330003157,0.005184485310786183,0.003963112202369282,0.041578753758993614,0.009712740175950042,0.007889520401289329,-0.002847316708971505,0.047708859067799994,0.0091929384850259,-0.05659743620035542,0.07830975994057271,0.06640657084269079,-0.14794132217201098
145,32.83319490007125,0.0052282385775611956,0.003998358882972287,0.041565504335089376,0.009926106609027197,0.007931143099320413,-0.0031009816154525176,0.048057681199879215,0.009489848052766597,-0.05725780286603982,0.07824944748907028,0.06685281330095189,-0.14844970351248937
146,32.83753790007904,0.0052729460606558065,0.004033793980585437,0.04155111803334209,0.010141026782510401,0.00797409324620851,-0.0033575941396824117,0.04840621252917343,0.00978872596025993,-0.05792040930631575,0.07817918274283278,0.06728998038225216,-0.148946521165521
147,32.84157370007597,0.0053186146805956885,0.004069423429815698,0.04153558169703469,0.010357499301785984,0.008018379522705725,-0.003617164147215023,0.048754408466875905,0.010089531529661033,-0.058585203575275704,0.07809885775331468,0.06771796525438953,-0.14943158705352505
148,32.84669430006761,0.005365251351249485,0.004105253203547309,0.041518882126005255,0.010575522572481816,0.008064010427244559,-0.0038797012702687646,0.04910222394562711,0.010392223607625565,-0.05925213288794049,0.0780083657434329,0.06813666132971223,-0.1499047126773771
149,32.85180180007592,0.005412862978933938,0.004141289312124655,0.04150100607769508,0.010795094798347152,0.008110994273821465,-0.0041452149039815245,0.04944961342503061,0.010696760566407155,-0.05992114361851193,0.07790760118981807,0.06854596226006286,-0.15036570914584374
150,32.85677160008345,0.005461456461509634,0.004177537802525718,0.04148194026821345,0.011016213979157117,0.008159339189885456,-0.00441371420266245,0.04979653089731018,0.011003100304894316,-0.060592181298625716,0.07779645987532081,0.06894576195462414,-0.15081438709711673
151,32.86095580004621,0.005511038687467455,0.004214004757526124,0.04146167137341912,0.011238877908642966,0.0082090531142309,-0.004685208076031276,0.05014292989329363,0.011311200249866924,-0.06126519061490482,0.0776748389258639,0.06933595467676343,-0.15125055683604657
152,32.865134600084275,0.0055616165350058765,0.004250696294853819,0.04144018603001859,0.011463084172449895,0.008260143794897326,-0.004959705185448301,0.050488763488398335,0.01162101735789621,-0.061940115408435366,0.07754263681046017,0.06971643520081348,-0.15167402871654997
153,32.86884330003522,0.005613196871099225,0.004287618566334404,0.04141747083668118,0.011688830146120646,0.008312618787079154,-0.005237213940149049,0.05083398430861523,0.011932508117998453,-0.06261689867572805,0.07739975335462414,0.07008709896780357,-0.15208461345523464
154,32.873170600039884,0.005665786550557002,0.004324777757027175,0.0413935123551709,0.011916112993106645,0.00836648545104915,-0.005517742493482814,0.05117854453661387,0.012245628554922838,-0.06329548257098898,0.07724608973801585,0.07044784221153037,-0.1524821224059159
155,32.8790465000784,0.005719392415074415,0.004362180084351954,0.041368297111495006,0.012144929662806017,0.00842175095009745,-0.005801298739167553,0.05152239591770541,0.012560334232928688,-0.06397580840952759,0.07708154844404703,0.07079856208237893,-0.15286636769690637
156,32.8832058000844,0.005774021292274222,0.004399831797206766,0.041341811597069254,0.012375276888627863,0.00847842224848869,-0.00608789030755881,0.05186548976549857,0.012876580260176799,-0.06465781667125099,0.07690603321589536,0.07113915676758195,-0.15323716214273805
157,32.88791669998318,0.0058296799947400064,0.00443773917507646,0.04131404226989972,0.012607151186080683,0.00853650610944016,-0.006377524561935746,0.0522077769674706,0.013194321293578415,-0.06534144700328516,0.07671944906150452,0.07146952559754638,-0.15359431912655297
158,32.89191690005828,0.005886375319040987,0.004475908527132368,0.04128497555578115,0.012840548850886297,0.008596009093122135,-0.00667020859479342,0.05254920799066784,0.013513511544134145,-0.06602663822242116,0.07652170222145664,0.07178956916366765,-0.15393765270790846
159,32.89583430008497,0.005944114044748487,0.004514346191323106,0.04125459784951181,0.013075465957119078,0.00865693755468363,-0.006965949224150625,0.05288973288699034,0.01383410478283288,-0.06671332831869708,0.0763127000967852,0.07209918942994008,-0.15426697759340638
160,32.90192500001285,0.006002902933444158,0.004553058533456637,0.04122289551612475,0.013311898355366964,0.008719297642305295,-0.00726475298987409,0.05322930129824908,0.014156054346985381,-0.06740145445758253,0.07609235120494091,0.0723982898502914,-0.15458210904837738
161,32.90781940007582,0.006062748727720059,0.004592051946273722,0.04118985489213541,0.013549841670915759,0.008783095295281602,-0.007566626150005782,0.0535678624610582,0.014479313147168871,-0.06809095298277346,0.07586056518097206,0.07268677547787844,-0.1548828631518872
162,32.911412200075574,0.006123658150170704,0.004631332848512892,0.041155462286805625,0.013789291301953749,0.008848336242135645,-0.007871574677112015,0.05390536521190272,0.014803833674534658,-0.0687817594206493,0.07561725294172816,0.07296455299575273,-0.15516905685557456
163,32.915089300018735,0.006185637902377136,0.004670907683967093,0.04111970398342375,0.014030242417801164,0.008915025998766446,-0.008179604254650476,0.054241757993494136,0.015129568008026015,-0.06947380848359218,0.0753623269761638,0.07323153070687924,-0.15544050796377004
164,32.91995730006602,0.006248694663883196,0.004710782920532152,0.041082566240601054,0.014272689957171434,0.00898316986662808,-0.008490720273348913,0.054576988862425305,0.015456467821596853,-0.07016703407426678,0.07509570156488558,0.0734876185391818,-0.15569703546715918
165,32.923382300068624,0.006312835091164106,0.004750965049247195,0.041044035293584115,0.014516628626468872,0.009052772930941312,-0.008804927827610304,0.05491100549748264,0.015784484391474566,-0.07086136929191318,0.07481729285489859,0.07373272803193477,-0.15593845975837098
166,32.92764200002421,0.006378065816587562,0.00479146058332717,0.04100409735558324,0.014762052898124007,0.009123840058937453,-0.009122231711947624,0.05524375520796712,0.016113568603257425,-0.07155674643854809,0.07452701884586621,0.07396677228932887,-0.156164602827779
167,32.931484000058845,0.006444393447367483,0.00483227605718762,0.04096273861911666,0.015008957008965422,0.009196375898133246,-0.009442636417444281,0.05557518494188405,0.016443670958763607,-0.07225309702700257,0.07422479934009317,0.07418966593147983,-0.1563752886265972
168,32.93737410008907,0.006511824564510595,0.004873418025461829,0.040919945257370464,0.015257334958628077,0.009270384874635754,-0.009766146128260517,0.055905241293818304,0.01677474158269198,-0.07295035179035916,0.07391055584947885,0.07440132503541123,-0.15657034309606208
169,32.94149780005682,0.006580365721755994,0.004914893062010487,0.04087570342557395,0.015507180507995327,0.009345871191476616,-0.01009276471817794,0.05623387051229486,0.01710673022894518,-0.07364844069024973,0.0735842115192457,0.07460166701879142,-0.15674959425566923
170,32.94562330003828,0.006650023444507846,0.004956707758923996,0.040829999262390344,0.015758487177672843,0.009422838826973281,-0.010422495747179879,0.05656101850697433,0.017439586286254256,-0.0743472929270789,0.07324569104852821,0.07479061047568517,-0.15691287251710628
171,32.95212230004836,0.0067208042287613505,0.0049988687255175255,0.040782818891322625,0.016011248246494757,0.00950129153311339,-0.010755342458087031,0.05688663085530578,0.017773258783037992,-0.07504683695111965,0.07289492045877465,0.07496807504545723,-0.15706001059568944
172,32.955749300075695,0.006792714540022125,0.005041382587318921,0.040734148422134235,0.016265456750056872,0.009581232833959319,-0.011091307773236692,0.05721065280765828,0.018107696391859225,-0.07574700047194752,0.07253182680424439,0.07513398137843853,-0.1571908432262215
173,32.96094090002589,0.006865760812219099,0.005084255985049545,0.04068397395228449,0.016521105479268536,0.00966266602407227,-0.01143039429120248,0.05753302929139369,0.018442847433978178,-0.07644771046700391,0.0721563379995861,0.07528825113717148,-0.157305207074919
174,32.967401200090535,0.00693994944661099,0.005127495573598134,0.04063228156837854,0.016778186978922152,0.009745594166957399,-0.011772604283549891,0.05785370491446161,0.01877865988381989,-0.0771488931902454,0.07176838266528338,0.07543080695595784,-0.15740294075875116
175,32.97122800000943,0.007015286810686454,0.005171108020987789,0.04057905734763166,0.01703669354627709,0.009830020093527719,-0.012117939691633096,0.05817262396809476,0.019115081373167028,-0.0778504741808794,0.07136788994866768,0.07556157241997996,-0.1574838846886596
176,32.9749289000174,0.007091779237057936,0.005215100007336142,0.040524287359347794,0.01729661722965322,0.009915946400586587,-0.012466402123428347,0.05848973042880883,0.01945205919544126,-0.07855237827061624,0.0709547894996888,0.07568047212055783,-0.15754788087367616
177,32.979033400071785,0.0071694330223492884,0.0052594782238088176,0.040467957666412056,0.017557949827032637,0.010003375449329773,-0.012817992850395414,0.058804967960881964,0.019789540310388515,-0.07925452959065918,0.0705290117021785,0.07578743177263735,-0.15759477282268458
178,32.98341810004786,0.007248254426077163,0.005304249371566255,0.04041005432679722,0.017820682884675296,0.010092309363869697,-0.013172712804373276,0.05911827992041555,0.020127471349407382,-0.07995685157808094,0.07009048806486322,0.07588237836569503,-0.15762440525029514
179,32.98794989997987,0.007328249669526286,0.005349420160704016,0.04035056339508393,0.018084807695756936,0.010182750029784983,-0.013530562574498388,0.05942960936129841,0.020465798621579243,-0.08065926698019252,0.06963915161975419,0.07596524033150377,-0.15763662381234397
180,32.99191710003652,0.007409424934618717,0.005394997309186682,0.04028947092399461,0.018350315299037856,0.010274699092698434,-0.013891542404139307,0.059738899042818025,0.020804468120491786,-0.08136169785856254,0.06917493718180054,0.07603594769724287,-0.15763127499799373
181,32.995854799984954,0.007491786362777256,0.005440987541775487,0.04022676296594102,0.01861719647756867,0.010368157956887404,-0.01425565218785078,0.060046091437938716,0.021143425531633633,-0.08206406559242442,0.06869778142367924,0.07609443217518039,-0.15760820608061424
182,33.00005010003224,0.007575340053783172,0.005487397588949831,0.04016242557458531,0.018885441757432866,0.010463127783927668,-0.014622891468338737,0.06035112874157941,0.021482616240017106,-0.08276629088225802,0.06820762287339002,0.07614062717839908,-0.15756726518634204
183,33.0043016000418,0.007660092064628401,0.005534234185822829,0.04009644480641461,0.01915504140652632,0.010559609491371729,-0.014993259433446288,0.060653952878870376,0.021821985337713,-0.08346829375380779,0.06770440184943075,0.07617446780491859,-0.15750830131397223
184,33.008411500020884,0.007746048408362397,0.005581504071051043,0.040028806722328954,0.019425985433373448,0.010657603751459837,-0.015366754913154534,0.06095450551285327,0.02216147763133184,-0.08416999356184168,0.06718806028881247,0.07619589082426222,-0.15743116448192226
185,33.012382699991576,0.007833215052933783,0.005629213985738543,0.03995949738924259,0.019698263585975342,0.010757110989864966,-0.01574337637660207,0.06125272805120517,0.022501037649438952,-0.08487130899547904,0.0666585415414011,0.07620483463206797,-0.15733570597304627
186,33.01677700004075,0.007921597920026936,0.005677370672335459,0.03988850288169849,0.019971865350685836,0.010858131384469923,-0.016123121929133257,0.06154856165210581,0.02284060964963121,-0.08557215808413128,0.06611579020610468,0.07620123926850413,-0.15722177844275417
187,33.020783800049685,0.008011202883893617,0.005725980873531141,0.039815809283495936,0.020246779951111946,0.010960664864175384,-0.016505989309370687,0.0618419472295017,0.02318013762611622,-0.08627245820379334,0.0655597519894642,0.07618504652492024,-0.15708923598752741
188,33.02528020006139,0.00810203577017976,0.005775051331142086,0.03974140268933112,0.020522996347036835,0.011064711107744553,-0.01689197588631952,0.06213282545771316,0.023519565317739542,-0.08697212608359495,0.06499037358435518,0.076156199954725,-0.1569379341940866
189,33.02961630001664,0.00819410235474751,0.005824588784994804,0.039665269206450575,0.020800503233361318,0.011170269542682734,-0.017281078656498326,0.06242113677561745,0.023858836215660807,-0.08767107781253025,0.06440760266534784,0.0761146448563064,-0.1567677302470091
190,33.03331450000405,0.008287408362492569,0.005874599971803761,0.0395873949563173,0.021079289039064107,0.0112773393441504,-0.0176732942411034,0.0627068213912144,0.024197893571228733,-0.08836922884696818,0.06381138800862138,0.07606032830378466,-0.15657848315408437
191,33.037547899992205,0.008381959466156965,0.005925091624044557,0.03950776607628948,0.021359341926184,0.011385919433912949,-0.018068618883206537,0.06298981928687826,0.02453668040393131,-0.08906649401939043,0.06320167968316798,0.07599319910767477,-0.15637005393315334
192,33.04163650004193,0.008477761285137341,0.005976070468822508,0.0394263687213116,0.02164064978882694,0.011496008479324617,-0.018467048444997223,0.0632700702256273,0.02487513950892024,-0.08976278754756689,0.06257842933394449,0.0759132078124614,-0.15614230545484695
193,33.04808269999921,0.008574819384288869,0.00602754322673677,0.0393431890656177,0.02192320025220406,0.011607604892345299,-0.018868578405062172,0.0635475137588991,0.02521321346493951,-0.09045802304189215,0.061941590507583265,0.07582030679338302,-0.15589510212863114
194,33.052475600037724,0.008673139272724959,0.00607951661074016,0.03925821330444678,0.02220698067170805,0.011720706828595119,-0.019273203855692905,0.06382208923572284,0.02555084464271236,-0.09115211351176301,0.06129111887827405,0.07571445031893843,-0.15562830987384757
195,33.05674730008468,0.00877272640261295,0.006131997324994853,0.03917142765577004,0.022491978132032953,0.011835312186445991,-0.019680919500222122,0.06409373581250766,0.02588797521342692,-0.09184497137265685,0.060626972325912784,0.07559559461219909,-0.15534179642362106
196,33.06116759998258,0.008873586167965972,0.006184992063724108,0.03908281836202998,0.022778179446337737,0.011951418606151818,-0.020091719650394364,0.06436239246291141,0.026224547157669587,-0.09253650845521755,0.05994911092614634,0.07546369788507896,-0.15503543153038246
197,33.064878300065175,0.008975723903431184,0.006238507510060211,0.03899237169189113,0.02306557115545406,0.012069023469019663,-0.020505598223783356,0.06462799798754024,0.026560502274216066,-0.0932266360141655,0.05925749682093524,0.07531872030410675,-0.1547090867994849
198,33.06882420007605,0.009079144883074573,0.006292550334888817,0.03890007394200215,0.023354139527136285,0.012188123896618294,-0.020922548741242074,0.06489049102266388,0.026895782188659716,-0.09391526473590073,0.05855209392893039,0.07516062403566125,-0.1543626355616056
199,33.08019540004898,0.009183854319162509,0.006347127195689841,0.03880591143876925,0.02364387055534691,0.01230871675002625,-0.021342564324387848,0.06514981004733408,0.027230328362605725,-0.09460230474627569,0.05783286755595288,0.07498937337210784,-0.15399595260806132
200,33.08527340006549,0.009289857360940179,0.006402244735375095,0.03870987054014074,0.023934749959570026,0.012430798629122325,-0.0217656376931217,0.06540589338862855,0.027564082103423572,-0.09528766561583961,0.05709978402512582,0.0748049348521676,-0.1536089132990195
201,33.08947350003291,0.00939715909340702,0.006457909581122856,0.03861193763740255,0.024226763184143466,0.012554365871920548,-0.022191761163160184,0.06565867922547312,0.02789698457451393,-0.0959712563596637,0.056352810541712824,0.07460727734651437,-0.1532013928082022
202,33.09399309998844,0.009505764536089202,0.006514128343209581,0.03851209915698479,0.024519895397606344,0.012679414553952158,-0.022620926643553165,0.06590810559268116,0.028228976805823956,-0.09665298543585436,0.05559191532072236,0.07439637202459824,-0.1527732662994587
203,33.09805810009129,0.009615678641809247,0.006570907613838963,0.03841034156227934,0.0248141314920672,0.012805940487694307,-0.02305312563420241,0.06615411038591294,0.02855999970381853,-0.09733276074695199,0.05481706781488716,0.07417219224703073,-0.15232440936814884
204,33.10237590002362,0.00972690629545288,0.006628253965968556,0.038306651355468575,0.025109456082595724,0.01293393922204089,-0.02348834922339183,0.06639663136774678,0.028889994061036494,-0.09801048964237774,0.05402823895475253,0.07393471350910184,-0.15185469817816383
205,33.10656059999019,0.009839452312733227,0.006686173952134115,0.038201015079364964,0.025405853506645024,0.01306340604181641,-0.023926588085327886,0.06663560617477804,0.02921890056555851,-0.09868607892105351,0.053225401347261704,0.07368391340028674,-0.15136400970696334
206,33.11048999999184,0.00995332143895252,0.006744674103271887,0.03809341931926167,0.0257033078235066,0.013194335967331194,-0.024367832477693165,0.06687097232546009,0.029546659810202425,-0.09935943483603239,0.05240852952574958,0.07341977162150069,-0.1508522220792198
207,33.11562290007714,0.010068518347761434,0.006803760927538991,0.037983850704794,0.026001802813802502,0.013326723753977202,-0.024812072239228062,0.06710266722943121,0.02987321230214492,-0.10003046310009212,0.05157760030278116,0.07314227004264921,-0.15031921453711286
208,33.11932870000601,0.01018504763991627,0.006863440909132103,0.037872295911811536,0.026301321979023417,0.013460563891868988,-0.02525929678733421,0.06733062819850001,0.03019849847262974,-0.10069906889010075,0.05073259309122282,0.07285139269771691,-0.14976486762646804
209,33.12355160003062,0.010302913842034172,0.006923720507104639,0.03775874166426094,0.026601848541118727,0.01359585060552603,-0.02570949511569505,0.06755479245883371,0.030522458686545583,-0.10136515685426897,0.04987349009566136,0.07254712580560385,-0.14918906369719576
210,33.12739420006983,0.010422121405346655,0.006984606154182607,0.0376431747360793,0.02690336544214323,0.013732577853599048,-0.026162655791943913,0.06777509716364946,0.03084503325232002,-0.10202863112097571,0.04900027641252827,0.07222945778978107,-0.14859168695195119
211,33.13138060003985,0.010542674704451681,0.00704610425557935,0.037525581953097714,0.02720585534396029,0.01387073932864051,-0.026618766955363235,0.06799147940629496,0.03116616243167255,-0.10268939530645402,0.0481129401085569,0.07189837933219827,-0.1479726235638161
212,33.13584580004681,0.010664578036064536,0.007108221187809358,0.03740595019495512,0.027509300628005127,0.014010328456917869,-0.02707781631462113,0.06820387623363895,0.03148578644998895,-0.10334735252466548,0.04721147214991982,0.07155388352139286,-0.14733176211759638
213,33.139739600010216,0.010787835617767796,0.007170963297501341,0.03728426639702209,0.02781368339510732,0.014151338398276517,-0.027539791145558608,0.0684122246585203,0.03180384550739426,-0.10400240539891895,0.046295866213527076,0.07119596587847792,-0.14666899373702022
214,33.14439610007685,0.010912451586760625,0.007234336900210821,0.03716051755233436,0.028118985465365034,0.014293762046051713,-0.0280046782890297,0.06861646167145682,0.03212027978935875,-0.10465445607287847,0.04536611863298461,0.0708246242970158,-0.14598421204582146
215,33.14821140002459,0.011038429998607617,0.007298348279232422,0.037034690713535864,0.028425188378071856,0.014437592027026052,-0.028472464148786777,0.06881652425261275,0.03243502947723502,-0.10530340622183526,0.044422228481763554,0.07043985910166327,-0.1452773136283329
216,33.15223140001763,0.011165774825987447,0.0073630036844120825,0.03690677299483112,0.028732273391697698,0.0145828207014353,-0.028943134689421116,0.06901234938424874,0.03274803475938666,-0.10594915706782036,0.04346419770591853,0.07004167319059817,-0.14454819844111877
217,33.156738199992105,0.011294489957441537,0.007428309330959395,0.03677675157394661,0.029040221483926577,0.014729440163025041,-0.029416675434382915,0.06920387406387213,0.03305923584299464,-0.10659160939454505,0.04249203128794248,0.06963007215538775,-0.14379676966615904
218,33.160530900000595,0.011424579196123046,0.007494271398260326,0.03664461369410083,0.029349013351754712,0.014877442239161726,-0.029893071464055006,0.06939103531814718,0.03336857296625418,-0.10723066356120514,0.04150573746019858,0.06920506439994105,-0.14302293397551824
219,33.164769700029865,0.011556046258546412,0.007560896028690545,0.03651034666598283,0.02965862941165227,0.015026818490998024,-0.03037230741389589,0.06957377021794746,0.03367598641124129,-0.10786621951978004,0.0405053279696436,0.06876666134038222,-0.1422266019722461
220,33.16970239998773,0.011688894773337781,0.007628189326429615,0.03637393786973879,0.02996904979979561,0.015177560213698532,-0.03085436747266762,0.06975201589462528,0.03398141651789087,-0.10849817683276634,0.03949081825160538,0.0683148775456187,-0.14140768838651802
221,33.17358200007584,0.011823128279986621,0.007696157356276338,0.03623537475696637,0.03028025437237402,0.0153296584367297,-0.03133923538073687,0.06992570955661273,0.034284803698115984,-0.10912643469222491,0.03846222748888217,0.06784973074626019,-0.140566112507404
222,33.17768329998944,0.011958750227598881,0.0077648061424655255,0.03609464485271645,0.030592222705969913,0.01548310392421137,-0.03182689442847258,0.07009478850621785,0.03458608844986546,-0.10975089194136232,0.037419578697278987,0.06737124187379738,-0.1397017985450396
223,33.18132259999402,0.012095763973651998,0.007834141667486479,0.03595173575750171,0.030904934098015247,0.01563788717533198,-0.03231732745473933,0.07025919015698794,0.0348852113715923,-0.1103714470968056,0.03636289882864998,0.06687943510208075,-0.13881467587600715
224,33.18590270006098,0.01223417278275212,0.007904169870903458,0.035806635149311844,0.031218367567326457,0.01579399842482905,-0.03281051684549352,0.07041885205142401,0.03518211317668095,-0.1109879983723705,0.035292218803014516,0.06637433779603907,-0.13790467934723394
225,33.1902394000208,0.01237397982539388,0.007974896648178445,0.03565933078563463,0.03153250185471875,0.015951427643532953,-0.03330644453248857,0.07057371187863036,0.0354767347074587,-0.11160044370404452,0.0342075734466921,0.06585598051141009,-0.13697174954992983
226,33.19429430004675,0.012515188176723098,0.008046327849496462,0.035509810505482665,0.031847315423698334,0.016110164538972273,-0.03380509199209372,0.07072370749147767,0.035769016949620536,-0.11220868077619656,0.03310900134793299,0.0653243970440886,-0.13601583305600973
227,33.19875660003163,0.01265780081530272,0.008118469278593722,0.03535806223142501,0.03216278646122966,0.016270198556046132,-0.03430644024423283,0.07086877692296596,0.03605890104668034,-0.11281260704866684,0.031996544664106945,0.06477962434059518,-0.13503688263318553
228,33.20269110007212,0.012801820621882357,0.008191326691588946,0.035204073971623326,0.032478892878573466,0.016431518877758334,-0.034810469851444585,0.07100885840166936,0.03634632831359783,-0.1134121197848935,0.030870248939133815,0.06422170241452933,-0.13403485735190318
229,33.20677530008834,0.012947250378171696,0.008264905795818055,0.03504783382187194,0.0327956123121917,0.016594114426011133,-0.03531716091807198,0.07114389036647202,0.036631240250485225,-0.11400711607995553,0.029730163015518014,0.06365067431990125,-0.13300972259643626
230,33.21126110001933,0.013094092765618102,0.008339212248672555,0.034889329967641186,0.03311292212471685,0.016757973862461528,-0.035826493089572434,0.07127381148122898,0.036913578555996494,-0.11459749288879818,0.028576339064401192,0.06306658599522828,-0.13196144996686862
231,33.21500860003289,0.013242350364188667,0.008414251656441869,0.034728550686123606,0.03343079940598754,0.016923085589434363,-0.0363384455519588,0.07139856064976986,0.037193285139644615,-0.11518314705340243,0.027408832609800315,0.0624694861141341,-0.13089001691537888
232,33.21912530006375,0.013392025651157042,0.008490029573159854,0.0345654843482823,0.033749220974151575,0.017089437750888385,-0.03685299703135164,0.07151807703077576,0.03747030213385941,-0.11576397532776897,0.02622770252826506,0.0618594260194318,-0.1297954066779175
233,33.2239001999842,0.013543120999895315,0.008566551499455744,0.03440011942090109,0.034068163376834104,0.017257018233436804,-0.03737012579364287,0.07163230005277987,0.03774457190571731,-0.11633987440447877,0.025033011146985466,0.061236459570758975,-0.12867760825516844
234,33.22780470002908,0.013695638678671254,0.008643822881409764,0.034232444468635895,0.03438760289237437,0.017425814667417886,-0.03788980964428474,0.07174116942991875,0.038016037067641374,-0.11691074093950739,0.023824824435391686,0.06060064297813716,-0.12753661587323248
235,33.23163860000204,0.013849580849451211,0.008721849109413607,0.03406244815606675,0.034707515531134235,0.017595814428010875,-0.03841202592817464,0.07184462517864042,0.038284640487647716,-0.11747647157397924,0.022603212237370524,0.05995203469910374,-0.12637242885553557
236,33.235898600076325,0.01400494956670902,0.008800635517036002,0.033890119249750224,0.03502787703688383,0.017767004636397896,-0.03893675152963793,0.07194260763552512,0.03855032529912876,-0.1180369629578403,0.021368248445918003,0.05929069532080747,-0.1251850517995866
237,33.240611999994144,0.01416174677624125,0.008880187379893543,0.03371544662027159,0.03534866288826889,0.017939372160967065,-0.03946396287252374,0.07203505747554999,0.03881303491004895,-0.11859211177318765,0.020120011078798204,0.058616687484435194,-0.12397449437174754
238,33.24430250003934,0.014319974313989186,0.008960509914526975,0.03353841924429637,0.035669848300359214,0.018112903618556348,-0.0399936359203957,0.07212191573058396,0.03907271301205447,-0.1191418147561132,0.01885858232230257,0.057930075882331865,-0.12274077134593316
239,33.24813650001306,0.01447963390486788,0.009041608277283113,0.03335902620662084,0.03599140822628078,0.018287585375737853,-0.040525746176822385,0.0722031238080425,0.0393293035896433,-0.11968596872037808,0.017584048556515717,0.05723092724838623,-0.12148390293639572
240,33.25323530007154,0.014640727161602673,0.00912348756320257,0.033177256702220964,0.03631331735893047,0.01846340355014341,-0.041060268685779076,0.07227862350960768,0.03958275092918926,-0.12022447058222217,0.016296500386498658,0.05651931037052675,-0.12020391482777928
241,33.25686309998855,0.014803255583573528,0.00920615280491349,0.03299310003829932,0.036635550132775044,0.018640344011829287,-0.04159717803215928,0.07234835705016074,0.039832999628223405,-0.12075721738430632,0.014996032647438517,0.05579529622740923,-0.11890083819503798
242,33.2613480000291,0.014967220555667586,0.009289608971531445,0.032806545636329475,0.03695808072573454,0.01881839238468449,-0.04213644834238985,0.07241226707654815,0.04007999460567624,-0.12128410632069936,0.013682744400194896,0.055058958138421,-0.11757471007526626
243,33.265222200076096,0.01513262334714029,0.00937386096756571,0.03261758303409743,0.037280883061148525,0.018997534047886743,-0.04267805328516522,0.07247029668647442,0.04032368111249594,-0.12180503476413405,0.012356739057814238,0.054310371905783805,-0.11622557338762654
244,33.26897440000903,0.015299465110485454,0.009458913631832133,0.03242620188773947,0.03760393080982787,0.019177754137405432,-0.04322196607230539,0.07252238944839567,0.04056400474315698,-0.12231990029117173,0.0110181245822746,0.05354961604944329,-0.1148534766979731
245,33.27317729999777,0.015467746880314675,0.009544771736372817,0.03223239197377592,0.03792719739219828,0.019359037547560146,-0.04376815945971446,0.07256848942216583,0.040800911448371655,-0.12282860070736058,0.009667013612038684,0.05277677200840603,-0.11345847449328159
246,33.27716519997921,0.015637469572246508,0.009631439985382873,0.032036143191140495,0.03825065598053604,0.01954136893263689,-0.04431660574846282,0.07260854118006689,0.04103434754839301,-0.12333103407484594,0.008303523618094551,0.05199192434412426,-0.11204062718208196
247,33.28158980002627,0.015808633981805802,0.009718923014144499,0.031837445563204406,0.03857427950129902,0.019724732708565205,-0.044867276785991714,0.0726424898288458,0.041264259747538945,-0.12382709873753248,0.006927777120626524,0.05119516103195584,-0.11060000081434974
248,33.285522900056094,0.01598124078333365,0.009807225387968688,0.03163628923979494,0.03889804063755878,0.0199091130546638,-0.0454201439674197,0.07267028103267566,0.04149059515009258,-0.12431669334619817,0.00553990183544165,0.050386573684256405,-0.10913666734685704
249,33.28977760009002,0.01615529052890839,0.009896351601144862,0.03143266449920796,0.03922191183153618,0.02009449391545938,-0.04597517823697104,0.07269186103649751,0.04171330127681456,-0.12479971688602129,0.004140030717998405,0.049566257616818654,-0.10765070482942943
250,33.29412770003546,0.016330783647278163,0.00998630607589879,0.03122656175021374,0.03954586528724156,0.020280859002579442,-0.04653235008952744,0.07270717668937396,0.0419323260814355,-0.12527606870335425,0.0027283019520514813,0.04873431186573703,-0.1061421973597774
251,33.29818709997926,0.01650772044280545,0.010077093161359085,0.03101797153405565,0.03986987297321845,0.02046819179671807,-0.047091629572295075,0.07271617546772977,0.04214761796731862,-0.1257456485328481,0.001304858879763977,0.04789083923877865,-0.10461123527587468
252,33.30285179999191,0.016686101094424057,0.010168717132532645,0.030806884526441106,0.04019390662539085,0.02065647554967724,-0.047652986286598066,0.0727188054980826,0.04235912580440998,-0.12620835652594076,-0.0001301501594036146,0.04703594627414592,-0.10305791549425541
253,33.3064189000288,0.016865925654609048,0.010261182189289349,0.03059329153952429,0.04051793775000953,0.020845693286483658,-0.04821638938979936,0.07271501557884785,0.042566798945533606,-0.12666409328099648,-0.0015765720514825919,0.04616974311012369,-0.10148234186182796
254,33.31065040000249,0.017047194048359984,0.010354492455356348,0.03037718352388,0.04084193762669365,0.021035827807575305,-0.04878180759736283,0.0727047552010839,0.04277058724218006,-0.12711275987492943,-0.003034249011251852,0.04529234347791751,-0.09988462530833081
255,33.315225500031374,0.017229906072197952,0.010448651977322258,0.030158551570467953,0.04116587731156191,0.021226861691058974,-0.04934920918505598,0.07268797456937669,0.042970441060737705,-0.12755425789470168,-0.004503018513405875,0.04440386474852435,-0.09826488399862211
256,33.31920360005461,0.017414061393176722,0.010543664723651569,0.029937386912587027,0.04148972764046032,0.021418777295041453,-0.04991856199129276,0.07266462462319846,0.04316631129869901,-0.12798848947030414,-0.005982713317792511,0.04350442791255338,-0.09662324355327465
257,33.32368660008069,0.01759965954790853,0.01063953458370961,0.02971368092781869,0.041813459232283676,0.021611556760031514,-0.050489833419630176,0.07263465705756741,0.04335814940071196,-0.12841535730822043,-0.007473161434123367,0.04259415758542006,-0.09495983698445601
258,33.327638900023885,0.01778669994160485,0.010736265366798366,0.02948742513995898,0.04213704249238745,0.021805182011414133,-0.05106299044140933,0.07259802434472089,0.043545907374832674,-0.12883476472383634,-0.008974185886781415,0.041673182029496755,-0.0932748045241428
259,33.331598500022665,0.017975181847132565,0.010833860801203495,0.029258611220938403,0.04246044761610243,0.02199963476199732,-0.05163799959854088,0.07255467975687108,0.04372953780877419,-0.1292466156733728,-0.010485604671745304,0.04074163320054965,-0.0915682936051009
260,33.33626200002618,0.018165104404086075,0.01093232453325284,0.02902723099272909,0.0427836445923494,0.022194896514631152,-0.052214827006430674,0.0725045773882621,0.04390899388657295,-0.12965081478612586,-0.012007230784992969,0.039799646806662245,-0.08984045896877861
261,33.34007799997926,0.018356466617875683,0.011031660126386783,0.02879327642923862,0.043106603207350346,0.022390948564903132,-0.0527934383570525,0.07244767217767259,0.04408422940536269,-0.1300472673973611,-0.013538872040938144,0.03884736239857633,-0.08809146262554471
262,33.34527120005805,0.018549267358832763,0.011131871060240788,0.02855673965818979,0.04342929304844367,0.022587772003906707,-0.05337379892216687,0.07238391993209081,0.04425519879284605,-0.13043587958019937,-0.015080330926365172,0.037884923541676316,-0.08632147362928476
263,33.349748000036925,0.018743505361332163,0.011232960729740418,0.028317612962985753,0.04375168350800642,0.022785347721092336,-0.053955873556677976,0.072313277350519,0.04442185712560118,-0.13081655817650234,-0.016631404555959604,0.036912477823368095,-0.08453066801449581
264,33.35402770002838,0.018939179222932315,0.011334932444209288,0.028075888784559883,0.04407374378748161,0.022983656407199154,-0.05453962670212769,0.07223570204804479,0.044584160146619076,-0.13118921082819765,-0.018191884593494446,0.03593017675950594,-0.08271922887868177
265,33.35834600008093,0.01913628740353354,0.011437789426490217,0.02783155972320976,0.04439544290151499,0.02318267855726233,-0.05512502239033168,0.07215115258034792,0.04474206428277632,-0.13155374600889883,-0.019761557183339173,0.034938175846078084,-0.08088734631350894
266,33.362634300021455,0.019334828224555012,0.011541534812079972,0.02758461854041464,0.04471674968220076,0.023382394473700455,-0.05571202424715523,0.07205958846838206,0.044895526662833,-0.13191007305461677,-0.02134020290145105,0.033936634603454176,-0.07903521734241462
267,33.36639500001911,0.019534799868130913,0.011646171648277939,0.027335058160635774,0.045037632783438315,0.02358278426948328,-0.05630059549642305,0.07196097022331828,0.045044505135299784,-0.13225810219482376,-0.022927596795031185,0.0329257165371536,-0.07716304604719623
268,33.37033710000105,0.019736200376326223,0.011751702893349099,0.027082871673099054,0.045358060685400256,0.02378382787137834,-0.05689069896397192,0.07185525937087345,0.04518895828608621,-0.13259774458429302,-0.02452350857351537,0.031905589157291185,-0.07527104365583827
269,33.3741638000356,0.019939027650372677,0.01185813141570163,0.026828052333559213,0.045678001699105915,0.023985505023275996,-0.057482297081844255,0.07174241847455161,0.045328845456541075,-0.13292891233494547,-0.026127702808816364,0.030876424071750817,-0.07335942873916981
270,33.37861920008436,0.020143279449925337,0.011965459993079519,0.02657059356604508,0.04599742397109653,0.0241877952895968,-0.05807535189262459,0.07162241115818786,0.04546412676193107,-0.1332515185494419,-0.02773993908795429,0.029838397069575886,-0.07142842751977241
271,33.38220240001101,0.020348953392340198,0.012073691311770525,0.02631048896458515,0.04631629548820967,0.024390678058781222,-0.058669825053932485,0.07149520212782948,0.04559476311022432,-0.1335654773557826,-0.029359972165251075,0.028791688187066025,-0.06947827391096649
272,33.38621680007782,0.020556046951973314,0.012182827965829895,0.0260477322949128,0.04663458408244939,0.024594132546864437,-0.059265677843067376,0.07136075719292344,0.04572071622115811,-0.13387070394124714,-0.03098755205484611,0.027736481769278547,-0.06750920946744143
273,33.38964429998305,0.02076455745950181,0.012292872456320186,0.025782317496150453,0.046952257435949496,0.02479813780113596,-0.05986287116180394,0.07121904328737307,0.045841948645570486,-0.13416711458655387,-0.03262242405543107,0.02667296654813913,-0.0655214835085309
274,33.39412940002512,0.020974482101267237,0.012403827190567592,0.02551423868247206,0.04726928308603138,0.025002672703886723,-0.06046136554134139,0.07107002849050513,0.04595842378516411,-0.1344546267008983,-0.034264328755483714,0.025601335652269387,-0.06351535313744451
275,33.39839500002563,0.021185817918641655,0.012515694481435162,0.02524349014474317,0.04758562843035409,0.02520771597624484,-0.06106112114741108,0.07091368204807982,0.04607010591192546,-0.1347331588562842,-0.03591300200303923,0.024521786452999336,-0.06149108299102642
276,33.4022553000832,0.02139856180741689,0.01262847654661331,0.024970066352137874,0.04790126073215944,0.02541324618209575,-0.06166209778553175,0.07074997439352727,0.04617696018651631,-0.13500263082033165,-0.03756817489652289,0.02343452043397557,-0.059448945024408145
277,33.40657980006654,0.021612710517217366,0.01274217550792797,0.024693961953732056,0.04821614712561133,0.025619241732081882,-0.06226425490640955,0.07057887716903921,0.04627895267653095,-0.135262963588689,-0.039229573785183006,0.022339743137345467,-0.05738921832929399
278,33.41044220002368,0.021828260650936935,0.012856793390666752,0.024415171780072204,0.04853025462122881,0.025825680887685512,-0.06286755161148211,0.07040036324680163,0.04637605037440802,-0.1355140794162216,-0.04089692017001461,0.021237664029248843,-0.05531218884092436
279,33.41520629997831,0.022045208664200133,0.01297233212292348,0.024133690844719256,0.04884355011141467,0.026032541765388054,-0.06347194665859651,0.0702144067509694,0.046468221214489014,-0.13575590184681213,-0.042569930606262296,0.02012849644076448,-0.0532181490526414
280,33.41893320006784,0.02226355086484828,0.013088793534961415,0.023849514345766806,0.04915600037608427,0.026239802340904932,-0.06407739846781896,0.07002098307976785,0.04655543409040385,-0.13598835574200563,-0.04424831679148225,0.019012457663487303,-0.05110739788816615
281,33.422971600084566,0.022483283412450903,0.013206179358595537,0.02356263766733318,0.04946757208839115,0.026447440453499824,-0.06468386512736801,0.06982006892668255,0.046637658872981116,-0.13621136730967154,-0.0459317856982559,0.017889769069654282,-0.04898024071767843
282,33.428560900036246,0.022704402317842858,0.013324491226594216,0.02327305638102676,0.049778231820544694,0.026655433810379138,-0.0652913043996797,0.06961164230137813,0.046714866428704226,-0.136424864132792,-0.04762003967701905,0.016760656173354652,-0.04683698930294367
283,33.43223420006689,0.0229269034426876,0.013443730672100656,0.02298076624738401,0.05008794604972214,0.026863759991170744,-0.06589967372759732,0.06939568254997174,0.046787028638167145,-0.13662877519763497,-0.049312776734764405,0.01562534858168008,-0.044677961743486205
284,33.435965300071985,0.023150782499066994,0.013563899128074477,0.02268576321727964,0.05039668116406695,0.02707239645248292,-0.06650893024068762,0.06917217037346801,0.04685411841409522,-0.13682303092206272,-0.051009690810589224,0.014484079972714212,-0.04250348253567311
285,33.439878400065936,0.02337603504909804,0.013684997926753794,0.02238804343330834,0.05070440346876511,0.02728132053254369,-0.06711903076168287,0.0689410878455769,0.04691610971960472,-0.13700756318423152,-0.0527104718241932,0.013337088102567396,-0.04031388264609024
286,33.44400740007404,0.023602656504576842,0.013807028299138144,0.022087603231137534,0.051011079192202276,0.027490509455922494,-0.06772993181305283,0.06870241843071644,0.046972977586286394,-0.13718230535155412,-0.05441480574900375,0.012184614687689378,-0.038109499437783086
287,33.44775520008989,0.023830642126650193,0.013929991374492636,0.021784439140830537,0.051316674492200495,0.02769994033833068,-0.06834158962370494,0.06845614700117884,0.04702469813141617,-0.13734719230874207,-0.05612237467655903,0.011026905290290986,-0.03589067653348045
288,33.45192870008759,0.024059987025515133,0.014053888179873669,0.02147854788813961,0.051621155462328386,0.027909590191496563,-0.0689539601358062,0.06820225985455956,0.0470712485750176,-0.1375021604855492,-0.057832856728093934,0.009864209286058396,-0.03365776366337663
289,33.45661520003341,0.024290686160146777,0.014178719639676525,0.02116992639576832,0.05192448813829315,0.02811943592811798,-0.06956699901173055,0.06794074473171127,0.04711260725678483,-0.13764714788345744,-0.05954592618201532,0.008696779773120675,-0.031411116091824065
290,33.460881100036204,0.02452273433805482,0.014304486575205222,0.020858571784602663,0.05222663850441077,0.028329454366888156,-0.07018066164111865,0.06767159083303688,0.04714875365233377,-0.13778209409831108,-0.06126125373346322,0.00752487346995878,-0.029151094053316326
291,33.464835999999195,0.024756126215069046,0.0144311897042649,0.02054448137491053,0.052527572500143206,0.028539622237593085,-0.07079490314802696,0.06739478883413035,0.047179668389215265,-0.13790694034197598,-0.0629785065679578,0.006348750572693024,-0.02687806288946072
292,33.46907720004674,0.024990856295154077,0.0145588296407771,0.020227652687509107,0.052827256026708,0.028749916186280117,-0.07140967839818048,0.06711033090141334,0.04720533326189437,-0.13802162946619462,-0.0646973483661301,0.0051686744264102975,-0.024592393329426494
293,33.47293140005786,0.02522691893025379,0.014687406894418211,0.019908083444899704,0.05312565495375483,0.028960312780488825,-0.07202494200633451,0.06681821070773392,0.047225731244834444,-0.13812610598674463,-0.06641743931401692,0.003984911099419937,-0.02229446152350592
294,33.47727799997665,0.025464308320165583,0.014816921870281368,0.019585771572369553,0.05342273512611412,0.029170788514536198,-0.07264064834374265,0.0665184234479114,0.04724084650368223,-0.1382203161075929,-0.06813843633327779,0.0027977289712816183,-0.01998464899417726
295,33.481357100070454,0.025703018512444907,0.014947374868562,0.019260715199060075,0.05371846237061211,0.02938131981484719,-0.0732567515457338,0.06621096585228338,0.04725066440468047,-0.138304207744618,-0.06985999326667644,0.001607398332967834,-0.017663342513794863
296,33.48550359997898,0.025943043402340285,0.01507876608426723,0.018932912659001162,0.05401280250294023,0.029591883045323793,-0.07387320551939161,0.06589583620059765,0.04725517152228965,-0.13837773054867428,-0.07158176085973686,0.00041419095575050244,-0.015330933956943422
297,33.49017720005941,0.026184376732759067,0.015211095606949282,0.018602362492111,0.054305721334593965,0.029802454512743517,-0.07448996395133702,0.06557303433572263,0.047254355644758585,-0.13844083592799852,-0.0733033869757479,-0.0007816203865627023,-0.01298782014928531
298,33.49398560007103,0.026427012094264277,0.015344363420462978,0.018269063445160987,0.05459718467986439,0.030013010472178105,-0.07510698031560735,0.06524256167562321,0.047248205777488374,-0.1384934770699269,-0.0750245168304262,-0.0019797623049699936,-0.01063440281322626
299,33.498197600012645,0.026670942925102678,0.015478569402747444,0.01793301447270535,0.05488715836288379,0.03022352713242199,-0.07572420788163245,0.0649044212249799,0.047236712145150996,-0.13853560896281744,-0.07674479320894692,-0.0031799610822756358,-0.008271088543093353
300,33.502749699982814,0.026916162511264413,0.015613713325631988,0.017594214737974984,0.05517560822472074,0.030433980661429893,-0.07634159972230913,0.06455861758523046,0.04721986619249555,-0.13856718841754578,-0.07846385673485436,-0.004381943106606904,-0.005898288668508086
301,33.50675639999099,0.0271626639865743,0.015749794854666255,0.017252663613735085,0.05546250013051522,0.030644347191752463,-0.07695910872216884,0.06420515696379259,0.047197660582603405,-0.13858817408821003,-0.08018134626661773,-0.005585435302606902,-0.0035164191954862897
302,33.510793299996294,0.02741044033281506,0.01588681354897456,0.01690836068310622,0.055747799976655854,0.03085460282595833,-0.07757668758563668,0.06384404718057146,0.04717008919385164,-0.1385985264931016,-0.08189689943266532,-0.00679016540629779,-0.00112590084575779
303,33.514648900018074,0.027659484379882575,0.016024768861134353,0.016561305740348364,0.05603147369797305,0.031064723642042682,-0.07819428884538597,0.06347529767241422,0.047137147115718654,-0.13859820803576042,-0.08361015271937013,-0.007995862246880632,0.0012728410061357222
304,33.51912419998553,0.027909788805973213,0.016163660137078758,0.01621149879160749,0.05631348727495595,0.03127468569881193,-0.07881186487078484,0.06309891949883341,0.047098830643236236,-0.13858718302538534,-0.08532074126992481,-0.009202255910807455,0.0036793765418189402
305,33.523268199991435,0.02816134613780342,0.016303486616023027,0.01585894005562434,0.05659380674099654,0.031484465041242846,-0.07942936787643275,0.06271492534825385,0.04705513727133295,-0.13856541769602682,-0.08702829868339466,-0.010409077790493266,0.006093271757518332
306,33.527851700084284,0.02841414875086159,0.016444247430414834,0.015503629964404955,0.056872398189662283,0.03169403770581683,-0.08004674993077811,0.06232332954552692,0.04700606568885212,-0.13853288022469415,-0.08873245699542222,-0.011616060773678836,0.008514088663616118
307,33.53196050005499,0.02866818886969247,0.016585941605908275,0.015145569163852625,0.05714922778200723,0.03190337972582572,-0.08066396296481616,0.0619241480583494,0.04695161577120759,-0.13848954074876987,-0.0904328471683458,-0.012822939616010736,0.010941385519300769
308,33.538336600060575,0.028923458568214207,0.01672856806136144,0.01478475851436091,0.0574242617539018,0.032112467136640614,-0.08128095878086183,0.06151739850040983,0.04689178857108133,-0.1384353713820257,-0.09212909964466731,-0.014029451273206173,0.013374717194625697
309,33.542095300043,0.029179949770068044,0.01687212560885737,0.014421199091367413,0.05769746642337197,0.032321275980934774,-0.08189768906139029,0.0611031001328749,0.046826586308118964,-0.13837034622881028,-0.09382084495976087,-0.01523533529914487,0.015813635849000272
310,33.54819100000896,0.029437654249000786,0.017016612953748178,0.014054892185868006,0.05796880819794231,0.03252978231386062,-0.08251410537793627,0.06068127386207538,0.04675601235607959,-0.13829444139401856,-0.09550771474711749,-0.01644033464007594,0.018257692021184213
311,33.55277200008277,0.02969656362927995,0.017162028694722144,0.013685839304891301,0.05823825358195451,0.03273796220815811,-0.08313015920002348,0.060251942232033846,0.046680071225453416,-0.13820763498756553,-0.09718934262598705,-0.01764419635914873,0.020706435592231946
312,33.55899530008901,0.029956669386141437,0.017308371323893356,0.013314042171933294,0.05850576918384384,0.032945791759176835,-0.08374580190410379,0.05981512941424004,0.04659876854415461,-0.13810990712577384,-0.09886536435724633,-0.01884667168639241,0.023159415961981098
313,33.56277730001602,0.030217962846269535,0.017455639226913563,0.012939502727352167,0.05877132172336658,0.03315324708981232,-0.084360984782499,0.05937086119878947,0.04651211103969351,-0.13800123993427482,-0.10053541723060515,-0.02004751566504911,0.025616181435562765
314,33.56763830001,0.030480435188309,0.017603830683105812,0.012562223128723248,0.05903487803879749,0.03336030435536924,-0.08497565905236588,0.058919164989619945,0.04642010652302132,-0.1378816175548634,-0.10219913952668767,-0.02124648711234766,0.02807627872750954
315,33.57331240002532,0.030744077443409207,0.01775294386561964,0.01218220575115392,0.05929640509411477,0.033566939748353765,-0.08558977586469907,0.0584600698004441,0.04632276387105195,-0.13775102615281842,-0.10385617082980668,-0.022443349081241976,0.03053925318506011
316,33.577914500026964,0.031008880495800254,0.017902976841607413,0.011799453187558342,0.059555869986161296,0.03377312950318098,-0.08620328631336129,0.0579936062471985,0.04622009300639167,-0.13760945392176763,-0.10550615272855932,-0.023637869256526816,0.0330046491622646
317,33.582157600088976,0.03127483508340094,0.018053927572421483,0.011413968248891881,0.059813239951762305,0.03397884990078662,-0.08681614144412961,0.057519806537732476,0.046112104876330814,-0.1374568910876739,-0.1071487288413389,-0.024829819763854722,0.03547200973342898
318,33.58610720001161,0.0315419317984583,0.01820579391383162,0.01102575396434522,0.06006848237479472,0.03418407727314723,-0.08742829226376125,0.057038704464029893,0.045998811434275505,-0.13729332991625393,-0.10878354406095804,-0.0260189764688834,0.037940875623903254
319,33.58981440006755,0.03181016108821859,0.018358573616262443,0.010634813581497989,0.06032156479323551,0.034388788007726434,-0.08803968974910592,0.056550335398629865,0.04588022562498525,-0.13711876472649334,-0.11041024382889297,-0.027205118168341483,0.040410784033792446
320,33.59436700004153,0.03207951325562962,0.018512264325050497,0.010241150566431668,0.060572454906199134,0.03459295855186356,-0.08865028485629203,0.05605473629331638,0.045756361373213844,-0.1369331919085483,-0.11202847366525075,-0.028388025948055794,0.0428812678692904
321,33.59818540001288,0.032349978460074466,0.01866686358072078,0.009844768603801355,0.0608211205809742,0.03479656541711864,-0.08926002852999862,0.05555194567972792,0.045627233574668205,-0.1367366099441109,-0.11363787902653706,-0.029567482800897976,0.04535185529238613
322,33.60248680005316,0.03262154671813653,0.01882236881928254,0.009445671596866028,0.06106752986006636,0.03499958518358046,-0.08986887171282305,0.05504200366931465,0.04549285808805409,-0.13652901942832382,-0.11523810541809423,-0.030743273401029614,0.04782206955017442
323,33.60669990000315,0.03289420790439599,0.01897877737254421,0.009043863667476837,0.0613116509682346,0.03520199450414071,-0.09047676535474823,0.054524951952946016,0.04535325172804683,-0.13631042309166683,-0.11682879817385024,-0.031915183912305606,0.05029142901291725
324,33.61076469998807,0.03316795175225758,0.019136086468447285,0.008639349156022994,0.061553452319530605,0.03540377010873935,-0.09108366042270537,0.054000833802830765,0.04520843225904456,-0.13608082582153225,-0.11840960219622725,-0.03308300182227429,0.05275944733742989
325,33.615235100034624,0.03344276785480976,0.01929429323141909,0.008232132621334839,0.061792902524352177,0.03560488880858311,-0.09168950791023345,0.05346969407444247,0.04505841838961835,-0.13584023468265544,-0.11998016200515728,-0.03424651565762677,0.05522563388994887
326,33.61884450004436,0.0337186456657154,0.01945339468274426,0.00782221884054365,0.06202997039649977,0.035805327500341405,-0.0922942588472241,0.052931579208002746,0.044903229768801275,-0.1355886589349216,-0.12154012182701941,-0.035405514572523764,0.057689494386521024
327,33.62307920004241,0.03399557450013378,0.019613387740954894,0.007409612808897855,0.0622646249602431,0.036005063170331725,-0.09289786430973974,0.052386537229614144,0.04474288698420739,-0.13532611004808925,-0.12308912577015821,-0.036559788054430754,0.060150531577430645
328,33.62920710002072,0.03427354353567428,0.019774269222239342,0.006994319739535356,0.0624968354573878,0.03620407289869883,-0.09350027542988967,0.051834617751179174,0.044577411560942394,-0.13505260171349737,-0.124626818050556,-0.03770912575244121,0.06260824583448749
329,33.633600800065324,0.03455254181338137,0.019936035840869597,0.006576345063211719,0.06272657135434132,0.0364023338635904,-0.09410144340575254,0.051275871969522026,0.04440682596125251,-0.134768149853555,-0.12615284345330272,-0.03885331735015805,0.06506213568938399
330,33.63782990002073,0.03483255823875123,0.020098684209647298,0.006155694427984063,0.0629538023491717,0.036599823345333134,-0.09470131951133699,0.050710352662195,0.044231153584568084,-0.13447277262865076,-0.127666848096532,-0.03999215257504392,0.06751169869268
331,33.641618499998,0.03511358158277969,0.02026221084036834,0.005732373698850494,0.06317849837863614,0.036796518730608754,-0.09529985510656577,0.05013811417979209,0.044050418767069104,-0.13416649043898704,-0.12916848034344383,-0.04112542149773895,0.06995643312672051
332,33.64816570002586,0.035395600483041474,0.02042661214430609,0.00530638895734501,0.06340062962517129,0.03699239751662624,-0.09589700164725268,0.04955921243362752,0.0438646467790613,-0.13384932591622417,-0.13065739208616212,-0.04225291525798918,0.07239584067171838
333,33.65223040001001,0.03567860344480043,0.02059188443271319,0.004877746501088021,0.06362016652381197,0.03718743731527447,-0.09649271069501217,0.0489737048766077,0.04367386381807227,-0.13352130390155476,-0.13213324000067395,-0.0433744268721832,0.07482942900126734
334,33.65682740008924,0.03596257884215042,0.020758023917341762,0.0044464528432929425,0.06383707976901101,0.03738161585723291,-0.09708693392704097,0.048381650479725834,0.04347809699903083,-0.13318245141421672,-0.1335956863024619,-0.04448975161138787,0.0772567129904293
335,33.66047810006421,0.03624751491918637,0.02092502671098186,0.004012514712229538,0.06405134032134849,0.03757491099603674,-0.09767962314574706,0.0477831097061997,0.04327737434399414,-0.13283279761880132,-0.1350443988636666,-0.04559868704642659,0.07967721437396612
336,33.66514689999167,0.03653339979120491,0.021092888828017905,0.0035759390506447056,0.06426291941412109,0.03776730071209599,-0.0982707302882399,0.047178144486922154,0.043071724771925314,-0.13247237379681195,-0.13647905077135766,-0.04670103301197614,0.08209046084593934
337,33.66966010001488,0.036820221445934165,0.021261606185002942,0.003136733015141241,0.06447178855983256,0.03795876311666956,-0.09886020743570599,0.04656681819853556,0.04286117808874051,-0.1321012133219965,-0.13789932007259834,-0.04779659155335665,0.08449598550142982
338,33.673363400041126,0.037107967744792254,0.021431174601250505,0.002694903975515069,0.06467791955658768,0.03814927645579567,-0.09944800682267924,0.04594919564115424,0.04264576497756074,-0.13171935163688153,-0.1393048896680323,-0.048885166887914236,0.08689332672960079
339,33.67772000003606,0.03739662642417403,0.02160158979944389,0.002250459514051393,0.06488128449438417,0.03833881911417899,-0.10003408084620738,0.04532534301738727,0.042425516989103136,-0.13132682622905756,-0.14069544697796624,-0.04996656534509312,0.08928202836449536
340,33.68132360000163,0.037686185096765676,0.02177284740626267,0.0018034074247802313,0.06508185576131971,0.03852736961903546,-0.10061838207491106,0.04469532791303677,0.042200466532466806,-0.13092367660636942,-0.14207068364654948,-0.05104059526910504,0.09166163989140176
341,33.68600149999838,0.03797663125288675,0.021944942953026233,0.0013537557126918375,0.06527960604971184,0.03871490664389733,-0.10120086325792908,0.044059219278757035,0.0419706468663915,-0.13050994427136242,-0.1434302953086724,-0.05210706687171327,0.09403171652075257
342,33.6904944999842,0.03826795226185933,0.0221178718763542,0.0009015125929125149,0.06547450836214151,0.03890140901238004,-0.1017814773337498,0.0434170874128302,0.04173609209135549,-0.13008567269581411,-0.14477398133486014,-0.05316579220270937,0.0963918192094523
343,33.694300599978305,0.03856013537340391,0.022291629518843534,0.0004466864898413314,0.06566653601741952,0.03908685570191685,-0.10236017743892939,0.04276900394509887,0.04149683714109729,-0.12965090729499038,-0.14610144458472504,-0.054216585365879415,0.09874151480119805
344,33.698619200033136,0.03885316771906172,0.022466211129762256,-1.071396375176066e-05,0.06585566265648685,0.039271225847450165,-0.10293691691669378,0.04211504182193899,0.04125291777278889,-0.12920569540092663,-0.14741239136921674,-0.055259262518566464,0.1010803762529079
345,33.7026306000771,0.039147036313643226,0.022641611865759435,-0.00047067992766587066,0.06604186224824714,0.03945449874507861,-0.10351164932541886,0.041455275290528906,0.041004370558561376,-0.12875008623466608,-0.14870653144992912,-0.0562936418329714,0.10340798279427002
346,33.70706859999336,0.03944172805670239,0.022817826791591403,-0.0009332023552466245,0.0662251090953269,0.03963665385567279,-0.10408432844698495,0.040789779883828425,0.04075123287602304,-0.12828413087811896,-0.1499835779017602,-0.05731954380455389,0.1057239199294961
347,33.710855600074865,0.03973722973403652,0.022994850880863983,-0.0013982719944005653,0.06640537783977411,0.03981767080843789,-0.10465490829500627,0.04011863240607181,0.04049354289703654,-0.1278078822462852,-0.15124324718192783,-0.05833679125701396,0.10802777933666305
348,33.71530220005661,0.04003352801921133,0.023172679016790446,-0.0018658793886459487,0.0665826434686891,0.03999752940442943,-0.10522334312293784,0.03944191091713179,0.04023133957819265,-0.12732139506001072,-0.1524852593160625,-0.05934520902882067,0.1103191587569326
349,33.72034060000442,0.040330609475110975,0.02335130599296507,-0.0023360148781993912,0.06675688131978381,0.04017620962003093,-0.1057895874320621,0.038759694716354126,0.03996466265238103,-0.12682472581919735,-0.15370933806543025,-0.06034462376204371,0.1125976619122588
350,33.723870799993165,0.04062846055551262,0.023530726514152094,-0.0028086686010978423,0.06692806708686867,0.04035369161039456,-0.10635359597935715,0.03807206432543132,0.03969355262114587,-0.12631793277629252,-0.15491521112175752,-0.06133486370674225,0.11486289843758064
351,33.72744540008716,0.040927067606685394,0.023710935197089937,-0.0032838304943553537,0.06709617682525917,0.0405299557128507,-0.10691532378524707,0.037379101470500935,0.03941805074799999,-0.12580107591010348,-0.15610261031359235,-0.06231575862249914,0.11711448373772648
352,33.73180990002584,0.04122641686901316,0.023891926571310534,-0.0037614902951541218,0.0672611869571032,0.040704982450289,-0.10747472614123678,0.036680889063180205,0.03913819905165797,-0.12527421690056223,-0.1572712721560201,-0.06328713964623593,0.11935203871657225
353,33.73561139998492,0.04152649447864092,0.024073695079973697,-0.004241637542069298,0.06742307427661864,0.0408787525345076,-0.1080317586174375,0.03597751117776534,0.038854040300528254,-0.12473741910495346,-0.1584209384382893,-0.06424883873376523,0.12157518948505594
354,33.74017730006017,0.04182728646914428,0.02425623508071629,-0.004724261576327098,0.06758181595521748,0.04105124686954514,-0.1085863770699897,0.035269053027029276,0.03856561801092317,-0.1241907475352817,-0.15955135624338201,-0.06520068792870244,0.12378356713962795
355,33.74415380007122,0.042128778773221486,0.024439540846516283,-0.005209351543095764,0.06773738954652771,0.041222446555014,-0.10913853764838695,0.034555600939246534,0.03827297644806641,-0.12363426883647358,-0.16066227822252346,-0.06614251876522789,0.12597680756740137
356,33.74816319998354,0.04243095722440769,0.024623606566571647,-0.005696896392808945,0.0678897729913127,0.04139233288944133,-0.10968819680270452,0.03383724233154458,0.0379761606296256,-0.12306805126548154,-0.16175346326213894,-0.06707416171400483,0.12815455127494102
357,33.75249610003084,0.04273380755881082,0.024808426347194167,-0.00618688488252108,0.06803894462225563,0.04156088737363374,-0.110235311290737,0.033114065680984815,0.03767521633165771,-0.12249216467101193,-0.1628246766301049,-0.06799544564705418,0.13031644328969005
358,33.75650520005729,0.04303731541686845,0.024993994212718328,-0.006679305577294385,0.06818488316862108,0.0417280917140713,-0.11077983818504637,0.03238616049661055,0.037370190096910644,-0.12190668047350714,-0.16387568995722912,-0.06890619729477399,0.13246213296462675
359,33.76078800007235,0.04334146634512523,0.02518030410642538,-0.007174146851617051,0.0683275677607904,0.04189392782634625,-0.11132173487992107,0.031653617290693034,0.03706112924560764,-0.12131167164661462,-0.16490628088376563,-0.06980624083418056,0.1345912733226692
360,33.76445620006416,0.04364624579803019,0.02536734989148286,-0.007671396890852252,0.06846697793466704,0.042058377838653106,-0.11186095909825897,0.030916527553929683,0.03674808188741839,-0.12070721270301162,-0.16591623230368738,-0.07069539756931359,0.13670352028363963
361,33.76918260008097,0.04395163913975343,0.025555125351899775,-0.008171043692717676,0.06860309363599087,0.04222142409533403,-0.11239746889840015,0.030174983733425084,0.03643109693509173,-0.12009337968276343,-0.1669053327391411,-0.0715734858681602,0.13879853313343446
362,33.77348490001168,0.04425763164602185,0.025743624193497704,-0.008673075068795433,0.06873589522454733,0.04238304916049044,-0.11293122268090608,0.0294290792045521,0.03611022411698882,-0.11947025013496695,-0.16787337808464411,-0.07244032174635694,0.14087597662991472
363,33.77754550008103,0.04456420850597337,0.025932840044898174,-0.009177478646072003,0.0688653634782309,0.04254323582164009,-0.11346217919522884,0.028678908233388742,0.035785513985513925,-0.11883790308734138,-0.16882017306645633,-0.073295719513352,0.14293552315981986
364,33.78167719999328,0.044871354824028854,0.02612276645852636,-0.00968424186850757,0.06899147959691952,0.042701967093403785,-0.11399029754621927,0.02792456593557343,0.03545701792388909,-0.11819641900864947,-0.16974553144964197,-0.0741394922776469,0.14497685380219005
365,33.78595739998855,0.045179055621780886,0.02631339691163131,-0.010193351998633977,0.06911422520617144,0.04285922622122288,-0.11451553720046127,0.027166148236896556,0.03512478815008221,-0.11754587976881112,-0.17064927611739833,-0.07497145303040938,0.14699965914193602
366,33.79371910006739,0.045487295839898634,0.026504724807322775,-0.010704796119180517,0.06923358236074836,0.043014996685080964,-0.11503785799242454,0.02640375183144878,0.03478887771392461,-0.11688636859407417,-0.17153123990261404,-0.07579141618400552,0.14900364095846758
367,33.797999900067225,0.045796060340047996,0.026696743475624597,-0.011218561134726707,0.06934953354793932,0.043169262203195675,-0.11555722013039933,0.0256374741348018,0.03444934048732787,-0.11621797001207902,-0.1723912665293343,-0.07659919889097655,0.15098851413569694
368,33.80242750002071,0.04610533390682612,0.026889446174544453,-0.011734633773380977,0.06946206169066661,0.043322006735653215,-0.1160735842021596,0.024867413233766365,0.03410623114964675,-0.11554076979000763,-0.1732292107025734,-0.0773946218968265,0.15295400686002011
369,33.80658069998026,0.04641510124970921,0.027082826091159626,-0.012253000588483914,0.06957115015036189,0.04347321448796971,-0.11658691118034659,0.02409366783877266,0.033759605170296025,-0.11485485487788373,-0.17404493696922738,-0.07817751000551265,0.15489985866365438
370,33.81074270000681,0.04672534700501269,0.027276876342718484,-0.012773647960334927,0.06967678272964771,0.0436228699145708,-0.1170971624276266,0.023316337243779788,0.03340951878996503,-0.11416031336415947,-0.17483831835549782,-0.07894769227593655,0.156825818068513
371,33.81520469998941,0.0470360557378629,0.02747158997775727,-0.013296562097941458,0.06977894367485638,0.04377095772218561,-0.11760429970167886,0.022535521290799304,0.03305602900148334,-0.11345723444001324,-0.17560923544691884,-0.07970500223214615,0.15873164119585678
372,33.818882500054315,0.04734721194417971,0.027666959977231814,-0.013821729040790097,0.06987761767839529,0.04391746287315578,-0.11810828516003506,0.021751320338003463,0.03269919352916203,-0.11274570836732702,-0.17635757576945132,-0.08044927835870695,0.16061709118181514
373,33.82341170008294,0.04765880005266928,0.02786297925566383,-0.014349134660638923,0.06997278988098157,0.04406237058864535,-0.11860908136478182,0.02096383522976439,0.03233907080524463,-0.11202582644819302,-0.1770832336526645,-0.08118036444885865,0.16248193801504493
374,33.827487500035204,0.04797080442682662,0.028059640662301225,-0.014878764663330529,0.07006444587374044,0.04420566635173993,-0.11910665128712854,0.02017316726598164,0.03197571994614566,-0.1112976809943378,-0.17778610995523128,-0.08189810959927202,0.16432595855858292
375,33.831459900015034,0.04828320936694705,0.028256936982292008,-0.01541060459062507,0.07015257170016646,0.044347335910444804,-0.11960095831183731,0.019379418174567724,0.0316092007289483,-0.11056136529643419,-0.17846611130955237,-0.08260236818611445,0.16614893651332435
376,33.83608410006855,0.04859599911214619,0.028454860937871335,-0.015944639822052763,0.0702371538579767,0.044487365280574655,-0.12009196624151733,0.018582690087507542,0.031239573567856206,-0.10981697359385084,-0.1791231497111317,-0.08329299983979631,0.16795066237398645
377,33.83982170000672,0.04890915784238798,0.02865340518956116,-0.016480855576785216,0.07031817930085864,0.04462574074854181,-0.12057963930078518,0.017783085517003368,0.030866899490916273,-0.10906460104435663,-0.17975714226259393,-0.08396986944532277,0.16973093347349383
378,33.84428520000074,0.04922266968052025,0.028852562337382124,-0.017019236915524996,0.07039563544011074,0.04476244887403853,-0.12106394214028925,0.016980707333815556,0.030491240116467293,-0.10830434369347464,-0.18036801070347286,-0.08463284693165213,0.1714895540383684
379,33.848580899997614,0.04953651869431733,0.029052324922077127,-0.017559768742412826,0.07046951014619732,0.044897476492615364,-0.12154483984059694,0.01617565874759804,0.030112657631739956,-0.10753629844369293,-0.18095568105794968,-0.0852818068401892,0.17322633515011232
380,33.85296739998739,0.04985068889852949,0.029252685426346185,-0.018102435806951794,0.07053979175021387,0.045030810718172706,-0.12202229791594467,0.015368043288378368,0.029731214773151052,-0.1067605630241627,-0.18152008324170205,-0.08591662808977123,0.17494109458165963
381,33.85776819998864,0.050165164256938635,0.029453636276092196,-0.01864722270594797,0.07060646904527688,0.045162438945363544,-0.12249628231785502,0.014557964790396921,0.029346974806997904,-0.10597723596136654,-0.18206115114053334,-0.08653719381425032,0.17663365664937403
382,33.86124190001283,0.05047992868442009,0.02965516984167723,-0.019194113885466862,0.07066953128784516,0.04529234885191298,-0.12296675943862534,0.013745527372886222,0.028960001511200026,-0.10518641655013561,-0.18257882316008622,-0.0871433909466272,0.17830385209335511
383,33.8651441000402,0.050794966049010085,0.029857278439188957,-0.0197430936428051,0.07072896819893831,0.045420528400858244,-0.12343369611468663,0.01293083541901115,0.028570359159699726,-0.10438820482538458,-0.18307304223492796,-0.0877351096549247,0.17995151787353042
384,33.86990050005261,0.05111026017397841,0.030059954331716897,-0.020294146128476843,0.07078476996527042,0.0455469658427292,-0.12389705962984023,0.012113993556567268,0.028178112509231218,-0.10358270153494603,-0.18354375583851015,-0.08831224307737763,0.1815764970183298
385,33.87347770004999,0.051425794839906,0.030263189730638285,-0.02084725534821431,0.0708369272402965,0.045671649717670446,-0.12435681771837458,0.011295106636832284,0.027783326786081194,-0.10277000811265402,-0.18399091634661674,-0.08887468728381727,0.18317863851705102
386,33.87765809998382,0.05174155378676691,0.030466976796913233,-0.02140240516498195,0.07088543114515769,0.04579456885750383,-0.12481293856806207,0.010474279712025358,0.027386067673202074,-0.10195022665213767,-0.18441448106496947,-0.08942234121608612,0.1847577971274811
387,33.88169110007584,0.05205752071601431,0.030671307642388974,-0.021959579301003698,0.07093027326952686,0.045915712387735716,-0.12526539082304225,0.009651618013912544,0.0269864012975036,-0.10112345988161921,-0.18481441225072154,-0.08995510655130899,0.1863138333287098
388,33.88609699998051,0.05237367929267003,0.03087617433111291,-0.02251876133980282,0.07097144567236309,0.046035069729506224,-0.12571414358659405,0.008827226931074543,0.026584394218184596,-0.1002898111381281,-0.18519067719056387,-0.09047288755005088,0.18784661357432803
389,33.8906051000813,0.05269001314741726,0.031081568880654237,-0.023079934728253888,0.07100894088255472,0.046152630601492516,-0.12615916642378922,0.008001211986816071,0.026180113415377782,-0.0994493843400426,-0.18554324761064767,-0.09097559116831935,0.18935601057689055
390,33.894281600019895,0.053006505878695806,0.031287483263433946,-0.023643082778646275,0.07104275189947694,0.046268385021756855,-0.1266004293640198,0.007173678821692343,0.02577362627748337,-0.09860228395876873,-0.1858720993856547,-0.09146312723002756,0.1908419035984985
391,33.89936620008666,0.053323141054799794,0.03149390940806292,-0.024208188670758645,0.07107287219347914,0.04638232330953699,-0.12703790290339922,0.00634473317401118,0.02536500058827689,-0.09774861498869225,-0.18617721283060096,-0.0919354086027766,0.1923041787971224
392,33.902900099987164,0.05363990221597726,0.031700839200687884,-0.02477523545394385,0.07109929570626874,0.04649443608697933,-0.12747155800702198,0.00551448085975896,0.024954304512676245,-0.09688848291577119,-0.18645857229842552,-0.09239235154601218,0.1937427293559009
393,33.906974200042896,0.05395677287653126,0.03190826448634497,-0.02534420604922356,0.0711220168512196,0.04660471428080247,-0.12790136611108477,0.0046830277566889894,0.024541606580746774,-0.0960219936863355,-0.18671616580011957,-0.09283387607455916,0.19515745552071787
394,33.91063350008335,0.05427373652692221,0.032116177070320474,-0.025915083251392062,0.07114103051361408,0.046713149123887854,-0.12832729912486818,0.0038504797876328335,0.02412697567022852,-0.09514925367534474,-0.18694998503215876,-0.09325990630031192,0.1965482646935014
395,33.91499930003192,0.054590776635871176,0.03232456871951859,-0.026487849731128547,0.0711563320508027,0.04681973215678756,-0.12874932943257492,0.0030169429043442105,0.023710480987496178,-0.09427036965435623,-0.18716002494613457,-0.0936703708398022,0.19791507150701065
396,33.91999080008827,0.05490787665246362,0.03253343116383562,-0.0270624880371173,0.07116791729230225,0.04692445522914526,-0.12916742989502603,0.0021825230746457406,0.023292192046454135,-0.09338544875911625,-0.18734628337534825,-0.0940652033931791,0.19925779802893212
397,33.9234768000897,0.05522502000825355,0.03274275609754037,-0.0276389805981751,0.0711757825398409,0.047027310501015974,-0.1295815738512103,0.0013473262696006058,0.0228721786443366,-0.09249459845570931,-0.18750876100562988,-0.09444434342470924,0.20057637394429506
398,33.927475700038485,0.0555421901193677,0.03295253518066012,-0.02821730972538521,0.07117992456734194,0.04712829044407132,-0.12999173511967882,0.0005114584509193577,0.022450510834538077,-0.09159792650652368,-0.18764746136660176,-0.09480773682947498,0.20187073652192108
399,33.932152800029144,0.05585937038860952,0.03316276004037174,-0.02879745761423721,0.07118034062085671,0.047227387842677125,-0.13039788799979105,-0.0003249744417905622,0.022027258896471915,-0.09069554093669961,-0.1877623908986018,-0.09515533628650988,0.20314083062771213
400,33.93597440002486,0.05617654420756274,0.033373422272397306,-0.029379406346772108,0.07117702841843467,0.04732459579483011,-0.13080000727281035,-0.0011618665042144316,0.021602493305253673,-0.0897875499999765,-0.18785355887632446,-0.09548710139631443,0.20438660866104108
401,33.940194400027394,0.05649369495869423,0.033584513442403534,-0.02996313789373191,0.0711699861499388,0.047419907712965274,-0.13119806820284577,-0.0019991118794002206,0.021176284700334145,-0.08887406214570798,-0.18792097725977303,-0.0958029989452291,0.2056080301885091
402,33.94445930002257,0.056810806017455924,0.033796025087404584,-0.03054863411671313,0.07115921247680815,0.04751331732461305,-0.13159204653765352,-0.002836604769619898,0.02074870385282664,-0.08795518598797299,-0.1879646604884231,-0.09610300291478267,0.20680506164829876
403,33.94853900000453,0.05712786075438552,0.03400794871716738,-0.031135876770323527,0.07114470653176745,0.04760481867291553,-0.13198191850930352,-0.003674239446605005,0.020319821634056698,-0.08703103027522567,-0.18798462508195607,-0.09638709430616998,0.20797767638931483
404,33.95244660007302,0.05744484253720586,0.03422027581561898,-0.03172484750434153,0.07112646791849848,0.047694406117003305,-0.1323676608347104,-0.004511910259849724,0.01988970898445362,-0.08610170385905762,-0.18798088929393658,-0.09665526107132222,0.209125855069579
405,33.957546600024216,0.05776173473292268,0.0344329978422553,-0.0323155278658777,0.07110449671127572,0.047782074332234484,-0.13274925071602167,-0.005349511643760056,0.019458436882714467,-0.0851673156602973,-0.18795347313260602,-0.09690749842576694,0.21024958663612908
406,33.96580200002063,0.058078520709920756,0.03464610623355057,-0.032907899301537646,0.07107879345457394,0.04786781831029672,-0.13312666584084656,-0.006186938126142195,0.019026076311907416,-0.0842279746290395,-0.18790239882270365,-0.09714380992839314,0.21134887018698573
407,33.97002650005743,0.058395183840058144,0.03485959240436697,-0.03350194315958551,0.07104935916262822,0.047951633359144125,-0.133499884382288,-0.007024084339467423,0.01859269821901297,-0.08328378969415107,-0.1878276915196041,-0.09736420844135554,0.21242371677022143
408,33.97358079999685,0.0587117075007584,0.03507344774936357,-0.034097640692107155,0.07101619531894121,0.048033515102738754,-0.13386888499872146,-0.007860845035724828,0.0181583734724727,-0.08233486970726717,-0.18772937974125833,-0.09756871571778711,0.213474149091092
409,33.97736540006008,0.059028075077100464,0.03528766364440361,-0.034694973057171695,0.07097930387571072,0.04811345948060919,-0.13423364683332784,-0.008697115101535624,0.017723172825404747,-0.08138132339490703,-0.18760749495634735,-0.09775736110946834,0.21450019912832521
410,33.9815681000473,0.05934426996390573,0.035502231447959526,-0.03529392132099052,0.07093868725320226,0.04819146274726419,-0.13459414951344556,-0.009532789569335526,0.017287166884669726,-0.08042325932371369,-0.18746207107458296,-0.0979301804966714,0.2155019055061274
411,33.98591530008707,0.05966027556782237,0.03571714250251501,-0.03589446646007304,0.07089434833907707,0.04826752147147562,-0.13495037314979363,-0.010367763627946669,0.016850426083623367,-0.07946078587599023,-0.18729314441752676,-0.09808721581786292,0.21647931183000818
412,33.990099400049075,0.059976075309406414,0.03593238813596364,-0.03649658936337881,0.07084629048767034,0.04834163253544926,-0.1353022983356058,-0.011201932633499917,0.016413020655373676,-0.07849401122977051,-0.18710075407155383,-0.09822851514912191,0.21743246613743386
413,33.99496610008646,0.06029165262519962,0.03614795966300355,-0.03710027083446553,0.07079451751922196,0.04841379313386937,-0.13564990614567596,-0.012035192123152374,0.015975020604825817,-0.07752304333925115,-0.1868849424263809,-0.09835413288909374,0.21836142072902384
414,33.99894890002906,0.06060699096980373,0.03636384838652754,-0.037705491593632665,0.07073903371903249,0.04848400077282043,-0.1359931781353179,-0.01286743783080902,0.015536495680290974,-0.07654798991636666,-0.18664575522399277,-0.09846413002449876,0.21926623198297732
415,34.00263310002629,0.06092207381795079,0.03658004559900816,-0.038312232280060206,0.07067984383655378,0.04855225326857866,-0.1363320963392465,-0.013698565701276243,0.015097515343165033,-0.07556895841287518,-0.18638324158921976,-0.09855857443408296,0.2201469603082587
416,34.00667290005367,0.06123688466656931,0.03679654258387702,-0.038920473453942284,0.0706169530844188,0.04861854874626351,-0.13666664327037797,-0.014528471906255988,0.014658148736828665,-0.07458605600235087,-0.18609745436260647,-0.09863754090766248,0.22100367014354338
417,34.01097910001408,0.06155140703684596,0.03701333061689785,-0.03953019559861525,0.07055036713738974,0.04868288563835203,-0.1369968019185504,-0.015357052861465785,0.014218464656156282,-0.07359938956227902,-0.18578844974657563,-0.09870111112655336,0.22183642996420658
418,34.015791499987245,0.06186562447628231,0.03723040096753262,-0.0401413791226799,0.07048009213123528,0.04874526268305867,-0.13732255574916444,-0.016184205239479537,0.013778531516590526,-0.07260906565598614,-0.18545628664965155,-0.09874937364478896,0.22264531243154642
419,34.01941270008683,0.06217952056074657,0.037447744900300124,-0.040754004362117416,0.0704061346615642,0.048805678922574,-0.1376438887017429,-0.017009825981003316,0.013338417323818618,-0.07161519051340527,-0.1851010264210402,-0.09878242331992347,0.22343039423901068
420,34.023470400017686,0.0624930788965199,0.0376653536761264,-0.04136805158239877,0.07032850178260222,0.04886413370117426,-0.1379607851884,-0.017833812305350746,0.012898189647919483,-0.07061787001437642,-0.18472273221372446,-0.09880036039096189,0.22419175512811007
421,34.02735940006096,0.06280628312233726,0.03788321855368647,-0.041983500980587035,0.07024720100593222,0.04892062666322973,-0.13827323009225206,-0.01865606171604275,0.012457915601257523,-0.06961720967818198,-0.18432146798586113,-0.0988032897935793,0.22492947711189587
422,34.03209120000247,0.0631191169114225,0.03810133079073703,-0.042600332687432595,0.07016224029922119,0.048975157751117215,-0.13858120876579358,-0.01947647200238346,0.012017661818732456,-0.06861331465376755,-0.1838972982923219,-0.09879132097236815,0.2256436452245643
423,34.03565700002946,0.06343156397351785,0.03831968164543957,-0.043218526769461,0.0700736280849464,0.04902772720305244,-0.13888470702922076,-0.02029494124320218,0.011577494437346328,-0.06760628970259687,-0.1834502893049651,-0.09876456822436559,0.2263343495109745
424,34.03990950004663,0.06374360805690768,0.03853826237767375,-0.04383806323105325,0.06998137323908898,0.04907833555082044,-0.13918371116865472,-0.021111367817521896,0.011137479073391864,-0.0665962391711422,-0.18298050979533848,-0.09872315086697243,0.2270016868285067
425,34.04424140008632,0.06405523295043633,0.03875706425034029,-0.044458922016517785,0.06988548508976508,0.04912698361740462,-0.13947820793421994,-0.021925650417059014,0.010697680800522996,-0.06558326695768127,-0.18248803093565769,-0.09866719284392807,0.22764576130871564
426,34.04890140006319,0.06436642248551967,0.03897607853065321,-0.04508108301215366,0.06978597341580799,0.049173672514521746,-0.13976818453797155,-0.022737688055118194,0.010258164130454736,-0.06456747648067339,-0.18197292553504343,-0.09859682184378012,0.2282666833071667
427,34.05300230009016,0.0646771605381503,0.039195296491420784,-0.04570452604830408,0.06968284844532001,0.04921840364007901,-0.1400536286516919,-0.023547380072285504,0.009818992998889841,-0.06354897065491541,-0.18143526774701849,-0.09851216828109695,0.2288645681118117
428,34.05677500006277,0.0649874310308962,0.03941470941231507,-0.0463292309013999,0.06957612085420392,0.04926117867558357,-0.14033452840460542,-0.02435462614271648,0.009380230755298048,-0.06252785187142869,-0.18087513305675287,-0.09841336455018082,0.22943953563755357
429,34.06103390001226,0.06529721793489285,0.03963430858112981,-0.04695517729599282,0.06946580176465876,0.049301999583508546,-0.1406108723809959,-0.025159326279715604,0.008941940155493593,-0.061504221976337065,-0.18029259783234547,-0.09830054434928526,0.2299917102983416
430,34.065310499980114,0.06560650527182847,0.039854085295026494,-0.047582344906777665,0.06935190274366156,0.049340868604636406,-0.14088264961773309,-0.025961380838025433,0.00850418335743697,-0.060478182251893706,-0.17968773932517387,-0.09817384216095582,0.23052122043124612
431,34.06911470007617,0.06591527711592261,0.04007403086176855,-0.0482107133606035,0.06923443580144273,0.04937778825538756,-0.14114984960172097,-0.026760690519409186,0.008067021918443617,-0.05944983340049169,-0.17906063653028462,-0.09803339284027121,0.23102819781244915
432,34.07387459999882,0.06622351759589781,0.04029413660094362,-0.04884026223847319,0.06911341338991807,0.049412761325138846,-0.1414124622672818,-0.0275571563826076,0.007630516794655245,-0.058419275530004304,-0.17841137081560982,-0.09787933110531825,0.23151277741401416
433,34.077545600011945,0.06653121089694419,0.04051439384517387,-0.0494709710775312,0.0689888484010754,0.04944579087354744,-0.14167047799347374,-0.028350679854529073,0.007194728342789369,-0.05738660813996328,-0.1777400265878757,-0.09771179113460586,0.23197509693454785
434,34.081547099980526,0.06683834126267676,0.040734793941314386,-0.05010281937303925,0.06886075416530683,0.04947688022788492,-0.14192388760135172,-0.029141162746141026,0.006759716323198455,-0.05635193011108181,-0.1770466919794829,-0.09753090608724653,0.23241529615094322
435,34.08601860003546,0.06714489299708515,0.04095532825163973,-0.05073578658033972,0.0687291444496538,0.04950603298038843,-0.14217268235119174,-0.029928507269781485,0.006325539905895562,-0.05531533969720998,-0.17633145910326775,-0.09733680771059074,0.23283351672197672
436,34.09010620007757,0.06745085046647524,0.04117598815501875,-0.05136985211680652,0.06859403345598505,0.04953325298564846,-0.14241685393967998,-0.030712616057320865,0.005892257677110223,-0.05427693451660813,-0.17559442481608767,-0.09712962617379342,0.2332299021481155
437,34.09458540007472,0.0677561981014027,0.04139676504807785,-0.0520049953637835,0.0684554358190798,0.04955854435801842,-0.14265639449705939,-0.03149339218427855,0.005459927646797327,-0.05323681154426048,-0.17483569140640035,-0.09690948958747106,0.23360459731372069
438,34.100199299980886,0.06806092039859751,0.041617650346352696,-0.05264119566850987,0.0683133666045908,0.04958191146906937,-0.14289129658425023,-0.03227073919411236,0.005028607259473785,-0.052195067107228335,-0.17405536686789733,-0.09667652365004029,0.2339577482207516
439,34.10435939999297,0.06836500192287936,0.041838635485428814,-0.05327843234603291,0.06816784130691105,0.049603358945096133,-0.14312155318995531,-0.0330445611247737,0.004598353404879219,-0.051151796879336936,-0.17325356566483613,-0.09643085160936336,0.23428950196814152
440,34.1087833000347,0.06866842730906317,0.042059711922071086,-0.05391668468110767,0.0680188758469002,0.04962289166466703,-0.14334715772773318,-0.03381476253981763,0.004169222429154432,-0.05010709587671245,-0.17243040904533746,-0.09617259417468318,0.23460000686189106
441,34.11341700004414,0.06897118126385415,0.042280871135342485,-0.05455593193008354,0.067866486569474,0.04964051475622966,-0.14356810403306353,-0.03458124855775013,0.003741270146286935,-0.04906105845148768,-0.17158602533528938,-0.09590186982922154,0.23488941370738922
