,time,x,y,z,vx,vy,vz,ax,ay,az,jx,jy,jz
0,7.9955806999932975,0.00940379349634303,-0.01968453045383549,-0.009658756388101772,0.005467184510925618,-0.0026111906243105427,0.003958004927530071,0.02881663724293952,0.04801408468757749,-0.024608166311954165,0.09753177022556977,0.12194493019105718,-0.09626168651869008
1,7.99967160000233,0.009426140644410943,-0.019694698459581498,-0.00964294989862526,0.005584528155250388,-0.0024160051841455713,0.0038576924124980936,0.02921159342080704,0.048506822107673396,-0.024997838308329193,0.09777393201932034,0.12171231377336313,-0.0964333067918005
2,8.004024299996672,0.009448965607153224,-0.019704073027686356,-0.009627552299898694,0.00570347114038892,-0.0022188288199854744,0.0037558025049283486,0.029607510664783173,0.048998590803741734,-0.02538819568938638,0.09800697091215808,0.12146584801442754,-0.09660056241180996
3,8.008430000001681,0.009472274860802021,-0.019712646113982882,-0.009612569977131925,0.005824017278661141,-0.002019665562999775,0.003652332468547658,0.030004351846790293,0.04948933461251292,-0.025779220582405612,0.09823077266065285,0.12120545733541961,-0.0967633441469755
4,8.012379099993268,0.00949607489670436,-0.019720409691066875,-0.009598009326455218,0.0059461702312936715,-0.0018185196721235515,0.0035472796402608955,0.030402079377526824,0.049978997061414246,-0.026170894671763725,0.09844522320166156,0.1209310644071724,-0.09692154223135227
5,8.01690950000193,0.009520372220707306,-0.019727355749220812,-0.00958387675461966,0.006069933506554235,-0.001615395635321465,0.0034406414319462283,0.03080065520628161,0.05046752136167625,-0.026563199196866234,0.0986502085408846,0.12064259013051777,-0.09707504642039008
6,8.021049899994978,0.009545173352535546,-0.019733476297342723,-0.009570178678690304,0.006195310457884999,-0.0014102981708813834,0.0033324153322591577,0.031200040821676402,0.05095485040090918,-0.026956114950344265,0.09884561485448928,0.12033995359698185,-0.097223746102445
7,8.025063499997486,0.009570484825161457,-0.019738763363880356,-0.009556921525731992,0.006322304282042992,-0.0012032322287384566,0.0032225989084423458,0.031600197252302245,0.05144092673589139,-0.027349622276888273,0.09903132834153482,0.1200230720756309,-0.09736753050854433
8,8.029198699994595,0.009596313184167643,-0.019743208997770757,-0.009544111732487856,0.006450918017238593,-0.000994202991827072,0.0031111898081390894,0.03200108506626826,0.05192569258503945,-0.027743701073141724,0.09920723509947184,0.11969186091475081,-0.0975062890335787
9,8.033352999991621,0.009622664987101945,-0.019746805269385374,-0.009531755745050472,0.006581154541272297,-0.0007832158774658395,0.002998185761204007,0.03240266437083097,0.05240908982040126,-0.028138330789132873,0.09937322112747768,0.1193462335353207,-0.09763991153791181
10,8.037478899990674,0.00964954680282491,-0.019749544271480842,-0.009519860018525715,0.006713016569670204,-0.0005702765387743117,0.0028835845815049312,0.032804894811970055,0.05289105996007332,-0.0285334904306081,0.09952917232303744,0.11898610166697642,-0.09776828848173658
11,8.0417116000026,0.009676965210849714,-0.01975141812015554,-0.00950843101668934,0.006846506653817358,-0.00035539086611930423,0.0027673841687147222,0.03320773557399004,0.05337154416210252,-0.02892915856155047,0.09967497455748195,0.1186113757216856,-0.09789131093488333
12,8.045907499996247,0.00970492680067454,-0.019752418955812083,-0.00949747521163634,0.006981627179090014,-0.00013856498858094387,0.0026495825100927876,0.033611145379707046,0.05385048321992602,-0.029325313306592406,0.09981051396435976,0.1182219650232072,-0.09800887054409788
13,8.050490099994931,0.009733438171107387,-0.01975253894412573,-0.009486999083423119,0.007118380362990482,8.019472456412593e-05,0.00253017768225738,0.03401508249238306,0.05432781755812907,-0.029721932353269573,0.0999356773097564,0.11781777794474034,-0.0981208594674656
14,8.054089899989776,0.009762505929583363,-0.01975177027701887,-0.009477009119702512,0.007256768253295042,0.0003008816623423826,0.002409167852948887,0.03441950471890814,0.0548034872289983,-0.03011899295390311,0.10005035215307076,0.11739872204659832,-0.09822717034159573
15,8.058321699994849,0.009792136691474511,-0.01975010517364159,-0.009467511815351697,0.007396792726214533,0.0005234889705723392,0.0022865512827869023,0.03482436941303514,0.05527743190939315,-0.03051647192758808,0.1001544269681593,0.1169647040565409,-0.09832769627509953
16,8.06190549999883,0.009822337079392226,-0.019747535881358358,-0.009458513672093006,0.007538455484568428,0.0007480095503388756,0.002162326327017432,0.03522963347954187,0.05574959089714011,-0.03091434566202295,0.10024779134001986,0.11651562996810759,-0.09842233070765882
17,8.065571999992244,0.009853113722482312,-0.01974405467674093,-0.009450021198107696,0.007681758055979091,0.0009744360564529869,0.002036491437255167,0.035635253379056715,0.0562199031086995,-0.03131259011435807,0.10033033592873418,0.11605140534872906,-0.09851096731168872
18,8.068878199992469,0.009884473255712789,-0.01973965386656752,-0.009442040907642672,0.007826701791084885,0.0012027608959072418,0.001909045163223828,0.03604118513192915,0.05668830707805199,-0.03171118081222974,0.10040195197796828,0.11557193562161239,-0.09859350026108735
19,8.073014900000999,0.0099164223191545,-0.01973432578882817,-0.00943457932061018,0.00797328786176574,0.0014329762263265242,0.0017799861544900717,0.03644738431907974,0.057154740956645494,-0.03211009285678252,0.10046253052479454,0.11507712632795977,-0.09866982487368264
20,8.076748899999075,0.009948967557254565,-0.019728062813736468,-0.009427642962180504,0.008121517259363132,0.0016650739544230623,0.0016493131621793883,0.03685380607947902,0.05761914251440269,-0.032509300928899934,0.10051196199323507,0.11456688302864623,-0.09873983808326227
21,8.080886199997622,0.009982115618102584,-0.01972085734474742,-0.009421238362367784,0.00827139079288526,0.001899045734455319,0.0015170250406596113,0.037260405107709796,0.058081449138872664,-0.03290877929604495,0.10055013679109882,0.11404111077321401,-0.09880343800359825
22,8.084937199993874,0.01001587315268958,-0.01971270181958161,-0.009415372055609088,0.008422909087207308,0.00213488296667616,0.0013831207492014817,0.037667135656273686,0.05854159783194317,-0.03330850181496415,0.10057694667987929,0.11349971364753782,-0.09886052285663455
23,8.089100500001223,0.010050246814159641,-0.01970358871125565,-0.009410050580336804,0.00857607258129528,0.0023725767957651495,0.001247599353640285,0.03807395154423426,0.05899952520533346,-0.03370844192985853,0.1005922857842616,0.1129425947279424,-0.09891099024483274
24,8.093427100000554,0.010085243257054496,-0.019693510529119006,-0.009405280478544269,0.008730881526476171,0.0026121181092402606,0.001110460028051212,0.03848080616768928,0.05945516747693544,-0.034108572669201837,0.10059605053648049,0.11236965652042691,-0.09895473711179718
25,8.097578699991573,0.010120869136551169,-0.019682459819897302,-0.009401068295344605,0.00888733598474651,0.0028534975358605764,0.00097170205643673,0.038887652507963756,0.05990846046985924,-0.03450886664359288,0.10058813905371358,0.1117808016161989,-0.09899166013235805
26,8.1017537000007,0.010157131107692863,-0.019670429168742065,-0.009397420578522709,0.009045435827108808,0.003096705444030279,0.0008313248344193176,0.03929444313704606,0.06035933961407687,-0.03490929604572915,0.10056845053787224,0.11117593315057507,-0.0990216561419761
27,8.105258999989019,0.010194035824613168,-0.019657411200286933,-0.00939434387808039,0.009205180731924067,0.0033417319402146467,0.0006893278709290488,0.03970113022092599,0.06080773994917978,-0.03530983265173251,0.10053688485961075,0.11055495503243883,-0.09904462235304098
28,8.108569599993643,0.010231589939753616,-0.01964339857971022,-0.009391844745774711,0.009366570183275233,0.0035885668673663476,0.0005457107898856036,0.040107665521666024,0.061253596127878514,-0.0357104478228724,0.10049334207979144,0.10991777231786659,-0.0990604566531552
29,8.112708899992867,0.010269800103074649,-0.019628384013803853,-0.009389929734649517,0.009529603469336456,0.003837199803369745,0.0004004733318719143,0.04051400039686864,0.06169684242178245,-0.03611111250930431,0.10043772181984464,0.10926429153143785,-0.09906905810665828
30,8.116702499988605,0.010308672961259983,-0.019612360252048516,-0.00938860539856024,0.009694279680732236,0.004087620059513943,0.00025361535578593663,0.04092008579665451,0.062137412727498495,-0.03651179725584967,0.10036992314418534,0.10859442070545036,-0.09907032704310435
31,8.120788399988669,0.010348215156914307,-0.01959532008769494,-0.009387878291692074,0.00986059770888224,0.0043398166789864225,0.00010513684046754296,0.041325872262178716,0.06257524057272802,-0.03691247220645004,0.10028984548101623,0.10790806936027227,-0.09906416431320603
32,8.124918200002867,0.010388433327754258,-0.019577256358851238,-0.00938775496807161,0.010028556244348443,0.004593778435395402,-4.4962113685735245e-05,0.04173130993005716,0.06301025912220662,-0.03731310710392846,0.10019739014312548,0.10720514809151938,-0.09905047016457058
33,8.129059999992023,0.010429334105792748,-0.019558161949576134,-0.009388241981071948,0.010198153775215756,0.00484949383131152,-0.00019668128308988387,0.042136348543184154,0.06344240118046181,-0.03771367128534969,0.1000924613999493,0.10648556807156859,-0.09902914364842115
34,8.133186999999452,0.010470924116516839,-0.019538029790978104,-0.009389345882911153,0.010369388585526662,0.005106951096812507,-0.0003500203193211337,0.04254093746383057,0.06387159919372062,-0.038114133676982694,0.09997496654634837,0.1057492411021177,-0.09900008272775579
35,8.136598899989622,0.010513209978059412,-0.01951685286232038,-0.009391073224143993,0.010542258753767794,0.00536613818804029,-0.0005049787474463891,0.04294502568501774,0.06429778525309249,-0.03851446279053569,0.099844815355136,0.10499607989621501,-0.09896318462152492
36,8.140023300002213,0.0105561983003648,-0.01949462419213175,-0.0093934305531469,0.010716762151396574,0.005627042785771415,-0.0006615559643395022,0.04334856183918719,0.06472089109875806,-0.03891462672090267,0.09970191949696465,0.10422599828124826,-0.09891834627006711
37,8.143453600001521,0.010599895684348536,-0.019471336859323136,-0.009396424415596075,0.010892896441397916,0.005889652294008033,-0.0008197512369934731,0.043751494204882155,0.06514084812479405,-0.03931459314616325,0.09954619211742018,0.10343891120560829,-0.09886546479070964
38,8.146713800000725,0.010644308721051314,-0.01944698399430979,-0.009400061353938807,0.011070659076864914,0.006153953838587349,-0.0009795637008367232,0.04415377071199649,0.06555758738341598,-0.039714329329014426,0.0993775473388895,0.10263473488949401,-0.09880443796617973
39,8.150108100002399,0.010689443990787256,-0.019421558780139108,-0.009404347906857954,0.011250047299597998,0.006419934265806931,-0.0011409923580568764,0.04455533894442691,0.06597103959102281,-0.04011380212072112,0.09919589948051033,0.10181338746728871,-0.09873516496570758
40,8.154455299998517,0.010735308062286541,-0.019395054453623967,-0.009409290608729701,0.01143105813870708,0.006687580141083045,-0.0013040360759489877,0.044956146139012235,0.06638113513763576,-0.04051297796838076,0.09900116270072547,0.10097478953171726,-0.09865754672195186
41,8.158308300000499,0.010781907491832367,-0.019367464306481376,-0.00941489598907469,0.011613688409202124,0.006956877747652318,-0.0014686935852980861,0.0453561391852943,0.06678780409734451,-0.04091182292192273,0.09879325194465399,0.10011886412732475,-0.09857148532461649
42,8.162614000000758,0.010829248822392177,-0.019338781686476313,-0.009421170572002683,0.011797934710593363,0.007227813085314571,-0.0016349634787840202,0.04575526463212031,0.0671909762376933,-0.041310302636468024,0.09857208456990328,0.09924553636358728,-0.09847688284702581
43,8.16656869999133,0.010877338582743298,-0.019308999998570556,-0.009428120875650795,0.011983793425535275,0.0075003718692104,-0.0018028442093830878,0.04615346870055463,0.0675905810269976,-0.04170838236983707,0.09833758126095704,0.09835473281185193,-0.09837364059880087
44,8.170717100001639,0.010926183286593205,-0.019278112706076402,-0.00943575341161523,0.012171260718531234,0.007774539528623197,-0.001972334088752723,0.04655069729787741,0.06798654763885222,-0.0421060269788645,0.09808966574082442,0.09744638121697398,-0.09826165919792569
45,8.174080500000855,0.010975789431694673,-0.01924611333181519,-0.009444074684376443,0.012360332534690726,0.00805030120579319,-0.0021434312856033174,0.046946896028163966,0.0683788049571155,-0.04250320091748986,0.09782826389577973,0.09652041081191072,-0.09814083908539215
46,8.177727699992829,0.011026163498955991,-0.019212995459280603,-0.00945309119071771,0.012551004598519568,0.008327641754759788,-0.0023161338240674616,0.047342010199203616,0.06876728158296205,-0.04289986823723523,0.09755330282168183,0.09557675257991356,-0.09801108116110054
47,8.182079599995632,0.011077311951546336,-0.019178752733806575,-0.009462809419137096,0.012743272412733094,0.008606545740232662,-0.002490439582075631,0.047735984825364924,0.0691519058419878,-0.04329599259043965,0.0972647099586391,0.0946153395298586,-0.09787228741969756
48,8.187092099993606,0.011129241233996376,-0.01914337886373971,-0.009473235849252888,0.012937131257069549,0.008886997436491562,-0.00266634628975159,0.04812876462751503,0.06953260579348979,-0.043691537235879846,0.09696241306441301,0.09363610711591745,-0.09772436105550296
49,8.191605799991521,0.01118195777129405,-0.019106867621616088,-0.009484376951202588,0.013132576187102618,0.00916898082633247,-0.002843851527833542,0.048520294035669743,0.06990930924096588,-0.04408646504285343,0.09664634119167205,0.09263899309980361,-0.09756720571845084
50,8.1950582999998,0.011235467967975572,-0.019069212845342215,-0.009496239185035565,0.013329602033076263,0.009452479600052332,-0.0030229527261025632,0.04891051719681769,0.0702819437402803,-0.044480738490781074,0.09631642583187609,0.09162393707217996,-0.09740072467826429
51,8.198552999994718,0.011289778207211776,-0.019030408439380034,-0.009508829000099342,0.013528203398780537,0.009737477154461271,-0.0032036471618005326,0.049299377986823045,0.07065043660629208,-0.04487431966652888,0.09597260126562264,0.09059088048550037,-0.09722482085065459
52,8.202814999996917,0.011344894849890031,-0.018990448375935876,-0.009522152834419454,0.013728374660482698,0.010023956591920935,-0.0033859319580369076,0.04968682002108358,0.07101471492128629,-0.04526717026422248,0.09561480388123084,0.08953976719157863,-0.09703939748237016
53,8.207855000000563,0.011400824233691945,-0.018949326696153238,-0.009536217114072843,0.013930109965889234,0.010311900719424899,-0.003569804082205152,0.05007278666092154,0.07137470554595071,-0.04565925158811063,0.09524297171242928,0.08847054399874872,-0.09684435846591051
54,8.212197799992282,0.011457572672166875,-0.018907037511309177,-0.009551028252554905,0.014133403233128677,0.010601292047725811,-0.003755260344412673,0.050457221020502145,0.07173033513231385,-0.04605052455492497,0.09485704493990928,0.08738316106525824,-0.0966396080838368
55,8.21569699999236,0.01151514645380141,-0.01886357500401415,-0.009566592650140192,0.014338248149769584,0.010892112790520447,-0.003942297395916337,0.05084006597728144,0.07208153013790371,-0.04644094969467538,0.09445696663867524,0.0862775716697002,-0.09642505070060818
56,8.219235299999127,0.011573551841084936,-0.018818933429415,-0.0095829166932368,0.01454463817188786,0.011184344863691376,-0.00413091172755884,0.051221264184969945,0.07242821683682885,-0.0468304871505171,0.09404268287625357,0.08515373167361209,-0.09620059074299044
57,8.222636399994371,0.01163279506957157,-0.018773107116400924,-0.00960000675373442,0.01475256652318961,0.011477969884581654,-0.004321099668203148,0.05160075808477491,0.07277032132959024,-0.04721909667938758,0.09361414189995527,0.08401159950840084,-0.09596613312615032
58,8.226788399988436,0.01169288234693864,-0.018726090468812333,-0.009617869188346069,0.014962026194169387,0.011772969171315855,-0.004512857383174022,0.0519784899117899,0.07310776955405657,-0.04760673765532021,0.09317129297313002,0.08285113652906274,-0.09572158385018813
59,8.230899199988926,0.011753819852041799,-0.018677877966652313,-0.009636510337943532,0.015173009941284732,0.012069323742163539,-0.00470618087271926,0.05235440169682374,0.07344048729813724,-0.047993369074906395,0.09271408569677425,0.08167230784046199,-0.09546685011815594
60,8.234965399999055,0.011815613733966834,-0.018628464167300622,-0.009655936526886644,0.015385510286129219,0.012367014314962795,-0.004901065970495399,0.052728435267302705,0.07376840021744127,-0.04837894956156391,0.09224247041592339,0.0804750830446089,-0.09520183974268955
61,8.238495899990085,0.011878270111078096,-0.018577843706729828,-0.009676154062346487,0.015599519514614288,0.012666021306626545,-0.005097508342063492,0.05310053225238673,0.07409143385399494,-0.048763437366199355,0.0917563993899217,0.07925943603733465,-0.09492646040213677
62,8.242007799999556,0.011941795070063679,-0.018526011300723292,-0.009697169233622502,0.015815029676183676,0.012966324832717495,-0.005295503483380164,0.05347063409333765,0.07440951365225597,-0.049146790365459464,0.09125582779196807,0.0780253443789369,-0.09464061929302063
63,8.245832399989013,0.012006194664977501,-0.018472961746094745,-0.00971898831145348,0.016032032583079118,0.013267904707083972,-0.005495046719279242,0.053838682056720544,0.07472256497274044,-0.04952896605958241,0.09074071395826373,0.07677278876338949,-0.0943442232282561
64,8.249235700001009,0.01207147491627855,-0.018418689921909218,-0.009741617547322398,0.016250519809661558,0.013570740441545097,-0.005696133201945434,0.05420461724678726,0.07503051310374355,-0.049909921571443576,0.09021101893908648,0.07550175269703152,-0.09403717914541174
65,8.252786099998048,0.012137641809867466,-0.018363190790705163,-0.009765063172755056,0.01647048269177702,0.013874811245621434,-0.005898757909388239,0.0545683806150465,0.07533328327236753,-0.05028961364851808,0.08966670566938106,0.07421222251799586,-0.09371939487032721
66,8.257067200000165,0.012204701296120658,-0.018306459399717565,-0.00978933139861257,0.016691912326155228,0.014180096026309364,-0.006102915643931501,0.05492991296593844,0.07563080065639953,-0.05066799866810331,0.08910773798230577,0.07290418788165212,-0.093390779716886
67,8.262104800000088,0.012272659288922027,-0.018248490882101887,-0.009814428414377798,0.01691479956982138,0.014486573387907811,-0.006308601030729563,0.055289154958425554,0.07592299039926616,-0.05104503264413284,0.088534080120544,0.0715776425144423,-0.09305124457234293
68,8.265543799992884,0.012341521664692321,-0.018189280458158583,-0.009840360387435824,0.017139135039507633,0.01479422163191358,-0.006515808516311935,0.055646047107714376,0.07620977762800903,-0.051420671233089216,0.08794569713331017,0.07023258472500427,-0.09270070154000642
69,8.26899689999118,0.0124112942614161,-0.018128823436557886,-0.009867133462348614,0.017364909111078807,0.015103018756993485,-0.006724532367147279,0.056000529790057596,0.07649108747237367,-0.05179486973792759,0.08734255540062204,0.06886901744355337,-0.09233906361799703
70,8.272808399997302,0.012481982877666442,-0.018067115215564554,-0.009894753760123887,0.017592111918982713,0.015412942459034091,-0.006934766668219815,0.05635254324871655,0.07676684508310361,-0.052167583111390005,0.08672462285909029,0.06748694795340605,-0.09196624480092039
71,8.278012700000545,0.012553593271627464,-0.018004151284262252,-0.009923227377478248,0.01782073335572408,0.01572397013126182,-0.007146505321620109,0.05670202760058971,0.07703697564885764,-0.05253876596075151,0.08609186921232526,0.06608638791690374,-0.09158216038789702
72,8.282922300000791,0.012626131160114773,-0.017939927223777324,-0.00995256038609467,0.01805076307136851,0.01603607886442954,-0.007359742045159875,0.05704892284387709,0.0773014044147136,-0.05290837255362598,0.0854442662913061,0.06466735374904332,-0.0911867268875531
73,8.287304099998437,0.012699602217593975,-0.01787443870850167,-0.009982758831874416,0.01828219047307839,0.01634924544708633,-0.007574470371009722,0.057393168867623676,0.07756005670210785,-0.053276356821943746,0.08478178862440956,0.06322986663075832,-0.09077986157550534
74,8.291456499995547,0.012774012075197372,-0.01780768150731433,-0.010013828734183505,0.01851500472469405,0.01666344636592537,-0.007790683644346131,0.057734705463994715,0.07781285792744647,-0.053642672364178,0.08410441375234108,0.06177395231879059,-0.09036148248126097
75,8.295642899989616,0.012849366319739082,-0.01773965148480156,-0.010045776085093688,0.018749194746368967,0.016978657806204233,-0.008008375022007212,0.05807347234036654,0.07805973362050686,-0.05400727244921645,0.08341212186750052,0.0602996409556496,-0.08993150883077218
76,8.300157599995146,0.012925670492728783,-0.017670344602474995,-0.01007860684861804,0.018984749214248718,0.017294855652241637,-0.008227537471170996,0.05840940912868475,0.07830060944151174,-0.05437011002216747,0.08270489517495822,0.0588069667741431,-0.08948986135435456
77,8.304097399988677,0.013002930089384242,-0.017599756919987723,-0.010112326959941251,0.019221656560181884,0.017612015487975845,-0.00844816376805816,0.05874245539238612,0.0785354111971407,-0.054731137710722425,0.08198271758081796,0.057295968111164344,-0.08903646251306581
78,8.308367299992824,0.013081150557642718,-0.017527884596347937,-0.010146942324644713,0.01945990497145499,0.017930112597590912,-0.008670246496661779,0.059072550633236,0.0787640648577158,-0.055090307832792985,0.08124557481025663,0.055766687577908154,-0.08857123669865462
79,8.312473899990437,0.013160337297171342,-0.01745472389112992,-0.010182458817926546,0.019699482390558718,0.018249121966214116,-0.008893778047511828,0.05939963429920502,0.07898649657458989,-0.055447572404490775,0.0804934545817164,0.05421917205282635,-0.0880941102169812
80,8.316609699992114,0.013240495658376638,-0.017380271165682082,-0.010218882283816691,0.019940376514986563,0.018569018280682845,-0.009118750616469481,0.05972364579271552,0.07920263269727527,-0.05580288314763057,0.07972634674715469,0.05265347260366377,-0.08760501130124342
81,8.320735399989644,0.013321630941413266,-0.017304522884331718,-0.010256218534387178,0.020182574797067743,0.018889775930380583,-0.009345156203552309,0.060044524479652674,0.07941239979020141,-0.056156191497816955,0.07894424347907561,0.051069644336339495,-0.08710387017095417
82,8.324183799995808,0.013403748395192197,-0.017227475615586296,-0.010294473348957719,0.020426064443838748,0.019211369008139346,-0.009572986611793982,0.0603622096991238,0.07961572464862114,-0.05650744861242456,0.07814713948395545,0.04946774625713995,-0.08659061894676047
83,8.327575499992236,0.013486853216388416,-0.017149126033330922,-0.010333652473296753,0.02067083241695519,0.019533771311204328,-0.00980223344613402,0.06067664077419585,0.07981253431425377,-0.056856605377995695,0.07733503214955272,0.04784784129932395,-0.08606519158489671
84,8.330997099998058,0.01357095054844838,-0.017069470918021808,-0.010373761618818058,0.020916865432650204,0.019856956342262873,-0.010032888112337341,0.06098775702284624,0.08000275609140643,-0.05720361241769043,0.0765079212987586,0.046209996552469705,-0.08552752383778667
85,8.337360499994247,0.013656045480597392,-0.016988507157875424,-0.010414806461773056,0.021164149961734883,0.02018089731053952,-0.010264941815944261,0.06129549776670933,0.08018631756447238,-0.05754842009836553,0.07566580847538502,0.04455428402250399,-0.08497755322127996
86,8.340944299998228,0.013742143046847054,-0.01690623175005311,-0.010456792642438931,0.021412672229627422,0.020505567132966522,-0.010498385561247311,0.06159980233625012,0.08036314662020003,-0.05789097853775948,0.07480869631155912,0.04288078160224187,-0.08441521912939166
87,8.34440899999754,0.013829248225002881,-0.016822641801840756,-0.01049972576430266,0.0216624182163954,0.020830938435459013,-0.010733210150299356,0.0619006100743937,0.08053317147304173,-0.05823123761249958,0.07393658861919118,0.04118957321593614,-0.08384046300473365
88,8.34868060000008,0.0139173659356721,-0.016737734531823097,-0.010543611393241108,0.02191337365681429,0.02115698355429057,-0.010969406181955172,0.06219786034243884,0.0806963206885921,-0.058569146966665535,0.07304949116405961,0.03948074817622499,-0.0832532286171462
89,8.354243900001165,0.014006501041271728,-0.01665150727105227,-0.0105884550566973,0.022165524040457567,0.02148367453755797,-0.011206964050948842,0.062491492529948844,0.08085252320373523,-0.05890465602205033,0.07214741265840656,0.03775440041732588,-0.08265346237514032
90,8.358405899998615,0.014096658345037108,-0.016563957464210265,-0.01063426224285306,0.022418854611835223,0.021810983146719726,-0.011445873947018327,0.06278144606869403,0.08100170834388049,-0.059237713989243046,0.07123036554122669,0.036010628088946034,-0.08204111330281065
91,8.362860199995339,0.014187842590031105,-0.01647508267076503,-0.010681038399798207,0.022673350370596663,0.022138880858200243,-0.01168612585407251,0.06306766044885419,0.08114380583982495,-0.05956826987770294,0.07029836609009951,0.0342495335296688,-0.08141613294481256
92,8.366737399992417,0.014280058458154278,-0.016384880566119944,-0.010728788934696441,0.022928996071800267,0.02246733886506476,-0.011927709549397252,0.06335007523386567,0.08127874584477393,-0.05989627250607367,0.06935143397497012,0.03247122318821596,-0.08077847537306268
93,8.370899899993674,0.014373310569156268,-0.016293348942756386,-0.010777519212948127,0.023185776226236385,0.02279632807876119,-0.012170614602905869,0.06362863007301445,0.08140645895056656,-0.060221670512311594,0.068389591802492,0.030675807663150263,-0.08012809709808977
94,8.374227899999823,0.01446760347964857,-0.01620048571136911,-0.01082723455735012,0.023443675100798766,0.023125819130926293,-0.012414830376427115,0.06390326471259748,0.08152687620501739,-0.060544412363282896,0.06741286486065574,0.02886340180119765,-0.07946495712157566
95,8.377629499998875,0.014562941682118932,-0.0161062889019942,-0.010877940247252785,0.023702676718897826,0.0234557823752678,-0.012660346023033281,0.06417391900645016,0.08163992912893732,-0.060864446365316884,0.06642128093849844,0.02703412441483083,-0.07878901711985412
96,8.382857599994168,0.014659329603947472,-0.016010756665129234,-0.010929641517714387,0.023962764860917238,0.02378618788950826,-0.012907150486413548,0.06444053292564929,0.0817455497311908,-0.06118172067528741,0.06541486985384398,0.025188098256431146,-0.07810024163388213
97,8.387415299992426,0.014756771606424765,-0.0159138872728455,-0.010982343558653044,0.024223923064705687,0.02411700547738895,-0.013155232500291717,0.06470304656522056,0.08184367052550774,-0.06149618331270281,0.06439366302406198,0.023325450248011297,-0.0773985982498453
98,8.391568199993344,0.014855271983771939,-0.015815679119891964,-0.01103605151399641,0.02448613462608771,0.02444820467074973,-0.01340458058789736,0.06496140015036951,0.0819342245473989,-0.061807782172248193,0.06335769386943638,0.021446311326749196,-0.07668405750720846
99,8.395714999991469,0.014954834962162895,-0.015716130724790656,-0.011090770480829341,0.02474938259940585,0.024779754731669767,-0.013655183061485,0.06521553404645168,0.08201714536971835,-0.06211646503513162,0.062306998714293745,0.019550816392376665,-0.07595659260683307
100,8.399221499988926,0.01505546469874879,-0.01561524073092332,-0.011146505508539701,0.02501364979811216,0.02511162465467326,-0.013907028021897036,0.06546538877249268,0.08209236711915331,-0.062422179579265435,0.061241617288218746,0.017639104573169896,-0.07521617915555186
101,8.402799399991636,0.015157165280685041,-0.015513007907608971,-0.011203261597962484,0.02527891879541969,0.025443783169003566,-0.01416010335816528,0.06571090501521258,0.08215982449393813,-0.06272487338854633,0.060161592470987374,0.015711319468431694,-0.07446279513336848
102,8.407729400001699,0.015259940724161074,-0.01540943115117213,-0.011261043700522397,0.025545171925007448,0.025776198740972204,-0.014414396747148948,0.06595202364048276,0.08221945278230555,-0.06302449396277139,0.05906696956827879,0.013767609249673705,-0.07369642117518674
103,8.411259499989683,0.015363794973433032,-0.015304509486001395,-0.01131985671737506,0.02581239128176457,0.02610883957638223,-0.014669895653216403,0.06618868570149171,0.0822711878810191,-0.06332098872919699,0.057957795638938304,0.011808126860838031,-0.07291704088880854
104,8.414634300002945,0.015468731899859547,-0.015198242065598071,-0.011379705498547008,0.02608055872256131,0.026441673623027132,-0.014926587327976646,0.06642083244476021,0.08231496631544391,-0.06361430505502705,0.05683411917410393,0.009833030290534487,-0.07212464103541742
105,8.41857809999783,0.015574755300940681,-0.015090628173614527,-0.011440594842074723,0.026349655867041875,0.026774668573276577,-0.015184458810062073,0.0666484053157117,0.0823507252602812,-0.06390439026043186,0.05569599017632502,0.007842482581749645,-0.07131921169641728
106,8.421918499996536,0.015681868899360112,-0.01498166722488191,-0.011502529493142876,0.026619664098440476,0.02710779186674301,-0.01544349692496527,0.0668713459653274,0.08237840255971761,-0.06419119163238585,0.054543460391772706,0.005836651795575631,-0.07050074648347628
107,8.425344099989161,0.015790076342030675,-0.014871358766426932,-0.011565514143222044,0.026890564564427993,0.027441010693030378,-0.01570368828493371,0.06708959625759497,0.0823979367478663,-0.06447465643938538,0.05337658348399714,0.003815711030983351,-0.0696692425711865
108,8.428671599991503,0.015899381199143397,-0.01475970247847735,-0.011629553429206095,0.02716233817798827,0.02777429199456609,-0.015965019288925582,0.06730309827756918,0.08240926706907624,-0.06475473194555073,0.05219541537844293,0.0017798384216467544,-0.06882470039528954
109,8.432125099992845,0.016009786963220127,-0.014646698175455846,-0.011694651932549547,0.027434965618329997,0.028107602469514003,-0.01622747612261857,0.06751179434160721,0.08241233349834759,-0.0650313654229029,0.05100001481270725,-0.0002707829753087269,-0.06796712328614031
110,8.435478200000944,0.016121297048169947,-0.014532345806961949,-0.011760814178405028,0.027708427331845777,0.02844090857477153,-0.01649104475846498,0.06771562700988029,0.08240707676074112,-0.06530450416250072,0.04979044388080164,-0.002335965464906886,-0.06709651709144093
111,8.43951460000244,0.016233914788349558,-0.014416645458741667,-0.011828044634761082,0.027982703533125222,0.02877417652903962,-0.01675571095579061,0.06791453910101142,0.08239343834948343,-0.06557409548366606,0.04856676849235896,-0.004415516901184053,-0.06621288955318295
112,8.443481299997075,0.016347643437627887,-0.014299597353644574,-0.011896347711580423,0.028257774206032427,0.029107372315966308,-0.01702146026092449,0.0681084737083014,0.08237136054386485,-0.06584008674008116,0.04732905871280648,-0.006509240847224314,-0.06531624944575644
113,8.447107899992261,0.01646248616845519,-0.014181201852568022,-0.011965727759938793,0.0285336191048503,0.02944046168736148,-0.017288278007347068,0.06829737421711823,0.08234078642605018,-0.06610242532204212,0.046077389222826726,-0.00861693677883477,-0.06440660580280105
114,8.452729700002237,0.01657844607093691,-0.01406145945538822,-0.012036189071164419,0.028810217755498715,0.0297734101664764,-0.017556149315838203,0.06848118432483954,0.08230165989732911,-0.06636105865630246,0.044811839738016286,-0.010738400127073819,-0.0634839679005485
115,8.456157599997823,0.016695526151912637,-0.013940370801877917,-0.01210773587597806,0.029087549456840132,0.030106183051349905,-0.01782505909462406,0.06865984806163654,0.08225392569458295,-0.06661593420819184,0.043532494601857874,-0.012873422045404185,-0.06254834614585858
116,8.462789700002759,0.016813729334040534,-0.013817936672610418,-0.01218037234363366,0.029365593282065876,0.03043874541822115,-0.018094992039542245,0.06883330980712411,0.08219752940841848,-0.06686699948864273,0.042239441520821326,-0.015021788849638281,-0.0615997530958205
117,8.466587499991874,0.016933058454887497,-0.01369415798984966,-0.012254102581059724,0.029644328080136447,0.030771062125022473,-0.01836593263424555,0.06900151430091324,0.08213241750416489,-0.06711420206455655,0.040932770351810074,-0.017183281479717313,-0.06063820411659299
118,8.470713499991689,0.017053516266025234,-0.013569035818425978,-0.012328930632001623,0.029923732477253134,0.03110309781496198,-0.018637865150450926,0.069164406649453,0.08205853734436115,-0.06735748957115949,0.039612572767617205,-0.019357675355844626,-0.05966371770469453
119,8.475006799999392,0.01717510543213234,-0.013442571366597196,-0.012404860476164986,0.030203784878353686,0.03143481692019831,-0.018910773648243173,0.06932193233387693,0.08197583721091668,-0.06759680972496752,0.03827894289913374,-0.021544740578611235,-0.05867631514276931
120,8.479050699999789,0.017297828530102463,-0.013314765986894671,-0.012481896028360456,0.030484463468647385,0.031766183665602465,-0.01918464197642879,0.06947403722203971,0.08188426632597996,-0.06783211033335783,0.036931978522285386,-0.02374424212185543,-0.057676019709420386
121,8.483110999994096,0.017421688048158798,-0.013185621176953962,-0.012560041137649946,0.03076574621520808,0.03209716207260139,-0.019459453772917083,0.06962066758596441,0.08178377487253916,-0.06806333930114226,0.03557178221167647,-0.025955939879054767,-0.05666285628942433
122,8.487563299990143,0.01754668638497514,-0.013055138580329775,-0.012639299586494481,0.031047610868650394,0.03242771596310642,-0.019735192465127182,0.06976177012321082,0.0816743140149155,-0.06829044463698589,0.03419846158944766,-0.028179588627169832,-0.05563685168854992
123,8.490999999994528,0.01767282584880394,-0.012923319987294858,-0.012719675089903744,0.031330034964895594,0.032757808963522636,-0.020011841270421073,0.06989729197633557,0.08155583591965637,-0.06851337446252696,0.03281212836867444,-0.03041493769215007,-0.05459803570165833
124,8.495565699995495,0.017800108656611635,-0.01279016733562252,-0.012801171294587417,0.031612995827005205,0.03308740450884633,-0.02028938319658439,0.07002718074652275,0.08142829377873435,-0.06873207702743511,0.03141289674704093,-0.032661730434308645,-0.0535464425355236
125,8.49890890000097,0.017928536933221537,-0.012655682711352374,-0.012883791778108623,0.03189647056705715,0.033416465846861976,-0.02056780104238123,0.07015138450005083,0.08129164183460298,-0.06894650073004023,0.03000088211500472,-0.03491970389469159,-0.05248211190700174
126,8.502217100001872,0.018058112710464345,-0.012519868349538917,-0.01296754004803975,0.03218043608803165,0.03374495604244239,-0.02084707739820183,0.0702698517714738,0.08114583540625625,-0.0691565941412735,0.028576201200619166,-0.03718858865360622,-0.051405089164036
127,8.506032999997842,0.01818883792633628,-0.012382726634982483,-0.013052419541121135,0.032464869085713124,0.0340728379819565,-0.02112719464681103,0.07038253157125955,0.08099083091542872,-0.06936230602627508,0.027138973360615357,-0.0394681089518357,-0.050315424171255646
128,8.509727199998451,0.018320714424164993,-0.01224426010294217,-0.013138433622422938,0.03274974605063786,0.03440007437778139,-0.021408134964170714,0.07048937339941438,0.08082658591167452,-0.06956358535932099,0.02568932210788248,-0.04175798308165798,-0.049213169595843244
129,8.513119999988703,0.01845374395178344,-0.012104471439830301,-0.01322558558451048,0.0330350432701061,0.034726627772912994,-0.021689880320309034,0.0705903272654768,0.0806530590954046,-0.06976038133156551,0.024227376743891253,-0.04405792392368554,-0.04809837937035731
130,8.516800299999886,0.018587928160712065,-0.011963363483888049,-0.013313878646613153,0.03332073683029147,0.03505246054566443,-0.021972412480205473,0.07068534371534635,0.08047021033862334,-0.06995264335353413,0.02275327341412203,-0.0463676393301381,-0.04697110801063788
131,8.520767399997567,0.01872326860534976,-0.0118209392258419,-0.013403315953796912,0.03360680261847008,0.03537753491444444,-0.022255713004680225,0.0707743738598146,0.08027800070486557,-0.07014032105734866,0.02126715495758937,-0.048686832072562414,-0.045831410920825266
132,8.525012300000526,0.018859766742174062,-0.011677201809540624,-0.013493900576140378,0.0338932163253607,0.03570181294261701,-0.022539763251297265,0.07085736940017678,0.0800763924703561,-0.0703233643016874,0.019769170099453205,-0.05101519944879734,-0.044679345225989986
133,8.529279900001711,0.01899742392895103,-0.011532154532572428,-0.013585635507914638,0.03417995344756105,0.03602525654345095,-0.02282454437529385,0.07093428265023201,0.07986534914712588,-0.07050172318074521,0.01825947265222733,-0.05335243283086811,-0.043514970660091634
134,8.533332399994833,0.01913624142395517,-0.011385800846861895,-0.013678523666766865,0.03446698929006594,0.036347827485166496,-0.02311003733055606,0.07100506655543361,0.07964483550782855,-0.07067534803637623,0.016738221037694782,-0.055698217398589246,-0.042338350094135564
135,8.536884399989503,0.01927622038519968,-0.01123814435924631,-0.01377256789290801,0.03475429896885844,0.03666948739608562,-0.02339622287064653,0.07106967471102221,0.07941481761101143,-0.07084418947132609,0.015205578239613418,-0.058052232123546946,-0.04114954988334254
136,8.540446599989082,0.01941736186967732,-0.011089188832030944,-0.013867770948304737,0.03504185741357472,0.036990197769883076,-0.023683081549887002,0.07112806138079358,0.0791752628260616,-0.07100819836418278,0.01366171164675005,-0.06041414967152321,-0.03994864025703703
137,8.543885999999475,0.01955966683261222,-0.010938938183522906,-0.013964135515875862,0.035329639370247,0.037309919970938445,-0.023970593724507015,0.071180181513962,0.0789261398592662,-0.07116732588576262,0.012106792345616998,-0.06278363609028838,-0.03873569562732555
138,8.547616099996958,0.019703136126722934,-0.010787396488543129,-0.01406166419869359,0.03561761940410483,0.037628615239798005,-0.024258739553858998,0.07122599075820715,0.07866741878128389,-0.07132152351655799,0.010540994727229623,-0.06516035045526852,-0.03751079474599903
139,8.551292399992235,0.019847770501496918,-0.01063456797891605,-0.014160359519189786,0.03590577190242354,0.037946244698749,-0.024547499001708068,0.07126544547335674,0.07839907105607123,-0.07147074306439241,0.008964496951511785,-0.06754394471969971,-0.03627402044215559
140,8.554768999994849,0.019993570602476616,-0.010480457043936502,-0.014260223918367627,0.03619407107743621,0.038262769357515464,-0.024836851837589956,0.0712985027481898,0.07812106956956627,-0.07161493667974596,0.0073774816421480404,-0.06993406394709233,-0.03502545927519557
141,8.55848929999047,0.020140536970557486,-0.010325068230813323,-0.014361259755018873,0.036482490969318056,0.038578150119064514,-0.025126777638224757,0.0713251204197398,0.07783338865673456,-0.07175405687060352,0.005780136432128788,-0.07233034654677338,-0.033765201423206326
142,8.562424299991108,0.020288670041298237,-0.010168406245089282,-0.014463469304946953,0.0367710054492545,0.03889234778552095,-0.025417255788994966,0.07134525709451084,0.07753600412834744,-0.07188805651687734,0.004172654513522825,-0.07473242440868412,-0.03249334011907298
143,8.566610399997444,0.02043797014424367,-0.010010475951036844,-0.014566854760196181,0.037059588222597195,0.03920532306419014,-0.025708265485475886,0.07135887217222767,0.07722889329693775,-0.07201688888069413,0.0025552354563114707,-0.0771399231264047,-0.031209970690117876
144,8.570765199998277,0.020588437502260436,-0.009851282372029384,-0.014671418228287233,0.037348212832124215,0.039517036573682586,-0.025999785734996873,0.07136592587367531,0.0769120350017741,-0.07214050761304944,0.0009280859044177216,-0.07955246220650317,-0.029915190063421908
145,8.574808999997913,0.020740072230886256,-0.009690830690887406,-0.014777161731458988,0.03763685266142125,0.039827448850138815,-0.026291795358225574,0.07136637927007913,0.07658540963312321,-0.07225886676009338,-0.000708580411784722,-0.08196965518318414,-0.028609096906493166
146,8.579062799995882,0.020892874337693032,-0.009529126250199403,-0.014884087205916814,0.037925480938379434,0.040136520353550184,-0.026584272990780013,0.07136019431104562,0.0762489991562968,-0.07237192077092289,-0.002354543350814659,-0.08439110946153562,-0.027291792026890017
147,8.583107400001609,0.021046843721664345,-0.009366174552616959,-0.014992196501087456,0.03821407073880258,0.0404442114741783,-0.02687719708487586,0.07134733384847974,0.07590278713718188,-0.07247962450709988,-0.004009577401943924,-0.08681642591399935,-0.025963378858031416
148,8.58751260000281,0.02120198017258776,-0.009201981261123673,-0.015101491378880644,0.03850259499009844,0.04075048253908233,-0.027170545911015503,0.07132776165609833,0.07554675876955166,-0.07258193325437315,-0.00567345228885089,-0.08924519855267415,-0.024623963868678277
149,8.591740899995784,0.02135828337046217,-0.009036552199277464,-0.015211973512957642,0.03879102647504381,0.04105529381875933,-0.027464297559730146,0.07130144244846462,0.07518090090324661,-0.07267880273550874,-0.007345932988715991,-0.09167701437531471,-0.02327365677551657
150,8.59576849998848,0.021515752884920566,-0.008869893351425791,-0.01532364448800695,0.03907933783562973,0.0413586055338995,-0.027758429943372652,0.07126834190034716,0.074805202072731,-0.07277018912373136,-0.009026780053656126,-0.09411145322407799,-0.021912570923774112
151,8.600043999991613,0.021674388174668484,-0.008702010862893308,-0.015436505799027353,0.03936750157698318,0.041660377862257514,-0.02805292079796836,0.07122842666315433,0.0744196525264165,-0.07285604905863352,-0.010715750168365335,-0.09654808760226621,-0.020540823719976856
152,8.604320300000836,0.02183418858693848,-0.008532911040141505,-0.015550558850618594,0.03965549007134525,0.04196057094564496,-0.02834774768513663,0.07118166437978266,0.0740242442567011,-0.07293633966311741,-0.012412595972680868,-0.0989864825627511,-0.019158536543285996
153,8.608293799989042,0.02199515335696078,-0.008362600350899804,-0.015665804956279967,0.03994327556211289,0.04225914489704465,-0.028642887994078693,0.07112802370248648,0.07361897103019518,-0.07301101855858685,-0.014117065274876895,-0.10142619575061014,-0.01776583422429662
154,8.611699200002477,0.02215728160745043,-0.008191085424267651,-0.01578224533771707,0.04023083016796166,0.04255605980784756,-0.028938318943622074,0.07106747431408983,0.07320382841741564,-0.07308004387767329,-0.015828900245462938,-0.10386677770018814,-0.01636284472709641
155,8.615269000001717,0.0223205723481113,-0.00801837305078708,-0.015899881124156932,0.04051812588705905,0.04285127575520731,-0.029234017584311385,0.07099998695237729,0.072778813820609,-0.073143374276856,-0.01754783695191886,-0.10630777208038279,-0.01494969936248697
156,8.6195727000013,0.02248502447515732,-0.00784447018248531,-0.016018713351671682,0.040805134601384525,0.04314475280950217,-0.029529960800554835,0.07092553343506927,0.07234392650146146,-0.07320096895091273,-0.019273605627015227,-0.10874871547639653,-0.013526533010847245
157,8.624311299994588,0.022650636770851412,-0.007669383932886953,-0.016138742962511034,0.04109182808114485,0.043436451041913696,-0.029826125312831905,0.07084408668204255,0.07189916761068747,-0.07325278764734268,-0.021005931010197643,-0.11118913703818151,-0.012093483810449326
158,8.628616999994847,0.022817407903062463,-0.007493121576995307,-0.016259970804443816,0.04137817798927389,0.04372633053212806,-0.03012248767995652,0.07075562073754409,0.07144454021858339,-0.07329879067829596,-0.022744531993262766,-0.11362855840469417,-0.010650692341589033
159,8.63227439999173,0.02298533642484064,-0.007315690551242269,-0.016382397630108764,0.04166415588602761,0.04401435137616181,-0.030419024301381232,0.07066011079527766,0.0709800493452287,-0.07333893892839714,-0.02448912105032012,-0.1160664938297969,-0.009198301016838311
160,8.637020699999994,0.02315442077401153,-0.0071370984534063365,-0.016506024096374684,0.04194973323368679,0.04430047369430752,-0.03071571141952366,0.0705575332252286,0.07050570199002132,-0.07337319386174262,-0.026239404460399886,-0.11850245018130592,-0.007736454575998385
161,8.64128549999441,0.023324659272789504,-0.006957353042498235,-0.016630850763710067,0.04223488140136903,0.04458465763919845,-0.031012525122127273,0.0704478655969498,0.07002150716188654,-0.07340151753372774,-0.027995083723052063,-0.1209359266193166,-0.006265301357875167
162,8.64559649999137,0.02349605012741077,-0.006776462238613695,-0.016756878095562346,0.04251957166991979,0.04486686340399853,-0.03130944134468352,0.0703310866949359,0.06952747591141427,-0.07342387260833129,-0.029755857290287915,-0.12336641422535406,-0.004784994290026011
163,8.649900599993998,0.02366859142778631,-0.006594434122752833,-0.016884106457747104,0.04280377523684877,0.04514705123072699,-0.031606435872932395,0.07020717652790007,0.06902362136406767,-0.07344022237794846,-0.031521421365162186,-0.12579339593777616,-0.00329569114487473
164,8.655108899998595,0.023842281147174852,-0.006411276936605586,-0.017012536117847556,0.04308746322129598,0.04542518141871695,-0.03190348434544501,0.07007611633768858,0.06850995875284296,-0.07345053078274706,-0.03329146913522262,-0.128216346754445,-0.001797554139251256
165,8.659365599989542,0.024017117141875984,-0.00622699908230268,-0.01714216724462465,0.04337060666904023,0.04570121433320426,-0.03220056225628072,0.06993788861475801,0.06798650544983868,-0.07345476242726118,-0.035065689291056135,-0.13063473406710957,-0.0002907493183440543
166,8.664095799991628,0.02419309715094364,-0.006041609122131587,-0.01727299990743804,0.043653176557590406,0.045975110414041405,-0.03249764495770392,0.06979247711907309,0.0674532809962107,-0.07345288259476432,-0.03684376530459995,-0.13304801802209154,0.0012245538702741043
167,8.668495699996129,0.024370218795920384,-0.0058551157782170075,-0.017405034075678154,0.04393514380136298,0.04624683018452865,-0.032794707662957445,0.06963986690142142,0.066910307130824,-0.07344485726041748,-0.03862537516125183,-0.13545565177895325,0.002748182911136874
168,8.67294619999302,0.02454847958059279,-0.005667527932165398,-0.01753826961820962,0.0442164792569457,0.04651633426035975,-0.03309172544908569,0.06948004432647825,0.0663576078181154,-0.07343065310293664,-0.04041019072355176,-0.137857081722487,0.004279962488871868
169,8.677637799992226,0.0247278768907683,-0.005478854624673091,-0.01767270630282616,0.04449715372846167,0.0467835833586784,-0.0333886732598024,0.06931299709926828,0.0657952092750305,-0.07341023751557314,-0.04219787696410648,-0.1402517476880904,0.00581971495483651
170,8.68231289999676,0.02490840799407398,-0.005289105055097566,-0.017808343795717198,0.044777137973047096,0.0470485383072419,-0.03368552590840264,0.06913871429443509,0.06522313999706351,-0.07338357861400664,-0.04398809146045201,-0.14263908307692955,0.0073672609895284406
171,8.685803999993368,0.025090070039777704,-0.005098288580991448,-0.01794518166094633,0.0450564027064521,0.0473111600536882,-0.033982258080694376,0.06895718638678895,0.06464143078426263,-0.07335064524196741,-0.04578048459231575,-0.14501851469410595,0.008922419174550751
172,8.689640700002201,0.02527286005863221,-0.004906414717598819,-0.01808321935994164,0.04533491860876556,0.047571409674909894,-0.034278844337955944,0.06876840527898063,0.0640501147685788,-0.07331140698259157,-0.04757470075475848,-0.1473894624067419,0.010485004498858443
173,8.693491999991238,0.02545677496274258,-0.004713493137313393,-0.018222456250998085,0.045612656330239795,0.04782924838654255,-0.034575259119959505,0.06857236432223632,0.06344922744263694,-0.07326583417612606,-0.049370379707689,-0.14975133890387615,0.012054827435890602
174,8.697164400000474,0.025641811545457423,-0.0045195336690980765,-0.01836289158879227,0.0458895864971831,0.048084637552571384,-0.034871476748071686,0.0683690583331155,0.06283880668902674,-0.07321389793874875,-0.05116715683178006,-0.15210354965722991,0.013631693803891728
175,8.700531099995715,0.025827966481284007,-0.004324546297865437,-0.01850452452390992,0.04616567971792001,0.048337538695056505,-0.0351674714284293,0.06815848361217584,0.062218892809391246,-0.07315557018140323,-0.05296466249924788,-0.15444549299320615,0.015215404897317404
176,8.70426800000132,0.026015236325827664,-0.004128541163818599,-0.018647354102386333,0.04644090658883478,0.04858791350397491,-0.03546321725519231,0.0679406379658207,0.061589528553135355,-0.07309082362755606,-0.05476252145132438,-0.1567765602888836,0.016805758117737938
177,8.708361400000285,0.026203617515755808,-0.003931528561752104,-0.01879137926526017,0.04671523770050837,0.048835723847177936,-0.03575868821386321,0.06771552072999946,0.06095075914492896,-0.07301963182692828,-0.05656035223448642,-0.15909613647141715,0.018402548178391716
178,8.712393199995859,0.02639310636878697,-0.0037335189403122616,-0.018936598848140754,0.04698864364395369,0.04908093178045573,-0.036053858184651046,0.06748313279661536,0.06030263230937591,-0.07294196916350923,-0.05835776639985246,-0.16140360063197773,0.020005568303958658
179,8.715888999999152,0.026583699083705253,-0.0035345229012165975,-0.01908301158078908,0.047261095016966126,0.04932349955769423,-0.036348700945855614,0.06724347664370166,0.05964519829355116,-0.0728578108595834,-0.06015436804503765,-0.16369832620179978,0.021614610447966063
180,8.719283500002348,0.026775391740400747,-0.0033345511984320493,-0.019230616086712483,0.04753256243060287,0.04956338964112193,-0.03664319017726407,0.06699655636553534,0.05897850989024569,-0.07276713298198569,-0.06194975441102522,-0.16597968067729427,0.023229464190693976
181,8.723767299990868,0.026968180299936383,-0.0031336147373115316,-0.01937941088277311,0.0478030165157771,0.049800564711654914,-0.03693729946358571,0.06674237769798533,0.058302622462727154,-0.07266991245504283,-0.06374351741515251,-0.16824702571793415,0.024849915611721084
182,8.728876399996807,0.027162060604641686,-0.0029317245736884506,-0.019529394378810395,0.04807242792994228,0.05003498767934386,-0.03723100229795327,0.06648094803622615,0.05761759396719304,-0.07256612707594844,-0.06553524543502891,-0.1704997183671317,0.02647574751306094
183,8.733065799999167,0.027357028378233707,-0.0027288919129287667,-0.01968056487727783,0.04834076736382963,0.05026662169390073,-0.03752427208548207,0.0662122764456564,0.056923484967655896,-0.07245575552589953,-0.06732452452115292,-0.17273711292333513,0.02810674032962883
184,8.7376615999965,0.027553079225965265,-0.0025251281089403604,-0.019832920572894246,0.048608005548220805,0.050495430155266176,-0.037817082146861386,0.06593637366980382,0.05622035864326154,-0.07233877737810697,-0.06911093847527242,-0.1749585619698015,0.02974267211714968
185,8.74108459999843,0.027750208634800665,-0.0023204446631396175,-0.019986459552309627,0.048874113260749225,0.05072137672419539,-0.0381094057219784,0.0656532521406099,0.05550828079484468,-0.0722151731090298,-0.07089406782782377,-0.17716341571165603,0.031383317286416676
186,8.744676399990567,0.027948411973618956,-0.0021148532233751685,-0.020141179793785696,0.04913906133275597,0.05094442533287857,-0.038401215973600446,0.06536292599460622,0.05478731985760955,-0.07208492411662405,-0.07267348907118411,-0.17935102048659074,0.03302844516086403
187,8.748732099993504,0.0281476844934451,-0.0019083655828085664,-0.02029707916689153,0.04940282065622201,0.051164540195629354,-0.03869248599114656,0.0650654110894012,0.054057546919732115,-0.07194801274324451,-0.07444877509903296,-0.18152071814552292,0.03467781951842541
188,8.75293239999155,0.02834802132770931,-0.00170099367875157,-0.020454155432214648,0.04966536219075737,0.05138168581965571,-0.03898318879455498,0.06476072501630245,0.05331903574005049,-0.07180442229759938,-0.0762194961493759,-0.18367184722723282,0.03633119939668387
189,8.756582799993339,0.028549417492534746,-0.0014927495914596979,-0.0206124062410879,0.04992665697063553,0.05159582701589148,-0.03927329733823228,0.06444888710917562,0.05257186275716573,-0.07165413707113938,-0.0779852203367297,-0.18580374529470503,0.03798834060188972
190,8.76115469999786,0.02875186788705376,-0.001283645542881898,-0.020771829135332504,0.05018667611185423,0.05180692890984092,-0.03956278451505345,0.06412991845276204,0.05181610708823404,-0.0714971423478062,-0.07974551365815631,-0.18791575102437488,0.03964899684268209
191,8.765371299989056,0.028955367293752705,-0.0010736938953663819,-0.020932421547017303,0.0504453908192371,0.05201495695240044,-0.03985162316038986,0.06380384189148873,0.0510518505211681,-0.07133342441125122,-0.08149994036667564,-0.19000720544673416,0.04131291977514777
192,8.770277899995563,0.029159910378845612,-0.0008629071503227594,-0.021094180798234365,0.05070277239356582,0.05221987693064005,-0.04013978605616774,0.06347068203476558,0.05027917750339424,-0.07116297055421947,-0.08324806365382645,-0.19207745242982363,0.042979858282726255
193,8.773882900000899,0.0293654916926767,-0.0006512979468406646,-0.021257104100891076,0.05095879223872452,0.052421654978534196,-0.04042724593497208,0.06313046526027428,0.04949817513014292,-0.07098576909159303,-0.08498944579909369,-0.19412583811227613,0.04464955765632389
194,8.777189100001124,0.02957210567015185,-0.0004388790602650902,-0.02142118855651894,0.05121342186885857,0.052620257587648475,-0.04071397548421057,0.06278321971805684,0.048708933137791906,-0.07080180937640691,-0.08672364769924497,-0.19615170934328205,0.04632175905713784
195,8.781224599995767,0.029779746631199,-0.00022566340072857128,-0.021586431156099345,0.05146663291555206,0.05281565161781661,-0.04099994735034705,0.06242897533761154,0.04791154390477552,-0.07061108181723756,-0.08845022863225302,-0.1981544128538866,0.047996199411574084
196,8.785721699998248,0.029988408781257688,-1.1664011640155745e-05,-0.021752828779906613,0.051718397135043975,0.053007804307834534,-0.041285134143206156,0.0620677638338911,0.047106102451631035,-0.0704135778950687,-0.09016874706892564,-0.20013329706253993,0.049672611941397785
197,8.78978140000254,0.03019808621179783,0.00020310593186891436,-0.021920378197368584,0.0519686864154542,0.05319668328613775,-0.04156950844034314,0.061699618707833526,0.04629270642730323,-0.07020929017639159,-0.09187876188689016,-0.2020877157715748,0.051350727063168324
198,8.793859199999133,0.030408772900867694,0.00041863312454259923,-0.022089076066945008,0.052217472784003974,0.05338225658138461,-0.04185304279145449,0.06132457524254055,0.04547145607929069,-0.06999821232279549,-0.09357983327511464,-0.2040170309976508,0.05303027289263383
199,8.79755779998959,0.030620462713671078,0.0006349041326399861,-0.02225891893602381,0.052464728414211015,0.053564492632892216,-0.042135709722825355,0.06094267049649204,0.0446424542170555,-0.06978033909998799,-0.09527152302174147,-0.20592061354475474,0.05471097543412516
200,8.801028499990935,0.030833149403173502,0.0008519053956170992,-0.022429903240835457,0.05271042563305506,0.05374336030092373,-0.04241748174181309,0.06055394329739619,0.04380580617753463,-0.06955566638585352,-0.09695339452118694,-0.207797842424835,0.056392558673370737
201,8.804435099998955,0.031046826610737346,0.001069623227850037,-0.022602025306385488,0.05295453692812324,0.053918828876845265,-0.04269833134135989,0.06015843423534651,0.04296161979323603,-0.06932419117872289,-0.09862501289844049,-0.20964810473637543,0.05807474449137282
202,8.808428799995454,0.03126148786678582,0.001288043820398939,-0.02277528134640538,0.0531970349547203,0.054090868093155185,-0.042978231004543226,0.05975618565566658,0.04211000535873222,-0.06908591160612847,-0.10028594525181635,-0.21147079636295735,0.05975725256652113
203,8.81379869999364,0.03147712659149564,0.0015071532428122477,-0.022949667463321895,0.05343789254295607,0.05425944813336994,-0.04325715320915928,0.05934724165010347,0.04125107559310581,-0.06884082693386546,-0.10193576128237995,-0.2132653228925307,0.06143980007329536
204,8.817231799999718,0.0316937360955183,0.00172693744497064,-0.023125179648245005,0.05367708270478445,0.05442453964174959,-0.04353507043234669,0.05893164804458121,0.04038494559900732,-0.06858893757718428,-0.10357403349650461,-0.21503110028756725,0.0631221014261484
205,8.821207599990885,0.03191130958072971,0.001947382258969957,-0.02330181378097465,0.053914578640991834,0.054586113732852486,-0.04381195515526051,0.05850945238875574,0.03951173281967997,-0.06833024511192344,-0.10520033710830676,-0.21676755534383516,0.064803868463194
206,8.824924999993527,0.032129840141008,0.0021684734010424212,-0.023479565630026476,0.05415035374815161,0.054744142000913154,-0.044087779867786024,0.058080703944557575,0.038631556994306565,-0.06806475228421616,-0.10681425038654621,-0.218474126207517,0.06648481070794056
207,8.829020099990885,0.032349320763039355,0.002390196473515423,-0.023658430852676705,0.054384381625519895,0.05489859652903581,-0.0443625170732912,0.05764545367294077,0.03774454011085142,-0.06779246301950614,-0.10841535443869578,-0.22015026278468347,0.06816463560006052
208,8.833409999992,0.03256974432715167,0.0026125369668071005,-0.023838404995026326,0.05461663608188285,0.05504944989819078,-0.04463613929341342,0.057203754224172176,0.03685080635809509,-0.0675133824303875,-0.11000323216240421,-0.22179542595098337,0.06984304841585816
209,8.83686189999571,0.032791103608175755,0.0028354802614578975,-0.024019483492084683,0.054847091142373884,0.05519667519602003,-0.04490861907287539,0.05675565993306181,0.03595048208486896,-0.06722751682626389,-0.11157746642806407,-0.2234090844042075,0.07151975153321226
210,8.84011350000219,0.033013391276334084,0.00305901163019737,-0.02420166166787262,0.05507572105528236,0.055340246025503845,-0.045179928984349985,0.05630122682395295,0.03504369577754894,-0.06693487372713414,-0.11313763762845842,-0.22499070975902358,0.07319444320708476
211,8.843652700001257,0.033236599898157124,0.003283116240045845,-0.02438493473554542,0.0553025002989112,0.05548013651358432,-0.045450041633387644,0.055840512625772935,0.034130578058967756,-0.06663546188315606,-0.11468332282684411,-0.22653977318680013,0.07486681635003078
212,8.847546799996053,0.033460721937427544,0.0035077791544509836,-0.0245692977975358,0.055527403588507294,0.055616321319823234,-0.04571892966343948,0.05537357678391422,0.033211261693088405,-0.06632929129829626,-0.11621409849565434,-0.22805574772670834,0.07653655855774671
213,8.851927099996828,0.03368574975615259,0.003732985335459469,-0.024754745845717494,0.05575040588321523,0.05574877564506333,-0.04598656576097599,0.05490048045313236,0.03228588156522242,-0.06601637324968736,-0.1177295458405683,-0.2295381168652925,0.07820335410859783
214,8.856028700000024,0.03391167561556456,0.00395871964592363,-0.024941273761589642,0.05597148239295028,0.0558774752399262,-0.04625292266066671,0.054421286466361775,0.031354574617304946,-0.06569672029510396,-0.11922925503552204,-0.23098638406553873,0.07986688697975483
215,8.860052099989844,0.03413849167714875,0.004184966851741867,-0.02512887631648227,0.056190608585099826,0.05600239641295001,-0.046517973150559416,0.05393605929335758,0.030417479751034288,-0.06537034626792296,-0.12071282524847787,-0.23240007613107663,0.08152684277396972
216,8.863616000002366,0.03436619000369814,0.0044117116241311,-0.02531754817178258,0.056407760191061855,0.0561235160383039,-0.04678169007721902,0.053444865009302914,0.02947473773593465,-0.06503726626901428,-0.12217986156048057,-0.23377873869649649,0.0831829080509117
217,8.866972899995744,0.03459476256039425,0.004638938541929593,-0.025507283879181993,0.05662291321269246,0.056240811563182044,-0.04704404635084115,0.05294777127837188,0.028526491148973595,-0.06469749666710982,-0.12362997177972578,-0.23512192828547543,0.08483476758123644
218,8.870277299996815,0.03482420121591398,0.004866632093929213,-0.025698077880943804,0.05683604392871134,0.05635426101502963,-0.047305014950394055,0.05244484734810723,0.027572884346864977,-0.06435105511290545,-0.12506276402917385,-0.23642920543388138,0.08648210147437439
219,8.87385629999335,0.035054497743562237,0.005094776681236704,-0.025889924510191807,0.05704712890110386,0.0564638430087129,-0.04756456892884626,0.051936164052496646,0.02661406346131221,-0.06399796056266274,-0.12647784502870535,-0.23770013049199143,0.08812458368974244
220,8.87726069999917,0.03528564382243058,0.005323356619663941,-0.02608281799122025,0.057256144981551425,0.056569536753706615,-0.047822681418499345,0.051421793820245656,0.025650176405266217,-0.06363823330435343,-0.12787481992501376,-0.23893426365036538,0.08976188239255885
221,8.881052999990061,0.035517631038581896,0.005552356142147346,-0.026276752439825586,0.05746306931790044,0.05667132206131475,-0.048079325636427105,0.05090181067922991,0.024681372867959392,-0.06327189497838305,-0.12925329528070154,-0.24013117158077277,0.09139366271991947
222,8.885382799999206,0.035750450886261324,0.005781759401196541,-0.026471721863660428,0.05766787936062872,0.056769179351817786,-0.048334474889975956,0.05037629024058991,0.023707804267446453,-0.06289896858136117,-0.13061288523659398,-0.2412904396389555,0.09301959142685462
223,8.889178899989929,0.03598409476913326,0.006011550471371586,-0.026667720162609793,0.057870552869185785,0.0568630896613095,-0.04858810258223458,0.04984530965333759,0.022729623646932748,-0.06251947844924399,-0.13195321697908136,-0.2424116826329168,0.09463934085420335
224,8.892556099992362,0.03621855400154356,0.006241713351786929,-0.026864741129189292,0.05807106791809209,0.05695303464800569,-0.04884018221739799,0.04930894754422681,0.0217469855402126,-0.06213345022900932,-0.13327393150040862,-0.24349454733329892,0.09625259027919857
225,8.89728939998895,0.036453819809805874,0.006472231968639671,-0.027062778448964774,0.05826940290279296,0.05703899659799252,-0.04909068740600805,0.04876728396621009,0.02076004584769169,-0.06174091085087449,-0.1345746808852089,-0.2445387074988691,0.09785902493064688
226,8.900844599993434,0.036689883333511225,0.006703090177760021,-0.0272618257009929,0.05846553654534088,0.057120958430532415,-0.049339591870092805,0.048220400360257855,0.01976896174206322,-0.06134188850793738,-0.13585512621172136,-0.2455438575891731,0.09945833413460345
227,8.90514489999623,0.03692673562686028,0.006934271767182473,-0.02746187635828235,0.05865944789994059,0.05719890370304944,-0.04958686944824235,0.04766837952079171,0.01877389159518738,-0.060936412643393584,-0.13711493723786616,-0.24650970924060914,0.10105020997768374
228,8.908653199992841,0.03716436766001779,0.007165760459736586,-0.027662923788275475,0.05885111635835179,0.05727281661584375,-0.049832494100644754,0.047111305560043,0.017774994912271812,-0.06052451394098963,-0.1383537925984029,-0.24743599009974426,0.1026343470308914
229,8.912589899991872,0.037402770320488554,0.007397539915656301,-0.02786496125335022,0.05904052165514592,0.057342682016544536,-0.050076439914084676,0.0465492638718913,0.01677243226818815,-0.060106224314474065,-0.13957137984279128,-0.24832244335158687,0.10421044283429019
230,8.916578799995477,0.037641934414514404,0.007629593735206736,-0.02806798191134221,0.05922764387281639,0.05740848540430939,-0.050318681106894,0.04598234109591674,0.0157663652454682,-0.05968157689413023,-0.14076739516082723,-0.24916882706577184,0.10577819854689331
231,8.920714199994109,0.03788185066849149,0.007861905461327472,-0.02827197881608673,0.059412463446744564,0.05747021293377569,-0.050559192033841495,0.04541062508345777,0.014756956375909038,-0.05925060601097055,-0.14194154242584076,-0.2499749125128674,0.10733731853369152
232,8.92432929998904,0.03812250973040743,0.008094458582291308,-0.028476944917980352,0.05959496117003542,0.05752785141878763,-0.050797947190955615,0.04483420486940282,0.013744369092188263,-0.05881334718660974,-0.1430935309523104,-0.25074048075901484,0.10888750803121534
233,8.927823599995463,0.038363902171297704,0.008327236534377695,-0.028682873064561933,0.0597751181982554,0.05758138833595623,-0.05103492122033224,0.04425317065638633,0.012728767697014342,-0.05836983713634189,-0.14422307300414994,-0.2514653187032635,0.11042847032907835
234,8.932024199995794,0.03860601848672114,0.008560222704560291,-0.028889756001113123,0.05995291605414023,0.057630811828136834,-0.05127008891498236,0.04366761380673532,0.011710317346795058,-0.057920113781811604,-0.14532988463422516,-0.2521492182792049,0.1119599056360608
235,8.936404099993524,0.03884884909825441,0.00879340043320852,-0.029097586371278576,0.060128336632267604,0.057676110707857005,-0.05150342522374231,0.04307762681987476,0.010689184027245677,-0.05746421626326309,-0.1464136905760394,-0.2527919814047784,0.11348151305936824
236,8.941396199996234,0.039092384355005255,0.009026753016802851,-0.02930635671770618,0.06030136220358225,0.05771727446059672,-0.051734905256220536,0.04248330328470631,0.009665534497019427,-0.057002184936201475,-0.1474742286995507,-0.2533934273700205,0.11499299512132083
237,8.944923099988955,0.03933661453514363,0.009260263710662898,-0.029516059482707288,0.06047197541968344,0.05775429324776033,-0.051964504287680846,0.04188473782097145,0.008639536203557664,-0.05653406134710733,-0.14851124976279367,-0.2539533956227565,0.11649406091983877
238,8.948442199995043,0.0395815298474496,0.009493915731686736,-0.02972668700893643,0.060640159316875705,0.05778715790927606,-0.052192197763792705,0.041282026033639334,0.007611357204187454,-0.05605988820453346,-0.1495245133088988,-0.25447174159054,0.11798442490235724
239,8.952727399999276,0.03982712043287724,0.009727692261100021,-0.029938231540089975,0.06080589732008744,0.05781585996592976,-0.0524179613052807,0.04067526448745809,0.006581166115767227,-0.055579709364736975,-0.15051378480649452,-0.2549483312652762,0.11946380325971612
240,8.956310699999449,0.04007337636613424,0.009961576447214194,-0.030150685221623466,0.06096917324671577,0.05784039162155706,-0.052641770712558635,0.040064550684473364,0.005549132079588234,-0.05509356983194516,-0.15147883663419032,-0.25538304039287135,0.12093191216981908
241,8.959718899990548,0.040320287657276896,0.010195551408193325,-0.030364040101487747,0.06112997131036326,0.05786074576509327,-0.05286360197038112,0.03944998303061635,0.00451542471757496,-0.05460151575819426,-0.15241945075480307,-0.2557757571949733,0.12238846866906358
242,8.963021399991703,0.04056784425331994,0.0104296002348289,-0.03057828813088393,0.06128827612441258,0.057876915972411236,-0.053083431252476374,0.03883166079159106,0.0034802140751709816,-0.05410359443654651,-0.1533354205112599,-0.2561263849151962,0.12383319216731392
243,8.967151699995156,0.040816036039860455,0.010663705993321533,-0.030793421165037003,0.06144407270540636,0.05788889650790921,-0.053301234926142964,0.03820968404493566,0.002443670556943482,-0.053599854288674614,-0.15422655094189572,-0.2564348438312605,0.12526580642737334
244,8.972070999996504,0.04106485284271504,0.010897851728068597,-0.031009430963987967,0.061597346476234084,0.057896682325827876,-0.053516989556782156,0.03758415363335936,0.001405964853193318,-0.053090344842067226,-0.15509265870133365,-0.25670107362580546,0.1266860419111921
245,8.975891900001443,0.041314284429569505,0.011132020464456585,-0.031226309193404113,0.06174808326913452,0.05790026907124457,-0.053730671912310284,0.03695517111744374,0.0003672678563825197,-0.05257511669863543,-0.15593357228361876,-0.2569250347198981,0.12809363673827134
246,8.979863000000478,0.04156432051164031,0.011366195211656788,-0.03144404742540685,0.061896269328500016,0.05789965308071429,-0.053942258967437165,0.03632283872717474,-0.0006722494230421285,-0.05205422150416591,-0.15674913164149568,-0.2571067072205643,0.12948833582609795
247,8.98342479999701,0.04181495074534695,0.01160035896542284,-0.03166263713941659,0.06204189131348687,0.05789483138258305,-0.05415172790783138,0.035687259317723596,-0.0017124159317083811,-0.05152771192388023,-0.1575391875053299,-0.2572460887481896,0.130869889414849
248,8.988135599996895,0.04206616473399452,0.011834494710888927,-0.03188206972301426,0.06218493630046196,0.05788580169702173,-0.05435905613420101,0.035048536326487925,-0.002753060639921237,-0.05099564162382142,-0.15830360143550123,-0.25734319307925474,0.13223805177004422
249,8.991944599998533,0.04231795202946589,0.012068585425367609,-0.032102336472819196,0.062325391785265624,0.05787256243580072,-0.05456422126630831,0.034406773728448845,-0.0037940126057435966,-0.05045806525690721,-0.1590422461360019,-0.25739804988077875,0.1335925804416578
250,8.996020099992165,0.042570302133922544,0.012302614081146206,-0.03232342859538315,0.06246324568529719,0.057855112701805406,-0.054767201146937686,0.033762075990675454,-0.004835101039450934,-0.049915038450309486,-0.15975500571839982,-0.25741070472378813,0.1349332359622994
251,9.000521599999047,0.042823204501513654,0.012536563648280702,-0.032545337208100246,0.06259848634140984,0.05783345228828947,-0.05496797384580827,0.033114548025546794,-0.0058761553677209016,-0.04936661779394894,-0.160441775503947,-0.25738121882051795,0.13625978154580673
252,9.004668199995649,0.04307664854009225,0.012770417097386088,-0.03276805334013266,0.06273110251961776,0.05780758167787117,-0.05516651766344879,0.03246429514685704,-0.006917005295962275,-0.048812860830312506,-0.1611024615119791,-0.2573096684806782,0.13757198334304335
253,9.009064300000318,0.043330623612938074,0.013004157402422148,-0.03299156793335193,0.06286108341263598,0.05777750204128245,-0.05536281113502784,0.03181142302717568,-0.007957480868106407,-0.0482538260408789,-0.16173698001513045,-0.25719614413491876,0.1388696110839456
254,9.01242149999598,0.04358511904048623,0.013237767543473685,-0.033215871843295566,0.06298841864124256,0.05774321523588159,-0.05555683303411893,0.03115603765755049,-0.008997412521037184,-0.04768957283074269,-0.16234525567736174,-0.2570407482264999,0.1401524378287249
255,9.01580369999283,0.04384012410206105,0.013471230509524278,-0.03344095584013886,0.06311309825549254,0.05770472380396204,-0.05574856237640636,0.03049824531992885,-0.010036631127328624,-0.04712016151705233,-0.16292721817087574,-0.25684359155713227,0.14142023802762566
256,9.019064499996604,0.044095628037614555,0.013704529301222821,-0.033666810609681484,0.063235112735857,0.05766203097091939,-0.05593797842335676,0.029838152574225764,-0.011074968020117083,-0.04654565332932843,-0.16348279993405226,-0.2566047895011019,0.14267278437359565
257,9.022679699992295,0.04435162004946955,0.013937646933642462,-0.03389342675434895,0.06335445299433241,0.057615140643358986,-0.056125060685927555,0.029175866248880786,-0.012112255005215681,-0.045966110423359886,-0.16401193726029223,-0.256324461261311,0.14390984625571873
258,9.026614699992932,0.044608089304067046,0.01417056643903183,-0.03412079479420923,0.06347111037550338,0.05756405740716494,-0.056309788928350896,0.028511493419118628,-0.01314832437996877,-0.04538159589403203,-0.16451457492553093,-0.2560027337397813,0.1451311916345459
259,9.030464199997368,0.044865024933717954,0.014403270869558357,-0.03434890516800484,0.06358507665747604,0.057508786525455234,-0.05649214317194588,0.027845141360075057,-0.014183008976674077,-0.04479217377405361,-0.16499067092201175,-0.2556397473330207,0.14633659092161724
260,9.03389619999507,0.045122416038358065,0.01463574330004296,-0.03457774823420027,0.06369634405256171,0.05744933393629947,-0.0566721036988922,0.027176917486766972,-0.015216142228314711,-0.04419790901540425,-0.16544019660209655,-0.2552356589219721,0.14752582038916603
261,9.037553799993477,0.04538025168730526,0.014867966830684906,-0.0348073142720446,0.06380490520772474,0.05738570625014229,-0.05684965105589229,0.02650692930605505,-0.016247558236166394,-0.04359886746048102,-0.16586313294138377,-0.25479064006837204,0.14869866227574643
262,9.040795199995046,0.04563852092101812,0.015099924589775654,-0.035037593482648566,0.06391075320487753,0.0573179107469743,-0.057024766057711576,0.025835284386840702,-0.01727709182094018,-0.04299511582269154,-0.16625946640922318,-0.25430487204617275,0.14985490124460102
263,9.044277900000452,0.04589721275285552,0.01533159973640083,-0.03526857599007579,0.06401388156108738,0.057245955373341775,-0.05719742979068366,0.025162090345431275,-0.018304578550199863,-0.042386721686248054,-0.16662918633351423,-0.2537785408390288,0.15099432045143346
264,9.047782199995709,0.04615631617083693,0.01556297546312989,-0.035500251842448205,0.06411428422875308,0.057169848739295794,-0.05736762361624889,0.024487454837052627,-0.019329854749040403,-0.04177375351856752,-0.16697228579133713,-0.2532118356760247,0.15211669995816843
265,9.051334899995709,0.04641582013940341,0.015794034998693408,-0.03573261101306593,0.06421195559574311,0.0570896001153156,-0.05753532917455987,0.023811485534010197,-0.02035275751566112,-0.04115628068289648,-0.16728876606762916,-0.2526049525812648,0.15322181864615134
266,9.054798899989692,0.04667571360117903,0.016024761610647857,-0.035965643401541826,0.06430689048539562,0.05700521942913177,-0.05770052838812212,0.023134290081136245,-0.021373124760756024,-0.04053437343523565,-0.167578640942476,-0.25195810016807324,0.1543094584782025
267,9.058395300002305,0.046935985478731894,0.016255138608027204,-0.03619933883495084,0.06439908415629621,0.05691671726233092,-0.05786320346537471,0.022455976039271904,-0.022390795269955126,-0.03990810290248992,-0.16784193730622088,-0.2512715034260328,0.1553794072646822
268,9.063922899993486,0.04719662467633374,0.01648514934398022,-0.03643368706899353,0.06448853230182076,0.05682410484667383,-0.058023336904154225,0.021776650835738924,-0.023405608773847345,-0.03927754105701877,-0.1680786927745456,-0.2505454040088164,0.156431458322218
269,9.067413099997792,0.04745762008171726,0.016714777218392297,-0.036668677789173404,0.06457523104951261,0.056727394060133746,-0.05818091149506949,0.02109642172711285,-0.024417406012750033,-0.038642760697546796,-0.168288954088346,-0.2497800586609967,0.15746540932058903
270,9.071218899989615,0.047718960567830676,0.016944005680490714,-0.03690430061198775,0.06465917696032424,0.05662659742269058,-0.05833591032481113,0.020415395762637845,-0.025426028794006666,-0.038003835433041436,-0.16847277712773112,-0.24897573744780993,0.1584810616009131
271,9.075175099991611,0.04798063499458893,0.017172818231432428,-0.03714054508613177,0.06474036702769849,0.056521728091905754,-0.05848831677939592,0.019733679746886633,-0.026431320042437284,-0.03736083966913851,-0.16863022645175169,-0.2481327217133239,0.15947821919179497
272,9.079195799989977,0.04824263221062083,0.017401198426873554,-0.03737740069371563,0.06481879867650829,0.05641279985830832,-0.05863811454736653,0.019051380206898366,-0.027433123841120226,-0.03671384859997816,-0.16876137449812698,-0.24725130182871954,0.1604566871967885
273,9.083260300001712,0.048504941055011616,0.01762912987951983,-0.03761485685149447,0.06489446976187202,0.05629982714063993,-0.05878528762296982,0.01836860336131181,-0.028431285463628872,-0.03606293820767386,-0.16886630182207704,-0.2463317764383633,0.16141627009045176
274,9.08756529999664,0.04876755035904059,0.017856596261657632,-0.03785290291211117,0.06496737856784353,0.05618282498098017,-0.05892982030935229,0.01768545508557135,-0.029425651408715014,-0.035408185267931234,-0.16894509936182048,-0.2453744545313377,0.16235677169172139
275,9.09195770000224,0.049030448947913065,0.01808358130766502,-0.03809152816535223,0.0650375238059461,0.05606180903971104,-0.05907169722178384,0.017002040862735025,-0.030416069449301787,-0.03474966734973242,-0.16899787114038006,-0.2443796589413965,0.16327799728794093
276,9.09580549999373,0.04929362564248611,0.01831006881650201,-0.03833072183941659,0.06510490461346456,0.05593679559024594,-0.05921090329085068,0.016318465726826173,-0.031402388695477464,-0.03408746280377406,-0.16902473342776536,-0.24334772809185515,0.16417975583737224
277,9.100018799988902,0.04955706926098671,0.018536042654178988,-0.038570473102197314,0.06516952055152102,0.05580780151348463,-0.059347423765585536,0.015634834220418406,-0.03238445965760245,-0.033421650744336,-0.16902581090949384,-0.2422790140482462,0.16506186063817002
278,9.1034229999932,0.049820768620721934,0.01876148675620213,-0.03881077106257578,0.06523137160302388,0.05567484429203176,-0.05948124421651391,0.01495125036897931,-0.0333621342935514,-0.03275231103230808,-0.16900123307103532,-0.24117387815837996,0.16592412749292829
279,9.107087999989744,0.05008471253978053,0.018986385129995047,-0.03905160477172797,0.06529045817053607,0.05553794200426969,-0.059612350538646997,0.014267817667700904,-0.03433526603655356,-0.03207952427190545,-0.16895113276737123,-0.24003268765727448,0.1667663716663402
280,9.112159500000416,0.05034888983872581,0.019210721857296272,-0.03929296322444288,0.06534678107411752,0.05539711331835183,-0.05974072895450138,0.013584639067413888,-0.035303709814972856,-0.031403371818304215,-0.16887564847661982,-0.23885581530625768,0.16758840660100532
281,9.115605899991351,0.05061328934227982,0.019434481096532306,-0.03953483536045324,0.06540034154907948,0.055252377486115445,-0.05986636601715371,0.012901816943188987,-0.036267322077228985,-0.030723935784744347,-0.1687749275026188,-0.23764364059868037,0.16839004392983697
282,9.119014700001571,0.050877899880998056,0.01965764708516587,-0.03977721006577862,0.06545114124357296,0.05510375433687345,-0.05998924861331784,0.012219453054346161,-0.03722596082133029,-0.03004129905006495,-0.16864912568370485,-0.2363965493347526,0.16917109284716816
283,9.122509799999534,0.051142710292934115,0.019880204142018743,-0.04002007617408104,0.06549918221601961,0.0549512642710883,-0.06010936396646047,0.01153764851541157,-0.0381794856163558,-0.029355545270894165,-0.16849840394451096,-0.23511493122209562,0.1699313591124921
284,9.125942699989537,0.05140770942529365,0.020102136669568827,-0.04026342246803331,0.06554446693246527,0.054794928253990016,-0.06022669963997688,0.010856503784018595,-0.039127757612579424,-0.028666758897243,-0.16832292596492385,-0.23379917872082814,0.17067064548273203
285,9.129306000002543,0.0516728861360776,0.020323429156221377,-0.040507237680700275,0.06558699826391291,0.05463476780916821,-0.0603412435404327,0.010176118650720128,-0.040070639553610156,-0.027975025181198668,-0.16812285981584313,-0.23244968965416424,0.17138875505555992
286,9.1333728999889,0.05193822929571458,0.02054406617855423,-0.040751510496933416,0.06562677948359384,0.05447080501209191,-0.060452983920809986,0.009496592213658277,-0.04100799580763286,-0.027280430165475003,-0.16789838106653096,-0.2310668725177334,0.17208549626469707
287,9.13766459999897,0.05220372778868203,0.020764032403536612,-0.04099622955477836,0.06566381426409572,0.054303062483448836,-0.06056190938365636,0.008818022843241931,-0.04193969242249448,-0.02658306065169983,-0.16764967395458788,-0.22965115022897906,0.17276068610593912
288,9.141291599997205,0.05246937051511537,0.020983312590720497,-0.041241383446894896,0.06569810667434804,0.0541315633822197,-0.06066800888407456,0.008140508147352772,-0.04286559718727293,-0.02588300416287072,-0.16737693051865077,-0.22820295915094185,0.17341414963828153
289,9.145669199991971,0.052735146392404786,0.021201891594403388,-0.041486960721988736,0.06572966117646875,0.05395633139851946,-0.06077127173256791,0.00746414494303827,-0.04378557967946692,-0.025180348915677653,-0.16708034926021942,-0.22672274565030984,0.17404571713862524
290,9.149912799999584,0.05300104435677887,0.021419754365761774,-0.04173294988625451,0.06575848262252072,0.05377739074628986,-0.060871687597805986,0.0067890292325419035,-0.04469951129872359,-0.024475183805973775,-0.16676013598338277,-0.22521096431488524,0.17465522251554813
291,9.154256499998157,0.053267053364875146,0.0216368859549548,-0.0419793394048299,0.06578457625116449,0.05359476615586792,-0.060969246509352565,0.006115256168203786,-0.04560726529960979,-0.02376759839392875,-0.16641650611631528,-0.22366807860156415,0.17524250443717498
292,9.158337799992296,0.053533162395296666,0.021853271513197617,-0.042226117703260714,0.06580794768413083,0.053408482866413386,-0.06106393886031119,0.005442920009712771,-0.0465087168305811,-0.02305768288037641,-0.16604968471149062,-0.222094561715307,0.175807407694804
293,9.162580599993817,0.053799360450153995,0.02206889629480379,-0.042473273168976394,0.0658286029225277,0.05321856661816199,-0.06115575540986181,0.004772114089005349,-0.04740374297386291,-0.022345528080937992,-0.16565990328424415,-0.22049089491822937,0.17634978249437006
294,9.165916999991168,0.05406563655659192,0.022283745659195994,-0.04272079415277564,0.06584654834302889,0.05302504364453032,-0.061244687285697035,0.00410293079308998,-0.04829222277074204,-0.02163122540810101,-0.1652473953031931,-0.21885756338611412,0.1768694817292932
295,9.169440699988629,0.05433197976830062,0.02249780507288456,-0.04296866897032161,0.06586179069404206,0.0528279406641645,-0.06133072598641381,0.0034354615654230633,-0.04917403722793196,-0.020914866867401863,-0.16481239354273294,-0.21719505245838572,0.17736635799148587
296,9.172685799989267,0.05459837916701138,0.022711060111413845,-0.04321688590364688,0.06587433709190851,0.05262728487299358,-0.06141386338391878,0.0027697969101483835,-0.050049069312531246,-0.020196545063682063,-0.16435513090812812,-0.2155038463533822,0.17784026207717338
297,9.1769168000028,0.054864823863977015,0.022923496461276515,-0.04346543320266813,0.06588419501710548,0.05242310393631898,-0.061494091725870594,0.0021060263867990927,-0.05091720394799688,-0.019476353209356957,-0.16387584332015057,-0.21378442963719038,0.17829104358927314
298,9.18036499999289,0.055131303001436864,0.023135099921795917,-0.04371429908671082,0.06589137231040307,0.052215425980900475,-0.061571403638152146,0.001444238591203904,-0.05177832802098381,-0.01875438512579942,-0.16337477257341676,-0.2120372895634877,0.17871855302154765
299,9.183794299999136,0.05539780575406614,0.023345856406976343,-0.04396347174604388,0.06589587716891214,0.0520042795869903,-0.06164579212732406,0.0007845211270685643,-0.052632330396244785,-0.01803073523475031,-0.16285216710972536,-0.2102629175748286,0.17912264394976102
300,9.187873899994884,0.05566432133040893,0.023555751947320982,-0.04421293934342429,0.06589771814201134,0.051789693780298594,-0.061717250583027454,0.00012696058062667873,-0.053479101935613484,-0.017305498541978315,-0.16230828133677347,-0.20846181018797336,0.1795031751940991
301,9.19248269998934,0.05593083897429464,0.023764772691617184,-0.044462690015651125,0.06589690412718993,0.051571698023874,-0.06178577278030527,-0.0005283575022680502,-0.05431853552006559,-0.016578770611199056,-0.16174337491929905,-0.20663446957060436,0.1798600127850698
302,9.196091099991463,0.05619734796623734,0.023972904908688735,-0.044712711875128944,0.06589344436578955,0.05135032220989063,-0.06185135288179405,-0.0011813486357571956,-0.05515052607336689,-0.015850647531833163,-0.1611577115344448,-0.20478140316748805,0.18019303004336246
303,9.200200599996606,0.056463837624817756,0.024180134989114695,-0.04496299301143959,0.06588734843868835,0.051125596651337375,-0.0619139854397845,-0.001831929406817757,-0.05597497058111042,-0.015121225892279393,-0.16055155828125525,-0.20290312207489714,0.18050210603253555
304,9.204226899993955,0.05673029730804773,0.024386449446914444,-0.04521352149292221,0.06587862626193892,0.05089755207365091,-0.06197366539819704,-0.002480017490101077,-0.05679176810121563,-0.014390602760188621,-0.15992518651955542,-0.20100014023386764,0.18078712515219703
305,9.208339799995883,0.05699671641471692,0.02459183492119884,-0.04546428536826105,0.06586728808233241,0.050666219606320055,-0.06203038809448283,-0.00312553166755851,-0.057600819776439924,-0.01365887565902763,-0.15927887264392446,-0.19907297524383452,0.18104797906541156
306,9.212474499989185,0.057263084385721384,0.024796278177787356,-0.045715272668080835,0.06585334447287766,0.050431630774417584,-0.06208414926140976,-0.0037683918495408546,-0.05840202885145914,-0.0129261425327627,-0.15861289765121198,-0.19712214869023237,0.18128456862620906
307,9.216053299998748,0.05752939070537368,0.024999766110790744,-0.04596647140654905,0.06583680632819466,0.05019381749006643,-0.06213494502867777,-0.004408519090925749,-0.059195300688029036,-0.012192501706832172,-0.15792754558071265,-0.19514818567796488,0.18149680297474338
308,9.220553999999538,0.057795624902694236,0.025202285744159142,-0.046217869582984364,0.06581768485986328,0.04995281204384884,-0.06218277192438921,-0.005045835599599994,-0.05998054277829207,-0.011458051860149115,-0.15722310262014025,-0.19315161425585511,0.1816845973609806
309,9.224965599991265,0.0580617765526838,0.025403824233195243,-0.04646945518347077,0.06579599159174807,0.04970864709616497,-0.06222762687643764,-0.0056802647453553555,-0.060757664755283367,-0.010722892003677634,-0.1564998575801082,-0.19113296496444201,0.18184787324958454
310,9.229245399998035,0.05832783527757698,0.02560436886603251,-0.0467212161824773,0.06577173835527503,0.049461355668557055,-0.06226950721380493,-0.006311731072208861,-0.06152657840257975,-0.009987121451587136,-0.15575810167226709,-0.18909277036234365,0.18198655910640654
311,9.232595199995558,0.058593790748076524,0.025803907065078163,-0.04697314054448263,0.0657449372846568,0.049210971134989914,-0.06230841066771673,-0.0069401603055040065,-0.06228719766097455,-0.009250839793466883,-0.154998126315919,-0.1870315633951652,0.18210058835346646
312,9.23620369999844,0.058859632684568224,0.02600242638842087,-0.047225216225604126,0.06571560081211196,0.048957527213121174,-0.06234433537271482,-0.007565479346489198,-0.06303943862493303,-0.008514146882022004,-0.15422022049178605,-0.1849498752197179,0.18218989605161903
313,9.24025009998877,0.05912535085831651,0.02619991453120312,-0.04747743117523116,0.06568374166313405,0.048701057955610444,-0.06237727986771304,-0.008187616258014134,-0.06378321953166777,-0.007777142832121282,-0.1534246703500396,-0.1828482348219071,0.182254417222162
314,9.243768699991053,0.05939093509264109,0.026396359326958607,-0.04772977333766268,0.0656493728518266,0.04844159774147788,-0.06240724309706195,-0.008806500255937676,-0.06451846075450329,-0.007039928022069333,-0.1526117617515383,-0.180727170820703,0.18229408844685457
315,9.247760999991442,0.05965637526407483,0.02659174874891471,-0.04798223065374911,0.06561250767624167,0.04817918126746706,-0.06243422441161506,-0.009422061715379782,-0.06524508480654337,-0.006302603079712173,-0.15178178304811046,-0.17858721386142196,0.1823088527449715
316,9.253015099995537,0.059921661303502675,0.026786070911260014,-0.048234791062538585,0.06557315971366426,0.04791384353937385,-0.062458223569681066,-0.010034232184618524,-0.0659630163533944,-0.005565268844259898,-0.15093502614499285,-0.17642889825976335,0.1822986641227596
317,9.25815789999615,0.060186783197281386,0.026979314070376653,-0.048487442502926546,0.06553134281583844,0.04764561986330639,-0.06247924073778132,-0.010642944399935867,-0.06667218223013101,-0.004828026315592626,-0.15007178647431638,-0.1742527623762902,0.1822634896847379
318,9.262285599994357,0.06045173098833984,0.02717146662603713,-0.04874017291530808,0.06548707110413175,0.047374545836876746,-0.06249727649119198,-0.011248132299300216,-0.06737251145704855,-0.004090976599005299,-0.14919236254883528,-0.17205934821023158,0.18220330982957783
319,9.266476399992824,0.06071649477725967,0.027362517122565412,-0.04899297024323192,0.06544035896465059,0.04710065734033342,-0.06251233181425453,-0.011849731033602404,-0.06806393525334302,-0.0033542208529291893,-0.1482970554384515,-0.16984920047471386,0.18211811707068876
320,9.270741599990288,0.06098106472333603,0.027552454249962024,-0.049245822435055285,0.0653912210433137,0.046823990527642384,-0.06252440810049507,-0.012447676976103954,-0.0687463870453833,-0.002617860243216746,-0.14738616800981474,-0.16762286502325197,0.18200791490951235
321,9.27474139998958,0.06124543104561841,0.027741266844993,-0.04949871744559887,0.06533967224089123,0.046544581817552694,-0.06253350715256507,-0.013041907727522341,-0.0694198024676633,-0.0018819958999767923,-0.14646000361296274,-0.1653808873292623,0.18187271703344485
322,9.279246899997815,0.06150958402393126,0.027928943892242708,-0.049751643237801166,0.065285727708037,0.04626246788466979,-0.06253963118201149,-0.013632362114855757,-0.07008411935877526,-0.001146728878347217,-0.14551886498325187,-0.16312381146361485,0.1817125462028119
323,9.283519299991896,0.061773513999874616,0.028115474525130597,-0.05000458778437162,0.06522940284033713,0.04597768565055369,-0.0625427828089002,-0.014218980187586315,-0.07073927775409154,-0.0004121601243332056,-0.1445630538336884,-0.16085217965451165,0.1815274331640389
324,9.287909299993771,0.0620372113778047,0.028300848026892013,-0.05025753906944191,0.06517071327337295,0.0456902722748515,-0.06254296506130985,-0.014801703213207264,-0.07138521987817788,0.0003216095556289267,-0.14359287002665583,-0.15856653214399247,0.1813174156768279
325,9.29129799999646,0.062300666625794573,0.02848505383152322,-0.05051048509021498,0.06510967487780586,0.04540026514645695,-0.06254018137470906,-0.015380473666726461,-0.07202189013631445,0.001054479520964533,-0.14260861044996692,-0.15626740661791014,0.1810825371908297
326,9.29556220000086,0.062563870276575,0.028668081524690716,-0.05076341385861133,0.06504630375452516,0.04510770187471152,-0.06253443559123756,-0.015955235217102202,-0.07264923510229834,0.0017863493166926738,-0.14161056906755579,-0.1539553378904155,0.18082284615205826
327,9.300082999994627,0.06282681292845588,0.028849920844605064,-0.05101631340291218,0.06498061622984255,0.04481262028066261,-0.06252573195892386,-0.016525932717156737,-0.07326720350741248,0.002517118694108642,-0.14059903786250233,-0.15163085876287816,0.18053839765296723
328,9.30412059999071,0.06308948524622816,0.02903056168285951,-0.05126917176939947,0.06491262885072163,0.0445150583883539,-0.06251407513079905,-0.017092512197640023,-0.07387574623517569,0.0032466876438631345,-0.1395743078093228,-0.14929450119132645,0.18022925646216842
329,9.30833079999138,0.06335187796204676,0.02920999408523336,-0.05152197702399185,0.06484235838002037,0.04421505441612602,-0.0624994701638469,-0.017654920865007907,-0.07447481631975487,0.003974956441151554,-0.13853666931917993,-0.14694679690228724,0.17989549889976536
330,9.31258519999392,0.063613981876294,0.02938820825246024,-0.05177471725387615,0.06476982179173858,0.0439126467679197,-0.062481922517752135,-0.018213107099087092,-0.07506436894569644,0.004701825693962368,-0.13748641206765536,-0.14458827724198114,0.17953721228513508
331,9.316694199995254,0.06387578785842399,0.02956519454096111,-0.05202738056913331,0.06469503626627932,0.04360787402457864,-0.062461438053460244,-0.018767020449460204,-0.07564436144511864,0.0054271963837996375,-0.13642382465558953,-0.14221947237032345,0.1791544928537319
332,9.321012499989592,0.06413728684778784,0.029740943463542172,-0.05227995510435816,0.06461801918572554,0.04330077493517539,-0.06243802303159641,-0.019316611630387365,-0.07621475329092346,0.0061509698970808185,-0.1353491941638731,-0.1398409105850421,0.1787474441176163
333,9.32498599999235,0.06439846985443981,0.029915445690057753,-0.05253242902027255,0.06453878812914261,0.04299138840836908,-0.062411684110771304,-0.019861832513590052,-0.07677550608852186,0.006873048052597946,-0.13426280539135244,-0.1374531179289758,0.17831617520031864
334,9.32846829999471,0.06465932795992448,0.03008869204803827,-0.05278479050533147,0.06445736086791334,0.04267975350379827,-0.0623824283457779,-0.02040263611700825,-0.07732658356586922,0.007593333119446486,-0.13316493949204683,-0.1350566175935163,0.17786079761166473
335,9.33171859999129,0.06491985231804519,0.030260673523283512,-0.05303702777732155,0.0643737553611314,0.042365909423519275,-0.062350263185752264,-0.02093897658656103,-0.07786795156036509,0.008311727818398744,-0.1320558722443677,-0.132651928895516,0.17738142128797385
336,9.3350827999966,0.06518003415561398,0.030431381260421345,-0.05328912908495231,0.06428798975108391,0.04204989550350497,-0.06231519647235922,-0.02147080917090378,-0.0783995780006131,0.009028135307802682,-0.13093587287096364,-0.13023956618262028,0.1768781519963086
337,9.33836139999039,0.06543986477318346,0.030600806563432226,-0.05354108270944002,0.06420008235884905,0.04173175120523067,-0.06227723643806722,-0.021998090193642746,-0.07892143288446617,0.009742459163958831,-0.1298052047736631,-0.1278200388203193,0.176351092815822
338,9.34211559999676,0.06569933554576114,0.030768940896139862,-0.05379287696608496,0.06411005168000343,0.0414115161073505,-0.06223639170449277,-0.02252077703403705,-0.0794334882606816,0.010454603379001427,-0.12866412868006688,-0.125393852863664,0.17580034988104976
339,9.345822699993732,0.06595843792350659,0.03093577588266838,-0.0540445002058419,0.0640179163803757,0.04108922989743168,-0.0621926712806924,-0.023038828124665397,-0.07993571822048855,0.011164472387731644,-0.12751290544779512,-0.12296151310895873,0.17522603815012672
340,9.349254799992195,0.06621716343241138,0.03110130330786614,-0.05429594081688355,0.06392369529177286,0.040764932363699116,-0.062146084561290026,-0.02355220295481107,-0.08042809889583882,0.011871971112156656,-0.1263517955938265,-0.12052352367759356,0.17462828233550753
341,9.352543599990897,0.06647550367496174,0.03126551511769611,-0.05454718722615587,0.06382740740770651,0.040438663386783806,-0.0620966413244087,-0.024060862064321557,-0.08091060845569682,0.012577004995851281,-0.1251810570659044,-0.11808038690099631,0.17400721265601785
342,9.356250600001658,0.06673345033078391,0.03142840341959295,-0.05479822790092481,0.06372907187916879,0.04011046293149745,-0.06204435172952002,-0.024564767028966896,-0.08138322709527096,0.013279480014136253,-0.12400094395653567,-0.11563260189146567,0.17336296082582897
343,9.36010749998968,0.06699099515727258,0.03158996048278686,-0.055049051350314245,0.06362870801047707,0.039780371038667973,-0.0619892263152935,-0.025063880443897107,-0.08184593702074336,0.013979302675995493,-0.12281170660904696,-0.11318066420216463,0.17269566015881394
344,9.363528499990936,0.06724812999020267,0.03175017873859459,-0.055299646126835265,0.0635263352551837,0.03944842781703765,-0.06193127599743053,-0.02555816590985841,-0.08229872243575104,0.014676380035098502,-0.12161359242952459,-0.11072506630521024,0.17200544787530297
345,9.366786300000967,0.0675048467443247,0.031909050780677795,-0.05555000082790663,0.06342197321203219,0.03911467343520796,-0.06187051206642456,-0.02604758802321827,-0.08274156952998277,0.015370619710376503,-0.12040684685741063,-0.10826629779444119,0.17129246689915012
346,9.37096849999216,0.06776113741394385,0.03206656936526886,-0.05580010409736593,0.06331564162094767,0.03877914811362998,-0.06180694618522863,-0.026532112370032564,-0.08317446646730041,0.016061929911580942,-0.11919171378504743,-0.10580484488135446,0.17055686644749313
347,9.374272599990944,0.06801699407348286,0.03222272741136447,-0.05604994462697118,0.06320736035904105,0.0384418921166453,-0.061740590386808826,-0.027011705519464232,-0.0835974033702585,0.016750219464630078,-0.11796843463926004,-0.10334118968677813,0.16979880129697392
348,9.377913499993156,0.0682724088780288,0.032377518000887076,-0.05629951115789219,0.06309714943665268,0.038102945744601636,-0.06167145707160675,-0.02748633501042157,-0.0840103723024961,0.01743539783123209,-0.1167372472559226,-0.10087580984719147,0.1690184305109973
349,9.382178200001364,0.06852737406386399,0.032530934378814665,-0.05654879248219161,0.06298502899346461,0.03776234932603619,-0.06159955900493429,-0.027955969335873465,-0.08441336725007192,0.018117375123936717,-0.11549838621890561,-0.0984091778861682,0.16821591729613564
350,9.38773879999644,0.06878188194898129,0.03268296995327901,-0.056797777444295254,0.06287101929467118,0.03742014320994222,-0.06152490931431433,-0.02842057793222936,-0.08480638409877198,0.018796062124596863,-0.1142520846682742,-0.09594176085972322,0.16739143199218406
351,9.391708199997083,0.06903592493358404,0.03283361829563289,-0.05704645494245164,0.06275514072717708,0.03707636775813597,-0.06144752148672618,-0.02888013117828064,-0.08518942061257596,0.01947137032360618,-0.11299857666357155,-0.09347402099888627,0.16654515693447233
352,9.395871000000623,0.06928949550057063,0.032982873140486584,-0.057294813930180016,0.06263741379577657,0.036731063337697406,-0.0613674093656289,-0.029334600403696724,-0.08556247641616253,0.02014321197769091,-0.11173809857173558,-0.09100641639226639,0.1656772881860259
353,9.400188899991916,0.06954258621600351,0.03313072838571396,-0.05754284341770581,0.06251785911928283,0.03638427031347868,-0.061284587147739274,-0.02978395789919302,-0.08592555297889685,0.020811500163158584,-0.11047088809618007,-0.08853940102401144,0.16478803299431313
354,9.40440819998912,0.06979518972956243,0.03327717809242837,-0.05779053247338262,0.06239649742662485,0.03603602904067435,-0.0611990693796244,-0.030228176917173437,-0.08627865359764288,0.02147614881311801,-0.10919718218066278,-0.08607342419751958,0.1638776059478889
355,9.407978799994453,0.07004729877498193,0.03342221648492862,-0.058037870225100104,0.062273349552971674,0.03568637985746891,-0.06111087095417862,-0.030667231664943184,-0.08662178337608945,0.022137072739639833,-0.10791721585458203,-0.08360892993284957,0.1629462260281231
356,9.412219399993774,0.07029890617047321,0.033565837950615435,-0.05828484586167744,0.062148436435884157,0.03533536307777423,-0.061020007107036846,-0.031101097296011106,-0.08695494920268833,0.022794187647128556,-0.10663122199679452,-0.08114635666456889,0.161994115533614
357,9.41633130000264,0.07055000481913047,0.03370803703987864,-0.05853144863424223,0.062021779111509544,0.034983018984055515,-0.06092649341294331,-0.03152974990139205,-0.08727815972753629,0.02344741014578291,-0.10533943241109966,-0.07868613678340285,0.16102150128590248
358,9.420556999990367,0.07080058770932202,0.0338488084659556,-0.05877766785759459,0.0618933987108036,0.03462938782025576,-0.060830345782056046,-0.031953166509608576,-0.0875914253366056,0.024096657774720642,-0.10404207960962537,-0.0762286962811609,0.16002861723943515
359,9.424863199994434,0.07105064791506605,0.03398814710476122,-0.059023492911556154,0.06176331645572517,0.03427450978483015,-0.06073158045612857,-0.03237132509241878,-0.08789475812575402,0.024741849036550353,-0.1027393972056428,-0.07377445509265454,0.1590157061193364
360,9.429140899999766,0.07130017859639097,0.03412604799468997,-0.059268913242303274,0.06163155365541199,0.033918425023880754,-0.06063021400453472,-0.0327842045679954,-0.08818817187772097,0.025382903433743886,-0.10143161931055675,-0.07132382739731387,0.15798301871445986
361,9.433349599989016,0.07154917299968026,0.03426250633639039,-0.05951391836368387,0.0614981317023495,0.033561173624376994,-0.06052626332015612,-0.03319178480177599,-0.08847168203857726,0.026019741497489795,-0.10011897982600002,-0.0688772213428121,0.15693081189727837
362,9.437464000002365,0.0717976244580018,0.034397517492512304,-0.05975849785851737,0.06136307206853982,0.033202795607480816,-0.06041974561517363,-0.033594046603915954,-0.08874530569248572,0.02665228480804904,-0.09880171147386943,-0.06643503883634964,0.15585934678799995
363,9.44100449999678,0.07204552639142169,0.034531076987427266,-0.06000264137987752,0.06122639630169113,0.03284333092197132,-0.06031067841679018,-0.03399097172229288,-0.08900906153646262,0.02728045600875835,-0.09748004479954131,-0.06399767545260614,0.15476888703746486
364,9.444889799997329,0.07229287230730283,0.03466318050692263,-0.060246338652357734,0.06108812602144325,0.032482819437774105,-0.060199079562908916,-0.03438254283189676,-0.08926296985439383,0.027904178812496634,-0.0961542075685345,-0.06156552034157755,0.15365969712234945
365,9.449621599997045,0.07253965580058822,0.03479382389786967,-0.060489579473318913,0.060948282915642846,0.032121300939596045,-0.060084967197803756,-0.034768743522954074,-0.08950705249105068,0.02852337800189859,-0.09482442550113808,-0.059138955927069393,0.15253204276502555
366,9.453180299999076,0.0727858705540693,0.034923003167866125,-0.06073235371411981,0.06080688873666504,0.03175881512066483,-0.0599683597677958,-0.03514955829626026,-0.08974133282366728,0.02913797943921727,-0.09349092439643543,-0.05671835760566346,0.15138619434210177
367,9.458395499998003,0.07303151033863962,0.0350507144848537,-0.060974651321329856,0.06066396529772641,0.03139540157659365,-0.05984927601684409,-0.03552497256848458,-0.08996583573352147,0.029747910094108692,-0.09215393167951501,-0.05430409387753332,0.150222429572652
368,9.462483600000269,0.0732765690135333,0.035176954176710996,-0.061216462317923874,0.06051953446916368,0.03103109979935061,-0.05972773498199731,-0.035894972680017706,-0.09018058757857023,0.030353098075238928,-0.09081367718753319,-0.05189652633308945,0.14904103374071276
369,9.46684500000265,0.07352104052654855,0.0353017187308222,-0.06145777680445811,0.06037361817468322,0.030665949171344756,-0.05960375598872886,-0.03625954590663485,-0.09038561616492255,0.03095347265986846,-0.08947039345870522,-0.04949600974528453,0.14784229910541963
370,9.470947900001192,0.0737649189142559,0.035425004793622185,-0.0616985849602272,0.060226238387545414,0.030299988959626233,-0.05947735864614925,-0.03661868046968093,-0.09058095072022157,0.03154896432068799,-0.08812431468312552,-0.047102892147893094,0.14662652360291742
371,9.475073599998725,0.07400819830219081,0.03554680917011832,-0.061938877044401486,0.06007741712673178,0.02993325831018764,-0.05934856284212414,-0.03697236553924713,-0.09076662186575062,0.032139504744902785,-0.08677567575857918,-0.04471751459922291,0.1453940093387133
372,9.479245900001844,0.07425087290503085,0.035667128823389446,-0.062178643397144504,0.059927176453103616,0.029565796242389798,-0.05921738873833232,-0.03732059123671873,-0.090942661587904,0.03272502684887346,-0.08542471200335336,-0.04234021135316997,0.14414506190629015
373,9.482780999998797,0.07449293702675729,0.035785960874062585,-0.062417874440710314,0.059775538465548554,0.029197641643493876,-0.059083856765265334,-0.0376633486356286,-0.09110910321167673,0.033305464791688735,-0.08407165839424277,-0.03997131001666307,0.14287998927163695
374,9.487303799993242,0.0747343850608011,0.03590330259976771,-0.06265656068052053,0.059622525297132266,0.028828833263301597,-0.0589479876171757,-0.038000629758041436,-0.09126598137340884,0.03388075398078338,-0.0827167489111453,-0.03761113162755913,0.1415991004102601
375,9.4923068999924,0.07497521149017342,0.03601915143457111,-0.0628946927062208,0.059468159111274274,0.028459409708907833,-0.058809802247031064,-0.03833242757010587,-0.09141333199490519,0.034450831074486044,-0.08136021732503616,-0.03525999048453173,0.14030270644841955
376,9.496042099999611,0.0752154108875806,0.03613350496838767,-0.06313226119271705,0.05931246209793564,0.028089409439550142,-0.058669321861441824,-0.03865873598481239,-0.09155119225480375,0.03501563399686845,-0.08000229903204294,-0.032918193164223196,0.1389911235599604
377,9.50019859999884,0.07545497791552386,0.036246360946372624,-0.06336925690119086,0.05915545646977247,0.027718870761592965,-0.05852656791549517,-0.03897954987238096,-0.0916796005547454,0.0355751019637251,-0.07864323210337144,-0.03058603803552515,0.13766467430343193
378,9.504199299990432,0.0756939073263832,0.036357717268293246,-0.06360567068009397,0.058997164458239576,0.02734783182365081,-0.05838156210747255,-0.03929486507151157,-0.09179859648681332,0.036129175508238104,-0.07728325639340093,-0.028263815495659598,0.1363236862726654
379,9.507988500001376,0.07593219396248554,0.03646757198788113,-0.06384149346612097,0.05883760830965296,0.02697633061183582,-0.058234326373476135,-0.0396046783925574,-0.09190822080161236,0.03667779649604174,-0.07592261154599662,-0.025951808180308553,0.13496848957833749
380,9.512342399990304,0.07616983275615682,0.03657592331216548,-0.06407671628516026,0.058676810281267845,0.026604404945139163,-0.05808488288202442,-0.039908987612648855,-0.09200851537740816,0.037220908130516164,-0.07456153657644661,-0.02365029142230287,0.13359941551107368
381,9.516474999996715,0.07640681872975835,0.036682769600788,-0.06431133025322305,0.058514792637380575,0.02623209247092822,-0.05793325402863587,-0.040207791475485095,-0.09209952319191676,0.037758454957038036,-0.0732002712078368,-0.021359533435038745,0.13221679782701257
382,9.521148899992111,0.07664314699570743,0.03678810936529979,-0.06454532657735053,0.058351577645408326,0.02585943066055616,-0.05777946243039012,-0.04050108969726775,-0.09218128829292735,0.03829038287867294,-0.0718390569986029,-0.019079794827283354,0.13082097497534634
383,9.524986499993249,0.07687881275648197,0.0368919412684407,-0.06477869655649886,0.058187187571943036,0.02548645680509678,-0.057623530920384726,-0.04078888297561296,-0.0922538557661672,0.038816639178444114,-0.07047813860159342,-0.016811328459476343,0.12941229044012723
384,9.52925919998961,0.07711381130460919,0.03699426412340172,-0.0650114315824015,0.058021644678759005,0.02511320801121398,-0.05746548254211622,-0.04107117300566941,-0.09231727170476207,0.039337172537789684,-0.06911776418329453,-0.014554380033539508,0.12799109205866555
385,9.533242299992708,0.07734813802263797,0.03709507689307095,-0.06524352314040877,0.05785497121873646,0.024739721197143644,-0.05730534054378753,-0.04134796249242142,-0.09237158318187207,0.03985193305331805,-0.06775818379856692,-0.01230918845929118,0.12655773105061757
386,9.537579600000754,0.07758178838309455,0.03719437868926347,-0.0654749628103041,0.05768718943176963,0.02436603308878448,-0.05714312837255358,-0.0416192551536605,-0.0924168382231158,0.0403608722474116,-0.06639964855071318,-0.010075985934093262,0.12511256115269606
387,9.541730099997949,0.07781475794842178,0.0372921687719357,-0.06570574226709708,0.05751832154066628,0.023992180215902915,-0.05697886966874287,-0.04188505572549444,-0.09245308577985054,0.040863943077982946,-0.06504241038202066,-0.0078549983358312,0.12365593835704175
388,9.545129899997846,0.07804704237090167,0.037388446548384566,-0.06593585328179294,0.05734838974701124,0.0236181989084401,-0.05681258826002417,-0.042145369963624606,-0.0924803757047751,0.0413610999469624,-0.06368671974070068,-0.005646445812507494,0.12218821881349562
389,9.548721099999966,0.07827863739256115,0.037483211572431965,-0.06616528772213842,0.05717741622705557,0.023244125292914142,-0.0566443081555595,-0.04240020462998335,-0.0924987587299791,0.04185229869308611,-0.06233282277409734,-0.0034505435432831315,0.12070975507882764
390,9.552336199994896,0.07850953884506141,0.037576463543594875,-0.06639403755334398,0.05700542312768821,0.022869995288904644,-0.056474053540229094,-0.04264956747130777,-0.0925082864487018,0.042337496570044285,-0.06098096046393415,-0.0012675023543844716,0.11922089438669459
391,9.555979999990086,0.07873974264957108,0.03766820230624136,-0.06662209483878294,0.05683243256249844,0.02249584460560251,-0.05630184876896115,-0.0428934671987823,-0.09250901129836317,0.04281665222527539,-0.059631369937332195,0.0009024716873551164,0.11772197993300362
392,9.560042799988878,0.07896924481662365,0.037758427848732776,-0.0668494517406678,0.0566584666079122,0.022121708738431736,-0.05612771836112837,-0.04313191347721703,-0.09250098653903513,0.043289725688511436,-0.058284287639389344,0.003059178375795532,0.11621335386469164
393,9.563496799994027,0.07919804144595946,0.037847140302552436,-0.06707610052070408,0.056483547299342095,0.02174762296577335,-0.0559516869949703,-0.043364916930352625,-0.09248426622756437,0.043756678374747775,-0.05693995234921571,0.005202423876507011,0.11469536021665146
394,9.566770099991118,0.07942612872635198,0.03793433994142133,-0.06730203354072155,0.05630769662728079,0.02137362234579653,-0.05577377950196588,-0.04359248915443476,-0.09245890519191,0.044217473096544585,-0.055598605730346105,0.007332020727245368,0.11316834540943183
395,9.570198799992797,0.07965350293541815,0.038020027180401164,-0.06752724326328251,0.05613093653334122,0.020999741713390103,-0.05559402086115629,-0.04381464272797122,-0.09242495900526262,0.044672074071022486,-0.054260491045699064,0.009447787864147001,0.11163265691308108
396,9.574588099989342,0.07988016043941268,0.03810420257498525,-0.0677517222522671,0.055953288906271055,0.020626015677203027,-0.055412436193460896,-0.044031391214911876,-0.09238248396017008,0.045120446921356104,-0.05292585218740339,0.011549550529466478,0.1100886427746857
397,9.578066299989588,0.08010609769300614,0.03818686682017761,-0.06797546317343561,0.055774775577967214,0.020252478616785183,-0.05522905075598801,-0.044242749166558265,-0.09233153704340279,0.04556255867994805,-0.05159493331049613,0.013637140075325016,0.10853665185369135
398,9.581369099993026,0.080331311239047,0.03826802074956073,-0.0681984587949678,0.05559541831947485,0.019879164679831144,-0.055043889936325176,-0.04444873212178063,-0.0922721759116669,0.04599837779182596,-0.050267977940376886,0.015710393386728944,0.10697703348201197
399,9.585336299991468,0.0805557977083074,0.03834766533435238,-0.06842070198797899,0.05541523883700012,0.01950610777951744,-0.05485697924682246,-0.044649356601707865,-0.09220445887113682,0.04642787411506714,-0.04894522834285457,0.017769152488370115,0.10541013644040609
400,9.589567899995018,0.08077955381921287,0.03842580168245182,-0.06864218572701312,0.055234258767952134,0.019133341591911872,-0.05466834431887927,-0.044844640104848996,-0.09212844485634879,0.04685101891591573,-0.04762692602439951,0.019813264990222366,0.1038363082512057
401,9.59345790000225,0.08100257637755613,0.03850243103747567,-0.0688629030905127,0.05505249967699517,0.01876089955348151,-0.05447801089726718,-0.04503460110582956,-0.09204419340612907,0.04726778486348642,-0.04631331283254809,0.021842584244548567,0.10225589622707806
402,9.596921399992423,0.08122486227619492,0.03857755477778397,-0.06908284726126587,0.05486998305210086,0.018388814858696725,-0.054286004834459556,-0.045219259059414055,-0.09195176464121761,0.047678146033364774,-0.04500463142646152,0.023856969071211636,0.1006692481788219
403,9.600351599990972,0.08144640849473378,0.03865117441549665,-0.06930201152683053,0.05468673030056786,0.018017120457720158,-0.05409235208492528,-0.045398634403048546,-0.09185121924241804,0.048082077908036175,-0.04370112470232655,0.025856284006751842,0.09907671131421643
404,9.604324899992209,0.08166721209918971,0.03872329159550089,-0.06952038927993526,0.054502762745053446,0.017645849054187517,-0.053897078699454905,-0.04557274855623531,-0.09174261842620664,0.048479557371579204,-0.042403036211949637,0.02784039980209535,0.09747863252617227
405,9.608384199993452,0.0818872702416419,0.038793908094449686,-0.06973797401885747,0.05431810161959829,0.01727503310309384,-0.05370021081949729,-0.045741623926461375,-0.09162602391885646,0.04887056271242535,-0.04111061142054447,0.029809193579976457,0.0958753596517887
406,9.612739899996086,0.08210658015986518,0.03886302581975206,-0.06995475934777859,0.05413276806561008,0.016904704808783585,-0.05350177467146344,-0.04590528391874713,-0.09150149793077297,0.04925507362823663,-0.039824097813206207,0.03176254879608257,0.0942672409473897
407,9.616080499996317,0.08232513917694725,0.03893064680855538,-0.07017073897711615,0.05394678312781103,0.016534896123044488,-0.0533017965610237,-0.046063752942436136,-0.09136910313093244,0.04963307122441902,-0.038543743661199274,0.03370035505525684,0.09265462351597614
408,9.619483699992998,0.08254294470088945,0.03899677322672018,-0.07038590672383278,0.05376016775016663,0.01616563874330442,-0.05310030286742359,-0.04621705641076447,-0.09122890262270425,0.05000453800628001,-0.03726979637061089,0.03562250787504996,0.0910378521790339
409,9.624449999988428,0.08275999422419095,0.03906140736778787,-0.07060025651172236,0.0535729427718366,0.01579696411092082,-0.05289732003784446,-0.04636522073429314,-0.09108095992020193,0.05036945786841634,-0.03600250248255952,0.03752890932881371,0.08941726997487465
410,9.628729499992914,0.08297628532341678,0.03912455165194171,-0.07081378237167338,0.05338512892315678,0.015428903409568831,-0.05269287458180517,-0.04650827332047912,-0.09092533891890359,0.05072781609090254,-0.034742109534001045,0.0394194695270845,0.08779322009940385
411,9.633485199999996,0.08319181565874958,0.039186208624961506,-0.0710264784419098,0.05319674682159355,0.01506148756376838,-0.052486993065553524,-0.04664624258215943,-0.0907621038600203,0.05107959934437711,-0.03348886684527744,0.04129410693200917,0.08616604690164167
412,9.636862999992443,0.08340658297352489,0.03924638095717267,-0.07123833896820911,0.053007816967657106,0.014694747237560537,-0.052279702106426885,-0.046779157943492515,-0.09059131929857327,0.051424795694283695,-0.032243024130183325,0.0431527471775112,0.08453609465255338
413,9.640359299999544,0.0836205850937498,0.03930507144239019,-0.07144935830409747,0.052818359740807806,0.014328712833292814,-0.05207102836720926,-0.04690704983719942,-0.09041305007730562,0.051763394595998505,-0.031004830105936482,0.04499532224326271,0.08290370570906137
414,9.645327699996416,0.08383381992760512,0.03936228299685787,-0.0716595309110222,0.05262839539539175,0.013963414490506539,-0.05186099855053132,-0.047029949699261504,-0.09022736130144111,0.052095386884220586,-0.02977453312249615,0.04682177049409026,0.08126922064417096
415,9.652099300001282,0.08404628546493124,0.03941801865818331,-0.07186885135850161,0.05243794405659005,0.013598882084926328,-0.051649639393313324,-0.04714788997125205,-0.09003431831227726,0.052420764769151834,-0.02855238242161587,0.048632037269920006,0.07963297969067148
416,9.655615099996794,0.08425797977669748,0.03947228158426897,-0.07207731432425252,0.052247025716335535,0.013235145227561062,-0.05143697766119603,-0.047260904105218195,-0.08983398665717203,0.05273952183756503,-0.027338628320427227,0.050426075436372134,0.07799532268800345
417,9.65893189999042,0.08446890101445488,0.039525075052239865,-0.07228491459429505,0.05205566022922252,0.01287223326393613,-0.05122304014297499,-0.047369026567497516,-0.08962643205868331,0.05305165304855408,-0.02613352192202093,0.05220384508330893,0.076356588347521
418,9.662579199997708,0.08467904740977253,0.03957640245736843,-0.07249164706303513,0.05186386730839264,0.012510175273444028,-0.051007853645065826,-0.04747229284125891,-0.08941172038699406,0.05335715472865893,-0.024937314277307845,0.05396531292174236,0.07471711375542422
419,9.665958300000057,0.08488841727365706,0.03962626731199697,-0.07269750673332452,0.05167166652142409,0.01214900006879965,-0.05079144498597796,-0.047570739423539635,-0.08918991763393001,0.0536560245635951,-0.02375025554603679,0.055710451877221234,0.07307723327055216
420,9.66947139998956,0.08509700899595572,0.0396746732444581,-0.07290248871649861,0.051479077286241404,0.011788736195601055,-0.05057384099084678,-0.047664403820999846,-0.08896108988867384,0.05394826158446307,-0.022572594104253076,0.057439240473850586,0.0714372779212585
421,9.672761800000444,0.08530482104474278,0.03972162399799365,-0.07310658823239223,0.05128611886703904,0.011429411931981201,-0.05035506848601895,-0.047753324539740044,-0.08872530331676541,0.05423386615459931,-0.021404575339115516,0.0591516623751945,0.0697975748028202
422,9.676901699989685,0.08551185196568963,0.0397671234296723,-0.0733098006093336,0.051092810370273536,0.01107105528833857,-0.050135154293690906,-0.04783754107130713,-0.08848262413952951,0.05451283995091137,-0.020246442041925307,0.060847706659665074,0.06815844660539627
423,9.680464499993832,0.08571810038141876,0.03981117550930628,-0.07351212128411685,0.050899170740700266,0.01071369400715531,-0.04991412522664514,-0.047917093885690994,-0.08823311861084851,0.05478518594691068,-0.01909843584959764,0.06252736841070272,0.06652021295114324
424,9.683826899999984,0.08592356499084185,0.039853784318367565,-0.07371354580195334,0.05070521875742225,0.010357355562915746,-0.04969200808302596,-0.047992024428990324,-0.08797685299181623,0.055050908404863326,-0.01796079714073182,0.06419064895250719,0.06488319136395874
425,9.687991099999635,0.08612824456848173,0.03989495404890389,-0.07391406981640192,0.05051097302994583,0.010002067162129532,-0.04946882964113925,-0.04806237511556854,-0.08771389352560388,0.05531001286666687,-0.01683376380295592,0.06583755571901444,0.06324769656211342
426,9.691776399995431,0.08633213796377856,0.03993468900245514,-0.0741136890892782,0.050316451994292875,0.009647855743453473,-0.049244616654302055,-0.0481281893157489,-0.08744430641317368,0.05556250614027938,-0.015717571311089744,0.06746810246379993,0.06161404017021053
427,9.696004500001436,0.08653524410038042,0.03997299358897037,-0.07431239949054319,0.050121673909156006,0.009294747977911124,-0.049019395845752066,-0.048189511348602686,-0.08716815778644695,0.05580839628826638,-0.014612453252317978,0.06908230994170286,0.05998253142602391
428,9.70031580000068,0.08673756197541832,0.040009872325725934,-0.07451019699817132,0.04992665685206916,0.008942770269231648,-0.04879319390358987,-0.048246386473892316,-0.08688551367850425,0.0560476926199473,-0.013518641089797766,0.07068020617101639,0.05835347720744186
429,9.70430519999354,0.08693909065876582,0.04004532983624527,-0.0747070776979982,0.04973141871562795,0.008591948754310462,-0.04856603747575197,-0.0482988608829474,-0.08659643999463265,0.056280405680160385,-0.012436364608188253,0.07226182614532035,0.056727181350968076
430,9.708639299991772,0.08713982929228348,0.040079370849220766,-0.074903037783548,0.049535977203734066,0.008242309303782282,-0.04833795316504391,-0.04834698169421167,-0.08630100248485677,0.056506547235896674,-0.011365851914179024,0.07382721157100615,0.055103944362408216
431,9.71256819998962,0.08733977708904812,0.04011200019743815,-0.07509807355584099,0.049340349827851626,0.00789387752270397,-0.048108967524221405,-0.048390796944123286,-0.08599926671710915,0.05672613026272467,-0.010307328203733547,0.07537641064429323,0.053484062788296136
432,9.716822999995202,0.08753893333256699,0.0401432228167039,-0.07529218142318118,0.049144553903325346,0.007546678751344589,-0.047879107051133254,-0.04843035557269026,-0.08569129805156503,0.05693916892633991,-0.00926101557850882,0.07690947780241776,0.05186782895330817
433,9.72078760000295,0.08773729737597719,0.04017304374477602,-0.07548535790092456,0.048948606545753594,0.0072007380660758565,-0.04764839818395175,-0.04846570741288581,-0.08537716161582523,0.05714567856686568,-0.008227133518217303,0.07842647356618455,0.05025553177315589
434,9.724894999992102,0.08793486864123054,0.04020146812029864,-0.07567759961122812,0.048752524667392313,0.006856080280362939,-0.047416867296442566,-0.048496903180044654,-0.08505692228052451,0.057345675686977855,-0.007205898355455491,0.07992746435633964,0.048647456807507906
435,9.728890999991563,0.08813164661826396,0.04022850118174085,-0.07586890328277986,0.04855632497361386,0.0065127299458522,-0.047184540693291206,-0.04852399445701032,-0.08473064463599983,0.05753917793663371,-0.006197522201274616,0.08141252224449633,0.047043886128059265
436,9.732992099990952,0.08832763086415563,0.040254148266340044,-0.07605926575051002,0.048360023959431064,0.006170711353550726,-0.04695144460549643,-0.0485470336748406,-0.08439839296991333,0.05772620410012963,-0.005202212761820762,0.0828817246646676,0.04544509876448644
437,9.73770379999769,0.08852282100226724,0.040278414809050304,-0.0762486839552838,0.04816363790611213,0.005830048535095075,-0.046717605185801404,-0.048566074096471755,-0.08406023124625402,0.0579067740844371,-0.004220174281252977,0.08433515430845524,0.04385137057431564
438,9.7416627999919,0.08871721672137285,0.04030130634149605,-0.07643715494357566,0.04796718287783685,0.005490765264100656,-0.046483048504181446,-0.04858116980505097,-0.08371622308380851,0.05808090890520784,-0.0032516075950811954,0.08577289912506011,0.042262974189687726
439,9.745881599999848,0.08891081777477404,0.040322828490931294,-0.07662467586712551,0.04777067471840586,0.005152885057604619,-0.04624780054338839,-0.048592375688032034,-0.08336643173516263,0.058248630674679204,-0.0022967093173807563,0.08719505190157355,0.04068017938366631
440,9.750127999999677,0.08910362397940212,0.04034298697920498,-0.07681124398257702,0.04757412904802552,0.004816431177585089,-0.04601188719453617,-0.04859974741893335,-0.08301092006856713,0.05840996259064228,-0.0013556718139651658,0.08860170984352793,0.03910325312431853
441,9.753520699989169,0.08929563521490735,0.04036178762173252,-0.07699685665109804,0.04737756126016472,0.004481426632550741,-0.045775334252734425,-0.04860334144121659,-0.08264975055033207,0.05856492892478474,-0.0004286834381334275,0.08999297403742035,0.0375324592069307
442,9.757299799995964,0.08948685142273569,0.040379236326474006,-0.07718151133798361,0.04718098651847015,0.00414789417920244,-0.045538167412768345,-0.048603214951951634,-0.0822829852310401,0.058713555008684006,0.00048407209737185726,0.09136894871634144,0.03596805738776566
