,time,x,y,z,vx,vy,vz,ax,ay,az,jx,jy,jz
0,0.0037962999922456,0.0,0.0,0.0,-8.562139800562025e-05,-0.0005456357192412662,-3.8144090802696037e-05,-0.00029263641117139693,-0.0043659306787964085,0.0012985473047740076,0.008021359998165811,0.029455964511110037,-0.001900426071934565
1,0.0080023999908007,-4.024581181524709e-05,-2.5430463993272544e-05,7.050336491957328e-06,-0.0002158227916599756,-0.0013988488962805177,0.0002489050369368186,-0.0006777650075256158,-0.00782342753546553,0.0029851265614822464,0.008302205756693118,0.025892618436279984,0.0035740961217788714
2,0.012283899995964,-7.415938672181681e-05,-5.180401121690107e-05,9.216236285232192e-06,-0.0003456299721788025,-0.0022531641653720496,0.0005382044438635451,-0.001055427515215774,-0.01124180753599974,0.004667731894270717,0.008609754962236378,0.02255939062052257,0.008971704302598867
3,0.0176785999938147,-0.00014157870085933176,-0.00010228766148520735,1.7326418186622978e-05,-0.00047497491051147836,-0.003108209414874571,0.0008296824354739614,-0.0014253384222936182,-0.014618835213843346,0.0063455625870796365,0.008944014286661216,0.019460233356577115,0.014289012969739341
4,0.0219409999990602,-0.00017921975889347033,-0.00013064886640247277,1.6050378627069622e-05,-0.000603789655274916,-0.00396361111421816,0.0011232665972379398,-0.0017872172474035512,-0.017952297375366664,0.008017820756803061,0.009304963478808922,0.016598906236590532,0.019522695043629197
5,0.0261719999980414,-0.0002480955969117981,-0.00020761621555004397,3.766140464541785e-05,-0.0007320063873110487,-0.00481899459361153,0.0014188838542163885,-0.0021407888200171993,-0.02124000510700214,0.009683712037077173,0.009692555132652284,0.013978971211359336,0.024669485145128102
6,0.0304527999978745,-0.00024970042341427825,-0.00018079992456549517,4.294984759022175e-05,-0.0008595574741284301,-0.005673984324325443,0.0017164605310326555,-0.0024857835561518087,-0.02447979576235171,0.011342446258674478,0.010106714483701804,0.011603787838036051,0.029726182817018255
7,0.0347106999979587,-0.00028501638271803405,-0.00021354356270740632,4.106659095223203e-05,-0.00098637552416985,-0.006528204199254291,0.002015922412130242,-0.0028219377292474732,-0.027669534927027787,0.012993238125745725,0.01054733923412559,0.009476508722855595,0.03468965568388128
8,0.0382178999861935,-0.00028501638271803405,-0.00021354356270740632,4.106659095223203e-05,-0.0011123934408481066,-0.0073812778134581345,0.0023171948022492226,-0.0031489937358832403,-0.03080711835901379,0.014635307887156253,0.011014299407013352,0.0076000751652229165,0.03955684254653714
9,0.0428930999914882,-0.00029792420920914917,-0.00032595595374765985,3.3054361774372814e-05,-0.0012375444762924108,-0.008232828744388106,0.002620202587053702,-0.0034667003560176156,-0.03389047390235686,0.01626788200216935,0.011507437230181418,0.005977213009278756,0.04432475640729545
10,0.0475832999945851,-0.00043493051918257186,-0.0004120979114371007,-4.812017201040773e-05,-0.0013617622847482923,-0.009082480831499111,0.002924870293842664,-0.0037748130074449333,-0.03691756337203514,0.017890193799736043,0.012026567049881346,0.004610428708826551,0.048990487422348024
11,0.0512499999895226,-0.00043493051918257186,-0.0004120979114371007,-4.812017201040773e-05,-0.0014849809755743619,-0.009929858454955193,0.0032311221522767003,-0.004073093994165401,-0.03988638440787451,0.019501484130658654,0.012571475274739544,0.003502005611260313,0.05355120577771522
12,0.056178999991971,-0.0003887334017440215,-0.0004712048497186435,-2.6543789217750837e-05,-0.0016071351657798237,-0.01077458681313471,0.0035388821550533063,-0.004361312748373412,-0.042794972295425227,0.02110100201190424,0.013141920350219502,0.0026540004658812066,0.05800416448524771
13,0.0596447999996598,-0.0004942762782033267,-0.00047379507654836584,-9.685108485761655e-05,-0.0017281600320472625,-0.011616292198644818,0.0038480741184637414,-0.004639246065775899,-0.045641401751747246,0.022688005262354097,0.013737632763861776,0.002068240161729906,0.062346702095279316
14,0.0641812999965623,-0.0005231245020513297,-0.0005082359404067791,-0.00012697937464197097,-0.0018479913621859245,-0.012454602272557272,0.004158621742764826,-0.004906678333960101,-0.04842378867409408,0.024261761129286078,0.014358315081519784,0.0017463186997928848,0.06657624532262574
15,0.0677981999906478,-0.0005476053815618108,-0.0005718127987295928,-0.0001765821206662179,-0.001966565605961481,-0.013289146336580538,0.004470448672299533,-0.005163401753538092,-0.051140291849529174,0.025821546904898327,0.015003642014771817,0.001689594404163979,0.07069031158272743
16,0.0720111999980872,-0.0005744666553255211,-0.0006053312311002769,-0.0002075991118483567,-0.002083819925249097,-0.01411955560288652,0.0047834785553008295,-0.0054092165518037924,-0.05378911462355496,0.027366650532195756,0.015673260519651358,0.0018991873764582822,0.07468651143484317
17,0.0754473999986657,-0.0005744666553255211,-0.0006053312311002769,-0.0002075991118483567,-0.0021996922434575424,-0.01494546346131389,0.00509763510331387,-0.005643931188646909,-0.05636850652588388,0.028896371199573893,0.01636678992679931,0.002375977197484028,0.07856255092931319
18,0.0790502999880118,-0.0005744666553255211,-0.0006053312311002769,-0.0002075991118483567,-0.0023141212941730567,-0.01576650574367412,0.0054128421501724,-0.005867362554477327,-0.05887676485153248,0.030410019923449386,0.017083822103102636,0.0031206008798800784,0.08231623385602793
19,0.0824310999887529,-0.0004782908814804221,-0.0006671318653009707,-0.00018615375877898012,-0.0024270466689727305,-0.016582320984890733,0.005729023710465995,-0.006079336159922955,-0.06131223619547366,0.03190692011830177,0.017823921644844646,0.004133451075122343,0.08594546389135982
20,0.0864778999966802,-0.0006242235345994461,-0.0007340928339071287,-0.00032816594005223527,-0.002538408864358244,-0.01739255068070705,0.006046104037435673,-0.0062796863170737835,-0.06367331793913822,0.033386408153507054,0.01858662610235261,0.005414674537992336,0.08944824664093998
21,0.0904753999930108,-0.0006645703806760028,-0.0007800007709693589,-0.0003814103228161594,-0.0026481493277620027,-0.018196839541702616,0.00636400768023641,-0.006468256312054964,-0.0659584596871155,0.03484783389636074,0.019371446236088392,0.006964170851285596,0.09282269157579091
22,0.0944564999954309,-0.0007264149427610063,-0.0008288982384074985,-0.0004317995240942791,-0.00275621050257892,-0.01899483574336412,0.006682659540506123,-0.006644898568722142,-0.06816616465246328,0.036290561240705795,0.02017786630408768,0.008781591413217332,0.0960670138594588
23,0.0979763999930583,-0.0007543057484090697,-0.0008612088077252213,-0.0004701736612067821,-0.0028625358721783905,-0.019786191171962213,0.00700198492818183,-0.006809474803282901,-0.07029499098910047,0.03771396862059934,0.021005344380613338,0.01086633868965781,0.09917953606392381
24,0.1012789999949745,-0.0007837985253491028,-0.0008975229936341967,-0.0004956461942775855,-0.0029670700028523412,-0.020570561665991773,0.007321909616504992,-0.006961856169659109,-0.07234355306982121,0.03911744950847091,0.02185331270584799,0.013217565733001247,0.10215868977220564
25,0.1047576999990269,-0.0007837985253491028,-0.0008975229936341967,-0.0004956461942775855,-0.0030697585856566565,-0.0213476072529393,0.00764235989615925,-0.007101923395416119,-0.07431052270853533,0.04050041289724516,0.02272117806641087,0.015834175969139667,0.10500301706572367
26,0.1091948999965097,-0.0007205987719176026,-0.0009461625189162853,-0.00048588754411883533,-0.0031705484771046974,-0.02211699238114792,0.00796326262848515,-0.007229566908096236,-0.07619463032540919,0.04186228376592275,0.023608322206443783,0.01871482325367791,0.10771117189461497
27,0.1133398999954806,-0.0008480557417411339,-0.0009915481018101628,-0.0005634019223643539,-0.0032693877386731516,-0.02287838614655721,0.008284545297717874,-0.00734468695180547,-0.07799466605365118,0.04320250352813408,0.024514102268971126,0.021857912198188244,0.11028192132936075
28,0.1183411999954842,-0.0008858119159013727,-0.001030852674508078,-0.0005881130944307461,-0.0033662256750819795,-0.02363146251410228,0.008606136062195442,-0.007447193693914423,-0.07970948078675838,0.04452053046320224,0.025437851267198854,0.02526159876696314,0.11271414669222067
29,0.1219608999963384,-0.0008942874705138549,-0.0010788150223315447,-0.0006394938532079211,-0.0034610128713118064,-0.024375900533563814,0.008927963804486405,-0.00753700732174619,-0.08133798716511381,0.045815840129273686,0.026378878585377685,0.028923791144383676,0.11500684456712638
30,0.1261023999977624,-0.0009392131275085702,-0.001093447979323431,-0.0006408237277453548,-0.00355370122832372,-0.025111384549668467,0.009249958180387659,-0.0076140581291363535,-0.08287916050089873,0.047087925758098045,0.02733647050881669,0.032842150872678826,0.11715912768683821
31,0.1304022999975131,-0.0009660127996778037,-0.0011172766866915233,-0.000661890728989539,-0.003644243997448108,-0.02583760440624689,0.009572049666744646,-0.007678286592762518,-0.0843320396403597,0.04833629863106197,0.028309890782594393,0.03701409425950803,0.11917022569632339
32,0.1347905999864451,-0.0010065516617036843,-0.0011364855411805644,-0.0006858018222704053,-0.003732595813410868,-0.026554255644264564,0.009894169608048004,-0.007729643438153292,-0.0856957277625476,0.04956048843610566,0.02929838119847604,0.041436794054456855,0.12103948579147117
33,0.139095599995926,-0.0010399691214569742,-0.0011501013703182211,-0.0007073088945040097,-0.0038187127259670522,-0.027261039693549104,0.01021625026176243,-0.007768089695299199,-0.08696939311372417,0.050760043605175165,0.030301162209507727,0.046107181393193294,0.12276637323241713
34,0.1427578999864636,-0.0010526994418572709,-0.0011794113129496998,-0.0007588070800909444,-0.0039025522301137897,-0.027957664058046186,0.010538224842345335,-0.007793596743800722,-0.08815226967671039,0.0519345316318885,0.03131743357172045,0.051021948007691165,0.12435047173090653
35,0.1469236999982968,-0.0010763433793830003,-0.0011938660458499593,-0.0007980997721530204,-0.003984073294856107,-0.028643842494444835,0.010860027563914678,-0.007806146347501341,-0.0892436577745309,0.05308353936911798,0.03234637501234022,0.0561775487005873,0.12579148371128493
36,0.1502750999934505,-0.0010763433793830003,-0.0011938660458499593,-0.0007980997721530204,-0.004063236390501099,-0.029319295184021422,0.011181593681527428,-0.007805730678566299,-0.09024292460778949,0.054206673306216716,0.033387146923864304,0.06157020408140193,0.12708923044486367
37,0.1538660999940475,-0.0010763433793830003,-0.0011938660458499593,-0.0007980997721530204,-0.004140003514457766,-0.029983748897560995,0.01150285953103191,-0.007792352330980734,-0.09114950472529126,0.0553035598256428,0.03443889108332802,0.06719590356201675,0.12824365205756744
38,0.1578846999909728,-0.0010471195248280799,-0.0012126330677745933,-0.0008012198298931874,-0.004214338215521653,-0.030636937153223437,0.011823762567459312,-0.0077660243234536465,-0.09196290042750956,0.05637384543876026,0.03550073139605191,0.07305040860847323,0.12925480741093084
39,0.1613244999898597,-0.0010471195248280799,-0.0012126330677745933,-0.0008012198298931874,-0.004286205616625338,-0.031278600367231096,0.012144241401921604,-0.007726770091727063,-0.09268268210257695,0.05741719700062224,0.036571774663124744,0.07912925624582529,0.13012287385667007
40,0.1648286999989068,-0.0010471195248280799,-0.0012126330677745933,-0.0008012198298931874,-0.004355572436037691,-0.031908485997263876,0.012464235836985207,-0.007674623470302588,-0.09330848849456236,0.05843330190356754,0.037651111371844986,0.08542776281245629,0.1308481468652145
41,0.1682948999950895,-0.0011080212036453066,-0.0012783974675266037,-0.0008701242128034445,-0.004422407006996761,-0.03252634867845709,0.012783686900491769,-0.007609628663610378,-0.09384002690387835,0.05942186824948837,0.03873781650831126,0.0919410279599499,0.13143103952874152
42,0.1719216999917989,-0.0012252142562760456,-0.001355809355007513,-0.0009996370340356396,-0.004486679295763045,-0.03313195035190691,0.013102536877799501,-0.007531840206658346,-0.0942770733197442,0.06038262500065319,0.03983095039132093,0.09866393889428952,0.13187208193941377
43,0.1760214999958407,-0.0012426972086710625,-0.0013823439709771531,-0.0010329365976531257,-0.004548360918081788,-0.03372506038559758,0.01342072934242066,-0.007441322915212095,-0.09461947248471227,0.0613153221089953,0.0409295595267057,0.1055911748538512,0.13217192044367454
44,0.1804248999978881,-0.0012526484227652324,-0.0014051127117576747,-0.001060949986898439,-0.00460742515404495,-0.03430545568767438,0.01373820918503289,-0.007338151825568723,-0.09486713789134765,0.06221973062380381,0.04203267748120425,0.11271721181935168,0.13233131677361104
45,0.1844374999927822,-0.0012843643184799079,-0.0014317811521898356,-0.0010811083896962938,-0.004663846961345303,-0.034872920811995355,0.014054922640844262,-0.0072224121240001705,-0.09502005171123226,0.06309564277777986,0.04313932577494355,0.12003632745061607,0.13235114705654827
46,0.1886697999871103,-0.0012862501934732043,-0.001430549736260522,-0.0011337430201902392,-0.004717602986917129,-0.03542724805590505,0.014370817315293967,-0.007094199065954105,-0.09507826465654524,0.06394287205144758,0.044248514791573657,0.12754260624473862,0.13223240070418604
47,0.1927423999877646,-0.0013198424862972472,-0.001443213533011737,-0.0011661405521509937,-0.004768671576959859,-0.035968237550182705,0.014685842208072793,-0.00695361788511267,-0.09504189577455197,0.06476125321593507,0.045359244705074964,0.13522994490992746,0.13197617918274232
48,0.1969764999957988,-0.0013407694891599902,-0.001449044403262636,-0.0012106166723310752,-0.004817032785342925,-0.03649569734112689,0.014999947735449711,-0.006800783692421502,-0.09491113217541403,0.06555064235416688,0.046470506422232445,0.14309205794904728,0.13158369466571174
49,0.2011173999926541,-0.0013622888909402533,-0.001458586652854312,-0.0012520568504895942,-0.004862668380392015,-0.03700944346474861,0.015313085750892992,-0.006635821365213362,-0.09468622869381133,0.06631091686053586,0.047581282539748034,0.15112248344660703,0.13105626857099192
50,0.2051928999862866,-0.00138194528446251,-0.0014669623803440196,-0.001285272862910085,-0.0049055618500587865,-0.03750930001305399,0.015625209563976374,-0.006458865426562414,-0.0943675074849444,0.06704197541914744,0.048690548314940636,0.15931458905267948,0.13039532998427203
51,0.2094475999911083,-0.0013972583249419028,-0.0014721475876141351,-0.0013211160939335252,-0.0049456984054779786,-0.03799509919240761,0.015936273957563026,-0.006270059915016686,-0.09395535755556247,0.06774373796075545,0.04979727264896273,0.16766157815698837,0.1296024139707159
52,0.2128031999891391,-0.0013972583249419028,-0.0014721475876141351,-0.0013211160939335252,-0.004983064982917692,-0.03846668137397649,0.016246235203262172,-0.0060695582448675655,-0.09345023423073832,0.06841614559853358,0.05090041908144317,0.17615649624615762,0.12867915977710787
53,0.2172608999971998,-0.001340771337677181,-0.0014893033192997522,-0.0013291983816088894,-0.005017650244130486,-0.038923895136264396,0.016555051075155282,-0.005857523057126267,-0.09285265855718562,0.06905916054285152,0.05199894679544798,0.18479223743688333,0.1276273089267618
54,0.2208623999904375,-0.001340771337677181,-0.0014893033192997522,-0.0013291983816088894,-0.005049444575114769,-0.039366597299755404,0.016862680861791133,-0.005634126061388022,-0.09216321664398774,0.06967276599524826,0.05309181163163435,0.193561551177568,0.12644870320962337
55,0.2258673999895109,-0.0014172196178147585,-0.001519154166487785,-0.001413516270429658,-0.0050784400832976995,-0.039794652953694866,0.01716908537645102,-0.005399547868775272,-0.091382558941678,0.07025696602181986,0.05417796711045798,0.2024570491107408,0.12514528257012103
56,0.2302081999951042,-0.0014154418036135428,-0.0015360909272598704,-0.0014391380841939426,-0.0051046305931526,-0.040207935475045004,0.017474226965687543,-0.005153977816161431,-0.09051139946068197,0.07081178540626236,0.055256365461280876,0.2114712120883881,0.12371908289544262
57,0.2336163999862037,-0.0014154418036135428,-0.0015360909272598704,-0.0014391380841939426,-0.005128011640265638,-0.040606326539661425,0.017778069516142317,-0.004897613781886756,-0.08955051493020115,0.07133726948283385,0.05632595865721434,0.2205963973321245,0.12217223370703095
58,0.2371775999927194,-0.0014154418036135428,-0.0015360909272598704,-0.0014391380841939426,-0.005148580463868206,-0.04098971612574534,0.018080578459650075,-0.0046306619931875985,-0.08850074389868436,0.07183348394952281,0.057385699454521585,0.2298248457299556,0.12050695575820564
59,0.2417413999937707,-0.0013352408954704624,-0.0015490349050575644,-0.001422077167940839,-0.005166335997853128,-0.04135800250963495,0.018381720776638456,-0.004353336825569632,-0.0873629857770986,0.07230051466173187,0.0584345424353954,0.2391486892612128,0.11872555854092855
60,0.2466830999910598,-0.0014465340340806179,-0.0015608364366774907,-0.001500228964401803,-0.0051812788602944694,-0.04171109225400816,0.018681464997834962,-0.004065860594364746,-0.08613819982627442,0.07273846740680802,0.05947144505291881,0.24855995854108232,0.11683043770483524
61,0.2508872999896994,-0.001455324033662867,-0.0015568624222944902,-0.0015071249234267423,-0.00519341134149227,-0.042048900188577334,0.018979781204294565,-0.003768463338719961,-0.0848274040896624,0.07314746765977129,0.06049536867701089,0.25805059047600415,0.11482407239175556
62,0.2550223999860463,-0.0014698054218591277,-0.0015478569136349479,-0.0015143291592553032,-0.005202737390565095,-0.042371349383365,0.019276641025763316,-0.0034613825982751302,-0.08343167427289619,0.07352766032061508,0.061505279640154946,0.2676124360210808,0.11270902248904215
63,0.2592952999984845,-0.0015122175174614762,-0.0015423658077896528,-0.0015469784537885554,-0.005209262600614836,-0.042678371114657554,0.019572017637395182,-0.003144863182794177,-0.08195214257161519,0.07387920943357076,0.06250015028170444,0.2772372680305123,0.1104879258051169
64,0.2627245999901788,-0.0015122175174614762,-0.0015423658077896528,-0.0015469784537885554,-0.005212994192489676,-0.04296990482374146,0.019865885754841238,-0.0028191569350222287,-0.0803899964490555,0.07420229788874921,0.06347895998956045,0.28691678919196256,0.108163495170732
65,0.2664757999882567,-0.0015122175174614762,-0.0015423658077896528,-0.0015469784537885554,-0.005213940997172523,-0.04324589806853444,0.02015822162773207,-0.002484522487048247,-0.078746477364971,0.07449712710659072,0.0644406962380153,0.2966426400356614,0.10573851546952345
66,0.2707866999990074,-0.0014281940039701617,-0.0015416228525710275,-0.001502780287863995,-0.005212113436823608,-0.043506306468231476,0.02044900303157601,-0.002141225010459628,-0.07702287945749661,0.07476391670557223,0.06538435562055908,0.3064064070089588,0.10321584060151202
67,0.2758929999981774,-0.0015399821439309148,-0.001523823702663361,-0.0015414542032795538,-0.0052075235045073295,-0.04375109364109283,0.020738209258097367,-0.0017895359605817286,-0.07522054817961471,0.07500290415363839,0.06630894487644928,0.31619963060697526,0.10059839038327766
68,0.2801770999940345,-0.0015398665218338305,-0.0015223811414177078,-0.0015315445599108357,-0.005200184742634646,-0.043980231135508106,0.021025821104040804,-0.0014297328151013629,-0.07334087889193151,0.07521434440383953,0.0672134819098488,0.3260138135499268,0.09788914738859988
69,0.2844340999872656,-0.0015347678948810378,-0.0015283624685816675,-0.001525081192256382,-0.005190112220153589,-0.044193698354477305,0.021311820858469502,-0.001062098807378991,-0.07138531541351438,0.07539850951467574,0.0680969968003447,0.33584042899765887,0.09509115373341774
70,0.2886712999898009,-0.0015186126864549928,-0.0015258975918658916,-0.0014909374323456355,-0.005177322508521646,-0.04439148247365606,0.021596192288586415,-0.0006869226547595933,-0.06935534853258124,0.07555568825566145,0.06895853280366766,0.3456709287918833,0.09220750780901865
71,0.2927286999911302,-0.0015186126864549928,-0.0015258975918658916,-0.0014909374323456355,-0.0051618336564948995,-0.04457357835311874,0.021878920624109194,-0.00030449828219707435,-0.06725251447887241,0.07568618569864047,0.0697971473414419,0.3554967517165881,0.08924136096741651
72,0.2969001999881584,-0.0014967556166411166,-0.0015555112392360204,-0.001450820915024997,-0.005143665163769936,-0.04473998844299891,0.022159992540231,8.487545848852368e-05,-0.06507839335957104,0.0757903227953946,0.0706119129788073,0.36530933176707475,0.0861959141629249
73,0.3010289999947417,-0.0014928995644695959,-0.0015725080948986397,-0.0014281795690857387,-0.0051228379535155286,-0.04489072268317251,0.022439396139200877,0.0004808950733977051,-0.06283460756067233,0.0758684359421019,0.07140191838876808,0.37510010641808234,0.08307441455397048
74,0.3043971999868518,-0.0014928995644695959,-0.0015725080948986397,-0.0014281795690857387,-0.005099374343832097,-0.04502579839715445,0.022717120930558693,0.0008832527150552324,-0.06052282011573289,0.07592087653121246,0.07216626930213739,0.38486052488146943,0.0798801520692265
75,0.3081229999952484,-0.0014928995644695959,-0.0015725080948986397,-0.0014281795690857387,-0.005073298018177867,-0.04514524018038445,0.02299315781006075,0.0012916364743008398,-0.05814473304395961,0.0759480104913213,0.07290408944196121,0.39458205634395094,0.07661645594217449
76,0.312318199998117,-0.0014104957471379614,-0.0015608979271615766,-0.0013927386179235016,-0.005044633994801505,-0.04524907978308319,0.023267499037333658,0.0017057306752341992,-0.055702085659623604,0.0759502178156277,0.07361452144132392,0.4042561981754232,0.07328669121822619
77,0.3159313999931328,-0.0014104957471379614,-0.0015608979271615766,-0.0013927386179235016,-0.005013408595221806,-0.04533735598786431,0.023540138212295107,0.0021252161728791004,-0.05319665285480774,0.07592789207958145,0.0742967277434562,0.41387448409846,0.06989425523855525
78,0.3199154999892926,-0.0013713366949668006,-0.0015406548810984523,-0.0013579282737986131,-0.004979649411795768,-0.045410114482292346,0.023811070250381424,0.0025497706532299504,-0.050630243357517,0.07588143994832457,0.07494989148308613,0.42342849230962676,0.06644257410480123
79,0.3237804999953368,-0.0014508277379265582,-0.0015430667173530243,-0.0013503933973545385,-0.0049433852744170835,-0.04546740772658088,0.024080291356622676,0.0029790689353422725,-0.048004697967198307,0.07581128067454586,0.07557321734799588,0.432909853543334,0.06293509912881493
80,0.3272899000003235,-0.0014425696544423687,-0.0015394680551094107,-0.0013452210307387394,-0.004904646216387721,-0.04550929481662913,0.024347798998607284,0.003412783275127895,-0.04532188776973207,0.07571784558737212,0.0761659324197692,0.4423102590690382,0.05937530327161508
81,0.3305816999927629,-0.0014425696544423687,-0.0015394680551094107,-0.0013452210307387394,-0.00486346343950581,-0.045535841342598964,0.024613591878379033,0.0038505836705149724,-0.04258371233396969,0.07560157757292714,0.07672728699273897,0.45162146861269703,0.055766677575722796
82,0.3346215999918058,-0.0013738812579395863,-0.0015275554779395299,-0.0013351445602093619,-0.0048198692784135865,-0.04554711924323728,0.02487766990331026,0.004292138167632835,-0.039792097891901496,0.07546293054719491,0.07725655537017001,0.4608353181934934,0.05211272759503002
83,0.3397346999990986,-0.0014205159706141004,-0.001537971050311136,-0.0013124000452487627,-0.004773897164249557,-0.045543206656151795,0.025140034155995826,0.0047371131676819675,-0.036948995504546715,0.07530236892182833,0.07775303663673841,0.46994372786696753,0.04841696982634412
84,0.3432224999996833,-0.0014111480504416,-0.0015482984757421046,-0.0013032228679913692,-0.004725581587649493,-0.04552418776425099,0.025400686863213118,0.005185173734150131,-0.03405637921566117,0.0751203670635485,0.07821605540639676,0.47893870936582694,0.04468292814673068
85,0.3475885999941965,-0.0013977504270201004,-0.0015584651303113396,-0.001288140319860967,-0.004674958061141173,-0.04549015263856156,0.025659631363994143,0.005635983900036774,-0.031116244195360382,0.07491740874778287,0.07864496254474342,0.4878123736298496,0.04091413026075114
86,0.3512298999994527,-0.0013869117071205227,-0.00156559054748991,-0.0012707020502809117,-0.004622063080978106,-0.04544119707763864,0.02591687207685608,0.006089206974749455,-0.028130604875754875,0.07469398660719274,0.07903913586504405,0.4965569382164501,0.03711410416166157
87,0.3547091999935219,-0.0013869117071205227,-0.00156559054748991,-0.0012707020502809117,-0.004566934088457683,-0.04537742244378584,0.02617241446623759,0.006544505850337948,-0.025101493080690845,0.07445060157574165,0.07939798079708597,0.5051647345836399,0.03328637461060342
88,0.3589673999958904,-0.0013578873506570922,-0.0015866935285343024,-0.0012460766652854396,-0.004509609430769339,-0.04529893549630362,0.026426265008188482,0.007001543306734098,-0.022030956151683417,0.07418776232895717,0.07972093102807776,0.5136282152372896,0.029434459637776918
89,0.3624708999996073,-0.0013578873506570922,-0.0015866935285343024,-0.0012460766652854396,-0.004450128321418452,-0.04520584822198593,0.026678431155360744,0.007459982315668215,-0.018921055072120784,0.07390598472103879,0.08000744911483981,0.5219399607347871,0.025561867069541683
90,0.3657124999881489,-0.0013578873506570922,-0.0015866935285343024,-0.0012460766652854396,-0.004388530800271695,-0.045098277663085815,0.026928921301349308,0.00791948634293602,-0.015773862591806485,0.07360579121946322,0.0802570270665664,0.5300926865373762,0.021672091085339153
91,0.3696982999972533,-0.0012715396811236674,-0.0015873612422069598,-0.0012122668190292325,-0.0043248576932696185,-0.044976345742971525,0.02717774474443113,0.008379719648693653,-0.012591461353893236,0.07328771033773625,0.08046918689747416,0.5380792497036678,0.017768608808275944
92,0.3735623999964446,-0.001338089808951083,-0.0015889451109955509,-0.0012158926367426607,-0.004259150571852143,-0.04484017908969509,0.02742491165075164,0.008840347585462236,-0.009375942026245561,0.07295227606693797,0.08064348114868834,0.545892655417024,0.01385487693314798
93,0.3771287999988999,-0.0013432615451804126,-0.0015853993355317395,-0.0012098781349265356,-0.0041914517121425555,-0.0446899088576955,0.027670433017007577,0.009301036893527811,-0.006129401439249905,0.0726000273067044,0.08077949337875498,0.5535260633397405,0.009934328395620683
94,0.3805550999968545,-0.0013512587158613805,-0.0015812204548097393,-0.0012150143449937115,-0.004121804053935423,-0.04452567054785809,0.027914320632675422,0.009761455993427166,-0.0028539407320698667,0.0722315072962845,0.08087683862220496,0.5609727937871857,0.006010369086211759
95,0.3844363999960478,-0.0013545104392429749,-0.0015756522889378715,-0.0012165304999939121,-0.004050251159533587,-0.044347603826151875,0.028156587041834564,0.0102212752752151,0.0004483364906790869,0.07184726304630604,0.08093516381563419,0.5682263337152924,0.002086374612650078
96,0.3885263999982271,-0.0013590469434924368,-0.0015675464757723392,-0.001222568671504261,-0.003976837172479157,-0.04415585234106529,0.02839724550463448,0.010680167384214028,0.0037753259898867953,0.07144784477187836,0.0809541481908035,0.5752803425150398,-0.0018343128858929745
97,0.3928179999929853,-0.0013739481098062492,-0.0015620348063263222,-0.0012328450179005565,-0.0039016067762230712,-0.04395056354006014,0.028636309958455116,0.011137807502952502,0.007124924708616685,0.07103380532765369,0.08093350363430162,0.5821286576078194,-0.005748387869284615
98,0.3969788999966113,-0.0013779952100785265,-0.001557154656525664,-0.001230702844915644,-0.0038246051527774053,-0.043731888485262445,0.028873794978809517,0.011593873629005325,0.010495032572594416,0.07060569964546157,0.08087297501335423,0.5887652998358415,-0.009652584468294369
99,0.40095549999387,-0.0013799373757247084,-0.0015535391914222563,-0.0012391441842593788,-0.0037458779413941552,-0.04349998166860701,0.029109715740037522,0.012048046848454253,0.013883554272658397,0.07016408417512328,0.08077234046740259,0.5951844786420043,-0.013543679494599451
100,0.4051280999992741,-0.0013864597167464632,-0.0015491517238377718,-0.0012404308032921162,-0.0036654711973137548,-0.04325500082665104,0.029344087975839116,0.012500011604695117,0.017288401027347914,0.06970951632904462,0.0806314116651161,0.6013805970339209,-0.017418495385783533
101,0.409250400000019,-0.0013939659180735341,-0.0015441867634108683,-0.0012456829488752172,-0.0035834313506260987,-0.04299710675527021,0.029576927939695605,0.012949455962324078,0.02070749232384092,0.0692425539311766,0.08045003402654544,0.607348256327078,-0.021273903082276707
102,0.4135727999964729,-0.0014003756082378526,-0.0015331522542238918,-0.0012517713402533518,-0.003499805165286218,-0.042726463124448485,0.0298082523652264,0.01339607186584311,0.02413875763549176,0.06876375467092301,0.08022808691016392,0.6130822606623861,-0.025106824833283928
103,0.4180119999946328,-0.001410821391024158,-0.0015233601453040332,-0.0012601315037659882,-0.0034146396983261574,-0.04244323629337048,0.030038078426528704,0.013839555392932261,0.02758013811425923,0.06827367556256374,0.07996548376458802,0.6185776212936669,-0.028914236928851887
104,0.4219827999913832,-0.0014241631005484216,-0.001508421626165648,-0.0012678539062995157,-0.003327982259303949,-0.042147595126022175,0.03026642369854701,0.01427960700204412,0.031029588256357505,0.06777287241075163,0.07966217224480944,0.6238295606409192,-0.03269317235532985
105,0.4263937999930931,-0.0014410889523363908,-0.0014956598536625338,-0.0012764096216179056,-0.003239880370029851,-0.041839710807503004,0.030493306117518784,0.014715931774083901,0.03448507753950594,0.06726189928262799,0.07931813429281366,0.6288335161055055,-0.036440723371588664
106,0.4307639999897219,-0.0014535759034384203,-0.0014797494569508034,-0.0012924612002396187,-0.0031503817246092947,-0.0415197566612492,0.030718743941542233,0.015148239647946914,0.03794459203019926,0.06674130798709062,0.07893338618250251,0.633585143643703,-0.04015404400347331
107,0.4344590999971842,-0.00148497591401428,-0.0014444234523639636,-0.0013189380453707325,-0.003059534149841167,-0.041187907967364726,0.030942755711311335,0.015576245649693685,0.04140613595946636,0.06621164756173475,0.0785079785288808,0.6380803210953725,-0.043830352454078195
108,0.438803299999563,-0.0015171402306602872,-0.0014202086341067383,-0.0013427683533086894,-0.0029673855660092324,-0.04084434178225293,0.031165360211062563,0.01599967011515178,0.04486773326563499,0.06567346376797444,0.07804199626150941,0.6423151512648027,-0.04746693342755077
109,0.4428767999925185,-0.0015442695593761552,-0.00139586084536047,-0.0013593882520044223,-0.0028739839481036703,-0.04048923675973798,0.03138657642977716,0.01641823890574234,0.04832742910266923,0.06512729859483746,0.0775355585622695,0.6462859647510943,-0.05106114036424725
110,0.4469889999891165,-0.0015944468496670414,-0.001385868633488063,-0.0013939136940070273,-0.002779377287508782,-0.04012277297386143,0.03160642352268187,0.01683168361733837,0.05178329131269772,0.06457368977191309,0.07698881876752575,0.6499893225257686,-0.05461039758518478
111,0.4503472999931546,-0.0015944468496670414,-0.001385868633488063,-0.0013939136940070273,-0.0026836135541920122,-0.03974513174353505,0.03182492077309038,0.0172397417819713,0.05523341186140372,0.06401317029191698,0.07640196423481839,0.6534220182555981,-0.058112202343856695
112,0.4537979999877279,-0.0015944468496670414,-0.001385868633488063,-0.0013939136940070273,-0.002586740659428441,-0.0393564954592267,0.03204208755462669,0.01764215706221172,0.05867590823500196,0.06344626794332167,0.07577521617425585,0.6565810803689749,-0.06156412678360163
113,0.4570787999982713,-0.0015944468496670414,-0.001385868633488063,-0.0013939136940070273,-0.0024888064190939216,-0.03895704741185185,0.03225794329387068,0.018038679438059865,0.06210892479758222,0.06287350485348561,0.07510882944482197,0.6594637738644467,-0.06496381979884269
114,0.4614946999936364,-0.0015352724112519332,-0.0013697143937456092,-0.0013758359317087012,-0.002389858517559019,-0.03854697162403879,0.03247250743346545,0.01842906538619104,0.06553063410765608,0.06229539704269758,0.07440309231585225,0.6620676018603701,-0.06830900879863949
115,0.4650237999885576,-0.0015352724112519332,-0.0013697143937456092,-0.0013758359317087012,-0.0022899444722148513,-0.03812645268393023,0.03268579939572471,0.01881307805141128,0.0689392381928004,0.061712453989536786,0.07365832619397517,0.6643903068849459,-0.07159750137112438
116,0.4685155999904964,-0.0016370067245098194,-0.0013123777886327108,-0.001450938049238059,-0.0021891115986608705,-0.03769567558167927,0.0328978385467777,0.01919048741018829,0.07233296978134876,0.06112517820793248,0.07287488531585493,0.6664298719062186,-0.07482718684752276
117,0.4722047999966889,-0.0017676841185634248,-0.0012806918076700964,-0.0015384556014545526,-0.0020874069765835015,-0.037254825548792316,0.03310864416128783,0.019561070426132896,0.07571009349014117,0.06053406483628944,0.0720531564071122,0.6681845211019393,-0.07799603776458723
118,0.4761491999961436,-0.0018059820087035232,-0.0012435733125031744,-0.0015756680503880092,-0.00198487741635345,-0.03680408790046659,0.033318235387780545,0.01992461119731651,0.07906890696740161,0.059939601239028376,0.07119355830783852,0.66965272036951,-0.08110211122440547
119,0.4803633999981684,-0.0018340695432406788,-0.0012234641400910339,-0.0016039703848952983,-0.0018815694263683324,-0.036343647881064506,0.03352663121461414,0.02028090109532037,0.08240774198987331,0.05934226662087247,0.0702965415651589,0.670833177576539,-0.08414355015067358
120,0.4842856999894138,-0.001845632452549824,-0.001158156108043599,-0.0016108333875241249,-0.0017775291811661408,-0.03587369051286151,0.03373385043662658,0.020629738895922695,0.08572496551340279,0.05874253165419379,0.06936258799333585,0.6717248425528495,-0.087118584440657
121,0.4887964999943506,-0.0018554152650512566,-0.001146593332407391,-0.0016314148910396725,-0.0016728024903338377,-0.035394400448198325,0.03393991162248979,0.020970930901339915,0.089018980676225,0.058140858119715,0.06839221020194558,0.6723269068250899,-0.09002553201219322
122,0.4929895999957807,-0.0018671258346817184,-0.0011479721613550343,-0.001640598284176488,-0.0015674347682341984,-0.03490596182516314,0.03414483308280205,0.0213042910539487,0.09228822775426342,0.05753769856084324,0.06738595109269406,0.6726388030954048,-0.09286279974522228
123,0.4969894999958342,-0.0018750123882025713,-0.0011097979861324193,-0.0016403616045795111,-0.0014614710045728029,-0.03440855812692345,0.034348632838947644,0.021629641041425767,0.09553118506782053,0.05693349595189451,0.06634438332547674,0.6726602044659248,-0.09562888431746105
124,0.5011762999929488,-0.0018962998203918896,-0.0010931305928590282,-0.0016811640359483174,-0.0013549557358258709,-0.03390237204482164,0.034551328592751944,0.021946810393252886,0.09874636983909703,0.056328683380448226,0.06526810875432057,0.6723910234111348,-0.09832237293396787
125,0.5052808999898843,-0.0019157831654416817,-0.0010623233493011577,-0.0017347252328264683,-0.0012479330175484012,-0.03338758534534217,0.03475293769695878,0.022255636568544863,0.10193233900004088,0.055723683744053024,0.06415775783388179,0.6718314105004722,-0.1009419439504739
126,0.5093422999925679,-0.001962810887413407,-0.0010677866461177748,-0.0017990706286697637,-0.001140446397580827,-0.032864378741052545,0.03495347712655567,0.022555965035168605,0.10508768995008994,0.055118909461485496,0.06301398899720596,0.6709817528738006,-0.10348636739048817
127,0.5135632999881636,-0.0020016804221540453,-0.0010599351771327723,-0.0018593612932057656,-0.0010325388901711585,-0.03233293176561416,0.035152963450971256,0.02284764934013172,0.10821106126343433,0.05451476219874475,0.06183748800548901,0.6698426724726911,-0.1059545053563105
128,0.5170791999989888,-0.0020016804221540453,-0.0010599351771327723,-0.0018593612932057656,-0.000924252951028321,-0.031793422652952895,0.03535141280716786,0.023130551171229422,0.11130113334548766,0.053911632609946636,0.06062896727060997,0.6684150240307275,-0.1083453123342153
129,0.5205101999890758,-0.0020016804221540453,-0.0010599351771327723,-0.0018593612932057656,-0.0008156304533211303,-0.031246028220673485,0.03554884087365063,0.023404540409948594,0.11435662903831813,0.05330990009326235,0.05938916515123684,0.6666998928263209,-0.11065783539419455
130,0.5239721999969333,-0.0020016804221540453,-0.0010599351771327723,-0.0018593612932057656,-0.0007067126646360923,-0.030690923757795203,0.03574526284541329,0.023669495175638156,0.11737631417485292,0.052709932562027315,0.05811884522333575,0.6646985922017963,-0.11289121428477354
131,0.5273013999976683,-0.0020016804221540453,-0.0010599351771327723,-0.0018593612932057656,-0.0005975402249059519,-0.03012828291688063,0.035940693409839644,0.023925301860964764,0.12035899808173138,0.05211208623112761,0.056818795525942205,0.6624126608527665,-0.11504468142353609
132,0.5307505999953719,-0.0019695028036288585,-0.0010538667682827934,-0.0019073731846715848,-0.00048815312531965836,-0.029558277610622893,0.03613514672357837,0.02417185515868272,0.12330353403074389,0.051516705418751974,0.05548982778308055,0.6598438598920795,-0.11711756178411818
133,0.5346563999919454,-0.0021884152433869312,-0.0009972777136254337,-0.002059030352198358,-0.0003785906882231509,-0.028981077912950716,0.03632863639040731,0.024409058079756827,0.12620881963885447,0.05092412236357826,0.05413277660274339,0.6569941696928714,-0.11910927268054776
134,0.5386287000001175,-0.002225945702753036,-0.0009962351053345291,-0.0020840332131337545,-0.0002688915480191185,-0.028396851964704487,0.03652117544010229,0.02463682196288676,0.12907379721686538,0.05033465705744487,0.05274849865386745,0.6538657865155029,-0.12101932344992722
135,0.5421044999966398,-0.002225945702753036,-0.0009962351053345291,-0.0020840332131337545,-0.00015909363307263657,-0.027805765883930276,0.03671277630832393,0.024855066475490985,0.13189745406684275,0.04974861709353885,0.05133787182226612,0.6504611189233925,-0.12284731503457086
136,0.5466138999909163,-0.002287700187966895,-0.0010500157171549826,-0.002165289568015356,-4.923414862833139e-05,-0.02720798368083239,0.03690345081753435,0.02506371960621768,0.1346788227284808,0.049166297530113805,0.049901794346501424,0.6467827839929887,-0.12459293946482292
137,0.5511837999947602,-0.0023260329329274337,-0.0010321188214984123,-0.0021863951155948963,6.065043925650639e-05,-0.026603667177419202,0.037093210158954476,0.025262717649059425,0.13741698117464085,0.048587980769732066,0.04844118393469913,0.6428336033233473,-0.12625597924389304
138,0.5553402999939863,-0.0023617506718680865,-0.0010265332724514321,-0.002204466666773677,0.00017052441875966645,-0.025992975931870797,0.03728206487557148,0.025452005179157775,0.14011105295635953,0.04801393645400789,0.04695697686333038,0.6386165988509908,-0.12783630663615503
139,0.559450899992953,-0.002408207456881605,-0.0010064190644191362,-0.0022350145514948615,0.00028035284632064013,-0.02537606716765079,0.0374700248462041,0.025631535020392494,0.14276020729767777,0.047444421373810226,0.04545012705900186,0.6341349884759326,-0.12933388286046105
140,0.5637232999870321,-0.002478086576856253,-0.0009995041164712374,-0.0023004565788192245,0.00039010155964533936,-0.024753095707378842,0.03765709927063268,0.025801268204858955,0.1453636591406967,0.046879679394866036,0.04392160516431407,0.6293921815049481,-0.13074875719012619
141,0.5678505999967456,-0.002520337127954096,-0.000986219047911674,-0.0023048593221926517,0.000499737189689322,-0.024124213911474297,0.03784329665579928,0.025961173924345732,0.1479206691413219,0.046319941398687614,0.042372397588862305,0.6243917739183658,-0.13208106596134048
142,0.571270899992669,-0.002520337127954096,-0.000986219047911674,-0.0023048593221926517,0.000609227171621106,-0.02348957162157547,0.03802862480308179,0.026111229473932886,0.15043054361621055,0.04576542523873012,0.04080350554646968,0.619137543466829,-0.13333103149186246
143,0.574617299993406,-0.002520337127954096,-0.000986219047911674,-0.0023048593221926517,0.0007185397547683117,-0.022849316108733295,0.03821309079664483,0.02625142018783949,0.15289263444148854,0.045216335711668165,0.039215944079754456,0.6136334446046516,-0.1344989609119421
144,0.5797461999900406,-0.002610118670984061,-0.0009643493616201668,-0.002391356074602171,0.0008276440115505104,-0.022203592026372267,0.03839670099286871,0.026381739367656858,0.15530633890385628,0.04467286454366426,0.037610741073145715,0.6078836032665486,-0.1355852449095141
145,0.5842375999927754,-0.0026406110183978242,-0.0009721638484377219,-0.0023986058036746163,0.000936509845403779,-0.021552541368005967,0.0385794610108565,0.02650218820311155,0.1576710995047531,0.044135190391485335,0.03598893625547142,0.601892311494677,-0.13659035639179007
146,0.5883735999959754,-0.002667561328225979,-0.0009664402544065446,-0.0023860906948583627,0.0010451079977030547,-0.02089630342968869,0.03876137572401785,0.02661277568550986,0.15998640371829884,0.0436034788583079,0.03435158019325198,0.5956640219230606,-0.13751484906546307
147,0.591791299986653,-0.002667561328225979,-0.0009664402544065446,-0.0023860906948583627,0.0011534100536894725,-0.020235014777179264,0.03894244925272711,0.02671351851402252,0.16225178370377966,0.043077882524036305,0.032699733275839984,0.5892033421266054,-0.1383593559378186
148,0.5950562999933027,-0.002667561328225979,-0.0009664402544065446,-0.0023860906948583627,0.0012613884474109139,-0.019568809217787808,0.03912268495805189,0.0268044409949756,0.16446681597349264,0.04255854098994353,0.031034464693552664,0.5825150288420389,-0.13912458774112554
149,0.598906100000022,-0.00266737473105494,-0.0008994735630689001,-0.0024572519338010067,0.001369016465685035,-0.018897817776870645,0.03930208543654726,0.026885574934320138,0.16663112101680644,0.042045580937428585,0.029356851409947936,0.5756039820682133,-0.1398113312827562
150,0.602802099994733,-0.0027523523273505148,-0.0009424349384984198,-0.002451208039330457,0.0014762682510950536,-0.018222168678933497,0.0394806525161092,0.02695695952345961,0.1687443628813399,0.04153911620067044,0.02766797712939868,0.5684752390533261,-0.14042044772355405
151,0.6063594999868656,-0.0027982418604013968,-0.0009524738893015362,-0.0024652218126612383,0.001583118804029561,-0.017541987333297943,0.03965838725288029,0.027018641218620364,0.1708062487122017,0.04103924785294438,0.02596893126112151,0.5611339681766985,-0.14095287078703575
152,0.6098837999888929,-0.002836473157623002,-0.0009533773327199194,-0.0024860993041298865,0.0016895439837785926,-0.016857396324281085,0.03983528992919901,0.02707067361395582,0.172816528250276,0.04054606430635307,0.024260807880816655,0.55358546273284,-0.14140960490207782
153,0.6137276999943424,-0.002886083240187384,-0.0009540547690426308,-0.002498758221060159,0.0017955205086991157,-0.016168515405833535,0.040011360052583274,0.027113117308580948,0.17477499329057705,0.040059641424711086,0.022544704691074596,0.5458351346256032,-0.14179172328179818
154,0.6170959999872139,-0.002886083240187384,-0.0009540547690426308,-0.002498758221060159,0.001901025955463992,-0.015475461500576134,0.04018659635573718,0.02714603976773898,0.17668147710173437,0.03958004264930919,0.020821721981702845,0.5378885079802879,-0.14210036594139827
155,0.6206569999922067,-0.002886083240187384,-0.0009540547690426308,-0.002498758221060159,0.002006038757409361,-0.01477834870317111,0.04036099679756921,0.0271695151783073,0.1785358538077035,0.039107319137272084,0.019092961591122296,0.5297512126816121,-0.1423367376577845
156,0.6256501999887405,-0.0030457100410617413,-0.0009660839111127692,-0.0025376873210973807,0.0021105382019962274,-0.01407728828795908,0.04053455856520869,0.027183624298854167,0.1803380377328337,0.03864150991221183,0.017359525869977355,0.5214289778455095,-0.1425021058738357
157,0.6299203999951715,-0.00308678342523653,-0.0009743183115479456,-0.0025454314023969265,0.0022145044274028713,-0.013372388720788877,0.04070727807700672,0.027188454304462477,0.18208798271145535,0.038182642026867865,0.015622516648097438,0.5129276252327455,-0.14259779855022664
158,0.6333156999899074,-0.00308678342523653,-0.0009743183115479456,-0.0025454314023969265,0.0023179184182654726,-0.012663755674962994,0.04087915098650641,0.02718409862654095,0.18378568136318132,0.03773073073741348,0.013883034205939455,0.5042530626123694,-0.14262520196776002
159,0.6365307999949437,-0.00308678342523653,-0.0009743183115479456,-0.0025454314023969265,0.0024207620005851113,-0.011951492051217255,0.04105017218736683,0.02717065678784713,0.18543116433514467,0.03728577968909845,0.012142176251631763,0.4954112770830301,-0.14258575848319388
160,0.6406644999951823,-0.003073723142698348,-0.000920810724619647,-0.0025953437544224286,0.0025230178358200215,-0.011235698001649384,0.041220335819224144,0.027148234232950028,0.1870244995124225,0.03684778111288744,0.010401036904729386,0.48640832836018716,-0.14248096424158496
161,0.6445466999866767,-0.003188319914300372,-0.0009693368056340822,-0.0025767194658227644,0.002624669414182666,-0.010516470957507388,0.04138963527447229,0.02711694215436357,0.18856579119792094,0.03641671603274468,0.00866070568777854,0.47725034203724004,-0.14231236684819668
162,0.6488248999958159,-0.0032244801932076197,-0.000979776825745802,-0.0025843961256138597,0.002725701047161889,-0.009793905660745181,0.04155806320594486,0.02707689731458453,0.19005517926301974,0.0359925544832065,0.006922266526775342,0.46794350282858765,-0.14208156300304473
163,0.65327029999753,-0.003248832442833837,-0.0009887597491788972,-0.002592285420866311,0.0028260978592910134,-0.009068094199249413,0.04172561153547874,0.027028221864271784,0.19149283827029645,0.035575255736874783,0.0051867967615890735,0.45849404780259573,-0.14179019610117352
164,0.6570085999992443,-0.003298597272546962,-0.0009966709009244937,-0.0025859879980630676,0.002925845779183345,-0.00833912604563819,0.041892271463339674,0.026971043156805916,0.19287897656966993,0.035164768541456976,0.00345536616740482,0.4489082596124153,-0.14143995380177382
165,0.6605428999901051,-0.003342966515847132,-0.0010264392679281314,-0.002594507497339448,0.0030249315298571055,-0.007607088099529248,0.04205803347848849,0.026905493559470285,0.19421383536932185,0.034761031365970974,0.0017290359882234604,0.4391924597325508,-0.1410325655692646
166,0.6638642999896547,-0.0033819638671912186,-0.0010447403180888725,-0.0025934911799107927,0.0031233426183723384,-0.0068720647331721296,0.042222887369666465,0.02683171026149617,0.19549768778277177,0.03436397265572659,8.857983438898068e-06,0.4293530017090212,-0.14056980018946946
167,0.6688192999863531,-0.003414330185431559,-0.001060786006731474,-0.002586064591252137,0.003221067324802837,-0.0061341378403361,0.04238682223727751,0.026749835079216196,0.19673083785349607,0.03397351109568929,-0.0017041265115067827,0.4193962644308928,-0.1400534632640234
168,0.6722030999953859,-0.0034476621228988246,-0.001093629226895852,-0.0025861132566210696,0.003318094690566598,-0.005393386888342912,0.04254982650604418,0.026660014258571247,0.19791361955849285,0.03358955588182603,-0.003408887509409886,0.40932864543088515,-0.13948539468614643
169,0.6761769999866374,-0.0034598229591690137,-0.0011052600981793133,-0.002584471236341175,0.0034144145061387322,-0.0046498889731310545,0.042711887938414024,0.0265623982752169,0.199046395792205,0.03321200700002806,-0.005104407279574433,0.3991565542226684,-0.13886746610091633
170,0.6800965999864275,-0.0034983403469178,-0.0011161054398085243,-0.0025773053181935065,0.0035100172981711412,-0.0039037188772358127,0.04287299364869191,0.026457141632476037,0.20012955733222465,0.03284075551220085,-0.00678968123912778,0.3888864056823763,-0.13820157835316674
171,0.684409899986349,-0.0035374113916379845,-0.0011490553603280794,-0.002565605213313318,0.003604894316043631,-0.0031549491305673367,0.043033130117873575,0.026344402657384445,0.20116352178820837,0.03247568384910751,-0.008463718826469548,0.37852461348176347,-0.13748965892612527
172,0.6886287999950582,-0.0035696353570240404,-0.0011654657325974134,-0.0025695614614922088,0.00369903751787146,-0.0024036500738669063,0.043192283209154914,0.02622434329507607,0.20214873253543847,0.032116666109548636,-0.010125544355965433,0.3680775835803212,-0.13673365937389126
173,0.6925869999977294,-0.003627129448763111,-0.0012101176315361228,-0.0025517420570351484,0.0037924395559946274,-0.001649889924719804,0.04335043818409101,0.02609712890175436,0.2030856576344679,0.031763568365458426,-0.011774197853022894,0.3575517077835517,-0.1359355527508348
174,0.6968092999886721,-0.0036585779930371123,-0.001212795657188165,-0.0025771018106650694,0.0038850937619744324,-0.0008937348460015465,0.04350757971937868,0.025962928036495515,0.20397478873828923,0.03141624897249453,-0.013408735868712152,0.34695335737447025,-0.1350973310409777
175,0.701001699999324,-0.0036920255216859182,-0.001229061751181878,-0.0025778025001768927,0.003976994131123076,-0.00013524901663277913,0.043663691924235574,0.025821912252128338,0.20481663998846933,0.031074558885697198,-0.01502823227312321,0.33628887682527225,-0.13422100259039138
176,0.7045854999887524,-0.0036920255216859182,-0.001229061751181878,-0.0025778025001768927,0.004068135306592246,0.0006255052954831565,0.04381875835834874,0.025674255885434146,0.20561174690169032,0.03073834197979205,-0.016631779026677666,0.3255645775959583,-0.1333085895456173
177,0.7082670999952825,-0.0036920255216859182,-0.001229061751181878,-0.0025778025001768927,0.004158512563046792,0.0013884676584671111,0.04397276205036514,0.02552013584690872,0.2063606652481316,0.03040743537370981,-0.018218486928643054,0.31478673202656055,-0.13236212530108346
178,0.7122935999941546,-0.0036698575750163335,-0.0012031732159740525,-0.0025901127446774875,0.00424812178994974,0.0021535793995435663,0.04412568551689664,0.02535973141032644,0.2070639699231232,0.030081669758896413,-0.01978748634212724,0.3039615673294592,-0.1313836519584534
179,0.7156443999992916,-0.0036698575750163335,-0.0012031732159740525,-0.0025901127446774875,0.004336959474484986,0.0029207835263215147,0.044277510782011226,0.025193224002344698,0.2077222538134952,0.029760869730986773,-0.0213379278948609,0.29309525968811656,-0.13037521780080635
180,0.7196191999973962,-0.003754299890656411,-0.0012436257190409695,-0.0026006568494478127,0.004425022684144075,0.0036900246464063023,0.04442821939718225,0.025020796992384284,0.20833612666004012,0.029444854124416536,-0.022868983155107003,0.28219392846838476,-0.1293388747845043
181,0.7231253999925684,-0.003900143985953898,-0.0013152900125457932,-0.002549079867816453,0.00451230904900346,0.004461248885472422,0.04457779246166745,0.024842635483018877,0.2089062139174933,0.029133436349547237,-0.024379845282068074,0.27126363054836494,-0.12827667605155516
182,0.7266364999959478,-0.003933014543143547,-0.001332892739186299,-0.002546426341107708,0.004598816743718631,0.005234403803927552,0.044726210643289147,0.024658926101104033,0.209433155613427,0.028826424731882183,-0.025869729650194493,0.26031035477261266,-0.12719067346523413
183,0.7303960999997798,-0.003959665613231579,-0.0013469874377262468,-0.002552257968512133,0.0046845444692615035,0.006009438312298295,0.044873454199587,0.024469856789873005,0.20991760520743924,0.02852362285295261,-0.02733787444682992,0.24934001653629723,-0.1260829151716725
184,0.7344977999891853,-0.003979303573054238,-0.0013648137487837794,-0.00255654057965783,0.004769491434427318,0.006786302585468083,0.04501950299931484,0.024275616602223386,0.21036022845200492,0.02822482989245635,-0.02878354124266362,0.23835845250472792,-0.12495544319006927
185,0.738649599996279,-0.004008291827965574,-0.0013698964553480277,-0.0025400685780430244,0.004853657337137255,0.00756494797589751,0.04516433654425272,0.024076395495415005,0.21076170225633917,0.027929840971234403,-0.03020601553449336,0.22737141547345685,-0.12381029103412323
186,0.7420328999869525,-0.004008291827965574,-0.0013698964553480277,-0.0025400685780430244,0.004937042345562812,0.008345326925957089,0.04530793399130571,0.023872384127395743,0.21112271355460532,0.027638447494674433,-0.031604607259836784,0.2163845693739641,-0.12264948136722362
187,0.7464167999860365,-0.00395091959530327,-0.0013376571294322394,-0.0025552617860746226,0.005019647079097838,0.009127392879501957,0.04545027417486062,0.02366377365496782,0.21144395817978218,0.02735043749613432,-0.03297865128296404,0.20540348442972103,-0.12147502369387411
188,0.7506307999865385,-0.004047999013684827,-0.001376161802638045,-0.002540647430650217,0.005101472589203917,0.009911100192817405,0.045591335629371586,0.023450755534002943,0.2117261397444839,0.02706559597998376,-0.03432750785195938,0.19443363246721418,-0.1202889120897596
189,0.7552348999888636,-0.004075495237524745,-0.0013783490877419895,-0.0025449262925575544,0.005182520340154578,0.01069640404506342,0.04573109661214615,0.023233521321910297,0.2119699685300038,0.02678370526386678,-0.03565056302645503,0.18348038238629208,-0.11909312297279843
190,0.7595252999890363,-0.004109578347983595,-0.0013846087654584092,-0.002561147638661677,0.005262792189703583,0.011483260348345485,0.04586953512630332,0.023012262482556597,0.2121761603848302,0.026504545319793495,-0.036947229075716174,0.17254899579397487,-0.11788961291745394
191,0.7638796999963233,-0.004115545580015631,-0.0013703744386302983,-0.0025564258488594595,0.005342290369702229,0.012271625657537772,0.0460066289438758,0.022787170193832713,0.212345435633857,0.02622789411367535,-0.038216944846792035,0.16164462280563996,-0.11668031651450547
192,0.7677984999900218,-0.00415253283937983,-0.0013751221167281164,-0.0025617785505652802,0.005421017466690344,0.013061457079983744,0.046142355629028554,0.022558435158056278,0.2124785179994867,0.02595352794292413,-0.0394591761024836,0.15077229801726758,-0.1154671442784051
193,0.7719535999931395,-0.004180665961191802,-0.0013669429874503584,-0.0025657465787487744,0.0054989764024853055,0.013852712185197843,0.046276692561365705,0.022326247415394424,0.21257613353579655,0.02568122177174152,-0.04067341582891463,0.13993693665219825,-0.11425198060427046
194,0.7759064999991097,-0.004205182683625048,-0.0013697541461257265,-0.0025583981324404374,0.005576170414793093,0.014645348914690532,0.04640961695929808,0.022090796160485416,0.21263900957691065,0.025410749563732966,-0.04185918451252929,0.1291433308856189,-0.11303668177648607
195,0.7802617999986978,-0.004233956671882219,-0.0013702827975697056,-0.0025471116804010483,0.005652603037865,0.015439325492037354,0.04654110590344417,0.0218522695624326,0.21266787370069268,0.02514188461148707,-0.04301603038637554,0.1183961463497573,-0.11182307403080566
196,0.7844532999879448,-0.00425962739151165,-0.0013654416062743634,-0.002530295956855552,0.005728278083223251,0.01623460033331099,0.046671136360037474,0.02161085458833826,0.2126634527088433,0.024874399862769205,-0.04414352964556986,0.10769991882252405,-0.11061295167176709
197,0.7886047999927541,-0.004271781916484523,-0.001361377433766011,-0.0025205891098528483,0.005803199620478375,0.017031131957993467,0.04679968520431339,0.021366736830539256,0.2126264716244549,0.024608068242986246,-0.045241286631875245,0.09705905110210111,-0.10940807524714924
198,0.7921473999886075,-0.004271781916484523,-0.001361377433766011,-0.0025205891098528483,0.005877371958260734,0.017828878900483645,0.0469267292438496,0.02112010033770028,0.2125576527080451,0.02434266297358756,-0.046308933987359954,0.08647781006973183,-0.10821016978111607
199,0.7957418999867514,-0.004271781916484523,-0.001361377433766011,-0.0025205891098528483,0.0059507996252881395,0.018627799622313226,0.04705224524183391,0.020871127449914345,0.21245771449305625,0.024077957886076185,-0.0473461327771406,0.07596032394272419,-0.10702092306760685
200,0.8008104999898933,-0.004309320426947599,-0.0013379438073627663,-0.002470874312752303,0.006023487351591,0.019427852425182197,0.047176209940234144,0.020619998637954103,0.21232737084177472,0.023813727731312975,-0.04835257258124873,0.06551057971943365,-0.10584198402544474
201,0.8050941999972565,-0.004330360162331166,-0.0013398726087726581,-0.0024583666267018207,0.0060954400499159634,0.020228995364922606,0.04729860008284502,0.02036689234681123,0.2121673300225889,0.023549748483805668,-0.04932797155569572,0.055132420817747434,-0.1046749611165486
202,0.8095118999917759,-0.004341226451819829,-0.0013337388487007456,-0.0024339273816336823,0.006166662797328463,0.02103118616649702,0.04741939243818751,0.020111984843654798,0.21197829380946948,0.023285797640684405,-0.050272076462845844,0.04482954490834616,-0.10352142082854417
203,0.8137030999932904,-0.004354348000045679,-0.0013217211645464562,-0.002412090893214131,0.006237160817034027,0.021834382140135764,0.04753856382223675,0.019855450070332962,0.2117609566045203,0.023021654515074916,-0.051184662671242574,0.03460550194377364,-0.10238288622298143
204,0.8176886000001105,-0.004381893443410392,-0.0013001581841048646,-0.002392058472415742,0.006306939460437684,0.022638540098714275,0.04765609112095495,0.019597459500535663,0.21151600458441058,0.022757100523590586,-0.052065534125066884,0.024463692384100705,-0.1012608355502759
205,0.8217657999921357,-0.004406381079270974,-0.0012395906879396495,-0.0023506662410105847,0.006376004189460244,0.023443616276469435,0.04777195131260642,0.01933818200172939,0.21124411487146194,0.022491919467674582,-0.05291452328344088,0.01440736561972494,-0.10015670093240048
206,0.8261977999936789,-0.004403762426897997,-0.0012740467114945105,-0.002360307821748473,0.006444360559129665,0.024249566249150742,0.04788612148983193,0.019077783701968255,0.210945954730126,0.022225897808533727,-0.05373149102982334,0.0044396185916053,-0.09907186711426336
207,0.830344599991804,-0.004388470230901984,-0.0012591713418491843,-0.002313129402871161,0.006512014200465107,0.02505634485569969,0.04799857888146081,0.018816427861678902,0.21062218078954875,0.02195882493541635,-0.05451632655177724,-0.005436605391010998,-0.09800767028461584
208,0.8345291999867186,-0.004392215474710186,-0.0012058349278198368,-0.0022611780178459395,0.006578970803670641,0.025863906121547656,0.0481093008740395,0.018554274750509858,0.21027343829288084,0.02169049342699707,-0.05526894719142195,-0.015218517635552042,-0.09696539696724253
209,0.8379572999983793,-0.004392215474710186,-0.0012058349278198368,-0.0022611780178459395,0.006645236101655018,0.026672203183619778,0.0482182650330557,0.018291481529329134,0.20990036037395435,0.02142069930564262,-0.055989298266914844,-0.024903484854196127,-0.09594628298309457
210,0.8413418999989517,-0.004392215474710186,-0.0012058349278198368,-0.0022611780178459395,0.00671081585389324,0.02748118821712914,0.04832544912383776,0.01802820213744701,0.2095035673619055,0.02114924228434366,-0.056677352865338766,-0.034489029755714815,-0.09495151248393482
211,0.8445750999962911,-0.004392215474710186,-0.0012058349278198368,-0.0022611780178459395,0.006775715830645042,0.02829081236424275,0.04843083113210993,0.01776458718513407,0.20908366611428367,0.020875926006108894,-0.057333111607402634,-0.04397283144197459,-0.0939822170579733
212,0.8480468999914592,-0.004392215474710186,-0.0012058349278198368,-0.0022611780178459395,0.006839941797544728,0.02910102566469745,0.04853438928418464,0.017500783851497444,0.20864124937914744,0.020600558275629136,-0.05795660238439257,-0.05335272561021818,-0.09303947490787938
213,0.8513609999936307,-0.004316454772392598,-0.0011635320906498753,-0.0022305413729646942,0.006903499500576158,0.029911776988440802,0.04863610206677352,0.017236935787771263,0.20817689518660817,0.02032295128303018,-0.058547880067840945,-0.06262670456247431,-0.09212431010146706
214,0.8555831999983639,-0.004402811637087182,-0.0011187092654547821,-0.0020368174147706946,0.006966394651446054,0.030723013970368612,0.04873594824639959,0.01697318302607044,0.20769116627024073,0.020042921819544923,-0.05910702619240923,-0.07179291702366915,-0.09123769189525835
215,0.8593683999934001,-0.004415813731289994,-0.0010606083218708245,-0.001989752315483217,0.007028632913368069,0.03153468294722773,0.0488339068883939,0.016709661893649974,0.20718460951874007,0.01976029148494674,-0.05963414861250881,-0.08084966777023346,-0.09038053413104097
216,0.8635139999969397,-0.004413652714301021,-0.001042924282683502,-0.0019546926248441435,0.00709021988726941,0.032346728896749444,0.048929957375460596,0.01644650493270514,0.20665775545816087,0.019474886886597785,-0.060129381133211014,-0.08979541707121695,-0.08955369470544719
217,0.8669261999893934,-0.004413652714301021,-0.001042924282683502,-0.0019546926248441435,0.007151161098431153,0.03315909537907515,0.04902407942579505,0.016183840825740828,0.20611111776503707,0.019186539829977388,-0.06059288311602403,-0.09862877994413465,-0.08875797511249195
218,0.8704921999888029,-0.004413652714301021,-0.001042924282683502,-0.0019546926248441435,0.007211461983572668,0.03397172448053293,0.04911625311074064,0.015921794326531485,0.2055451928106388,0.018895087500567474,-0.06102483906014041,-0.1073485252279793,-0.08799412005892072
219,0.8738603999954648,-0.004413652714301021,-0.001042924282683502,-0.0019546926248441435,0.007271127878389933,0.034784556759820055,0.0492064588719699,0.015660486196686533,0.20496045923658346,0.018600372636983695,-0.061425458159783654,-0.11595357447603766,-0.08726281715213123
220,0.8780508999916492,-0.004339950246405907,-0.0010140371468841418,-0.0019596289842516526,0.007330164005556747,0.0355975311966432,0.04929467753817692,0.015400033147829282,0.2043573775619775,0.018302243695252546,-0.06179497383830584,-0.12444300067134809,-0.08656469666034759
221,0.8814274999895133,-0.004339950246405907,-0.0010140371468841418,-0.0019596289842516526,0.007388575463197207,0.0364105851428644,0.04938089034126816,0.015140547789390595,0.20373638982222492,0.01800055500414646,-0.06213364325971151,-0.132816026767832,-0.08590033134464124
222,0.885221399992588,-0.004337355090724132,-0.0009342668415489534,-0.001837008231041663,0.00744636721383712,0.03722365427619762,0.04946507893203993,0.014882138582011897,0.20309791923959924,0.017695166911500474,-0.062441746818304895,-0.14107202406032202,-0.08527023636231004
223,0.8888178999914089,-0.004337355090724132,-0.0009342668415489534,-0.001837008231041663,0.007503544073841319,0.03803667255649726,0.049547225395331566,0.014624909796545585,0.2024423699256362,0.017385945921445628,-0.06271958760717877,-0.14921051038689367,-0.08467486924104604
224,0.8927941999863833,-0.004343920518232296,-0.0008857579567509415,-0.00176215371474762,0.0075601107033431625,0.03884957218467639,0.04962731226464406,0.014368961478634514,0.2017701266153656,0.017072764822505797,-0.0629674908662834,-0.15723114816708658,-0.08411462992324226
225,0.8968966999964323,-0.0044460613292430255,-0.0008603102636192697,-0.0016515665235748976,0.007616071596671751,0.03966228356428916,0.04970532253621429,0.01411438941884573,0.20108155443336234,0.016755502806516127,-0.0631858034108326,-0.16513374227977395,-0.08358986087970975
226,0.9009807999973418,-0.004448668490921903,-0.0008051143821896395,-0.0016045204350695285,0.007671431073281749,0.04047473526580815,0.049781239682536234,0.013861285128327435,0.2003769986915565,0.016434045578332446,-0.06337489304082256,-0.17291823778460674,-0.08310084729199935
227,0.9051805999915814,-0.004441501346477579,-0.0007224910371815172,-0.0016219899724676016,0.00772619326919001,0.041286853993624154,0.0498550476653209,0.01360973581995183,0.19965678471870693,0.016108285456312595,-0.06353514793245528,-0.1805847174911193,-0.0826478173024468
228,0.9086494999937712,-0.004441501346477579,-0.0007224910371815172,-0.0016219899724676016,0.007780362128922525,0.04209856455579202,0.04992673094788753,0.013359824394900624,0.19892121772140428,0.015778121463561674,-0.06366697601227583,-0.18813339937973797,-0.08223094233098706
229,0.912243499988108,-0.004441501346477579,-0.0007224910371815172,-0.0016219899724676016,0.007833941397974506,0.04290978983654302,0.04999627450697925,0.0131116294346439,0.1981705826764338,0.015443459409944162,-0.06377080431484657,-0.19556463387908293,-0.08185033745771132
230,0.9155989999999292,-0.0043394684313906515,-0.0006886032344488849,-0.0015293282900267142,0.007886934615785787,0.0437204507715808,0.050063663843997526,0.01286522519825727,0.1974051442542902,0.015104211964876902,-0.06384707832479636,-0.2028789010040962,-0.08150606187007145
231,0.919274799991399,-0.004443603916253822,-0.0006074067529680589,-0.0015134359945013635,0.007939345109233036,0.04453046632617484,0.050128884995650165,0.012620681625016516,0.19662514677360254,0.014760298720927613,-0.06389626130409452,-0.2100768073596652,-0.08119811937356854
232,0.9227012999908766,-0.004443603916253822,-0.0006074067529680589,-0.0015134359945013635,0.007991175986639629,0.045339753476061895,0.050191924544008566,0.012378064342203322,0.19583081418619278,0.014411646248254174,-0.06391883360541195,-0.21715908301453937,-0.08092645896469632
233,0.9262993999873288,-0.004443603916253822,-0.0006074067529680589,-0.0015134359945013635,0.008042430132303435,0.046148227191162704,0.05025276962597042,0.012137434678050233,0.19502235009245658,0.01405818813993043,-0.06391529197244214,-0.22412657825046023,-0.08069097546484698
234,0.929674699989846,-0.004443603916253822,-0.0006074067529680589,-0.0015134359945013635,0.008093110201542105,0.04695580042211772,0.05031140794212512,0.011898849679747775,0.1941999377867208,0.013699865048214467,-0.06388614882806444,-0.23098026019153964,-0.08049151021382529
235,0.9332305999996606,-0.004443603916253822,-0.0006074067529680589,-0.0015134359945013635,0.008143218616254878,0.047762384089642486,0.05036782776501951,0.011662362136431402,0.19336374033219966,0.0133366247118254,-0.06383193155123998,-0.2377212093190305,-0.08032785182155788
236,0.9374053999927128,-0.004371319475277811,-0.0005540469084768544,-0.0014140078221565435,0.008192757560999324,0.0485678870767002,0.0504220179468222,0.01142802060706102,0.19251390066514068,0.012968421974304478,-0.06375318174353883,-0.24435061587673532,-0.08019973697652871
237,0.941042299993569,-0.004462194094462264,-0.00038057103696594193,-0.0013379732720717214,0.008241728979580783,0.04937221622348561,0.050473967926386004,0.011195869453100993,0.19165054172771898,0.01259521879354608,-0.06365045448620264,-0.2508697761723918,-0.0801068513094168
238,0.9455045999930008,-0.004479077681350498,-0.00039234341733229954,-0.001305231703370748,0.008290134572151678,0.05017527632521115,0.050523667735708336,0.010965948875903735,0.19077376662920986,0.012216984242593628,-0.06352431758865183,-0.2572800887804623,-0.08004883031035982
239,0.951033199991798,-0.0044781740371247075,-0.00029679475732621353,-0.001236775543679703,0.008337975792817252,0.0509769701326833,0.05057110800579007,0.010738294958695533,0.1898836588349398,0.011833694501804711,-0.06337535082935082,-0.26358305065183313,-0.08002526029821817
240,0.9551485999982106,-0.0044771097544795,-0.00025642720335896594,-0.001185118571385779,0.008385253847743744,0.051777198355654135,0.05061627997189438,0.010512939713058934,0.18898028238248754,0.011445332842498627,-0.06320414518994749,-0.26978025313600135,-0.08003567944016657
241,0.9596224999986588,-0.004481486053592136,-0.0002485188754560002,-0.0011089687172756643,0.008431969693764424,0.052575859668930046,0.05065917547820734,0.010289911129801856,0.18806368212457977,0.011051889602208277,-0.0630113020836054,-0.2758733779213928,-0.08007957881989494
242,0.965616699992097,-0.004487074251450378,-0.0001673060203214004,-0.001149128344902614,0.008478124037478364,0.053372850721216496,0.05069978698190327,0.010069233234099594,0.18713388399809844,0.010653362151666906,-0.0627974325784477,-0.28186419289951076,-0.08015640355265871
243,0.969732399986242,-0.00448220169602933,-0.0001281895456052882,-0.0010894474117034213,0.008523717334836334,0.05416806614667478,0.050738107556617736,0.00985092614479202,0.18619089531859126,0.010249754853668384,-0.06256315661703153,-0.287754547958667,-0.08026555394537851
244,0.973188799995114,-0.00448220169602933,-0.0001281895456052882,-0.0010894474117034213,0.008568749791207673,0.05496139857916423,0.05077413089533232,0.009635006137714654,0.185234705099652,0.009841079013947622,-0.06230910223276981,-0.29354637071309075,-0.08040638669995293
245,0.9764332999911858,-0.004366092548777443,-8.125645554479666e-05,-0.0010327039078854797,0.00861322136192149,0.055752738669140454,0.05080785131267537,0.00942148571293879,0.18426528439651413,0.009427352824235428,-0.06203590476421521,-0.2992416621732441,-0.08057821615791269
246,0.9806963999872096,-0.004508583408085212,-1.8021713280399652e-06,-0.0010118298801181334,0.008657131753275085,0.05654197510317762,0.05083926374664383,0.009210373665792639,0.18328258667317965,0.00900860129764944,-0.06174420606811758,-0.3048424923632033,-0.08078031558451353
247,0.9842763999913586,-0.004508583408085212,-1.8021713280399652e-06,-0.0010118298801181334,0.008700480424001986,0.057328994626080126,0.05086836375975217,0.009001675161532328,0.182286548192384,0.008584856196589967,-0.061434653732161296,-0.31035099589098447,-0.08101191849033537
248,0.9876126999879488,-0.004508583408085212,-1.8021713280399652e-06,-0.0010118298801181334,0.008743266587191567,0.058113682065546665,0.050895147539614743,0.008795391813528673,0.18127708842767606,0.008156155953316436,-0.06110790028828362,-0.3157693674777051,-0.08127221998842954
249,0.99075989999983,-0.004508583408085212,-1.8021713280399652e-06,-0.0010118298801181334,0.008785489212651737,0.05889592035934738,0.05091961189896855,0.008591521764832997,0.18025411049687387,0.007722545583386724,-0.06076460242746775,-0.32109985745147995,-0.08156037818503098
250,0.994628799991915,-0.004412927928637649,0.00011960722904720786,-0.0008998843936447584,0.008827147029705835,0.05967559058497221,0.05094175427514379,0.008390059772982723,0.179217501616138,0.007284076592147869,-0.060405420216897154,-0.3263447672119463,-0.08187551560183175
251,0.998739899994689,-0.004535090753300888,0.0002800726086146004,-0.0009256044875574125,0.008868238530414324,0.0604525719917059,0.05096157272899023,0.008190997297905149,0.17816713357388775,0.006840806874472601,-0.06003101632034875,-0.3315064446713082,-0.08221672062779334
252,1.00288709999586,-0.004580226027511697,0.0003257379690452389,-0.0009947283759386128,0.008908761973211584,0.06122674203508331,0.05097906594326806,0.007994322592775717,0.17710286322376817,0.0063928006079417435,-0.05964205522269325,-0.33658727967777335,-0.08258304899845924
253,1.0062730999925409,-0.004580226027511697,0.0003257379690452389,-0.0009947283759386128,0.008948715386947702,0.06199797641367619,0.05099423322051175,0.007800020797685112,0.17602453299586143,0.005940128139677879,-0.059239202459360006,-0.3415896994272323,-0.0829735253007155
254,1.0102389999956358,-0.004513379397241079,0.00037809896358856826,-0.0008731529544056931,0.008988096575324773,0.06276614910816065,0.051007074480376224,0.007608074035967755,0.17493197142532302,0.0054828658670406484,-0.05882312385161218,-0.3465161638690013,-0.08338714450093651
255,1.0138267999864183,-0.004625874267011312,0.0004564226600147743,-0.0009881816082128133,0.009026903121716931,0.06353113242261306,0.05101759025647499,0.007418461513042762,0.17382499369760968,0.0050210961123988195,-0.05839448474846578,-0.3513691611114144,-0.08382287349444494
256,1.0177800999954345,-0.004655592345087623,0.0004276587595846102,-0.0009341787445636021,0.009065132394363015,0.0642927970279797,0.05102578169272066,0.007231159617617059,0.17270340220945593,0.00455490699219865,-0.057953949276071975,-0.35615120283300694,-0.084279652674209
257,1.0219165999878896,-0.004671608028671406,0.00047007203182227705,-0.000982030652463161,0.0091027815519204,0.06505101200766429,0.051031650539178665,0.007046142025099189,0.17156698714474478,0.004084392280552198,-0.05750217959536841,-0.3608648197049831,-0.08475639751669777
258,1.0259603999875253,-0.004687590766416201,0.0005020746714734075,-0.001003648053529802,0.009139847549368337,0.06580564490517496,0.05103519914744526,0.00686337980307139,0.17041552706440877,0.0036096512675729705,-0.057039835168789736,-0.36551255683060524,-0.08525200018281424
259,1.0301786999916658,-0.004706749894758582,0.0004851518543478701,-0.0009302277578913631,0.009176327144248852,0.06655656177377121,0.051036430465561146,0.00668284151866677,0.16924878950948866,0.0031307886126897273,-0.0565675720368118,-0.37009696920707913,-0.08576533113182855
260,1.0344672999926845,-0.004725844501965329,0.0005320287475156819,-0.0010006246343535784,0.009212216903233008,0.06730362722804967,0.05103534803247257,0.006504493347697844,0.16806653161647014,0.0026479141931723986,-0.05608604210508711,-0.37462061721544,-0.08629524074623765
261,1.0385979999991832,-0.004740564160013712,0.0005651124784209166,-0.001030775207481363,0.009247513209000052,0.06804670449740588,0.05103195597205193,0.006328299185382273,0.16686850074401285,0.002161142948106857,-0.05559589244291197,-0.3790860621438712,-0.08684056096548605
262,1.042289199991501,-0.004740564160013712,0.0005651124784209166,-0.001030775207481363,0.009282212267416875,0.06878565548130805,0.051026258986690165,0.006154220758511448,0.16565443511018152,0.0016705947180578045,-0.05509776459374731,-0.3834958617498021,-0.08740010692649099
263,1.0458049999870127,-0.004740564160013712,0.0005651124784209166,-0.001030775207481363,0.00931631011500487,0.06952034080631705,0.05101826235047377,0.005982217738907503,0.16442406443928612,0.0011763940806611996,-0.054592293898496215,-0.3878525658660474,-0.087972678608928
264,1.0492216999991797,-0.004740564160013712,0.0005651124784209166,-0.001030775207481363,0.009349802626681142,0.07025061988478633,0.05100797190195976,0.005812247858014551,0.16317711061743478,0.00067867018238949,-0.05408010883222136,-0.39215871205615477,-0.08855706248324749
265,1.0529315999883693,-0.004652391561739861,0.0006058864473120443,-0.0010189120999699649,0.009382685523760866,0.07097635097517406,0.05099539403656213,0.005644267022470238,0.16191328835590174,0.00017755656673446282,-0.0535618303549653,-0.396416821324033,-0.08915203315940932
266,1.0572749999992084,-0.004798275445469815,0.000635387599372989,-0.0010491432647826,0.00941495438220743,0.0716973912438997,0.050980535698563076,0.005478229430504248,0.16063230586141214,-0.00032680900094624624,-0.053038071277315295,-0.4006293938828271,-0.08975635503434111
267,1.0614934999903198,-0.004847701897025423,0.0006888060710216321,-0.0011175266726538948,0.009446604641116872,0.07241359682867513,0.050963404372762706,0.005314087689011169,0.15933386551244658,-0.0008342847116720181,-0.05250943564133334,-0.40479890498789856,-0.09036878393614776
268,1.0654367999959504,-0.004860466095968408,0.0007069083605129162,-0.0011301362118041583,0.009477631611423057,0.0731248229032407,0.05094400807578123,0.0051517929311459335,0.15801766454066968,-0.0013447248939239117,-0.05197651811744921,-0.4089278008386522,-0.0909880687631235
269,1.0687722000002395,-0.004860466095968408,0.0007069083605129162,-0.0011301362118041583,0.009508030484809932,0.07383092374343576,0.05092235534702771,0.00499129493429116,0.15668339571658924,-0.0018579801973232332,-0.051439903417891605,-0.4130184945538329,-0.09161295311564242
270,1.0721948999998858,-0.004764215432829058,0.0007551177401035455,-0.0011525274036567554,0.009537796342817166,0.07453175279453157,0.050898455239349674,0.004832542238246891,0.1553307480385567,-0.0023738977786561125,-0.05090016572720909,-0.4170733622247941,-0.09224217691903216
271,1.0764394999860087,-0.0048791017054480405,0.0007654539128377732,-0.0012147362310355905,0.009566924166125394,0.07522716273975406,0.05087231730937806,0.00467548226349462,0.15395940742422462,-0.002892321489996477,-0.05035786815040885,-0.4210947390511121,-0.09287447803556459
272,1.0804416999890236,-0.004890483216675669,0.000810957065057929,-0.0012348324252223245,0.009595408844007235,0.0759170055699236,0.05084395160758204,0.004520061429389064,0.15256905740358268,-0.003413092068680397,-0.04981356217921689,-0.4250849155627869,-0.09350859386372903
273,1.0845421999983955,-0.00490547042576788,0.0008684842698252321,-0.0012969399474342563,0.009623245183930195,0.07660113265413895,0.05081336866804872,0.004366225272132848,0.15115937981270045,-0.003936047328885658,-0.04926778717693906,-0.42904613393313346,-0.09414326292298703
274,1.0887325999938184,-0.004915414091246765,0.0008793502394630178,-0.0013046127008859768,0.009650427921297541,0.07727939481143273,0.05078057949800245,0.004213918562391117,0.14973005548731136,-0.004461022354571565,-0.04872106988237689,-0.43298058438632664,-0.09477722642224254
275,1.09225499999593,-0.004915414091246765,0.0008793502394630178,-0.0013046127008859768,0.009676951729313352,0.07795164238332507,0.05074559556707864,0.004063085422405073,0.14828076495538148,-0.004987849693535397,-0.048173923933226906,-0.4368904017034194,-0.09540922981029942
276,1.095851499994751,-0.004915414091246765,0.0008793502394630178,-0.0013046127008859768,0.009702811228957978,0.07861772530720179,0.050708428796366965,0.003913669442465585,0.14681118912781732,-0.005516359552343675,-0.04762684940936646,-0.4407776618305062,-0.09603802430661691
277,1.0995514999958689,-0.004915414091246765,0.0008793502394630178,-0.0013046127008859768,0.009728000999060208,0.07927749319044315,0.05066909154723874,0.0037656137966103433,0.1453210099864763,-0.00604637999189839,-0.04708033239640326,-0.44464437859255346,-0.09666236841071438
278,1.1030782999878284,-0.004915414091246765,0.0008793502394630178,-0.0013046127008859768,0.009752515586452406,0.07993079538522917,0.0506275966099734,0.003618861357410446,0.14380991126865345,-0.006577737123400521,-0.04653484456983946,-0.4484925005162646,-0.09728102938861892
279,1.1066833999939265,-0.004915414091246765,0.0008793502394630178,-0.0013046127008859768,0.009776349516194978,0.08057748106394774,0.050583957192199235,0.0034733548097148647,0.14227757914723277,-0.0071102553044757,-0.045990842800174826,-0.4523239077651886,-0.09789278473479306
280,1.1101295999978902,-0.004852750957301313,0.000880131774525638,-0.0013158320390764863,0.009799497301856622,0.08121739929513186,0.0505381869071632,0.0033290367632239407,0.14072370290570302,-0.0076437573352295726,-0.04544876877924651,-0.4561404091901244,-0.09849642360802528
281,1.1136303999956,-0.0050199737724503915,0.0009487392177061049,-0.001471070122445895,0.00982195345583691,0.0818503991198528,0.050490299761844826,0.00318584986376587,0.1391479756072526,-0.008178064654003428,-0.04490904866807633,-0.45994373949770795,-0.09909074823981298
282,1.1179417999956058,-0.005040092538320522,0.0009726938085408909,-0.0014963320407178665,0.00984371249971789,0.08247632962849634,0.050440310144928904,0.0030437369031530697,0.13755009475717175,-0.008712997532603921,-0.044372092766469626,-0.463735556539904,-0.09967457531381471
283,1.1218961999984458,-0.005080243334241292,0.0009901194510452016,-0.0015448835292109627,0.009864768974631576,0.08309504003784972,0.050388232814651795,0.002902640927498381,0.13592976295780657,-0.00924837527078413,-0.043838295204582364,-0.46751743872695894,-0.10024673731499889
284,1.1260333999962313,-0.005105175886746425,0.000978445352973756,-0.0015280391739371187,0.009885117451630286,0.08370637976842689,0.050334082886535944,0.002762505343874241,0.13428668855532483,-0.00978401638975686,-0.04330803365664615,-0.4712908825662034,-0.10080608384716593
285,1.1302055999985896,-0.005115822172418793,0.0009971367880684668,-0.0015535858556932605,0.009904752542047014,0.08431019852196096,0.0502778758210275,0.0026232740252012054,0.13262058627757162,-0.010319738824525032,-0.04278166907701331,-0.47505730032892335,-0.10135148291757214
286,1.1388019999867538,-0.005062110527036613,0.0010694174979594363,-0.0015933056460661111,0.00992366890783314,0.08490634635899326,0.050219627411051536,0.0024848914132555703,0.13093117786230882,-0.010855360114818061,-0.04225954545865716,-0.4788180178473483,-0.10188182218743588
287,1.1427675999875646,-0.005166265637599755,0.001056254699047384,-0.0016150105380135676,0.009941861271860928,0.08549467377648856,0.05015935376949918,0.0023473026196893076,0.12921819267515064,-0.011390697594427587,-0.04174198961423598,-0.48257427244363044,-0.10239601018716048
288,1.1470201999909475,-0.005185556832299956,0.0010612825021150223,-0.001643471916485803,0.00995932442817844,0.08607503178540701,0.050097071316660795,0.002210453524959043,0.12748136831652612,-0.0119255685787403,-0.04122931097980189,-0.48632721099251913,-0.10289297749516252
289,1.1510079999861773,-0.005226367929955275,0.0010080166061014844,-0.001641947226341659,0.00997605325220471,0.08664727198816397,0.05003279676761919,0.002074290875064466,0.12572045121701877,-0.01245979055027035,-0.04072180144120915,-0.49007788811925673,-0.10337167787924956
290,1.155253699995228,-0.0052213928188197785,0.0010445471744345545,-0.001697230305074468,0.009992042710853289,0.08721124665590994,0.04996654711961703,0.001938762376000267,0.12393519722045322,-0.012993181341998646,-0.04021973518324937,-0.4938272645340483,-0.10383108939954688
291,1.1594034999870928,-0.005238030698633257,0.0010572709009218759,-0.0017129450941666157,0.010007287872572513,0.0877668088055641,0.04989833963941213,0.001803816785829486,0.12212537215411993,-0.013525559318331439,-0.03972336856151461,-0.49757620550428,-0.10427021547202975
292,1.1636271999886958,-0.005255426626531311,0.0010683635045214942,-0.0017189814447358751,0.010021783917291117,0.08831381227653562,0.04982819185063408,0.0016694040042899852,0.12029075238555088,-0.01405674355349574,-0.039232939996962916,-0.5013254794654907,-0.1046880858917742
293,1.1680388999957358,-0.005289247357891908,0.0010899964755622764,-0.0017513322299649347,0.010035526146258055,0.08885211180706852,0.0497561215211555,0.0015354751598496876,0.11843112536527885,-0.01458655400719445,-0.03874866989313472,-0.5050757567719263,-0.10508375781509775
294,1.1719649999868125,-0.0052778918449428135,0.0011111389780121344,-0.0017780490028540985,0.010048509991765663,0.08938156311014624,0.04968214665049089,0.0014019826941301908,0.11654629015503445,-0.015114811697349547,-0.038270760575942385,-0.5088276085873349,-0.10545631669981878
295,1.176013699994655,-0.0052919387165788956,0.0011200454197864936,-0.0017942720056956783,0.010060731026745555,0.08990202294889388,0.04960628545723598,0.0012688804436223854,0.11463605794085792,-0.015641338869767474,-0.03779939625592967,-0.5125815059164808,-0.10580487720292184
296,1.1804105999908645,-0.00532123409485692,0.0011360122034692803,-0.0018407002600005678,0.010072184974226876,0.09041334921141662,0.049528556366560166,0.0011361237186217773,0.11270025253062434,-0.01616595916456649,-0.03733474301287232,-0.5163378187776868,-0.10612858403497462
297,1.1843809999991208,-0.005330105236552757,0.0011345855719753605,-0.0018519844583491998,0.010082867716646814,0.09091540098501397,0.04944897799776422,0.0010036693793153285,0.11073871083550517,-0.016688497779211785,-0.036876948802566215,-0.5200968155165416,-0.10642661277070076
298,1.1932467999868095,-0.005347855512881245,0.001154555394192784,-0.0019115316927006774,0.010092775305003628,0.09140803862971086,0.04936756915191522,0.0008714759089557755,0.10875128333491126,-0.017208781628010074,-0.036426143485624625,-0.5238586622607394,-0.1066981706151721
299,1.1970752999914112,-0.005360077366632578,0.001153395584396067,-0.0019225377191354025,0.010101903967842723,0.09189112385104835,0.04928434879957036,0.0007395034840635467,0.10673783452448679,-0.01772663949792138,-0.035982438878081585,-0.5276234225158464,-0.10694249712514295
300,1.2011873999872478,-0.005347366782941179,0.0011738779927297452,-0.0019519025456612013,0.010110250120066541,0.09236451977207785,0.04919933606860087,0.000607714041600607,0.10469824334674681,-0.018241902200551958,-0.035545928823575136,-0.5313910569016215,-0.10715886488510826
301,1.2052512999944156,-0.005351858519471269,0.0011954299775719956,-0.001998477842534968,0.010117810371559408,0.09282809100450447,0.04911255023212723,0.0004760713430647733,0.10263240360397505,-0.018754402720198463,-0.035116689286860445,-0.5351614230283498,-0.10734658013772676
302,1.209549999999581,-0.005361085634307543,0.0012001158298974672,-0.002010752717552851,0.010124581535618746,0.09328170371892575,0.04902401069657648,0.00034454103545727597,0.1005402243530227,-0.01926397635781993,-0.034694778468379754,-0.538934275512487,-0.10750498336830852
303,1.2128387999982806,-0.005361085634307543,0.0012001158298974672,-0.002010752717552851,0.010130560637184401,0.09372522571411461,0.0489337369898721,0.00021309070908058421,0.09842163028167344,-0.019770460870820405,-0.0342802369395939,-0.5427092661307482,-0.10763344984312487
304,1.216501499991864,-0.005361085634307543,0.0012001158298974672,-0.002010752717552851,0.01013574492085817,0.0941585264852965,0.048841748749766684,8.168995212775367e-05,0.0962765620662636,-0.02027369660853177,-0.03387308779875813,-0.5464859441116153,-0.10773139010135689
305,1.2228223999991314,-0.005382849773317178,0.0012633832584286145,-0.002127254454589667,0.010140131858705999,0.09458147729137223,0.04874806571232686,-4.968959797119782e-05,0.09410497671027085,-0.02077352664329267,-0.033473336846803495,-0.5502637565630772,-0.10779825040055625
306,1.2276377999951364,-0.005394182554665954,0.0012962066376606403,-0.0021703163872295855,0.010143719157835613,0.09499395122103897,0.048652707700580104,-0.0001810742064761427,0.09190684786360961,-0.021269796897026166,-0.03308097278296443,-0.5540420490352655,-0.10783351311554955
307,1.2328355999925409,-0.005407059240202489,0.001357567556841513,-0.002200141137739352,0.010146504767742705,0.09539582325776394,0.04855569461333265,-0.00031248799656295457,0.089682166122396,-0.021762356263225327,-0.03269596741977301,-0.5578200662164928,-0.10783669709077462
308,1.2420544999913543,-0.005414545886546566,0.0014174009251153139,-0.002256164954458215,0.01014848688741912,0.0957869703435671,0.048457046414167274,-0.0004439529078706978,0.08743093930896997,-0.02225105672426257,-0.032318275917020196,-0.5615969527610555,-0.10780735794609424
309,1.2467846999934409,-0.005425799658693022,0.0015040817756326636,-0.0022920001273291973,0.010149663972216888,0.09616727144157082,0.04835678312062955,-0.0005754886583875277,0.08515319273198681,-0.022735753463945328,-0.031947837034265784,-0.5653717542470115,-0.10774508833618723
310,1.251380199988489,-0.005431155384048836,0.001531140711695516,-0.002329489030144771,0.010150034740462261,0.09653660759727609,0.048254924793610744,-0.000707112709688771,0.08284896942641447,-0.023216304975247196,-0.03158457340146007,-0.569143418262005,-0.10764951816367244
311,1.2555861999862827,-0.005460377116931839,0.0015617481783041418,-0.002376254149907812,0.010149598179814326,0.09689486199852683,0.04815149152693492,-0.0008388402355365225,0.08051833037329839,-0.023692573163150314,-0.0312283918072228,-0.5729107956150719,-0.1075203147461752
312,1.2595469999941995,-0.00546757057443069,0.0015873703663267175,-0.0023855407690820092,0.010148353553363085,0.0972419200341253,0.048046503437157606,-0.0009706840938459979,0.07816135469917926,-0.024164423442541348,-0.030879183504307427,-0.5766726416722214,-0.10735718293759962
313,1.2651248999900415,-0.005459533623862942,0.0016395589623024918,-0.002413572843887605,0.010146300405462267,0.0975776693510637,0.04793998065358324,-0.0011026548020198258,0.07577813985507313,-0.024631724831110164,-0.030536824531762676,-0.5804276178134585,-0.10715986520392205
314,1.2688043999951333,-0.00546285253783443,0.001632841608955105,-0.002467638685808207,0.010143438567292492,0.09790199991033856,0.04783194330850772,-0.0012347605156474485,0.07336880177494783,-0.02509435003720684,-0.030201176053287586,-0.5841742930087847,-0.10692814165387297
315,1.2722061999957075,-0.005453382351578938,0.0016690519441318159,-0.002495428447658371,0.010139768162150774,0.09821480404131616,0.04772241152769282,-0.0013670070105628403,0.07093347501365334,-0.02555217554261909,-0.029872084711261526,-0.58791114551059,-0.10666183002492474
316,1.2764778999990083,-0.0054416983866042955,0.0017237151385380383,-0.002522668445086435,0.010135289610462674,0.09851597649461906,0.04761140542107836,-0.0014993976682498367,0.06847231286428777,-0.02600508168023876,-0.029549382995916026,-0.5916365646597311,-0.106360785625053
317,1.2803638999903342,-0.0054416983866042955,0.0017237151385380383,-0.002522668445086435,0.01013000363451376,0.09880541449350545,0.047498945073737454,-0.0016319334645805174,0.06598548745500364,-0.026452952706592557,-0.02923288962910195,-0.5953488528024697,-0.10602490123078699
318,1.2844458999898052,-0.005388844800587,0.0017534114645550742,-0.002524430079590208,0.010123911262897403,0.09908301778371503,0.04738505053707996,-0.0017646129618682786,0.06347318982528273,-0.02689567686921864,-0.028922409962092666,-0.5990462273153369,-0.10565410694211126
319,1.288625499990303,-0.005450178966385002,0.0018373667223608584,-0.0026361583416029577,0.010117013834676345,0.09934868868175659,0.047269741820308735,-0.001897432304213503,0.06093562998173064,-0.027333146468877086,-0.028617736386851795,-0.6027268227348782,-0.10524836999482748
320,1.2928351999871666,-0.005457117398106257,0.001869979585763906,-0.0026685213285481298,0.010109313003255757,0.09960233212161441,0.0471530388821329,-0.0020303852161160643,0.058373036933464316,-0.027765257916588616,-0.028318648760182804,-0.6063886929891344,-0.10480769453103052
321,1.2968656999873929,-0.005454905486321158,0.0019048798594201207,-0.002707646161813776,0.010100810739965842,0.09984385569985225,0.04703496162274224,-0.0021634630043253344,0.05578565870718795,-0.028191911785502146,-0.028024914840167305,-0.6100298137276088,-0.10433212132839727
322,1.301263099987409,-0.005453094487881374,0.0019430807836241237,-0.002757128715382891,0.010091509337352427,0.1000731697190956,0.046915529876046205,-0.0022966545628948444,0.05317376234207469,-0.02861301285759793,-0.027736290734289473,-0.6136480847463807,-0.10382172748902892
323,1.3059969999885652,-0.005447526622177352,0.001973339771637684,-0.0027873449457657975,0.01008141141217428,0.10029018722987437,0.04679476340218082,-0.002429946381405305,0.05053763386459328,-0.029028470165238934,-0.027452521358634702,-0.6172413325049334,-0.10327662608862802
324,1.3096631999942474,-0.005447526622177352,0.001973339771637684,-0.0027873449457657975,0.010070519908106293,0.10049482407080972,0.04667268188028608,-0.0025633225563163413,0.04787757824343984,-0.029438197027589062,-0.027173340907542406,-0.6208073127311852,-0.10269696578683184
325,1.3130144999886395,-0.005447526622177352,0.001973339771637684,-0.0027873449457657975,0.010058838098147999,0.10068699890713058,0.04654930490155626,-0.002696764805404018,0.04519391932475625,-0.029842111081922845,-0.026898473333085562,-0.6243437131111265,-0.10208293039956154
326,1.3167931999923894,-0.005447526622177352,0.001973339771637684,-0.0027873449457657975,0.01004636958673718,0.10086663326750699,0.046424651962565205,-0.0028302524852380434,0.04248699974783621,-0.03024013430985686,-0.02662763283374294,-0.6278481560593939,-0.10143473843428369
327,1.3216231999977026,-0.005404781758148682,0.002102541911823809,-0.0029369984820667486,0.01003311831156871,0.10103365157918866,0.04629874245886837,-0.0029637626116494602,0.03975718084153986,-0.030632193058538933,-0.026360524351624205,-0.6313182015670445,-0.1007526425891155
328,1.3258261999872047,-0.005392968558711367,0.0021444503577293522,-0.002989601950734402,0.01001908854511907,0.10118798120143929,0.04617159567888288,-0.0030972698831366343,0.03700484250165722,-0.03101821805683662,-0.026096844077603078,-0.6347513501227255,-0.10003692921673897
329,1.3292802999931157,-0.005392968558711367,0.0021444503577293522,-0.002989601950734402,0.010004284895877305,0.10132955245725925,0.04604323079804655,-0.0032307467071544427,0.03423038304947951,-0.03139814442657195,-0.025836279963709567,-0.6381450457033786,-0.09928791775412166
330,1.3326336999889463,-0.005392968558711367,0.0021444503577293522,-0.002989601950734402,0.009988712309283455,0.10145829866339062,0.04591366687325647,-0.0033641632292287452,0.031434219071855986,-0.031771911688854584,-0.025578512242128777,-0.641496678830559,-0.09850596011907269
331,1.3364153999864357,-0.005306469276364745,0.0021766308451873118,-0.0029848529344962387,0.009972376068375812,0.10157415615860024,0.045782922837587545,-0.003497487364835525,0.02861678524303165,-0.032139463765571044,-0.025323213950151195,-0.6448035896884045,-0.09769144007469234
332,1.340664499992272,-0.005366607134979059,0.0022996922584573717,-0.0030906528652352434,0.0099552817941487,0.10167706433023743,0.045651017495290755,-0.003630684833981494,0.025778534128578678,-0.03250074897609249,-0.025070051460417547,-0.6480630712992418,-0.09684477256280076
333,1.344050599989714,-0.005366607134979059,0.0022996922584573717,-0.0030906528652352434,0.009937435445622709,0.10176696563906548,0.045517969517070975,-0.003763719198420467,0.022919935971750915,-0.03285572002926848,-0.02481868501580021,-0.6512723727527834,-0.0959664030074569
334,1.3474532999971416,-0.0052747198573110995,0.0023481942317316756,-0.0030905517831023074,0.009918843319629547,0.1018438056423675,0.045383797435643344,-0.0038965519014374055,0.020041478462606847,-0.03320433401077873,-0.02456876926826301,-0.6544287024848248,-0.09505680658970374
335,1.351047899996047,-0.005340364429885548,0.0025084451993800556,-0.003183403781620871,0.009899512050313981,0.10190753301532866,0.04524851964156705,-0.004029142310129731,0.017143666490262364,-0.03354655236591941,-0.02431995382104149,-0.6575292316013289,-0.09411648749469823
336,1.3544765999977244,-0.005340364429885548,0.0025084451993800556,-0.003183403781620871,0.009879448608355575,0.10195809957069807,0.045112154379355326,-0.004161447760113369,0.014227021878649378,-0.03388234087790527,-0.024071883773486888,-0.6605710972437511,-0.09314597813240591
337,1.3579716999956872,-0.005340364429885548,0.0025084451993800556,-0.003183403781620871,0.009858660299913263,0.10199546027673509,0.044974719743859956,-0.004293423602578915,0.0112920831061709,-0.034211669641772684,-0.023824200267919354,-0.6635514059914431,-0.09214583833305932
338,1.3622398999868892,-0.005279638435309513,0.002555304049837289,-0.003179694561628638,0.00983715476529602,0.10201957327344613,0.044836233676928385,-0.004425023253621337,0.008339405009656995,-0.03453451303397357,-0.023576541037838586,-0.6664672372969649,-0.0911166545185978
339,1.3675968999887118,-0.005282446799443791,0.0027293815799168983,-0.003344101694508807,0.009814939977363114,0.10203039988711973,0.04469671396433126,-0.004556198245764802,0.00536955847303923,-0.03485084967775369,-0.02332854095684345,-0.6693156469501194,-0.09005903885132185
340,1.371730699989712,-0.005277990979273375,0.0027724484744461957,-0.0033813008527827856,0.009792024239657677,0.10202790464316852,0.044556178232957905,-0.004686898281602479,0.0023831301011737983,-0.03516066240441267,-0.023079832587616395,-0.6720936705665231,-0.08897362836101053
341,1.3759533999982525,-0.0052654221061957445,0.0028070688208423067,-0.003414720013743759,0.009768416184277642,0.10201205527728804,0.04441464394827685,-0.004817071289469585,-0.0006192781207444758,-0.03546393821054663,-0.022830046730333457,-0.6747983270965261,-0.08786108405176227
342,1.3799768999888329,-0.005254382836164088,0.002848335726717852,-0.003450198210310478,0.009744124769488254,0.10198282274494452,0.04427212841205854,-0.0049466634810664024,-0.0036370491817237236,-0.03576066821137777,-0.022578812969866347,-0.6774266223502987,-0.08672208998983173
343,1.384216499995091,-0.005240968922227399,0.0028795009067495766,-0.003490391477461308,0.009719159277080622,0.10194018122920458,0.04412864876035656,-0.005075619410946657,-0.006669551413008065,-0.03605084759027877,-0.022325760221149335,-0.679975552534916,-0.08555735237374375
344,1.3876034999993865,-0.005240968922227399,0.0028795009067495766,-0.003490391477461308,0.009693529309480912,0.1018841081469211,0.043984221961743515,-0.005203882037785321,-0.009716138869127902,-0.03633447554460285,-0.022070517272090737,-0.6824421077992829,-0.0843675985879735
345,1.3911826999974437,-0.005240968922227399,0.0028795009067495766,-0.003490391477461308,0.009667244786615068,0.10181458415329088,0.04383886481579763,-0.005331392787338821,-0.012776151721483905,-0.036611555227933586,-0.021812713323416385,-0.6848232757827638,-0.08315357624148859
346,1.394570999997086,-0.005240968922227399,0.0028795009067495766,-0.003490391477461308,0.009640315942534079,0.1017315931448006,0.04369259395183577,-0.005458091617009529,-0.01584891666397238,-0.03688209368887089,-0.02155197852484092,-0.6871160451634016,-0.0819160521924522
347,1.3986039999872446,-0.005140181719426943,0.0029032421964415036,-0.0034922240150895446,0.009612753321805015,0.10163512226057891,0.04354542582788838,-0.005583917081925527,-0.01893374733015169,-0.037146101806472445,-0.02128794450697155,-0.6893174092016456,-0.08065581156039026
348,1.4020947999961209,-0.005180131561512011,0.00299428506066868,-0.003643383347130452,0.009584567775673212,0.10152516188217323,0.0433973767299117,-0.005708806402445806,-0.022029944721441982,-0.03740359422247237,-0.021020244908358552,-0.6914243692755397,-0.079373656727126
349,1.405570599992643,-0.005174349499966205,0.003027530181051855,-0.0036901241243835355,0.009555770458001163,0.1014017056317708,0.04324846277123231,-0.005832695533000389,-0.0251367976458437,-0.03765458927040098,-0.020748515897117004,-0.6934339384033608,-0.07807040632778559
350,1.4096354999928735,-0.005162168024730516,0.0030599289535163496,-0.0037315382282465176,0.009526372820989825,0.10126475036888512,0.043098699892218935,-0.005955519232174303,-0.02825358316665434,-0.03789910890173178,-0.020472396686554976,-0.6953431447497361,-0.07674689423317689
351,1.4135810999869136,-0.005135177644141833,0.003099507432981403,-0.0038102068201494024,0.009496386610688223,0.10111429618552911,0.04294810386017639,-0.00607721113394385,-0.03137956706065737,-0.038137178609183364,-0.020191530044254773,-0.6971490351113164,-0.07540396852484008
352,1.41785249998793,-0.005117856163304849,0.0031321600082982967,-0.0038512259486162565,0.009465823862297322,0.1009503463998982,0.042796690269456,-0.00619770381997329,-0.03451400428525243,-0.038368827347305734,-0.019905562794065603,-0.6988486783781301,-0.07404249046406369
353,1.4218516999972053,-0.005109181400583206,0.003167809453964712,-0.0038970284471909326,0.009434696895274363,0.10077290754858671,0.04264447454177683,-0.006316928892879796,-0.03765613945399176,-0.03859408745048199,-0.01961414631047855,-0.700439168966804,-0.07266333345615276
354,1.425223999991431,-0.005109181400583206,0.003167809453964712,-0.0038970284471909326,0.009403018308243982,0.10058198937736176,0.04249147192675194,-0.006434817050374439,-0.04080520731998459,-0.03881299454847771,-0.019316937004867474,-0.7019176302218911,-0.0712673820112279
355,1.4285511999914888,-0.005109181400583206,0.003167809453964712,-0.0038970284471909326,0.009370800973722424,0.10037760483051911,0.04233769750261371,-0.006551298160186957,-0.04396043326662806,-0.03902558747967172,-0.019013596803093027,-0.7032812177816132,-0.06985553070282506
356,1.43236039999465,-0.0049863353916884436,0.00320464329696846,-0.003895140668252379,0.00933805803266132,0.10015977003884664,0.04218316617713231,-0.006666301335682094,-0.04712103380512122,-0.03923190820210296,-0.01870379361398085,-0.7045271229043916,-0.0684286831255545
357,1.43622289999621,-0.005053900033479612,0.0032812564701996424,-0.0040109230199893466,0.009304802888817581,0.09992850430622133,0.042027892688721084,-0.00677975501207555,-0.05028621707821696,-0.03943200170246882,-0.018387201788199286,-0.7056525757526106,-0.06698775085306488
358,1.4406137999903876,-0.005036293550294264,0.0033216855103625903,-0.004066402559837589,0.009271049202956063,0.09968383009486692,0.0418718916077222,-0.006891587023157879,-0.053455183369666065,-0.03962591590321091,-0.01806350256707688,-0.7066548486301287,-0.06553365239754536
359,1.4445227999967756,-0.005017378562457243,0.0033620946319609197,-0.0041038630066315245,0.009236810886891695,0.09942577300930046,0.04171517733786602,-0.007001724678435047,-0.05662712561880711,-0.039813701567824954,-0.017732384520914964,-0.707531259170131,-0.06406731217198308
360,1.4486086999968393,-0.004999547281915003,0.003381150980063804,-0.004170802968798201,0.00920210209737796,0.0991543617789962,0.04155776411789754,-0.007110094840594944,-0.05980122993975625,-0.0399954122045313,-0.017393543976366457,-0.7082791734699988,-0.06258965945637729
361,1.4520212999923388,-0.004968265723215945,0.003413827766223839,-0.00422163436333471,0.009166937229848581,0.09886962823979654,0.04139966602336348,-0.007216624003209655,-0.06297667614465191,-0.04017110396844307,-0.017046685432467852,-0.7088960091699544,-0.061101627369093164
362,1.4553075000003446,-0.004967254427205914,0.0034789092060307785,-0.004266035127172687,0.009131330912019323,0.09857160731409925,0.04124089696855313,-0.007321238368584064,-0.06615263827041117,-0.04034083556236859,-0.016691521964927594,-0.7093792384723281,-0.05960415184452031
363,1.4589565999922345,-0.004967254427205914,0.0034789092060307785,-0.004266035127172687,0.009095297997356852,0.09826033698985057,0.041081470708586344,-0.007423863925662144,-0.06932828510845626,-0.040504668136385064,-0.016327775618290664,-0.7097263910983782,-0.05809817061818085
364,1.4624310999934096,-0.004967254427205914,0.0034789092060307785,-0.004266035127172687,0.009058853558421632,0.09793585829837435,0.04092140084164157,-0.00752442652790319,-0.07250278073687279,-0.04066266518632011,-0.01595517778561611,-0.7099350571796924,-0.05658462222041028
365,1.466482799994992,-0.004866824823784172,0.0035465353529653596,-0.004295687597038853,0.009022012880091811,0.09759821529106782,0.04076070081131718,-0.007622851971041254,-0.07567528505446382,-0.04081489245127726,-0.015573469575321484,-0.7100028900812937,-0.05506444497971173
366,1.471857999989879,-0.004903050750222641,0.0037060834350669657,-0.004445028544694166,0.008984791452675086,0.09724745501499467,0.0405993839091189,-0.007719066070642129,-0.0788449543161683,-0.04096141781034036,-0.015182402164865601,-0.7099276091536738,-0.05353857603686129
367,1.4780838999868138,-0.004882833678298009,0.0037248966047678566,-0.004509521983730612,0.008947204964915613,0.09688362748740645,0.04043746327706634,-0.007812994739373387,-0.08201094166931612,-0.04110231117859119,-0.014781737140958701,-0.7097070024110762,-0.05200795037081677
368,1.4815783999947598,-0.004868794283095552,0.0037889711813338376,-0.00454270454573881,0.008909269296903038,0.09650678566922392,0.04027495191041138,-0.00790456406390426,-0.08517239769019715,-0.04123764440257349,-0.014371246826007005,-0.7093389291334535,-0.050473499837457296
369,1.4849055999948175,-0.004868794283095552,0.0037889711813338376,-0.00454270454573881,0.008871000512890671,0.0961169854375104,0.04011186266046151,-0.007993700381353493,-0.08832847092042685,-0.041367491155335466,-0.01395071459051664,-0.7088213223896295,-0.04893615222215423
370,1.4886857999954373,-0.004868794283095552,0.0037889711813338376,-0.00454270454573881,0.008832414854029766,0.09571428555696954,0.03994820823750091,-0.008080330355204671,-0.09147830840259753,-0.04149192683118156,-0.013519935151200212,-0.7081521914793015,-0.0473968303071467
371,1.493121899999096,-0.004734946428923756,0.0038759461299944153,-0.004566113368713142,0.008793528731026777,0.0952987476504998,0.039784001213802364,-0.008164381050609983,-0.09462105621471041,-0.041611028440262855,-0.013078714854547688,-0.7073296242916266,-0.045856450954666506
372,1.4969235999888042,-0.004777229982613602,0.004002001832687388,-0.004714388534376711,0.008754358716730552,0.09487043616883814,0.03961925402672279,-0.008245780009005076,-0.09775586000289041,-0.04172487450313414,-0.012626871945641813,-0.7063517895782422,-0.0443159242067282
373,1.5010532999876889,-0.004751078755778455,0.004051267209038476,-0.004767929221614334,0.008714921538656405,0.09442941835932504,0.039453978981875255,-0.00832445532195922,-0.10088186551189252,-0.04183354494540382,-0.012164236822016818,-0.7052169391386882,-0.04277615240246999
374,1.5051643999904627,-0.004729951125685448,0.004089585916896061,-0.004811353770976259,0.008675234071453947,0.09397576423382346,0.039288188256370454,-0.008400335704186775,-0.10399821911291689,-0.04193712099260092,-0.011690652272377807,-0.7039234099163079,-0.04123802931390054
375,1.5092752999917138,-0.004709916049620334,0.004150111934631997,-0.004839500854729728,0.008635313329325475,0.0935095465358241,0.03912189390212061,-0.008473350565647608,-0.10710406832825818,-0.04203568506538171,-0.011205973700017125,-0.7024696260028208,-0.03970243930087484
376,1.5134283999941545,-0.004688623606810623,0.004182475264218075,-0.004877981661969506,0.008595176458401655,0.0930308407067696,0.03895510784919868,-0.00854343008266601,-0.11019856235232299,-0.042129320675196515,-0.010710069330782682,-0.7008541005498751,-0.03817025648609084
377,1.5169686999870464,-0.004688623606810623,0.004182475264218075,-0.004877981661969506,0.008554840729081175,0.09253972485163033,0.038787841909245835,-0.00861050526799964,-0.11328085256855841,-0.04221811232053487,-0.010202820405471984,-0.6990754375860042,-0.03664234395086534
378,1.520386199990753,-0.004688623606810623,0.004182475264218075,-0.004877981661969506,0.008514323528340993,0.09203627970376407,0.03862010777892046,-0.008674508039791902,-0.1163500930618439,-0.042302145383864884,-0.009684121356544343,-0.6971323337375309,-0.03511955295241441
379,1.5246848999959184,-0.004587121232734212,0.004224859230478874,-0.00488599388006733,0.008473642352023693,0.0915205885890921,0.03845191704338167,-0.008735371289343152,-0.11940544112590874,-0.042381506029380324,-0.009153879969062414,-0.6950235798520767,-0.03360272216333015
380,1.528946199992788,-0.00460616090750327,0.004248849565755626,-0.005010411623224855,0.008432814797108373,0.09099273738962313,0.0382832811798007,-0.008793028947638245,-0.12244605776534796,-0.04245628110166625,-0.008612017525792926,-0.6927480625234578,-0.032092676933910935
381,1.5332894999883138,-0.004585515933835747,0.004283358644926086,-0.005051571434160661,0.00839185855397146,0.09045281450635749,0.03811421156089324,-0.008847416050570005,-0.12547110819182047,-0.042526558025391556,-0.008058468936415063,-0.690304765516862,-0.030590228577967567
382,1.5375512999889906,-0.0045721581688307165,0.00432889838214299,-0.005079130832013112,0.00835079139864364,0.08990091082160227,0.03794471945846599,-0.008898468802800426,-0.12847976231402322,-0.04259242470613402,-0.007493182850803326,-0.6876927710933198,-0.029096173682692454
383,1.543129300000146,-0.004548020137604336,0.004450044850454864,-0.0051440515781615735,0.008309631185069069,0.08933711966072881,0.03777481604697083,-0.008946124640203546,-0.13147119522104675,-0.0426539694324408,-0.006916121756370155,-0.6849112612326,-0.027611293443143788
384,1.5477656999864848,-0.004532703426133883,0.0045017420839270515,-0.005177470314892169,0.008268395837372879,0.08876153675340363,0.03760451240706002,-0.008990322290836163,-0.13444458765872921,-0.04271128077922417,-0.006327262059471724,-0.681959518753788,-0.02613635302186082
385,1.5513943999976618,-0.004523412045494374,0.004555091526832273,-0.00521705355334347,0.008227103342142975,0.08817426019432366,0.03743381952913604,-0.009031001834384877,-0.13739912649863803,-0.042764447512589385,-0.005726594150898463,-0.6788369283329164,-0.02467210093409049
386,1.5555835999984993,-0.004506158477906646,0.004605755034469497,-0.005242977840763469,0.008185771740731944,0.0875753904034862,0.03726274831688986,-0.009068104760040128,-0.14033400519931946,-0.04281355849618833,-0.005114122455489601,-0.6755429774171372,-0.023219268459069478
387,1.559729899992817,-0.004496724355332495,0.00466069509187623,-0.005266115476370998,0.008144419121584822,0.08696503008602445,0.03709130959082128,-0.009101574022750284,-0.1432484242594689,-0.042858702599189766,-0.0044898654659287565,-0.6720772570350464,-0.02177856907776935
388,1.564023199985968,-0.004469635056554108,0.004742809248856582,-0.005291471331054108,0.00810306361259822,0.08634328419163743,0.036919514091735564,-0.009131354097811299,-0.14614159166268756,-0.04289996860595346,-0.0038538557607949815,-0.6684394625028898,-0.02035069793747624
389,1.567762299993774,-0.004453320727772569,0.004787647933103548,-0.005313407605096255,0.008061723373516221,0.08571025987364393,0.03674737248421038,-0.009157391033749783,-0.14901272331350332,-0.0429374451274922,-0.003206140006960881,-0.6646293940264946,-0.018936331343539947
390,1.5717907999933232,-0.004431123448199064,0.004824723634370539,-0.0053275765293212705,0.008020416588368388,0.08506606644768941,0.036574895360027025,-0.00917963250345977,-0.1518610434643462,-0.04297122051480291,-0.00254677894644634,-0.6606469571988871,-0.017536126278590882
391,1.5762015999935102,-0.004390100320343549,0.004874070640875794,-0.005336461075146697,0.007979161457955023,0.08441081535013464,0.036402093241560234,-0.009198027853555826,-0.15468578513318204,-0.04300138277414453,-0.0018758473678530774,-0.6564921633936751,-0.016150719949486875
392,1.5803070999972988,-0.004361739551409824,0.004909462353016975,-0.005351080782326564,0.007937976192384687,0.0837446200961542,0.03622897658512119,-0.00921252815190761,-0.15748619051152185,-0.04302801948433687,-0.0011934340625216343,-0.6521651300543877,-0.014780729362215524
393,1.5844809999980498,-0.004343262028356869,0.004941279474661771,-0.005368855580883738,0.007896879003668882,0.08306759623757226,0.03605555578424865,-0.009223086233323385,-0.1602615113625367,-0.04305121771615096,-0.0004996417655684464,-0.6476660808800794,-0.013426750924941694
394,1.5881212999956915,-0.004343262028356869,0.004941279474661771,-0.005368855580883738,0.007855888098378604,0.08237986132046304,0.035881841172942734,-0.009229656743352422,-0.16301100940902252,-0.043071063953858006,0.0002054129180236027,-0.6429953459076154,-0.012089360079353422
395,1.5915438999945763,-0.004343262028356869,0.004941279474661771,-0.005368855580883738,0.007815021670367373,0.08168153484254291,0.03570784302883641,-0.00923219618017874,-0.1657339567109737,-0.04308764401900075,0.0009215996020723572,-0.6381533614911655,-0.01076911096042373
396,1.5969657999958145,-0.004257196484833034,0.005133064959067991,-0.005418117959106601,0.007774297893565096,0.08097273821038029,0.035533571576299786,-0.009230662934581092,-0.16842963603253572,-0.04310104299644729,0.0016487742224174638,-0.6331406701795396,-0.009466536084670176
397,1.6011328999884429,-0.004218454125686248,0.005150180513164279,-0.005491330675950207,0.007733734914847092,0.08025359469644884,0.03535903698947258,-0.009225017327936636,-0.17109734119812184,-0.043111345162783796,0.002386779154476844,-0.6279579204921092,-0.008182146066958667
398,1.6052677999978189,-0.004181167995327657,0.005190983177386547,-0.005527621506666965,0.007693350846982365,0.07952422939604896,0.035184249395220135,-0.009215221648248091,-0.17373637743749293,-0.04311863391709872,0.003135443344905782,-0.6226058665941597,-0.006916429365863169
399,1.6096282999933464,-0.004170465500131321,0.005244915852502751,-0.005540606992425523,0.007653163761665148,0.07878476918412178,0.03500921887600882,-0.009201240184176623,-0.17634606171961376,-0.04312299171420788,0.003894582457111954,-0.617085367872618,-0.0056698520575583005
400,1.6137568999984069,-0.00413208157876287,0.0052742418601990386,-0.005568949887015595,0.007613191682633484,0.07803534267197976,0.034833955472696645,-0.009183039257065184,-0.178925723075112,-0.04312450000036551,0.004663999030366257,-0.61139738841321,-0.004442857638187585
401,1.6178866999980528,-0.004119071971276085,0.005318360379008043,-0.005592161114195987,0.007573452578878515,0.07727608016397651,0.03465846918723514,-0.009160587250939396,-0.18147470290718123,-0.04312323915150308,0.005443482652236213,-0.6055429963801986,-0.0032358668546163035
402,1.6219214999873657,-0.00407642239383377,0.005339400634279334,-0.005622074901939226,0.007533964357947937,0.0765071136141386,0.034482769985278626,-0.009133854640475447,-0.18399235529078248,-0.043119288414033966,0.006232810144056118,-0.5995233632999489,-0.0020492775634446134
403,1.6262354999926174,-0.0040425761240261695,0.005363868547107678,-0.005644435355651038,0.007494744859346947,0.07572857658278125,0.034306867798696995,-0.00910281401692696,-0.18647804726001269,-0.043112725848258496,0.007031745759135924,-0.5933397632496595,-0.0008834646181237817
404,1.6302616999892052,-0.0040053074898416625,0.005386078155560758,-0.005658087264193907,0.0074558118480398524,0.07494060419312921,0.034130772527988705,-0.009067440112005115,-0.18893115908352273,-0.043103628274400146,0.007840041393399126,-0.5869935719526957,0.0002612202160138321
405,1.6343818999885116,-0.003983032290476131,0.005402495154742169,-0.005678756336892047,0.007417183008055276,0.0741433330879636,0.03395449404459062,-0.009027709819708674,-0.19135108452788094,-0.04309207122129991,0.00865743680812862,-0.5804862657820482,0.0013844483190320334
406,1.6385347999894293,-0.0039295352583818164,0.005431873444792979,-0.005694865366874228,0.007378875936197766,0.07333690138631412,0.033778042193081885,-0.008983602216102891,-0.19373723110879168,-0.043078128877792325,0.009483659864488719,-0.5738194206735308,0.002485914246227324
407,1.6426570999901742,-0.0039011417763008724,0.005446544654513195,-0.005703765483558249,0.0073409081358684816,0.07252144864021667,0.03360142679327904,-0.00893509857704852,-0.19608902033009087,-0.04306187404678303,0.010318426769481212,-0.5669947109504122,0.0035653357308071234
408,1.6471166999981506,-0.0038722738079854,0.005462933080419332,-0.005716635094953676,0.007303297010997441,0.0716971157915549,0.03342465764221984,-0.008882182393884492,-0.1984058879104553,-0.0430433781020442,0.011161442332983534,-0.5600139080612618,0.0046224536597217975
409,1.6511446999938926,-0.0038418436028605134,0.005477789812221588,-0.005731980497475606,0.0072660598600896,0.07086404512900357,0.03324774451603304,-0.008824839387069993,-0.20068728399777555,-0.04302271094774062,0.012012400235507833,-0.5528788792328643,0.005657032022991622
410,1.655554499986465,-0.0038239494366720367,0.005495500812112106,-0.005742080353635174,0.0072292138703868875,0.07002238024509184,0.033070697171691865,-0.008763057517793882,-0.20293267337115603,-0.04299994098069556,0.012870983306310856,-0.5455915860401399,0.006668857836898068
411,1.6596738999942318,-0.003801607813527519,0.0055235752068093155,-0.005754747072082839,0.007192776112148204,0.06917226599340368,0.032893525348648985,-0.008696826997561462,-0.20514153563051749,-0.04297513505540206,0.013736863811476277,-0.5381540828950782,0.007657741041436317
412,1.6636868999921717,-0.003784393199547134,0.00555448708744007,-0.005769906950088853,0.0071567635330491855,0.0683138484459314,0.032716238770351194,-0.008626140295770827,-0.2073133653737913,-0.042948358451781875,0.014609703751583297,-0.5305685154567613,0.00862351437245263
413,1.6679654999898048,-0.003766307815415981,0.005580229425946322,-0.005789807563962031,0.007121192952703376,0.06744727485059791,0.03253884714563214,-0.008550992145293064,-0.2094476723617065,-0.042919674845690696,0.01548915516856797,-0.5228371189646249,0.00956603320891614
414,1.672016899989103,-0.0037390445650356506,0.005625961109570795,-0.0057892457387639625,0.007086081057306271,0.06657269358896194,0.03236136016998147,-0.008471379546072685,-0.21154398167018254,-0.04288914628216514,0.016374860461376983,-0.5149622164971654,0.0104851753957997
415,1.6759813999960895,-0.003720287294411311,0.005658124252481425,-0.005799975244751237,0.007051444394403543,0.06569025413412087,0.03218378752668918,-0.008387301766766577,-0.21360183383035364,-0.042856833151403324,0.01726645271000732,-0.5069462171583707,0.011380841043068676
416,1.6801845999871148,-0.0037041429650756853,0.005680317498900636,-0.005810696825225786,0.007017299367784658,0.06480010700882498,0.032006138887863876,-0.008298760344441729,-0.2156207849562631,-0.0428227941674677,0.01816355600751944,-0.4987916141942018,0.01225295230129988
417,1.6845230999897467,-0.0036842455914830774,0.00570697682011047,-0.005823782366177152,0.006983662232502857,0.06390240374381559,0.031828423915323915,-0.008205759082353867,-0.2176004068602787,-0.042787086349695774,0.01906578579960652,-0.4905009830415121,0.013101453114475343
418,1.6889161999861244,-0.0036665258409882724,0.005725818800704589,-0.005829398201606028,0.006950549090022316,0.06299729683639979,0.03165065226136029,-0.008108304045830936,-0.21954028715629076,-0.04274976500680121,0.01997274923129749,-0.4820769793118402,0.013926308950517191
419,1.692834599991329,-0.00364517982673916,0.0057399602494021176,-0.005831156029371887,0.006917975883493176,0.06208493970927338,0.03147283356937063,-0.0080064035562871,-0.22144002935076787,-0.04271088372364418,0.02088404550036762,-0.473522336712564,0.014727506510150506
420,1.6969819999940228,-0.0036241804622827133,0.00575350898838625,-0.005830481100119085,0.006885958393154974,0.061165486669602864,0.031294977474363786,-0.007900068183394655,-0.22329925292175526,-0.042670494350647424,0.02179926621702677,-0.46483986490794654,0.015505053414700778
421,1.7002826999960234,-0.0036241804622827133,0.00575350898838625,-0.005830481100119085,0.006854512231868882,0.060239092868377066,0.03111709360333466,-0.007789310735443032,-0.22511759338591006,-0.04262864699583125,0.02271799576945239,-0.4560324473226464,0.016258977873451222
422,1.7037588999955915,-0.0036241804622827133,0.00575350898838625,-0.005830481100119085,0.006823652840778999,0.0593059142600383,0.030939191575509346,-0.007674146247915713,-0.22689470235367973,-0.042585390019437674,0.02363981169473185,-0.447103038890304,0.01698932833120304
423,1.7071133999997985,-0.0035088296326754092,0.005770903113777976,-0.005793827979696339,0.006793395485102811,0.05836610756240222,0.030761281002460505,-0.00755459197031748,-0.22863024757274017,-0.042540770031111334,0.02456428505477668,-0.4380546637498529,0.017696173096698457
424,1.7116282999922987,-0.003556423307769336,0.005793500089293082,-0.0058071795678960245,0.006763755250050759,0.057419830216874926,0.03058337148809325,-0.007430667351285799,-0.23032391295982052,-0.042494831889602,0.02549098081676968,-0.4288904128922411,0.018379599952582232
425,1.715651299993624,-0.003551314146473461,0.005801983858471873,-0.0058204566847894,0.006734747036874723,0.056467240348975246,0.030405472628502003,-0.007302394022021632,-0.23197539862105146,-0.0424476187049509,0.026419458237704915,-0.4196134417602704,0.019039715747592095
426,1.7196725999965563,-0.003538252111430839,0.005808091166428822,-0.005825890476842285,0.0067063855590451015,0.05550849672916991,0.030227594011698725,-0.007169795778076383,-0.23358442086098452,-0.04239917184312042,0.027349271252580198,-0.4102269678042904,0.019676645971682533
427,1.7231723000004422,-0.003538252111430839,0.005808091166428822,-0.005825890476842285,0.006678685338556073,0.05454375873402818,0.0300497452172134,-0.007032898559532933,-0.23515071218043823,-0.04234953093302437,0.02827996886580158,-0.4007342679965086,0.02029053431479908
428,1.7263504000002283,-0.003538252111430839,0.005808091166428822,-0.005825890476842285,0.00665166070235847,0.05357318630770261,0.029871935815567668,-0.006891730429620043,-0.23667402126333711,-0.04229873387591361,0.029211095545359972,-0.39113867630669447,0.020881542210032005
429,1.730454099990311,-0.003420675223517708,0.0058226466373012915,-0.005785898645616805,0.006625325778919592,0.052596939923741516,0.029694175367622866,-0.006746321551800608,-0.23815411295271657,-0.04224681685706936,0.03014219161934104,-0.38144358114207183,0.021449848361888964
430,1.7338931999984195,-0.003420675223517708,0.0058226466373012915,-0.005785898645616805,0.006599694494909152,0.05161518054723894,0.02951647342380355,-0.006596704165375377,-0.23959076821607647,-0.042193814359754396,0.03107279367433102,-0.37165242275420507,0.021995648260436134
431,1.73826790000021,-0.003406308292405209,0.005855247547195313,-0.005813312461719742,0.0065747805720104266,0.05062806959732661,0.029338839523197935,-0.006442912559644764,-0.24098378410027232,-0.04213975918137003,0.03200243495528317,-0.36176869061569933,0.022519153682065803
432,1.7424822999892058,-0.0035049191191174043,0.005886793836984305,-0.0058705954305869066,0.006550597523855537,0.049635768910012396,0.02916128319253676,-0.006284983046672422,-0.2423329736761415,-0.042084682451764686,0.03293064576641211,-0.3517959207695373,0.02302059217765628
433,1.7468103999999585,-0.003502305268396251,0.005900690905057413,-0.005874557493304438,0.00652715865308374,0.04863844070136882,0.028983813945052336,-0.006122953932695181,-0.24363816597307125,-0.04202861365363787,0.03385695387268626,-0.3417376931538799,0.023500206548896483
