,time,x,y,z,vx,vy,vz,ax,ay,az,jx,jy,jz
1087,5.35546570000588,0.059337011675560165,0.055497928647127256,0.06861827675328426,-0.04689215614757548,-0.08005642327818066,0.059315903810217334,-0.030038500764923606,0.16155129631341272,-0.11995040463040392,0.17982072422039935,0.599103944617407,-0.6797569598469563
1088,5.369115800000145,0.059372401946498725,0.05504739655434009,0.06853842874529556,-0.04703408812747802,-0.07927236114948569,0.05873158429702736,-0.029159944829291955,0.16443070464017892,-0.12321943110156966,0.1830533554796111,0.5961717687535076,-0.6812147323081033
1089,5.374924699994153,0.059434098159011156,0.05475789043947669,0.06851030081193003,-0.04717175567157942,-0.0784744887616687,0.058131532263763074,-0.028265903228926387,0.16729574964741584,-0.12649527743802502,0.18627786802852417,0.5931483872040819,-0.682586898950998
1090,5.378972899998189,0.05947256751543271,0.05459718202599219,0.06851731357687797,-0.047305084992283086,-0.0776628768824106,0.05751571570143508,-0.027356423879093546,0.1701459865622981,-0.12977753380285892,0.18949350102419765,0.5900340138551033,-0.6838730064451582
1091,5.383145400002832,0.05950399041716008,0.05442945350896091,0.06850794196503984,-0.047434002536247036,-0.07683759840734317,0.05688410458029918,-0.026431558214173353,0.1729809718381874,-0.13306578814231704,0.19269949212959475,0.5868288776320927,-0.685072611674257
1092,5.38721909999731,0.05952503049669368,0.05427638139508511,0.06851208119412454,-0.04755843500070465,-0.0759987283532273,0.05623667086062229,-0.025491361187841892,0.17580026323336662,-0.13635962623260764,0.19589507771077758,0.5835332226062145,-0.6861852818151963
1093,5.391478999998071,0.05955126612026355,0.0540919947798802,0.06847256071378362,-0.047678309349799886,-0.07514634385077144,0.05557338850321299,-0.024535891272569,0.17860341988998818,-0.1396586317271984,0.19907949303439484,0.580147308097751,-0.6872105944169138
1094,5.404135500008124,0.05958586144513092,0.05356374868951409,0.06836084234488128,-0.04779355283093414,-0.07428052413708976,0.054894233479714706,-0.02356521045843358,0.18139000241321915,-0.14296238620460525,0.20225197246536988,0.5766714087768212,-0.6881481374789329
1095,5.408140600004117,0.05959773267391044,0.053397051590169636,0.0682911888528181,-0.04790409299112201,-0.0734013505477994,0.054199183782658915,-0.022579384251259674,0.18415957295056548,-0.1462704692166744,0.20541174966469686,0.5731058147612211,-0.6889975095296687
1096,5.412342399999034,0.059610279800449285,0.0532252974806617,0.06821465542107953,-0.04800985769335309,-0.07250890650875699,0.05348821943527582,-0.02157848167007643,0.18691169527135845,-0.14958245833735687,0.2085580577872557,0.5694508317112542,-0.6897583197044989
1097,5.416746500006411,0.05965037636129123,0.05306758158526275,0.06814010149327816,-0.048110775132956723,-0.07160327752743384,0.052761322501059645,-0.020562575243905156,0.18964593484638545,-0.15289792921197676,0.21169012967955794,0.565706780921429,-0.6904301878236087
1098,5.420538799997303,0.05967175575459791,0.052909284141123926,0.06804676117094662,-0.048206773853967044,-0.07068455118392955,0.052018477093086345,-0.019531741007876764,0.19236185892764662,-0.15621645560699268,0.21480719807733717,0.5618739994088967,-0.691012744469616
1099,5.427159500002745,0.05970663729380519,0.05274700244631586,0.06796605326334941,-0.04829778276548532,-0.06975281712162477,0.051259669383080936,-0.018486058498682796,0.19505903662822027,-0.15953760946025317,0.21790849580289853,0.5579528399985083,-0.6915056310649826
1100,5.432736700007808,0.05974481262656943,0.052420879438627326,0.0678130694938937,-0.04838373115803651,-0.06880816703747261,0.05048488761023171,-0.017425610749363354,0.19773703900221867,-0.1628609609317446,0.22099325596214417,0.5539436714043722,-0.6919084999492126
1101,5.4376396000006935,0.05977073654935358,0.052248075825348544,0.06772602061813167,-0.048464548719917254,-0.0678506946719283,0.0496941220897487,-0.016350484283435135,0.2003954391248159,-0.1661860784548317,0.22406071214119247,0.5498468783077962,-0.6922210144558387
1102,5.4456595000083325,0.059833103374863424,0.05186509606720138,0.06766303152458358,-0.048540165553532515,-0.06688049579851721,0.048887365221164145,-0.01526076910836302,0.20303381217232994,-0.16951252878798964,0.22711009860251088,0.5456628614314997,-0.6924428489892003
1103,5.451321000000462,0.05982977903245269,0.051687351223423106,0.0676457084566752,-0.048610512191717935,-0.06589766821304113,0.04806461149637253,-0.014156558708378496,0.20565173550234173,-0.17283987706702672,0.23014065048048302,0.5413920376099834,-0.6925736891010104
1104,5.455985299995518,0.059821592634361896,0.05148386662767498,0.06766219841263463,-0.048675519614044926,-0.06490231172242297,0.04722585750740787,-0.013037950036648233,0.2082487887338333,-0.1761676868577964,0.23315160397633267,0.5370348398559461,-0.6926132315667106
1105,5.460055999996257,0.05977972590871723,0.05125848076330353,0.06767606435907224,-0.04873511926310539,-0.06389452813319016,0.04637110195395582,-0.011905043506796135,0.21082455382732646,-0.17949552020939896,0.23614219655232888,0.5325917174226368,-0.6925611844616096
1106,5.464285699999891,0.05971207585361357,0.051018425850517746,0.06766673118969753,-0.048789243060773375,-0.06287442123959744,0.045500345650598344,-0.010757942983782161,0.2133786151650022,-0.1828229377078716,0.23911166712519855,0.5280631358620371,-0.6924172672368022
1107,5.468080399994506,0.05964490265833101,0.050759087100920634,0.06769496700893625,-0.04883782342444069,-0.061842096811389316,0.044613591533788896,-0.009596755774141276,0.21591055963078204,-0.18614949853036497,0.24205925625867628,0.5234495770787677,-0.692181210794864
1108,5.472352700002375,0.05957590355276089,0.05046951751174492,0.06769624207671578,-0.0488807932832236,-0.06079766258120311,0.04371084466855611,-0.008421592615585935,0.2184199766903519,-0.18947476049980305,0.24498420635512186,0.51875153937962,-0.6918527575653113
1109,5.476385400004801,0.059510754752322835,0.05020099694289716,0.06770784865323155,-0.048918086094137614,-0.0597412282316128,0.042792112254933935,-0.007232567665975457,0.22090645847111007,-0.19279828014002445,0.2478857618461397,0.5139695375186153,-0.6914316615798126
1110,5.481450200008112,0.05948640386106511,0.0499407802885598,0.06772263580972288,-0.04894963585823751,-0.05867290538181464,0.04185740363411597,-0.006029798491655637,0.22336959984201937,-0.19611961273140183,0.25076316938213306,0.5091041027374933,-0.6909176885471454
1111,5.485743099998217,0.05947595742049988,0.049648382635906804,0.06777481306986148,-0.04897537713671958,-0.05759280757395483,0.04090673029433177,-0.004813406055171977,0.22580899849334454,-0.19943831236693743,0.25361567802072876,0.5041557828015425,-0.6903106159278826
1112,5.490507099995739,0.059430535279027384,0.048991527313213004,0.06783253172770944,-0.04899524506698338,-0.05650105025909997,0.03994010587644278,-0.0035835147023598156,0.22822425501625446,-0.20275393200883157,0.25644253941401146,0.4991251420306806,-0.6896102330087934
1113,5.495271799998591,0.059411752853500484,0.04865187706241176,0.06791010030327277,-0.049009175378649884,-0.05539775078285133,0.038957546179255856,-0.0023402521488146504,0.23061497298226946,-0.20606602354552153,0.2592430079945071,0.4940127613256978,-0.6888163409769454
1114,5.499562800003332,0.059387251932002665,0.04825562834088563,0.06797354186160436,-0.04901710440953324,-0.05428302837060393,0.03795906916455222,-0.001083749465745949,0.23298075902253615,-0.2093741378491886,0.26201634115986083,0.4888192381895839,-0.6879287529934842
1115,5.503759600003832,0.05934336835731019,0.04784485680124735,0.06803570298163934,-0.049018969121562894,-0.05315700411245116,0.0369446949618296,0.00018585893478231284,0.23532122290691002,-0.2126778248337299,0.26476179945615486,0.48354518674385744,-0.6869472942670726
1116,5.508157200005371,0.05930797978269258,0.04741377736100712,0.06812731461965799,-0.04901470711665344,-0.05201980094773594,0.03591444587275549,0.0014684353152211566,0.23763597762282648,-0.215976633513192,0.2674786467598154,0.4781912377398246,-0.6858718021269707
1117,5.512297699999181,0.05927096932076798,0.046970714737133254,0.06824333490302781,-0.04900425665251898,-0.050871543649249173,0.0348683463753294,0.0027638386285129784,0.23992463945394188,-0.21927011206066233,0.2701661504580578,0.4727580385646893,-0.6847021260957391
1118,5.52077420000569,0.05911576193425921,0.04601614072075416,0.06852159773985461,-0.04898755665842893,-0.049712358807076466,0.033806423127752394,0.004071924534671648,0.24218682805852593,-0.22255780786761403,0.2728235816278221,0.46724625324244734,-0.6834381279615421
1119,5.525533100008033,0.05900473972950632,0.0455289169015643,0.06871440688161407,-0.0489645467509024,-0.04854237481209449,0.032728704972001754,0.005392545417963214,0.24442216654758459,-0.22583926760369938,0.2754502152131529,0.4616565624294957,-0.6820796818500318
1120,5.5293101999996,0.058905336528182965,0.04500423948854508,0.06897373707579128,-0.04893516724933799,-0.047361721839118215,0.0316352229371088,0.0067255504046841415,0.24663028156269326,-0.22911403727698787,0.2780453302009784,0.4559896634048947,-0.680626674295788
1121,5.533677200000966,0.058790216644108134,0.04446266124344828,0.06923346392171646,-0.04889935919157633,-0.046170531829700386,0.03052601024213791,0.00807078538153406,0.24881080335352201,-0.23238166229464416,0.28060820979524764,0.45024627005522083,-0.679079004313289
1122,5.539216799996211,0.05868951335753899,0.04390053520957105,0.06945682334970289,-0.04885706434939228,-0.04496893847458464,0.029401102298865018,0.00942809301457999,0.25096336585503237,-0.2356416875240411,0.2831381415893839,0.444427112853954,-0.6774365834673806
1123,5.543451599995024,0.05859465605483412,0.04332772968502999,0.06965497169083429,-0.04880822524391367,-0.04375707719581363,0.02826053671415344,0.010797312768809101,0.2530876067643264,-0.23889365735430432,0.28563441773701836,0.4385329388353465,-0.6756993359432167
1124,5.547348499996588,0.058492723745388234,0.04271622971182058,0.06980835030682245,-0.04875278516096339,-0.04253508512849355,0.027104353292025284,0.01217828092826707,0.2551831676171274,-0.24213711575828287,0.28809633512096944,0.432564511562721,-0.6738671986156398
1125,5.553742999996757,0.05838504200882738,0.04156912788219598,0.07014723803054063,-0.048690688166321834,-0.041303101102216765,0.0259325940354267,0.013570830616779146,0.2572496938638717,-0.2453716063549394,0.29052319552043443,0.4265226110911502,-0.6719401211179684
1126,5.5593751999986125,0.05836323152097924,0.04100483816123786,0.07031844621019266,-0.04862187912090665,-0.04006126562214396,0.02474530314768521,0.014974791819251088,0.2592868349453913,-0.2485966724721526,0.2929143057763648,0.42040803392447645,-0.6699180659101621
1127,5.56645810000191,0.05826252022513639,0.0398143986732206,0.07056630895562899,-0.04854630369586659,-0.038809720849747494,0.023542527033657414,0.01638999140354717,0.26129424436816884,-0.2518118572099265,0.2952689779549953,0.4142215929666288,-0.6678010083463233
1128,5.571448899994721,0.05825248732923633,0.03921587437651653,0.07065356850030094,-0.048463908387586345,-0.03754861058321766,0.02232431430056532,0.017816253142942474,0.2632715797791437,-0.2550167035040006,0.2975865295094988,0.4079641174671998,-0.6655889367415031
1129,5.575461200001882,0.058250680174596316,0.03856939574431505,0.0707382887229325,-0.04837464053259914,-0.036278080237533684,0.021090715758519594,0.01925339773914677,0.2652185030400499,-0.258210754189856,0.2998662834397439,0.40163645296124967,-0.6632818524377766
1130,5.57927319999726,0.0582144867144363,0.03791590156440846,0.07076782703242124,-0.04827844832240373,-0.03499827682420125,0.01984178442072808,0.02070124284589744,0.2671346803012643,-0.2613935520671103,0.3021075684501312,0.3952394612033052,-0.6608797698695486
1131,5.583108899998479,0.05815141321630042,0.03729074389570947,0.07081987861792427,-0.048175280818182654,-0.033709348930658585,0.018577575503387962,0.02215960309311871,0.26901978207514715,-0.26456463996429386,0.3043097191054879,0.38877402009552636,-0.6583827166280491
1132,5.587384900005418,0.05804987623689701,0.03664233508600076,0.0708795796138004,-0.04806508796541901,-0.03241144669935313,0.017298146425259953,0.02362829011164476,0.27087348330885325,-0.26772356080400145,0.3064720759850015,0.38224102361001694,-0.6557907335249804
1133,5.591365400003269,0.05798436710718185,0.03604402165631283,0.07091737875393829,-0.0479478206084085,-0.031104721806490918,0.01600355680692302,0.025107112558504147,0.27269546345659323,-0.27086985766840976,0.30859398583417535,0.3756413817052607,-0.6531038746552734
1134,5.596432599995751,0.057917777411322875,0.03546690764644415,0.07088517087062236,-0.04782343050466351,-0.029789327440460877,0.014693868469708314,0.02659587614276303,0.2744854065513234,-0.2740030738651539,0.3106748017147895,0.3689760202366654,-0.6503222074589109
1135,5.600148400000762,0.05783555414120747,0.034888989203179725,0.0708370318602262,-0.047691870339206216,-0.028465418279936178,0.013369145434310888,0.02809438365192472,0.2762430012758431,-0.2771227529935542,0.3127138831528516,0.3622458808612023,-0.6474458127817729
1136,5.603962799999863,0.057710684781925974,0.034300842598954155,0.07074948977777709,-0.04755309373874747,-0.027133150471655168,0.012029453919077922,0.029602434978883103,0.27796794103327804,-0.28022843901118405,0.3147105962845255,0.3554519209361309,-0.6444747849354628
1137,5.607556400005706,0.057710684781925974,0.034300842598954155,0.07074948977777709,-0.04740705528574816,-0.025792681607884053,0.010674862337972064,0.031119827149427636,0.27965992401693046,-0.2833196763007698,0.31666431400002837,0.3485951134118058,-0.6414092317560707
1138,5.6126878000068245,0.05744183390926584,0.03314788727232833,0.07049941983773589,-0.047253710532359806,-0.0244441707035638,0.009305441298208617,0.03264635435029763,0.28131865327947686,-0.2863960097374145,0.31857441608548714,0.34167644671856173,-0.6382492746618286
1139,5.616867899996578,0.057349377652864617,0.032601637160649274,0.07037621433579225,-0.04709301601424163,-0.023087778173143794,0.007921263597565353,0.03418180795778349,0.2829438368014941,-0.28945698475613446,0.3204402893627476,0.3346969246476778,-0.6349950487096109
1140,5.620727600005921,0.05726566829491127,0.03208003682542219,0.07026783298594312,-0.04692492926425099,-0.021723665807104945,0.006522404221363699,0.03572597656687274,0.28453518755929513,-0.2925021474196994,0.3222613278271304,0.32765756622642617,-0.6316467026502317
1141,5.625925100001041,0.05712626755321415,0.03155388740370625,0.07014459732661452,-0.04674940882600402,-0.02035199674817499,0.005108940339120154,0.037278646020938305,0.28609242359205395,-0.2955310444867662,0.3240369327831309,0.3205594055872137,-0.6282043989824931
1142,5.629667500004871,0.05694850981343335,0.031006584812329235,0.07002231996820459,-0.04656641426730311,-0.018972935467238793,0.003680951300866772,0.038839599441966986,0.28761526806819954,-0.2985432234802959,0.3257665129780579,0.31340349183082966,-0.6246683140059355
1143,5.633772000001045,0.05678298627629053,0.030461879843957148,0.06993265892029361,-0.046375906193428344,-0.01758664773894645,0.002238518633139627,0.040408617261325795,0.2891034493510612,-0.30153823275624325,0.3274494847336084,0.30619088888381324,-0.6210386378722402
1144,5.64168129999598,0.05649828175968866,0.029398191939892133,0.0698264770270196,-0.04617784626028964,-0.01619330061702233,0.0007817260346342312,0.04198547725106402,0.2905567010637453,-0.3045156215725102,0.3290852720753789,0.2989226753499573,-0.6173155746352331
1145,5.646930799994152,0.05638633507432296,0.02882190599025937,0.06976671510917493,-0.045972197187436836,-0.01479306240927801,-0.0006893406284730968,0.04356995455574919,0.2919747621532231,-0.3074749401581535,0.33067330686031693,0.2915999443559695,-0.6134993422994364
1146,5.650570300000254,0.056198880692905205,0.02823961235259109,0.0697841891541292,-0.04575892277092464,-0.01338610265233225,-0.0021745933275388496,0.045161821724834836,0.2933573769536076,-0.31041573978283793,0.3322130289021142,0.2842238033913137,-0.6095901728671183
1147,5.65428570000222,0.055939262683126365,0.027631186156547603,0.06983254152611221,-0.04553798789602937,-0.011972592086041244,-0.003673941876801853,0.04676084874555789,0.29470429524860076,-0.313337572826525,0.3337038860945468,0.2767953741422596,-0.6055883123837865
1148,5.6585797000007005,0.05570614990103113,0.02702074746906574,0.06990540222759073,-0.04530935854981473,-0.010552702627642553,-0.005187293939069539,0.048366803076363506,0.29601527233309083,-0.3162399928493877,0.33514533453276946,0.26931579232016856,-0.6014940209820746
1149,5.664959400004591,0.05549210012346979,0.026414905953800864,0.06995839498546433,-0.04507300183354337,-0.009126607345616029,-0.0067145550317417695,0.04997944968085518,0.2972900690738815,-0.31912255466194,0.33653683863257183,0.261786207484049,-0.5973075729239677
1150,5.67080029999488,0.054908957014418974,0.02524992058789013,0.07015955284942581,-0.04482888597493137,-0.007694480433265166,-0.008255628533172977,0.0515985510622681,0.29852845196953337,-0.3219848143953732,0.337877871247606,0.25420778285741935,-0.5930292566413128
1151,5.674829700001283,0.05458288586845838,0.024598215460663177,0.07027632471115548,-0.04457698034024246,-0.006256497182022364,-0.009810415689373317,0.05322386729846349,0.29973019320929867,-0.3248263295720866,0.3391679137845914,0.2465816951395192,-0.5886593747745535
1152,5.679046799996286,0.054287281140966294,0.0239833760395311,0.07035365887015335,-0.04431725544621904,-0.0048128339544818025,-0.011378815621049471,0.05485515607744173,0.30089507073113025,-0.3276466591764019,0.3404064563165063,0.2389091343109106,-0.584198244209635
1153,5.687010699999519,0.0537440994008277,0.022880012658200763,0.07061221893344237,-0.0440496829718469,-0.0033636681571636564,-0.012960725330985707,0.05649217273337199,0.30202286827874697,-0.33044536372544736,0.3415929976937756,0.23119130343351438,-0.5796461961130217
1154,5.691301600003499,0.05337844298090889,0.022322249687959574,0.0707541668703691,-0.04377423576995048,-0.0019091782130135253,-0.014556039711765738,0.05813467028313605,0.3031133754577369,-0.3332220053402004,0.3427270456534662,0.2234294184451316,-0.5750035759647777
1155,5.695896300007007,0.05302215298821817,0.02176203058332691,0.07085462374680274,-0.04349088787861549,-0.0004495435336409839,-0.016164651553835917,0.05978239946338421,0.304166387790682,-0.3359761478166766,0.34380811692650237,0.21562470794850092,-0.5702707435896499
1156,5.703513500004192,0.052378484507460965,0.02078129112709312,0.07113496425175464,-0.04319961453243593,0.0010150555086987291,-0.01778645155391015,0.06143510876810086,0.30518170677128503,-0.33870735669725294,0.34483573734291423,0.20777841299494382,-0.5654480731861021
1157,5.7080495999980485,0.05201147272319289,0.020311822897346312,0.07128749250507026,-0.04290039217358242,0.002484437609375793,-0.01942132832371693,0.06309254448667731,0.3061591399174817,-0.3414151993421116,0.34580944193513335,0.1998917868626542,-0.5605359533532432
1158,5.714154800007236,0.051565036026823656,0.019821441258208238,0.07146563403378167,-0.04259319846268899,0.003958420559905472,-0.021069168399088848,0.06475445074248921,0.30709850082351947,-0.3440992450007912,0.3467287750393481,0.19196609482969199,-0.5555347871155941
1159,5.719072899999446,0.05111309887426717,0.019329699515591246,0.07161900226039954,-0.04227801228955541,0.005436821276712101,-0.02272985624939479,0.06642056953197596,0.3079996092109852,-0.34675906488383273,0.34759329039493186,0.18400261394174364,-0.5504449919456379
1160,5.723614899994573,0.050721627068377656,0.018885430631998656,0.07178929180346091,-0.0419548137836619,0.006919455830133028,-0.024403274287314952,0.06809064076421985,0.30886229097876383,-0.3493942322345077,0.3484025512419581,0.1760026327747144,-0.5452669997840958
1161,5.72892779999529,0.04982280768139144,0.018104452546698548,0.0721756382183946,-0.041623584324493354,0.008406139473658087,-0.02608930287895888,0.06976440230102306,0.30968637825190937,-0.35200432240061336,0.34915613041682114,0.16796745119221923,-0.5400012570578727
1162,5.733370800007833,0.0493159698819644,0.017704384201167666,0.07240049006580278,-0.04128430655167036,0.009896686673400058,-0.027787820354326604,0.07144158999747977,0.3104717094294089,-0.35458891290632244,0.34985361044597796,0.15989838009804264,-0.5346482246956223
1163,5.737433200003579,0.04882611596358984,0.017269588282273072,0.07250681258414571,-0.04093696437488392,0.011390911137791504,-0.029498703018112905,0.07312193774304097,0.31121812923082337,-0.3571475835240734,0.3504945836378273,0.15179674118363914,-0.5292083781408753
1164,5.741457600001013,0.048338793016051165,0.016880571598297242,0.07264737458776793,-0.04058154298363085,0.012888625847503258,-0.031221825160854613,0.07480517750306938,0.3119254887417884,-0.3596799163464876,0.3510786521727435,0.1436638666707491,-0.5236822073626745
1165,5.7457168999972055,0.047877626321881236,0.016532814101964142,0.07286220684728541,-0.04021802885674712,0.014389643085579783,-0.03295705907042074,0.07649103936088168,0.3125936454583576,-0.36218549585829946,0.35160542819128326,0.1355010990492076,-0.5180702168636615
1166,5.749740600003861,0.04743607400687761,0.016208902645635386,0.07308182895626446,-0.039846409771736306,0.01589377446778658,-0.03470427504384538,0.07817925156027553,0.3132224633301727,-0.3646639090082841,0.3520745338805838,0.12730979081002594,-0.5123729256855599
1167,5.7541080999944825,0.047003035696078284,0.015843497865608305,0.07326882343628227,-0.039466674813890296,0.01740083097316459,-0.03646334139950299,0.07986954054853808,0.31381181280244247,-0.36711474528116783,0.35248560155896674,0.11909130417382674,-0.5065908674119954
1168,5.762291699997149,0.04616190355281308,0.015054205879013774,0.07340450517558152,-0.039078814385199646,0.01891062297478667,-0.03823412448962587,0.08156163101993313,0.31436157085671645,-0.3695375967695067,0.3528382737587646,0.11084701081471687,-0.5007245901686023
1169,5.766596100002062,0.045786120446987655,0.014690448217722295,0.07356750754427005,-0.038682820213051035,0.02042296027071107,-0.040016488713163184,0.08325524595966383,0.3148716210504355,-0.37193205824551795,0.3531322033073862,0.10257829157968386,-0.4947746566203603
1170,5.771355200005928,0.045404945732450186,0.01432664585123981,0.07375651157188447,-0.03827868535870903,0.021937652115126546,-0.04181029652898115,0.08495010668830827,0.3153418535552434,-0.3742977272328484,0.3533670534066379,0.09428653620360282,-0.48874164396611025
1171,5.7754469000065,0.04498725647626716,0.01396698125818408,0.07394938884249103,-0.03786640422557971,0.02345450724968388,-0.043615408469403705,0.0866459329067248,0.3157721651940424,-0.3766342040782648,0.35354249771031615,0.08597314301994421,-0.4826261439301995
1172,5.779096600002958,0.044518462102847094,0.01356471454634978,0.07414173891306763,-0.037445972567253405,0.024973333935008283,-0.045431683154093044,0.08834244274142382,0.31616245947677474,-0.3789410920232519,0.35365822040008815,0.07763951866727395,-0.4764287627512082
1173,5.782994499997585,0.04404783576384698,0.013124803586073796,0.07433746106905367,-0.03701738749532377,0.026493939982387225,-0.0472589773042692,0.09003935279040243,0.31651264663491613,-0.3812179972755015,0.3537139162596755,0.0692870777916395,-0.47015012116770494
1174,5.79139149999537,0.043118236918532546,0.012316954404012478,0.07479393161338035,-0.036580647486980596,0.02801613278562824,-0.0490971457572679,0.09173637816943889,0.31682264365466617,-0.3834645290802771,0.3537092907473579,0.060917242744937684,-0.46379085440098217
1175,5.795509200004744,0.042628934657237494,0.01188664455123787,0.0750280168194022,-0.036135752392373606,0.029539719353080997,-0.05094604148143585,0.09343323255884324,0.3170923743088208,-0.3856802997916367,0.35364406006681365,0.052531443279361045,-0.4573516121347249
1176,5.799828600007459,0.042139008584952044,0.011481220670182136,0.07527456280266138,-0.035682703441744526,0.031064506339817905,-0.0528055155913626,0.09512962825066013,0.3173217691873102,-0.3878649249434973,0.35351795123631313,0.044131116238021885,-0.4508330584915626
1177,5.804696599996532,0.04161279385647274,0.011025923138606812,0.07544024837784692,-0.03522150325232494,0.03259030007996745,-0.05467541736344823,0.09682527619631981,0.31751076572638937,-0.3900180233205249,0.35333070215628104,0.03571770524185414,-0.44423587200645887
1178,5.808318700001109,0.04112905792105119,0.010576163936167495,0.07565633839889904,-0.034752155834997314,0.03411690661919433,-0.056555594251805515,0.09851988605473333,0.3176593082364684,-0.39213921702883353,0.3530820616752417,0.0272926603728953,-0.4375607455968937
1179,5.812368500002776,0.04067150664538117,0.010167808836242444,0.07593358418268306,-0.03427466660071673,0.035644131747320236,-0.05844589190449591,0.10021316624082749,0.317767347928569,-0.3942281315664765,0.3527717896541629,0.01885743785405171,-0.4308083865297884
1180,5.816597700002603,0.040184673262522425,0.009743463375232388,0.0762021926306034,-0.03378904236669108,0.037171781031079265,-0.06034615418009834,0.10190482397451502,0.31783484293939274,-0.39628439589371434,0.35239965702921094,0.010413499725452231,-0.4239795163851327
1181,5.821768599998904,0.039691761486352645,0.009270603957886911,0.0764535178114202,-0.033295291362317174,0.03869965984700177,-0.06225622316460982,0.10359456533009558,0.31786175835498803,-0.39830764250304224,0.3519654458729298,0.0019623135174966686,-0.41707487101626606
1182,5.829058500006795,0.038818531538234946,0.008413017734416465,0.07693548001102381,-0.03279342323487049,0.04022757341442033,-0.06417593918867621,0.10528209528608269,0.31784806623300416,-0.40029750748895887,0.35146894945385637,-0.006494648079293381,-0.41009520050677223
1183,5.83329130000493,0.03842577048160098,0.008006233837868552,0.07714627637633492,-0.03228344905494633,0.04175532682859156,-0.06610514084515218,0.1069671177754518,0.31779374562352014,-0.4022536306174585,0.3509099722945831,-0.014955907547512354,-0.4030412691239464
1184,5.8371489999990445,0.03803189107728171,0.007572334979412479,0.07739946985951363,-0.0317653813216502,0.043282725093927506,-0.06804366500698893,0.10864933573630461,0.31769878258843653,-0.4041756553952294,0.35028833022828015,-0.023419982879087035,-0.39591385526879624
1185,5.84274419999565,0.037622944702861066,0.007119441754793394,0.07762708498303426,-0.031239233967535345,0.044809573157329786,-0.0699913468454477,0.11032845116294457,0.31756317021941716,-0.4060632291385413,0.34960385045368625,-0.03188538791436005,-0.3887137514225397
1186,5.84701130000758,0.03726422573342655,0.0066790847279582025,0.07775125171961096,-0.030705022363285046,0.046335675941619706,-0.0719480198486372,0.1120041651573582,0.31738690865436986,-0.4079160030418032,0.3488563715885778,-0.04035063268392811,-0.3814417640895632
1187,5.850646299993969,0.03691609006987868,0.0062534127503077325,0.07786408238218352,-0.03016276332213755,0.04786083837905758,-0.07391351584037362,0.11367617798109689,0.3171700050924547,-0.40973363224577647,0.34804574372172425,-0.04881422375312153,-0.37409871373680736
1188,5.855131599993911,0.036586523200320305,0.005826122467188498,0.07798808585620673,-0.0296124751040516,0.04938486544494441,-0.07588766499936092,0.11534418910755372,0.3169124738076074,-0.41151577590542726,0.3471718284633385,-0.05727466456901049,-0.3666854347295473
1189,5.858768399994005,0.03626482441415941,0.0054117625694830645,0.07808813575020356,-0.02905417741961066,0.05090756219129893,-0.07787029587869042,0.1170078972746302,0.3166143361605656,-0.41326209725739965,0.3462344989940272,-0.06573045580982292,-0.35920277526353256
1190,5.862768000006327,0.035967864633272575,0.005014349281430122,0.07816273228590814,-0.028487891433663717,0.052428733780603136,-0.07986123542565761,0.11866700053778749,0.3162756206093865,-0.41497226368709206,0.3452336401122475,-0.07418009573665771,-0.35165159729345613
1191,5.86649290000787,0.03569007818012439,0.0046192773636649104,0.07816859949050135,-0.027913639768700517,0.05394818551960923,-0.0818603090018946,0.1203211963234765,0.31589636271844657,-0.4166459467953201,0.3441691482802747,-0.08262208054737638,-0.34403277645772207
1192,5.870501099998364,0.035427483460510896,0.0042275481595111745,0.07817845953946118,-0.02733144650795943,0.0554657228932012,-0.08386734040381628,0.12197018148294092,0.31547660516591114,-0.418282822464547,0.34304093166868677,-0.09105490473255551,-0.33634720199948454
1193,5.874517100004596,0.03515190916487658,0.0038507217957326695,0.07816893223187574,-0.02674133719826631,0.05698115159830369,-0.08588215188337778,0.12361365234638677,0.3150163977496642,-0.41988257092466413,0.34184891019936936,-0.09947706143338049,-0.32859577668393125
1194,5.87956370000029,0.034913668915302495,0.0034832609398473,0.07814351225643554,-0.026143338852602675,0.0584942775778308,-0.08790456416914083,0.12525130477751223,0.31451579739168795,-0.421444876818302,0.34059301558704436,-0.10788704280136183,-0.32077941671178734
1195,5.883814400003757,0.034669947989527015,0.0031368111419835766,0.07812105534040004,-0.025537479952401455,0.06000490705466756,-0.08993439648764645,0.1268828342283912,0.31397486814088355,-0.4229694292656551,0.33927319137932366,-0.1162833403597542,-0.31289905162901654
1196,5.887603900002432,0.034451053017960406,0.0027587344697665543,0.07808231258976862,-0.02492379044956847,0.06151284656567691,-0.09197146658509137,0.12850793579470368,0.31339368117432653,-0.42445592192880266,0.33788939299528925,-0.12466444536655852,-0.3049556242327005
1197,5.891621400005533,0.034233653004700215,0.002360724980046368,0.07799030095299525,-0.02430230176822794,0.06301790299572496,-0.09401559074930611,0.13012630427130636,0.31277231479694734,-0.42590405307550633,0.33644158776259886,-0.13302884917898672,-0.296950090473075
1198,5.896026200003689,0.03404253544069995,0.0019726046654546525,0.07785309321168235,-0.023673046806190427,0.06451988361171702,-0.09606658383203262,0.1317376342081354,0.3121108544396291,-0.4273135256424691,0.3349297549531169,-0.14137504361926864,-0.2888834193517038
1199,5.899650399995153,0.033864108185384614,0.0016085491355574094,0.07771639877623597,-0.02303605993614151,0.06601859609663699,-0.09812425927149876,0.13334161996643457,0.31140939265571427,-0.4286840472980391,0.3333538858170698,-0.14970152134167986,-0.2807565928157743
1200,5.903864100007922,0.03370608586389743,0.001253754437649073,0.0775788739719114,-0.022391377006549577,0.06751384858358232,-0.10018842911528689,0.13493795577530157,0.3106680291159126,-0.43001533050434065,0.331713983615723,-0.1580067762006688,-0.27257060564850205
1201,5.908028899997589,0.03353799154966436,0.0009142940420774033,0.0774162295297713,-0.02173903534229123,0.06900544968978696,-0.10225890404349348,0.13652633578854442,0.3098868706016044,-0.43130709257881333,0.33001006365257596,-0.16628930361996203,-0.26432646535562904
1202,5.912651200007531,0.033390222387284355,0.0005908392963011887,0.07729586184914657,-0.021079073744992887,0.07049320855062445,-0.1043354933921769,0.1381064541418399,0.3090660309965319,-0.4325590557551405,0.32824215330307005,-0.1745476009625258,-0.2560251920480059
1203,5.917287400006899,0.033230686741968773,0.0002648915373115739,0.07715765835654874,-0.02041153249308718,0.07197693485358367,-0.10641800517708988,0.13967800501018524,0.30820563127687295,-0.4337709472435491,0.3264102920428027,-0.18278016790126295,-0.2476678183202471
1204,5.920807999995304,0.03308408101796549,-6.257388284232974e-05,0.0770435155017685,-0.019736453341582867,0.07345643887220939,-0.10850624611769394,0.1412406826656351,0.30730579949969167,-0.4349424992904652,0.32451453147424053,-0.19098550679032253,-0.23925538912545297
1205,5.924980800002231,0.03295490878239069,-0.00038260749334644625,0.07690543520461558,-0.01905387952154696,0.07493153149999972,-0.11060002166145246,0.14279418153531434,0.30636667078975943,-0.4360734492375062,0.3225549353519238,-0.19916212303689929,-0.23078896164599333
1206,5.930092299997341,0.03284327616554358,-0.0007021302299200447,0.07674251280716846,-0.01836385573929773,0.0764020242842527,-0.11269913600839941,0.1443381962596968,0.3053883873247401,-0.437163539579792,0.32053157960615236,-0.20730852547340045,-0.22226960516035016
1207,5.935180300002685,0.03274798210100208,-0.001019847885091988,0.07656880907605744,-0.017666428175307343,0.07786772945985451,-0.11480339213598051,0.1458724217511418,0.30437109831873543,-0.4382125180235545,0.31844455236514374,-0.21542322672985842,-0.21369840090601572
1208,5.93919299999834,0.0326666949714137,-0.0013298836509113435,0.07640550761681705,-0.016961644482812878,0.07932845998300135,-0.11691259182416351,0.14739655325267928,0.3033149600041893,-0.43922013754302636,0.3162939539756525,-0.22350474360646708,-0.20507644193844632
1209,5.9432953000068665,0.032603471096323076,-0.0016577150139978427,0.07625826392581521,-0.01624955378613448,0.08078402956484733,-0.11902653568081402,0.1489102863970335,0.30222013561214855,-0.4401861564365923,0.31407989702203915,-0.23155159744611944,-0.19640483298607428
1210,5.947411999994074,0.03257440642517735,-0.001968446935735314,0.07614252675908821,-0.015530206678699683,0.08223425270507022,-0.12114502316733368,0.15041331726587578,0.3010867953508783,-0.44111033838218433,0.31180250634377393,-0.23956231450682425,-0.18768469030138424
1211,5.952143200003775,0.03253402592033262,-0.0022667941348421213,0.0760224369622172,-0.014803655220773029,0.0836789447253469,-0.12326785262455743,0.15190534244929665,0.2999151163828276,-0.4419924524919055,0.3094619190513616,-0.24753542633387912,-0.17891714150805965
1212,5.9568059000012,0.03254627640253271,-0.0025796553506224097,0.07591805990830489,-0.0140699529368901,0.08511792180273005,-0.1253948212989061,0.15338605910548744,0.29870528279994535,-0.4428322733658665,0.30705828454067163,-0.2554694701316775,-0.17010332544420834
1213,5.962386300001526,0.032534610079931324,-0.00316530478796287,0.07570386207332759,-0.013329154812995098,0.08655100100291824,-0.12752572536879084,0.15485516502062183,0.2974574855973432,-0.44362958114521617,0.30459176450565867,-0.2633629891350284,-0.16124439200167645
1214,5.9669545000069775,0.032544075237835104,-0.003445149666440948,0.07558137464608164,-0.012581317293281146,0.08797800031341153,-0.12966035997126507,0.15631235866892687,0.2961719226453025,-0.4443841615643497,0.302062532949455,-0.27121453297986836,-0.15234150196146368
1215,5.971239399994374,0.03253403525758254,-0.0037197249754703076,0.07542456339730713,-0.011826498276732588,0.08939873867654448,-0.1317985192289208,0.1577573392729319,0.2948487986596248,-0.4450958060022759,0.29947077619381657,-0.27902265807324345,-0.14339582682525465
1216,5.975182599999243,0.03253047375905445,-0.003979259906150006,0.07527192107188806,-0.01106475711336858,0.0908130360223878,-0.13393999627702613,0.15918980686388445,0.29348832517032414,-0.4457643115331266,0.29681669288690454,-0.2867859279624421,-0.13440854864308302
1217,5.979796900006477,0.03254737390010089,-0.004220006077160492,0.07511718824560941,-0.010296154600187391,0.09222071330151044,-0.13608458329089992,0.16060946234232254,0.2920907204886604,-0.44638948097579106,0.29410049400938254,-0.2945029137031576,-0.12538085983714656
1218,5.983356400000048,0.032556144426082956,-0.0044188212532344125,0.07495621567831405,-0.009520752976810895,0.09362159251759401,-0.1382320715135191,0.16201600753879192,0.2906562096725169,-0.44697112294265795,0.29132240287880806,-0.3021721942265607,-0.11631396302179389
1219,5.988154599996051,0.032527441338608146,-0.004599726971251366,0.07479091410444001,-0.008738615920828764,0.0950154967598914,-0.14038225128335494,0.16340914527469633,0.2891850244901221,-0.447509051887449,0.2884826551522975,-0.3097923567051622,-0.10720907081970521
1220,5.994851900002686,0.032435205179107265,-0.004974288224323741,0.07436988401065663,-0.007949808542841998,0.096402250235521,-0.14253491206243415,0.16478857942326897,0.2876774033821183,-0.44800308815212464,0.28558149882744543,-0.3173619969173484,-0.09806740567429109
1221,6.000513499995577,0.03239078673944759,-0.005129683416732868,0.0741341030885327,-0.007154397381205391,0.09778167830158832,-0.14468984246462085,0.1661540149706535,0.2861335914219768,-0.4484530580128456,0.28261919424147475,-0.3248797196104723,-0.0888901996583358
1222,6.005537100005313,0.03232830600905663,-0.0052894384142297066,0.07388480646530504,-0.0063524503964686296,0.09915360749712679,-0.14684683028411505,0.16750515807708305,0.28455384027476593,-0.448858793724975,0.27959601406859275,-0.332344138862382,-0.07967869427891326
1223,6.012368600000627,0.03222122346999497,-0.005577305605427023,0.07341407896495343,-0.005544036965515843,0.10051786557484929,-0.14900566252416367,0.16884171613814505,0.2829384081542719,-0.4492201335671028,0.27651224331553176,-0.33975387844127075,-0.07043414027860613
1224,6.016831300003105,0.03218437038732141,-0.005740253579976664,0.07319073174475846,-0.00472922787540344,0.10187428153270255,-0.1511661254259786,0.1701633978461188,0.28128755977847875,-0.4495369218840775,0.27336817931524987,-0.34710757216373156,-0.061157797433060046
1225,6.021402500002296,0.03215432440860411,-0.005901967548954025,0.0729747505307481,-0.003908095316896146,0.10322268564521597,-0.15332800449785705,0.17146991325137265,0.27960156632341077,-0.44980900912903193,0.27016413171876613,-0.35440386425090115,-0.0518509343449067
1226,6.026608200001647,0.03211186680442471,-0.006050496570931502,0.07276609646529825,-0.0030807128777012023,0.10456290949463694,-0.1554910845444996,0.17276097382380834,0.27788070537534415,-0.45003625190438634,0.26690042248510515,-0.361641409682579,-0.042514828234091855
1227,6.032626800006256,0.0320129377801077,-0.006371327925657333,0.07235542889833388,-0.002247155535400747,0.10589478600184447,-0.15765514969652134,0.17403629251434044,0.2761252608813936,-0.4502185130018148,0.26357738586932467,-0.3688188745492072,-0.033150764724646474
1228,6.037453700002516,0.03197725223880525,-0.006534863844143538,0.07215020337941004,-0.0014074996500824941,0.10721814945703359,-0.15981998344015144,0.1752955838163975,0.27433552309848164,-0.4503556614411594,0.26019536840859725,-0.37593493640159564,-0.02376003762794107
1229,6.041483499997412,0.031953653311413754,-0.006692502675818904,0.07193870769680882,-0.0005618229566688967,0.10853283555016181,-0.16198536864711718,0.17653856382743205,0.27251178854069613,-0.45044757250827455,0.2567547289063192,-0.38298828459828044,-0.014343948722465007
1230,6.047257700003684,0.03198968401617995,-0.006831943364552875,0.07178463774976135,0.00028979544305496395,0.10983868140114972,-0.16415108760470642,0.1777649503104254,0.2706543599250444,-0.45049412779178566,0.2532558384142199,-0.3899776206504016,-0.004903807530174559
1231,6.0515801000001375,0.032021447158282965,-0.006955665866930478,0.07162712815976535,0.001147275088714446,0.1111355255898272,-0.16631692204600415,0.17897446275537418,0.2687635461156094,-0.4504952152187477,0.2496990802124456,-0.3969016585639888,0.004559068910544411
1232,6.057769699997152,0.03214073279247086,-0.0071792045768727135,0.0713332627249097,0.002010534169918995,0.11242320818561724,-0.1684826531802985,0.18016682244074314,0.26683966206611487,-0.4504507290891874,0.24608484978758716,-0.4037591251795472,0.01404335627525139
1233,6.0625820999994176,0.032224925693174526,-0.007295133621578304,0.07117676351841204,0.0028794895351359154,0.11370157077694898,-0.17064806172365177,0.1813417524948707,0.2648830287609073,-0.4503605701095162,0.2424135548086242,-0.4105487605088356,0.02354772318711407
1234,6.066312800001469,0.0323133574594484,-0.007386942610310676,0.071060137749214,0.0037540567008637446,0.11497045650039174,-0.17281292792963093,0.18249897795731132,0.2628939731543636,-0.4502246454248034,0.23868561510075717,-0.41726931806873013,0.03307083145380764
1235,6.113189299998339,0.03233841729779083,-0.00825448416308218,0.07060943413428812,0.004634149861104631,0.11622971006950204,-0.17497703162019332,0.183638225840101,0.2608728281087345,-0.4500428686498965,0.23490146261709863,-0.42391956521206864,0.0426113363075971
1236,6.117971900006523,0.032313287453082346,-0.008310519132188908,0.0706032178731428,0.005519681897135023,0.11747917780337597,-0.17714015221672239,0.1847592251889308,0.25881993233043404,-0.44981515989937426,0.2310615414081949,-0.43049828345536995,0.05216788664854749
1237,6.124667700001737,0.0322602341043814,-0.00842016655472312,0.07059554332725314,0.006410564387573915,0.11871870765489854,-0.1793020687712074,0.18586170714421427,0.25673563030478475,-0.44954144581631555,0.2271663075893489,-0.43700426880332344,0.061739125290805
1238,6.130261400001473,0.03225008571245731,-0.008479099690736156,0.07058740423851165,0.0073067076187478186,0.11994814923868248,-0.18146255999756158,0.1869454050020345,0.2546202722292297,-0.4492216595998712,0.22321622930571633,-0.44343633206994665,0.07132368921189029
1239,6.134458300002734,0.03226196714370441,-0.008538954943628033,0.07058851726689251,0.008208020595351567,0.12116735385868799,-0.1836214043030736,0.18801005427495532,0.2524742139450216,-0.44885574103162645,0.21921178669514604,-0.4497932991963116,0.0809202098049437
1240,6.139051799997105,0.032274188779256766,-0.00859862499366868,0.07058223697209741,0.009114411051404026,0.1223761745355163,-0.18577837981998757,0.18905539275268232,0.2502978168674016,-0.44844363650074237,0.21515347184873543,-0.45607401156473787,0.09052731313385973
1241,6.143654600004084,0.03228159655539217,-0.008661352837843209,0.07058075855458104,0.01002578546149771,0.12357446603336901,-0.187933264437205,0.1900811605625575,0.2480914479142801,-0.4479852990278631,0.21104178876907195,-0.46227732630935603,0.10014362019124716
1242,6.149110199999996,0.032277537346725754,-0.008811488744027792,0.07058994422898575,0.01094204905234123,0.12476208488666529,-0.1900858358321039,0.19108710022987152,0.2458554794334308,-0.44748068828777693,0.20687725332613122,-0.4684021166229429,0.10976774715914886
1243,6.153904699996929,0.03227370487559763,-0.008887634942121251,0.07057666718835087,0.011863105814593348,0.12593888942630965,-0.1922358715024689,0.1920729567379772,0.2435902891282106,-0.4469297706308187,0.20266039321080312,-0.4744472720599279,0.11939830567245398
1244,6.158393899997464,0.03225640073803183,-0.008997963378684373,0.07054816842143131,0.012788858514987367,0.1271047398056028,-0.19438314879852692,0.19303847758818926,0.2412962599818197,-0.44633251910300475,0.198391747886018,-0.4804116988354777,0.12903390308493393
1245,6.162308600003598,0.03223741015387801,-0.009088340640276932,0.07050856403489435,0.013719208708744499,0.12825949802578815,-0.19652744495508193,0.19398341285945522,0.23897378018011647,-0.44568891346489,0.1940718685354445,-0.4862943201205667,0.1386731427378314
1246,6.166607000006479,0.03221886324390756,-0.009174396053884646,0.07043983990613084,0.01465405675227492,0.12940302796122677,-0.19866853712374483,0.19490751526778222,0.23662324303300247,-0.4449989402091378,0.1897013180097319,-0.49209407633294244,0.14831462423092975
1247,6.170442700007698,0.032212219386685254,-0.009246974156321117,0.07035787772631101,0.01559330181616499,0.13053519538419403,-0.2008062024052526,0.1958105402254042,0.23424504689439418,-0.44426259257679435,0.1852806707702688,-0.4978099254238886,0.1579569436960285
1248,6.175050200006808,0.03219829608767783,-0.00932250485179561,0.0702280306150975,0.01653684189844914,0.13165586798929063,-0.20294021788187114,0.19669224589967307,0.23183959508079738,-0.44347987057225474,0.18081051283043176,-0.5034408431606973,0.1675986940727502
1249,6.179126600007294,0.03218290920778342,-0.009403136760471394,0.07008463312112956,0.017484573838164867,0.13276491541746027,-0.2050703606498757,0.19755239327165772,0.22940729578850058,-0.44265078097690963,0.17629144169429584,-0.5089858234047621,0.1772384653866009
1250,6.182911600000807,0.03216914081171287,-0.009453936270377342,0.06987879022170009,0.018436393329189206,0.13386220927960754,-0.20719640785210283,0.19839074619443475,0.22694856200940405,-0.4417753373614599,0.1717240662927826,-0.5144438783852083,0.18687484502920623
1251,6.189907599997241,0.03217149703114808,-0.00948808366702611,0.0696377413635369,0.019392194934354897,0.13494762317980932,-0.2093181367105672,0.19920707145105426,0.2244638114455028,-0.44085356009689053,0.16710900691722033,-0.5198140389679711,0.19650641804064273
1252,6.195232800004305,0.032185594902449086,-0.009474212301600178,0.06904464484654331,0.020351872099844324,0.13602103273811325,-0.21143532455913658,0.20000113881216466,0.22195346642204242,-0.43988547636409325,0.16244689515029195,-0.525095354920232,0.20613176739378347
1253,6.199440600001253,0.0322093326038901,-0.009419543690204242,0.06869156723704646,0.02131531716985943,0.1370823156129166,-0.2135477488762584,0.20077272109328023,0.21941795379936624,-0.43887112016213164,0.15773837379434688,-0.5302868951701305,0.21574947428057648
1254,6.203317899999092,0.0322093326038901,-0.009419543690204242,0.06869156723704646,0.022282421401565774,0.13813135152291875,-0.21565518731773084,0.20152159421167531,0.21685770488347186,-0.4378105323151422,0.1529840967970528,-0.5353877480616644,0.2253581184001717
1255,6.208545700006653,0.03222942861041471,-0.009267519792797671,0.0678802667324908,0.02325307498030876,0.13916802226864056,-0.21775741774951152,0.20224753724288916,0.21427315533529817,-0.43670376047786374,0.14818472917436432,-0.5403970216046962,0.23495627824881268
1256,6.212215599996853,0.0322372346891708,-0.009175044797051462,0.06744231719106332,0.024227167035099945,0.14019221175350327,-0.21985421828055673,0.20295033247682515,0.21166474507876198,-0.43555085913978747,0.14334094693078636,-0.5453138437199834,0.24454253141140794
1257,6.216589899995597,0.032274911526866325,-0.009072038375941616,0.0670166188328698,0.025204585654371288,0.14120380600446117,-0.2219453672956836,0.203629765473428,0.2090329182075656,-0.4343518896279208,0.13845343697691082,-0.5501373624791538,0.25411545485469333
1258,6.223152999999002,0.032323701692684316,-0.008962755590539695,0.06660420082874234,0.02618521790199498,0.14220269319218176,-0.22403064348844892,0.20428562511792409,0.20637812289079568,-0.43310692010815977,0.13352289704420536,-0.554866746339546,0.2636736252218964
1259,6.228586099998211,0.032374356185094766,-0.008711914480940174,0.06574801417819134,0.027168949833566523,0.1431887636507677,-0.22610982589403675,0.20491770367560885,0.20370081127733505,-0.4318160255852637,0.1285500355970352,-0.5595011843738429,0.2732156191288127
1260,6.233262699999614,0.03236111915699144,-0.008524379310749865,0.06526199153349467,0.02815566651294856,0.14416190989701405,-0.22818269392214743,0.20552579684616584,0.20100143939910886,-0.4304792879014278,0.12353557174189977,-0.5640398864944218,0.282740013461202
1261,6.237700600002427,0.032306864828743224,-0.00830147005480086,0.0647457740763664,0.02914525202907296,0.14512202664919543,-0.23024902738988223,0.20610970381750054,0.19828046707318878,-0.42909679573344606,0.11848023513386789,-0.5684820836723478,0.2922453856734125
1262,6.245949699994526,0.032173272089412334,-0.0076810609945704485,0.06368330645584828,0.030137589512998476,0.14606901084537713,-0.23230860655461483,0.2066692273190724,0.19553835780277867,-0.42766864458845966,0.11338476588019492,-0.5728270281509396,0.3017303140881413
1263,6.250693900001352,0.03210954696151225,-0.007293572593468344,0.06307390730545354,0.03113256115522148,0.14700276166124485,-0.23436121214684194,0.20720417367470872,0.19277557867710585,-0.42619493679828724,0.10824991444110627,-0.5770739936538435,0.311193378197237
1264,6.2541760000021895,0.032041609499311556,-0.006857017715756548,0.06249015714843344,0.032130048223237014,0.1479231805274481,-0.23640662540300614,0.20771435285488368,0.18999260027024242,-0.42467578151233343,0.10307644152773303,-0.5812222755875422,0.3206331589634493
1265,6.258376900004805,0.032037777975490594,-0.006361292568770539,0.06189271777962592,0.0331299310793476,0.14883017114645283,-0.23844462809828496,0.2081995785284456,0.1871898965388823,-0.42311129468907216,0.09786511799718667,-0.5852711912382317,0.33004823912302955
1266,6.26367410000239,0.032037050272019814,-0.005751323933960807,0.061234373984243196,0.03413208919871704,0.14972363950889797,-0.24047500257933882,0.20865966811377645,0.1843679447190977,-0.4215015990861013,0.09261672474476118,-0.589220079963004,0.33943720348908696
1267,6.268551700006356,0.0319980254618587,-0.0050023228661768854,0.06060541205890779,0.03513640118766645,0.1506034939094513,-0.24249753179701178,0.2090944428293671,0.1815272252220997,-0.419846824248765,0.08733205259325154,-0.5930683033752776,0.34879863925560434
1268,6.272773699995014,0.03193849051356712,-0.0041224280097921125,0.059971752332205384,0.03614274480220952,0.1514696449621592,-0.2445119993389775,0.2095037277437915,0.17866822152902756,-0.41814710649734205,0.08201190217937909,-0.5968152455244119,0.3581311363020166
1269,6.2795031999994535,0.03185299218619471,-0.0021244042455684743,0.0585846345426331,0.037150996966824175,0.15232200561528492,-0.24651818946232404,0.20988735182506488,0.17579142008479412,-0.416402588912798,0.07665708383731572,-0.600460313069447,0.3674332874982531
1270,6.283433500007959,0.03175193497762605,-0.001037669280205079,0.05789261777991289,0.03816103379345734,0.15316049116563094,-0.24851588712606995,0.21024514798937025,0.1728973101910134,-0.41461342132110107,0.07126841747929975,-0.6040029354469082,0.37670368901014495
1271,6.287451600001077,0.03169687590926662,0.00020952804466642443,0.057010275997534304,0.03917273060075968,0.15398501927234076,-0.25050487802360294,0.2105769531491381,0.1699863838980376,-0.41277976027609753,0.0658467324733377,-0.6074425650326201,0.38594094060509865
1272,6.291653899999801,0.03158029357000271,0.0016414100656957826,0.05623501189540675,0.040185961933547176,0.15479550997017494,-0.2524849486150333,0.21088260826046312,0.16705913589613097,-0.41090176904094594,0.06039286751798685,-0.6107786772974776,0.39514364595793566
1273,6.295497500002966,0.03139139685002057,0.003161886672146744,0.05542996450955821,0.041200601582486014,0.15559188568225638,-0.2544558861594545,0.21116195836984214,0.16411606340580812,-0.4089796175681091,0.054907670514215946,-0.6140107709571242,0.40431041295679687
1274,6.305803700000979,0.030831327995007873,0.006495783195546988,0.053768629435883036,0.04221652260399726,0.1563740712322799,-0.25641747874710336,0.2114148526602181,0.16115766606736573,-0.40701348247790664,0.04939199843434181,-0.6171383681154867,0.4134398540090086
1275,6.309546799995587,0.030547317456307982,0.00837820381473274,0.05301177903047908,0.04323359734037776,0.15714199385618166,-0.258369515331412,0.21164114449631505,0.15818444582963634,-0.4050035470356278,0.043846717188042214,-0.6201610144021161,0.4225305863468075
1276,6.313545299999532,0.030291393991443583,0.010267938562221204,0.052149901763227736,0.04425169744013375,0.15789558321326466,-0.2603117857609454,0.21184069146924833,0.1551969068379934,-0.4029500011272039,0.038272701485446314,-0.6230782791032842,0.43158123233282086
1277,6.31699920000392,0.03004983575553378,0.012353462246642374,0.05119670893125337,0.04527069387852328,0.1586347713967767,-0.2622440808112163,0.21201335544039385,0.15219555532163695,-0.400853041233444,0.03267083469730568,-0.6258897552867903,0.4405904197652006
1278,6.321057099994505,0.02965764845865541,0.014424886463939123,0.05033982616230985,0.04629045697830363,0.15935949294393753,-0.2641661922163719,0.21215900258450096,0.14918089948019003,-0.3987128704028341,0.027042008712249984,-0.6285950599204335,0.4495567821823064
1279,6.324856399995042,0.029345003725370352,0.016611133172272065,0.04955346158552501,0.047310856430679823,0.1600696848454119,-0.2660779127007438,0.21227750343203408,0.14615344936963434,-0.39652969822290374,0.021387123791132983,-0.6311938339841096,0.45847895916683457
1280,6.329592399997637,0.029066108052493107,0.01888213579796162,0.04862335683466898,0.048331761316450665,0.1607652865542259,-0.2679790360102553,0.21236873291072783,0.14311371678761553,-0.39430374079016517,0.015707088418476005,-0.6336857425754934,0.46735559664929166
1281,6.333788200005074,0.028704268466106447,0.021201457039927554,0.04783091743173067,0.049353040127348306,0.16144623999412339,-0.2698693569436765,0.21243257038634178,0.1400622151581491,-0.39203522067862956,0.010002819151017705,-0.6360704750092724,0.4761853472107093
1282,6.338651500002015,0.02817846703649359,0.023576155920920865,0.04694453874214024,0.05037456078756741,0.1621124895673604,-0.27174867138372205,0.2124688997026005,0.13699945941575808,-0.38972436690690376,0.004275240463380547,-0.6383477449098927,0.4849668703844965
1283,6.345879400003469,0.02739941841166813,0.0284202914668538,0.045176172541500324,0.051396190675479805,0.16276398216193483,-0.27361677632798426,0.2124776092203043,0.13392596588907454,-0.38737141490387206,-0.0014747154091338758,-0.6405172902977829,0.49369883295732586
1284,6.354259600004298,0.026387730430162598,0.033449135647372646,0.04344734461138646,0.05241779664553056,0.16340066715824958,-0.2754734699196938,0.21245859185559737,0.13084225218393647,-0.384976606472966,-0.007246108630607016,-0.6425788736690239,0.502379909268954
1285,6.357904300006339,0.026049418859254242,0.036050569208072626,0.042667859829258754,0.05343924505031122,0.164022496435207,-0.2773185514783021,0.21241174511737881,0.12774883706601126,-0.3825401897550277,-0.013037991927407741,-0.6445322820684327,0.5110087815108757
1286,6.3620661000022665,0.02555466701241385,0.038632379916441036,0.04164331338883988,0.05446040176280566,0.164629424375732,-0.27915182152987766,0.2123369711438422,0.12464624034297858,-0.38006241918977174,-0.018849410753921988,-0.6463773271560356,0.5195841400237061
1287,6.366219699993962,0.024971079066235677,0.04125118579507252,0.04083902230112384,0.05548113219880434,0.16522140787172077,-0.2809730818373121,0.21223417673813036,0.12153498274630463,-0.37754355547585233,-0.024679403461089152,-0.6481138452669016,0.5281046835931911
1288,6.370639400003711,0.024492876546408436,0.04388560304107221,0.03983957280158259,0.05650130133948246,0.1657984063284117,-0.2827821354303295,0.2121032734030906,0.11841558581264139,-0.3749838655295404,-0.030527001467725075,-0.6497416974643152,0.5365691197447442
1289,6.376585799996974,0.02390305435598494,0.046485958909538806,0.038920745567301115,0.05752077375413777,0.16636038166817657,-0.2845787866352919,0.21194417737511734,0.11528857176488419,-0.37238362244201806,-0.03639122943460978,-0.6512607695862633,0.5449761650364134
1290,6.380440399996587,0.02328449989669977,0.049103499575285564,0.037830914145080254,0.05853941362308343,0.16690729833373022,-0.2863628411047945,0.21175680965706836,0.11215446339292057,-0.3697431054352956,-0.042271105441316466,-0.652670972285217,0.5533245453501753
1291,6.387176799995359,0.022084212886886202,0.054450514216346634,0.03584229771238556,0.05955708476069156,0.16743912329075708,-0.288134105847044,0.21154109605024166,0.10901378393410383,-0.36706259981675576,-0.04816564116575675,-0.6539722410611934,0.5616129961814557
1292,6.393366599993897,0.02142554326636089,0.05718907615426031,0.03479676320329859,0.06057365063858289,0.16795582602995357,-0.2898923892550187,0.21129696718539995,0.10586705695348496,-0.3643423969323339,-0.0540738420664157,-0.6551645362880864,0.5698402629267761
1293,6.397526400003699,0.020840260689471906,0.060003824052041785,0.033684942361952915,0.061588974408957935,0.1684573785684846,-0.2916375011354021,0.21102435855283097,0.10271480622383668,-0.3615827941183415,-0.05999470756724804,-0.6562478432332495,0.5780051011694248
1294,6.402115300006699,0.020196239245654675,0.06295982937093188,0.03264259221053491,0.06260291892806523,0.16894375545085238,-0.29336925273728426,0.21072321053143162,0.09955755560550285,-0.358784094651942,-0.06592723124520568,-0.6572221720703226,0.5861062769630527
1295,6.406185900006676,0.0195261471328081,0.06594688252086614,0.03163537061525289,0.06361534677980178,0.16941493374917574,-0.29508745678062315,0.2103934684168035,0.09639582892610754,-0.35594660770028996,-0.07187040102036493,-0.6580875578852873,0.5941425671130972
1296,6.410737199999858,0.018909718467849473,0.06894989864500185,0.030370645195205007,0.06462612029944091,0.16987089306287978,-0.2967919274844607,0.210035082448347,0.09323014986015785,-0.35307064826834567,-0.07782319934862032,-0.6588440606757416,0.6021127594559369
1297,6.414631499996176,0.01821999369888618,0.07204470966074608,0.029357696360013737,0.06563510159748259,0.17031161551779436,-0.2984824805948869,0.2096480078353423,0.09006104180857459,-0.35015653714537415,-0.08378460341690988,-0.6594917653433913,0.610015653135681
1298,6.418863700004295,0.017545173625133935,0.07512784246178948,0.028114475968418876,0.0666421525836214,0.17073708576466062,-0.3001589334127454,0.20923220478200652,0.08688902777818572,-0.3472046008501393,-0.08975358534093542,-0.6600307816797489,0.6178500588784975
1299,6.424468600002001,0.01626212777027184,0.08146816930883999,0.025911791670343947,0.06764713499082722,0.17114729097704598,-0.30182110482107427,0.20878763851151513,0.08371463026121656,-0.34421517157480547,-0.09572911236533911,-0.6604612443450434,0.6256147992643825
1300,6.428827800002182,0.015641808684732243,0.0846439723636366,0.024669687361333695,0.0686499103995342,0.17154222084866796,-0.3034688153122754,0.20831427928897625,0.08053837111481123,-0.34118858712755884,-0.10171014706629633,-0.6607833128403408,0.6333087089962703
1301,6.433764700006577,0.015013667976956949,0.08785332983030845,0.023483869670921653,0.06965034026193286,0.17192186759012718,-0.3051018870150073,0.20781210244334777,0.07736077144062015,-0.3381251908739602,-0.10769564755648298,-0.6609971714728825,0.6409306351663914
1302,6.437334500005818,0.014408178852581463,0.0910854127400312,0.022112817520905666,0.07064828592636088,0.17228622592504986,-0.30672014372079687,0.20728108838828738,0.07418235146448862,-0.33502533167704146,-0.11368456769237394,-0.661103029314644,0.6484794375197819
1303,6.442079900007229,0.013801182779503214,0.09438532917635609,0.020892209037235328,0.07164360866178789,0.1726352930856398,-0.30832341091036286,0.20672122264192558,0.07100363041628124,-0.33188936383616163,-0.11967585728382756,-0.6611011201541195,0.6559539887148568
1304,6.446676599996863,0.013210807235061111,0.09759375140568216,0.019516520532204647,0.07263616968238883,0.17296906880764085,-0.30991151577964465,0.2061324958455519,0.06782512640987745,-0.328717647024636,-0.1256684623059102,-0.6609917024413429,0.6633531745809488
1305,6.451674500000081,0.012604972106346523,0.10075914660200651,0.018088483740074136,0.07362583017220067,0.17328755532471177,-0.3114842872655302,0.2055149037812046,0.06464735632337326,-0.3255105462261522,-0.1316613251129127,-0.6607750592261598,0.6706758943727249
1306,6.4558789000002434,0.012038413848993157,0.1039301231919723,0.0167831016674877,0.07461245130985657,0.17359075736221471,-0.3130415560712778,0.2048684473881552,0.06147083567952438,-0.3222684316699878,-0.1376533846545094,-0.6604514980897629,0.6779210610213883
1307,6.462346300002537,0.01105098268099617,0.11013339522122194,0.013747385425447196,0.0755958942933928,0.17387868213041868,-0.31458315469162734,0.20419313277827986,0.058296078526465116,-0.3189916787650457,-0.14364357669400937,-0.6600213510695067,0.6850876013825744
1308,6.466694999995525,0.010586472476259658,0.11326032523288536,0.012272312587036,0.07657602036512355,0.1741513393171187,-0.3161089174375928,0.20348897125030915,0.05512359731873808,-0.31568066803272227,-0.1496308340286468,-0.6594849745770166,0.6921744564808542
1309,6.470767899998464,0.01018307323057337,0.116348753304554,0.010627131196417122,0.07755269083657788,0.17440874107967194,-0.3176186804609315,0.20275597930294884,0.051953902798669765,-0.31233578503862336,-0.15561408671185703,-0.6588427493096126,0.6991805817507571
1310,6.478315900007146,0.009351564727789813,0.12251595620646617,0.007381959053349162,0.07852576711349417,0.1746509020364524,-0.31911228177828405,0.20199417864686373,0.04878750387812677,-0.3089574203231437,-0.16159226227748213,-0.6580950801550703,0.706104947274231
1311,6.488401599999634,0.008562748540435677,0.1285785630267784,0.003821754056719244,0.0794951107208665,0.17487783925772687,-0.3205895612949786,0.2012035962155175,0.045624907520687166,-0.30554596933092637,-0.16756428596584969,-0.657242396089744,0.7129465380144551
1312,6.492226999995182,0.008226929345553819,0.13164767942101757,0.0020241937427649213,0.08046058332803802,0.1750895722559543,-0.32205036082849603,0.2003842641748614,0.04246661862426129,-0.30210183233921906,-0.17352908095166691,-0.6562851500700769,0.7197043540459215
1313,6.498201299997163,0.007869604440679506,0.13476172099668857,0.00023614063486893707,0.08142204677383541,0.17528612297551197,-0.3234945241315895,0.1995362199318647,0.03931313990419656,-0.2986254143851455,-0.17948556857367134,-0.6552238189175306,0.7263774107806973
1314,6.503785599998082,0.007079167060097985,0.14069987261605393,-0.0033575071913284284,0.08237936309173863,0.17546751578185144,-0.3249218969150553,0.19865950614188094,0.036164971776900715,-0.29511712519190875,-0.1854326685659773,-0.6540589031969642,0.7329647391907851
1315,6.508697099998244,0.006798776073312506,0.14359775010205952,-0.005149927962466903,0.08333239453508016,0.17563377745008688,-0.32633232687014807,0.19775417071484408,0.033022612244017806,-0.29157737909394577,-0.19136929929105614,-0.6527909270885027,0.7394653860265067
1316,6.513489100005245,0.006440282421465918,0.1464512902955549,-0.00705843485434523,0.08428100360226853,0.17578493715301893,-0.3277256636906369,0.1968202668202889,0.02988655677719105,-0.28800659496105263,-0.1972943779742868,-0.6514204382529256,0.7458784140308318
1317,6.517119500000263,0.006063502825512055,0.14927091644558188,-0.008878677203850273,0.08522505306203018,0.17592102644859847,-0.32910175909449507,0.19585785289118943,0.026757298203446613,-0.284405196121499,-0.20320682094001094,-0.6499480076906138,0.7522029021495781
1318,6.520675499996287,0.005751170628059254,0.15196631212712672,-0.010853643111347172,0.0861644059786646,0.17604207926683302,-0.3304604668452189,0.19486699262661103,0.023635326591232533,-0.2807736102841515,-0.20910554384902594,-0.6483742295940886,0.7584379457374093
1319,6.5244270999974106,0.005565385694669763,0.15454537257017378,-0.012631384130918388,0.0870989257373072,0.17614813189613945,-0.3318016427727699,0.1938477549931703,0.020521129137146404,-0.27711226945962597,-0.21498946193744772,-0.6466997211941846,0.7645826567595578
1320,6.529112300006091,0.005385810124250032,0.15714669725564265,-0.014696124349881375,0.08802847606919437,0.17623922296914757,-0.3331251447941384,0.19280021422529814,0.017415190053385512,-0.27342160988048886,-0.22085749025687473,-0.6449251225998964,0.7706361639892005
1321,6.533312400002615,0.00522901376847796,0.1597504598843136,-0.01651416657284207,0.08895292107692465,0.176315393447958,-0.3344308329335249,0.19172444982430267,0.014317990455952907,-0.26970207192052725,-0.22670854391578235,-0.6430510966319455,0.776597613200419
1322,6.538832499994896,0.005028435948986408,0.16230000807556613,-0.018421603555693052,0.08987212525971061,0.17637668660885833,-0.33571856934213684,0.1906205465562288,0.011230008253652604,-0.2659541000131084,-0.23254153832207777,-0.6410783286501132,0.7824661673566736
1323,6.545862300001318,0.004967049615277168,0.16719755458662666,-0.022140012896837036,0.09078595353861539,0.1764231480265009,-0.3369882183175947,0.18948859444851088,0.008151718037906949,-0.26217814256864824,-0.23835538942674178,-0.6390075263743883,0.7882410067947249
1324,6.5542417999968166,0.0050092642176675275,0.1716243547204915,-0.02615025058780604,0.0916942712817687,0.17645482555754588,-0.33823964632294223,0.18832868878541564,0.005083590973428844,-0.25837465189120984,-0.24414901396848437,-0.6368394196999783,0.7939213294039308
1325,6.5583142999967095,0.00501949148070263,0.1738207092823873,-0.02815748686149498,0.09259694432955677,0.17647176932377398,-0.339472722005258,0.18714093010227226,0.002026094689781294,-0.25454408409425194,-0.24992132971933986,-0.6345747605062356,0.7995063508008551
1326,6.562275400006911,0.005071565598864519,0.17585740570599692,-0.030143420464006396,0.09349383901978063,0.1764740316946724,-0.3406873162138618,0.18592542417848817,-0.0010203068261435356,-0.2506868990155501,-0.2556712557311251,-0.6322143224595526,0.80499530449912
1327,6.566249900002731,0.005192256744290394,0.17794029627105307,-0.03229007012979414,0.09438482221277676,0.17646166726949916,-0.34188330201811146,0.18468228202934903,-0.004055153336693855,-0.24680356013131044,-0.26139771258268396,-0.6297589008102775,0.8103874420744434
1328,6.5723460000008345,0.005414607722424693,0.17992113422916822,-0.034448874156099825,0.0952697613164944,0.1764347328588305,-0.3430605547247855,0.1834116198966008,-0.007077988459044763,-0.24289453446949735,-0.26709962262784276,-0.6272093121837107,0.8156820333248008
1329,6.577199999999721,0.005656738477574227,0.18179359007303297,-0.036555692338281154,0.096148524311524,0.1763932874655956,-0.3442189518950465,0.1821135592378133,-0.010088359769770452,-0.23896029252239753,-0.27277591024399567,-0.6245663943652398,0.8208783664256587
1330,6.582679300001473,0.006212811521443874,0.18562294226423287,-0.04091554252181322,0.09702097977607169,0.17633739226560335,-0.34535837336098185,0.18078822671452532,-0.013085818908371114,-0.23500130815844544,-0.27842550208124167,-0.6218310060796794,0.8259757480802168
1331,6.58709820000513,0.006533106642349565,0.18749146876418266,-0.04302132877547822,0.0978869969108736,0.1762671105875658,-0.34647870124171715,0.17943575417917054,-0.016069921679723917,-0.23101805853333363,-0.2840473273119938,-0.6190040267648756,0.8309735036646062
1332,6.591449500003364,0.006767612938508499,0.1894291127486647,-0.04518295391870981,0.09874644556404436,0.17618250789262413,-0.3475798199590965,0.17805627866078413,-0.019040228155427788,-0.22701102400043202,-0.28964031788097816,-0.6160863563396405,0.8358709773679929
1333,6.595829600002617,0.007124027552847426,0.1912172868861106,-0.047415097040645615,0.0995991962558539,0.17608365175338317,-0.3486616162529271,0.17664994234949002,-0.021996302774012027,-0.2229806880205398,-0.29520340875554263,-0.613078914966085,0.8406675323275407
1334,6.599881999994977,0.0075380025487533624,0.19305567771279805,-0.04958050050531666,0.1004451202034273,0.17597061183246013,-0.3497239791957831,0.17521689257976905,-0.02493771443997913,-0.2189275370709934,-0.300735538176192,-0.6099826428064196,0.8453625507581898
1335,6.604118300005212,0.00788547143402029,0.1948536301528627,-0.051780742749277325,0.10128408934536198,0.17584345986055355,-0.35076680020736584,0.17375728181250955,-0.02786403662165243,-0.21485206055415434,-0.3062356479072689,-0.6067984997742928,0.8499554340772042
1336,6.607947700002114,0.008307508542152198,0.19656632903016358,-0.053950277233168344,0.10211597636625662,0.17570226961403843,-0.35178997306841847,0.172271267615842,-0.030774847447799753,-0.21075475070530048,-0.31170268348769964,-0.6035274652807442,0.8544456030234407
1337,6.612320100000943,0.00880328671384356,0.19821093490129024,-0.056324311566895074,0.10294065472114658,0.1755471168920932,-0.35279339393419357,0.1707590126447596,-0.03366972980300473,-0.20663610249994618,-0.31713559448172135,-0.600170537974846,0.8588324977712977
1338,6.616712600007304,0.00920469969605864,0.19982761407545266,-0.05865643377686396,0.10375799865984027,0.17537807949336434,-0.35377696134747194,0.16922068461952816,-0.036548271421757705,-0.20249661356061704,-0.3225333347295084,-0.5967287354791088,0.8631155780393045
1339,6.621702699994785,0.009673079131299172,0.20129125323395938,-0.06123749682108108,0.10456788325115086,0.17519523719217434,-0.35474057625112987,0.1676564563028874,-0.03941006498123877,-0.19833678406310437,-0.32789486259761347,-0.5932030941197307,0.8672943231933168
1340,6.627285299997311,0.01024892167986997,0.20281580029321827,-0.06377967384518905,0.10537018440701841,0.17499867171427996,-0.3556841420002512,0.1660665054760464,-0.042254708192765666,-0.19415711664222518,-0.3332191412291404,-0.5895946686517679,0.8713682323442851
1341,6.631410300004063,0.010759060654863876,0.20420140539535783,-0.06622747867826734,0.106164778906517,0.1747884667121875,-0.356607564373781,0.16445101491347627,-0.04508180389188002,-0.18995811629711293,-0.3385051387935621,-0.5859045319793083,0.8753368244405628
1342,6.637222699995618,0.011908409649428409,0.20697164707636684,-0.07163219182492474,0.10695154441974132,0.17456470774003208,-0.3575107515857178,0.16281017235650358,-0.047890960127045815,-0.1857402902960645,-0.3437518287360993,-0.5821337748707333,0.8791996383547206
1343,6.642351700007566,0.012434692520444969,0.20825552269303435,-0.07436661340026171,0.10773035953156686,0.17432748222802785,-0.3583936142958433,0.1611441704857089,-0.050681790246934165,-0.1815041480809695,-0.34895819002657463,-0.5782835056691533,0.8829562329648316
1344,6.646754000001238,0.013044336069674986,0.20952364324822187,-0.07705200783224372,0.10850110376527813,0.17407687945649641,-0.3592560656199878,0.1594532068921351,-0.05345391298626905,-0.1772502011713484,-0.35412320740765313,-0.5743548499981028,0.8866061872302005
1345,6.650718899996718,0.013740635040318984,0.2107791656795476,-0.0797799608629281,0.10926365760605909,0.17381299052948074,-0.36009802113983014,0.15773748404731064,-0.05620695255020894,-0.1729789630680261,-0.3592458716423838,-0.5703489504625833,0.8901491002615106
1346,6.654376200007391,0.01442420710647788,0.21194024859103147,-0.0824805069098912,0.11001790252434013,0.1735359083479526,-0.3609193989122287,0.15599720927209276,-0.05894053869723984,-0.16869094915646834,-0.36432517976095946,-0.5662669663455446,0.893584591385367
1347,6.658097200008342,0.015104640421304591,0.21304543050679642,-0.08529747561493714,0.11076372099899563,0.17324572758262155,-0.36172011947808014,0.1542325947043365,-0.061654306820556226,-0.16438667660980807,-0.3693601353066089,-0.5621100732998996,0.8969123002032108
1348,6.662414300008095,0.015828312198768017,0.21411911124444027,-0.08800870161649996,0.11150099654038569,0.17294254464635433,-0.36250010587070436,0.1524438572653957,-0.06434789802790657,-0.1600666642915887,-0.374349748580537,-0.5578794630361625,0.9001318866445883
1349,6.667647900001612,0.016655047876539236,0.21516175816276564,-0.09070278807169482,0.11222961371323616,0.1726264576662137,-0.3632592836237567,0.15063121862546236,-0.06702095921988076,-0.1557314326582508,-0.3792930368858259,-0.553576343005806,0.903243031014755
1350,6.67258500000753,0.017489464985902238,0.21614900016901478,-0.09344132232295067,0.11294945815935147,0.17229756645512465,-0.3639975807786691,0.14879490516775093,-0.06967314316661716,-0.15138150366138867,-0.3841890247702133,-0.5492019360804306,0.9062454340365995
1351,6.6771111999987625,0.018422704859326924,0.21702793424161124,-0.09610016579894723,0.11366041662015476,0.17195597248317596,-0.3647149278916199,0.1469351479515352,-0.0723041085829075,-0.14701740064980245,-0.389036744267665,-0.5447574802268432,0.9091388168868755
1352,6.682523199997377,0.020234113286610674,0.21862211076082114,-0.10158225975834023,0.11436237695904937,0.1716017788485645,-0.36541125804003133,0.14505218267404574,-0.07491352020167871,-0.14263964827137346,-0.393835235138657,-0.5402442281781473,0.9119229212267304
1353,6.687146700001904,0.02118185881767643,0.21940250309601037,-0.10424806584049838,0.11505522818359618,0.17123509024818978,-0.36608650682859517,0.14314624963123584,-0.0775010488458309,-0.1382487723747895,-0.3985835451090839,-0.5356634471009409,0.9145975092265202
1354,6.691504500005976,0.022156964894559778,0.22011214043505914,-0.10700022061297572,0.11573886046750177,0.17085601294790664,-0.36674061239482386,0.1412175936774238,-0.0800663714984115,-0.1338452999111466,-0.4032807301077086,-0.5310164182587248,0.9171623635849037
1355,6.695624700005283,0.02312123209627486,0.22075611462788125,-0.10980171245303681,0.11641316517241218,0.17046465475244496,-0.3673735154141286,0.1392664641838194,-0.08260917137110595,-0.12942975883545477,-0.40792585450206753,-0.5263044366716224,0.9196172875422107
1356,6.700072199993883,0.02415095371677651,0.22133863600410514,-0.11254689419265976,0.11707803486950623,0.17006112497500395,-0.36798515910442414,0.13729311499594363,-0.08512913797102556,-0.12500267800807435,-0.41251799133274886,-0.5215288107725164,0.9219621048880824
1357,6.704015800001798,0.02513717631856866,0.22192507051594523,-0.11535470493732423,0.11773336336088235,0.16964553440652974,-0.368575489230261,0.13529780438995131,-0.08762596716577516,-0.12056458709611109,-0.4170562225459604,-0.5166908620597077,0.9241966599633841
1358,6.709857699999702,0.026213477049961638,0.22264024143593847,-0.11801081893239401,0.11837904570073335,0.16921799528468423,-0.3691444541064857,0.13328079502786652,-0.09009936124678253,-0.11611601647479762,-0.42153963922430493,-0.5117919247462004,0.9263208176563921
1359,6.716465999998036,0.028319369833797948,0.2239347096908139,-0.12369724807084512,0.119014978216304,0.1687786212625153,-0.369692004601428,0.13124235391174094,-0.09254902899087274,-0.11165749712888866,-0.4259673418156802,-0.5068333454057211,0.9283344633932549
1360,6.720745700004045,0.02932917991289037,0.2246135059446952,-0.12642017882160664,0.11964105852862654,0.16832752737683737,-0.3702180941396141,0.12918275233674653,-0.09497468572007073,-0.10718956055409719,-0.4303384403602262,-0.501816482615579,0.9302375031227362
1361,6.724866300006397,0.030412542350847747,0.22535636707479345,-0.1292039453926639,0.12025718557302888,0.16786483001633024,-0.37072267870400694,0.12710226584321233,-0.09737605335961627,-0.10271273865859838,-0.4346520547152376,-0.4967427065964747,0.9320298632952476
1362,6.728936900006374,0.03144476940337514,0.22608786086508814,-0.1318877268838094,0.1208632596194104,0.16739064688936503,-0.3712057168377752,0.12500117416761686,-0.09975286049417627,-0.09822756366462843,-0.43890731477796224,-0.4916133988493686,0.9337114908361792
1363,6.732829000000493,0.03242733167991703,0.22681319312680887,-0.1346105658781773,0.12145918229228037,0.16690509699156605,-0.37166716964559193,0.12287976119254777,-0.10210484242223991,-0.093734568010205,-0.4431033607062081,-0.4864299517895198,0.9352823531135425
1364,6.73705890000565,0.03345244514967211,0.22765742555295418,-0.13723409641549467,0.12204485659055371,0.16640830057311728,-0.3721070007944623,0.12073831489564116,-0.1044317412086828,-0.08923428425099686,-0.447239343136679,-0.4811937683778065,0.9367424378999405
1365,6.747147100002621,0.03552615429498527,0.22923714105868734,-0.14224570966141084,0.12262018690709933,0.16590037910582225,-0.37252517651408196,0.11857712729751245,-0.10673330573548713,-0.08472724496236994,-0.4513144234009611,-0.4759062617494423,0.9380917533288833
1366,6.75449550000485,0.037502741315275874,0.230634677943769,-0.14754929295893932,0.12318507904803665,0.1653814552499276,-0.37292166559672607,0.11639649440869078,-0.10900929175060521,-0.08021398264163689,-0.4553277737390845,-0.47056885484020006,0.9393303278454677
1367,6.7582201000041096,0.03856549641742468,0.2312231218909529,-0.15012531444065494,0.12373944025177548,0.16485165282071998,-0.3732964393966693,0.11419671617556984,-0.11125946191495374,-0.07569502961053694,-0.459278577510586,-0.4651829800102573,0.9404582101514455
1368,6.76227690000087,0.03968906408443404,0.23180500338841029,-0.15240447685418992,0.12428317920779466,0.1643110967549047,-0.3736494718291368,0.11197809642538833,-0.11348358584752714,-0.07117091791797339,-0.4631660294029986,-0.45975007866577783,0.9414754691447053
1369,6.766302200005157,0.04080268097629987,0.23234758402427333,-0.15491448871079996,0.12481620607515431,0.16375991307677495,-0.37398073936878656,0.10974094281025305,-0.1156814401686191,-0.06664217924303571,-0.46698933563769546,-0.4542716008783471,0.9423821938532008
1370,6.770774899996468,0.04196735970994961,0.23271882134172683,-0.1574349666268323,0.12533843250073726,0.1631982288641819,-0.3742902210477235,0.10748556675021798,-0.1178528085411424,-0.06210934479833299,-0.47074771417301414,-0.44874900500237613,0.94317849336335
1371,6.774623699995573,0.0432761242838536,0.23296871745348005,-0.15972079344728127,0.12584977163721472,0.16262617221431508,-0.37457789845304895,0.10521228337543262,-0.11999748171003707,-0.057572945233665615,-0.4744403949045889,-0.4431837572905904,0.9438644967429382
1372,6.779084399997373,0.04452938985587033,0.23316186918821094,-0.16215247559601137,0.12635013816073262,0.16204387220930327,-0.3748437557239453,0.10292141146737377,-0.12211525753975781,-0.05303351054006198,-0.47806661986281807,-0.4375773315077223,0.9444403529585614
1373,6.783602800001972,0.04575054164292343,0.23332809522292708,-0.1645888955639343,0.12683944828831428,0.16145145888164536,-0.37508777954829847,0.10061327339917527,-0.1242059410498321,-0.04849156995420652,-0.48162564340739394,-0.43193120854252354,0.9449062307876475
1374,6.787409399999888,0.047036059645300235,0.2334009914397513,-0.16689224121952498,0.12731761979497547,0.1608490631794802,-0.37530995915885873,0.09828819507507049,-0.12626934444848212,-0.04394765186328569,-0.48511673241882647,-0.42624687601821337,0.9452623187250906
1375,6.7916529000067385,0.04827784082751258,0.23338189092973907,-0.16930056789723444,0.12778457203054758,0.1602368169317052,-0.3755102863289431,0.0959465058689626,-0.1283052871643038,-0.039402283710278076,-0.4885391664868966,-0.42052582790148124,0.9455088248845398
1376,6.797988799997256,0.049516456335935884,0.2332453115163717,-0.171600162676721,0.1282402259362047,0.15961485281295368,-0.37568875536768176,0.09358853856213721,-0.1303135958759971,-0.034855991899714674,-0.49189223809597166,-0.4147695641101633,0.9456459768943832
1377,6.807625100002042,0.05327222065938726,0.23276929975787303,-0.17855591233355358,0.12868450406069015,0.1589833043084409,-0.37584536311480876,0.09121462928013288,-0.13229410454014154,-0.030309301703935344,-0.4951752528071168,-0.40897959011971324,0.945674021788472
1378,6.812462700007018,0.05444313659820891,0.23252016995978442,-0.18083880633616897,0.12911733057623814,0.15834230567868812,-0.3759801089349999,0.08882511742878511,-0.13424665441701208,-0.02576273716986692,-0.4983875294369392,-0.40315741656858484,0.9455932258916235
1379,6.816997999994783,0.055559975742247254,0.23227592161737146,-0.1834856803771171,0.12953863129418644,0.1576919919241346,-0.37609299471176,0.0864203456294595,-0.13617109409443126,-0.02121682102634835,-0.5015284002331024,-0.39730455886264393,0.9454038746999471
1380,6.821092900005169,0.05672532305134749,0.23207196904989538,-0.18578712231387393,0.12994833368027606,0.1570324987496479,-0.37618402484086316,0.08400065965349002,-0.138067279509653,-0.016672074592028303,-0.5045972110464532,-0.39142253677872807,0.9451062727560402
1381,6.8260849000071175,0.057818319237658344,0.23168500221608376,-0.1881912782851537,0.13034636686963488,0.15636396252894166,-0.3762532062233504,0.08156640835583895,-0.13993507396927507,-0.01212901768386032,-0.5075933214997045,-0.38551287406747325,0.9447007435191017
1382,6.829805500005023,0.05901113391060974,0.23139950112497976,-0.19052117414572275,0.1307326616814413,0.15568652026891108,-0.37630054825808734,0.07911794360799504,-0.14177434816717743,-0.00758816852622041,-0.5105161051526166,-0.37957709805552947,0.9441876292300126
1383,6.834357700005057,0.06009678442492522,0.2310771397079213,-0.1928276606071874,0.13110715063326495,0.15500030957389552,-0.37632606283388315,0.07665562023012695,-0.14358498020048494,-0.003050043660671746,-0.5133649496636201,-0.3736167392472849,0.9435672907714372
1384,6.838848900006269,0.06122145029283873,0.23084974164852226,-0.19504884589974086,0.13146976795508092,0.15430546860987884,-0.3763297643211741,0.0741797959225088,-0.14536685558355283,0.0014848421435990856,-0.5161392569478239,-0.3676333309262187,0.9428401075230008
1385,6.845771499996772,0.0635475275225804,0.23028882290701772,-0.19971190402440056,0.13182044960295383,0.15360213606863687,-0.37631166956327505,0.07169083119623551,-0.14711986725997575,0.006015975978650103,-0.5188384433313523,-0.36162840875600144,0.9420064772116002
1386,6.850693000000319,0.06468376404674685,0.2300555230639306,-0.20188884723840422,0.13215913327238907,0.15289045113184152,-0.37627179786720144,0.06918908930324565,-0.14884391561262023,0.010542846885932365,-0.5214619397019594,-0.3556035103814601,0.9410668157569023
1387,6.8543325000064215,0.06583682603263054,0.22989070326438718,-0.20408825388412188,0.1324857584113476,0.15217055343513167,-0.37621017099406584,0.06667493616566927,-0.15053890847168105,0.015064945943695193,-0.5240091916558712,-0.3495601750295268,0.9400215571120906
1388,6.85794660000829,0.06702009980364217,0.2296720421444174,-0.20617469378442077,0.1328002662329211,0.151442583032161,-0.37612681314905266,0.06414874030451903,-0.15220476112076273,0.0195817663536248,-0.5264796596408027,-0.34349994311029064,0.9388711530999158
1389,6.86281720000261,0.06818941101302305,0.22950205752341563,-0.20839269993658108,0.13310259972766406,0.15070668035863172,-0.3760217509709749,0.061610872767742186,-0.1538413963009877,0.02409280352669333,-0.5288728190950988,-0.3374243558182696,0.9376160732441123
1390,6.868177500000456,0.06937892140973749,0.22922033980986428,-0.21035973145649411,0.13339270367557982,0.14996298619632348,-0.37589501352141685,0.059061707057651465,-0.1554487442131336,0.028597555168195572,-0.5311881605829536,-0.3313349547340188,0.936256804596244
1391,6.872246400002041,0.0705478592176373,0.22902719628303872,-0.21261571979625754,0.13367052465775725,0.14921164163712616,-0.3757466322734661,0.05650161905775297,-0.15702674251780252,0.03309552136195093,-0.5334251899256589,-0.32523328142619373,0.9347938515580435
1392,6.877276700004586,0.07163667492545801,0.2287576831714672,-0.21453157280214738,0.13393601106765524,0.14845278804708703,-0.37557664110003874,0.05393098695898989,-0.15857533633362617,0.03758620465364866,-0.535583428328839,-0.3191208770541854,0.9332277356993187
1393,6.881934699995327,0.0727716296102549,0.22856171909621206,-0.21665549081960764,0.1341891131220325,0.14768656703048139,-0.375385076261803,0.051350191185421126,-0.16009447823351144,0.04206911013331445,-0.5376624125056285,-0.31299928197144516,0.9315589955714969
1394,6.889827299994067,0.0748469322520912,0.22787000855427383,-0.22085709109376497,0.13442978287152016,0.14691312039391707,-0.3751719763947058,0.04875961431935414,-0.1615841282389324,0.046543745516876775,-0.5396616947957529,-0.30687003532961504,0.9297881865168713
1395,6.893862400000216,0.0758031515812347,0.22734944606165644,-0.22296753748781992,0.13465797421083447,0.1461325901104821,-0.3749373824971078,0.04615964102595137,-0.16304425381227408,0.05100962122681205,-0.5415808432804735,-0.30073467468357995,0.9279158804736275
1396,6.897635600005742,0.07686103285632763,0.22681683323168986,-0.22507385114958864,0.1348736428886278,0.14534511828394558,-0.3746813379165319,0.04355065797732975,-0.16447482984723372,0.05546625047184794,-0.5434194418933581,-0.29459473559755633,0.9259426657767267
1397,6.901798000006238,0.0778469244459839,0.22619939617158435,-0.22708783195192994,0.13507674651697557,0.14455084711302077,-0.3744038883360293,0.040933053776172845,-0.1658758386572847,0.059913149325704435,-0.5451770905268399,-0.2884517512523317,0.9238691469547206
1398,6.905652700006613,0.07877806925513517,0.2254550891655402,-0.22911770543060075,0.1352672445804965,0.14374991885569904,-0.3741050817601651,0.03830721887887498,-0.16724726996221081,0.0643498368048526,-0.5468534051345371,-0.2823072520537675,0.9216959445225703
1399,6.910465799999656,0.0798479533160751,0.22469820429779716,-0.23130971413318835,0.13544509844510338,0.14294247579366293,-0.37378496850062926,0.035673545518237273,-0.16858912087271866,0.06877583494527105,-0.5484480178292979,-0.276162765242677,0.9194236947705532
1400,6.91601040000387,0.08183316501141111,0.22276779796489612,-0.23557547066174636,0.13561027136638312,0.14212866019678688,-0.37344360116147807,0.033032427625735265,-0.169901395873137,0.07319066887818107,-0.5499605769769419,-0.2700198145061911,0.9170530495493397
1401,6.920487099996535,0.0829398447872666,0.22170751315585205,-0.23760947663130447,0.1357627284976033,0.14130861428773522,-0.37308103462401365,0.030384260753378092,-0.1711841068022126,0.07759386690474122,-0.5513907472856702,-0.2638799195907225,0.9145846760513254
1402,6.925129800001741,0.08389067212637313,0.22064337963235148,-0.23971579968000845,0.13590243689734396,0.1404824802066657,-0.37269732603130534,0.027729441995179287,-0.17243727283201205,0.08198496056968353,-0.5527382098911177,-0.2577445959166388,0.9120192565883021
1403,6.929438399994979,0.08484361078008287,0.21952601023983392,-0.2417641688903267,0.13602936553675252,0.1396503999760482,-0.3722925347723567,0.02506836990825927,-0.17366092044493908,0.08636348473387279,-0.5540026624370231,-0.25161535419475534,0.9093574883655526
1404,6.933109300007345,0.08587857510467038,0.21842493865059068,-0.2439499462343513,0.13614348530641923,0.13881251546560672,-0.37186672246592406,0.02240144443359982,-0.17485508340887895,0.0907289776457716,-0.555183819151494,-0.24549370004475535,0.9066000832524521
1405,6.937146199998097,0.08691239493869714,0.21734746397735405,-0.24596970646024682,0.1362447690228715,0.13796896835739297,-0.3714199529439928,0.019729066816470898,-0.1760198027504812,0.09508098101179412,-0.556281410918846,-0.23938113361564553,0.9037477675496601
1406,6.941602899998543,0.08796649983200329,0.2161559245270099,-0.2480990939460683,0.13633319143468514,0.13711990011100034,-0.3709522922349178,0.017051639526550234,-0.17715512672659353,0.09941904006553136,-0.5572951853469967,-0.23327914920835424,0.900801281752988
1407,6.945591499999864,0.08901403133861858,0.21501549543786158,-0.2504183778009852,0.13640872922821215,0.13626545192892756,-0.3704638085462338,0.014369566177756098,-0.17826111079385895,0.10374270363583232,-0.5582249068303969,-0.22718923490057702,0.8977613803140302
1408,6.949546799995005,0.08999680873151955,0.21397428232769616,-0.25261363525624636,0.13647136103292318,0.1354057647221014,-0.36995457224714096,0.011683251447813849,-0.17933781757648995,0.10805152421372437,-0.5590703566084818,-0.2211128721739734,0.8946288313976484
1409,6.953944499997306,0.09118601923282973,0.21282630299305572,-0.25472351136620397,0.13652106742636336,0.1345409790755667,-0.36942465585066825,0.00899310099757695,-0.18038531683223277,0.11234505801815735,-0.5598313328196236,-0.21505153554381773,0.8914044166363984
1410,6.959122100000968,0.09230426131186435,0.2117930507306451,-0.25677573884145094,0.13655783093872062,0.1336712352143524,-0.3688741339955189,0.006299521390123121,-0.1814036854165368,0.11662286506055636,-0.5605076505505747,-0.20900669219120482,0.8880889308819891
1411,6.966434000001755,0.09474939364706554,0.21002650802299358,-0.26096508953838415,0.1365816360570058,0.1327966729695212,-0.3683030834276038,0.003602920009646385,-0.18239300724494337,0.12088450920816828,-0.5610991418813924,-0.20297980159791104,0.8846831819538694
1412,6.970784300006926,0.09594503854608195,0.20923096097622526,-0.2630344557979877,0.1365924692288432,0.13191743174441112,-0.36771158298127093,0.0009037049801657878,-0.18335337325371015,0.1251295582461885,-0.561605655925836,-0.19697231518400915,0.8811879903850283
1413,6.975332100002561,0.09723177189319235,0.2085850737476026,-0.2650604026630074,0.13659031886587086,0.13103365048107687,-0.3670997135602361,-0.0017977149159283882,-0.18428488135868545,0.12935758393865485,-0.5620270588672294,-0.1909856759483338,0.8776041891650975
1414,6.979541299995617,0.09854396358993364,0.20800516804184205,-0.2670895034960117,0.13657517534674943,0.13014546762693935,-0.3664675581182213,-0.00450093031947008,-0.1851876364124499,0.13356816208809508,-0.562363233989782,-0.18502131811189426,0.8739326234808495
1415,6.985983599995961,0.09975603552055012,0.2074229062871044,-0.2692034643383743,0.13654703101977816,0.12925302110165143,-0.3658152016393063,-0.007205531376233736,-0.18606175015974186,0.13776087259391492,-0.5626140817053641,-0.17908066676432954,0.8701741504541909
1416,6.991408800007775,0.10220892369681385,0.20642582368425347,-0.27334884143481436,0.13650588020511803,0.12835644826418816,-0.36514273111799966,-0.009911107818750585,-0.18690734119118418,0.1419352995095146,-0.5627795195757298,-0.17316513751349952,0.8663296388777453
1417,6.995888899997226,0.10329686553413533,0.2061459476347895,-0.2754142304074355,0.13645171919662075,0.12745588588016896,-0.3644502355390378,-0.012617249048204006,-0.18772453489532975,0.14609103109812124,-0.5628594823301859,-0.16727613613830475,0.8623999689481198
1418,7.003680499998154,0.1056285933719176,0.20528705416121124,-0.27916487175111837,0.13638454626326377,0.12655147008941992,-0.3637378058569185,-0.015323544216383123,-0.188513463409044,0.15022765988732473,-0.5628539218787035,-0.16141505824482547,0.8583860319969506
1419,7.008485300000757,0.10669071700641351,0.20490387785212047,-0.2812781015058895,0.1363043616501909,0.12564333637378394,-0.363005534975175,-0.01802958230767374,-0.1892742655662431,0.1543447827223066,-0.5627628073204763,-0.15558328892586815,0.8542887302198279
1420,7.01346580000245,0.10770851308331543,0.20450713240960092,-0.2833311639156721,0.13621116757935806,0.12473161952518695,-0.3622535177253988,-0.020734952221065705,-0.19000708684500572,0.15844200081775073,-0.5625861249479253,-0.14978220242400758,0.8501089764031927
1421,7.01756849999947,0.10879433295006952,0.20399617746569765,-0.28530298880936744,0.13610496824978371,0.12381645361396844,-0.36148185084601697,-0.023439242852155946,-0.19071207931307674,0.16251891980842628,-0.5623238782461573,-0.14401316179820986,0.8458476936493082
1422,7.021443300007377,0.10984435230157057,0.20355930088552684,-0.28715890362613816,0.1359857698374028,0.12289797195748411,-0.36069063296083015,-0.026142043175126455,-0.19138940157178172,0.16657514979843352,-0.5619760878878872,-0.13827751859412013,0.8415058150994008
1423,7.026694600004703,0.11099351128280206,0.20312358845390588,-0.28889668725175893,0.13585358049452564,0.12197630708898748,-0.35987996455731885,-0.02884294232467642,-0.1920392186983717,0.17061030540910357,-0.5615427917238334,-0.1325766125180978,0.83708428365507
1424,7.030601399994339,0.1121630146494192,0.2026086555261337,-0.2906054637331224,0.13570841034890258,0.12105159072679744,-0.3590499479647243,-0.03154152967788779,-0.1926617021868179,0.17462400582554333,-0.5610240447685976,-0.1269117711150805,0.8325840516980636
1425,7.037038900001789,0.11441823873292475,0.20139149094359088,-0.29385959003358725,0.13555027150239454,0.1201239537437589,-0.3582006873319101,-0.03423739493600373,-0.1932570298870762,0.1786158748418181,-0.5604199191820421,-0.12128430945035626,0.828006080808517
1426,7.041890399996191,0.11544795633666816,0.20079577103521598,-0.29552656456881465,0.13537917802925017,0.11919352613700301,-0.3573322886050117,-0.036930128206099144,-0.19382538594284177,0.18258554090476542,-0.5597305042461784,-0.11569552979532013,0.8233513414817605
1427,7.045816900004866,0.1167419577865084,0.2001149776083987,-0.29682842102305834,0.1351951459739898,0.11826043699801429,-0.3564448595048801,-0.03961932008262292,-0.19436696072781542,0.18653263715643312,-0.5589559063375805,-0.11014672131729232,0.8186208128437905
1428,7.0499073999963,0.11805199746639794,0.19946869848744267,-0.29810135483978323,0.13499819334889604,0.11732481448301103,-0.35553850950432825,-0.04230456172879131,-0.19488195078050222,0.19045680147513494,-0.5580962488953393,-0.10463915977347117,0.8138154823655065
1429,7.053869600000326,0.11919757554240007,0.19884827762288917,-0.2997630678006916,0.1347883401311114,0.11638678578364624,-0.3546133498051884,-0.04498544495781233,-0.19537055873756398,0.19435767651511746,-0.5571516723845757,-0.09917410720909312,0.8089363455758161
1430,7.0625930999958655,0.12160550751382664,0.19761244024534716,-0.3025260341676872,0.13456560825934405,0.11544647709803509,-0.3536694933151841,-0.04766156231392099,-0.19583299326574752,0.19823490974483207,-0.5561223342555346,-0.09375281165987068,0.8039844057737113
1431,7.066676600006758,0.12279159550160677,0.19707108041312874,-0.30375745405995824,0.1343300216301823,0.11450401360211585,-0.3527070546246251,-0.050332507153205086,-0.1962694689924116,0.20208815348380793,-0.5550084088982766,-0.08837650685877722,0.7989606737394164
1432,7.070573799996055,0.12403620036700606,0.19658122022377517,-0.30510990567487384,0.13408160609401867,0.11355951942135144,-0.3517261499829303,-0.05299787372420113,-0.19668020643467635,0.20591706493812134,-0.5538100875929943,-0.08304641194724573,0.7938661674447056
1433,7.074498899994069,0.12531381114535847,0.19612830127917377,-0.30652409441193346,0.13382038945058444,0.11261311760277808,-0.35072689727498424,-0.05565725724824015,-0.19706543192721768,0.20972130623445762,-0.5525275784559768,-0.07776373119084722,0.7887019117624972
1434,7.079485099995509,0.12653283902355253,0.19566586363596433,-0.3080154433184167,0.13354640144409563,0.11166493008740705,-0.34970941599733346,-0.05831025399952313,-0.1974253775487309,0.21350054445276234,-0.551161106381249,-0.07252965369951238,0.7834689381758214
1435,7.083631600005901,0.1277076551841967,0.19519759420343596,-0.3092976644489539,0.13325967375801248,0.11071507768298629,-0.34867382723423024,-0.060956461384906034,-0.1977602810470859,0.2172544516574784,-0.5497109129779125,-0.0673453531523579,0.7781682844862672
1436,7.0912406999996165,0.1300724148022264,0.19465928720731554,-0.31201733357447403,0.1329602400094134,0.10976368003712772,-0.3476202536335323,-0.06359547802337454,-0.19807038576319674,0.22098270492736513,-0.5481772565032129,-0.06221198752717764,0.7728009945220085
1437,7.095454299997073,0.13126030778531925,0.19459905477403058,-0.31338415336922226,0.1326481357429848,0.10881085561080603,-0.3465488193824645,-0.06622690382518881,-0.19835594055362948,0.22468498638389706,-0.5465604117913656,-0.05713069883465691,0.7673681178455134
1438,7.100236099999165,0.13250362293182325,0.19462223328968153,-0.3147106915915223,0.13232339842462804,0.10785672165223491,-0.3454596501832484,-0.06885034007067906,-0.1986171997119718,0.22836098321824105,-0.5448606701781726,-0.05210261285736609,0.7618707094610375
1439,7.104445300006773,0.1337418857018787,0.1945058837032268,-0.3160452839322057,0.13198606743468522,0.10690139417112676,-0.34435287322860625,-0.07146538948867234,-0.19885442288898908,0.23201038771681126,-0.5430783394214668,-0.047128838893587245,0.7563098295220019
1440,7.109884699995746,0.1350098607654071,0.19460688493203707,-0.3173863837494109,0.13163618406078603,0.10594498791334162,-0.34322861717714565,-0.07407165633453158,-0.19906787501159104,0.23563289728539993,-0.5412137436174205,-0.04221046950602577,0.7506865430383559
1441,7.113970899998094,0.13612422300236182,0.1946579811606066,-0.31880496175427986,0.1312737914903177,0.10498761633593068,-0.3420870121286306,-0.07666874646778699,-0.19925782620063404,0.23922821447188305,-0.539267223112757,-0.037348580275457496,0.745001919584027
1442,7.118405600005644,0.1372792434002704,0.1947473323341234,-0.32023308951764623,0.13089893480252013,0.1040293915825794,-0.3409281895991445,-0.07925626742934103,-0.19942455168758258,0.24279604698749985,-0.5372391344128987,-0.03254422955935952,0.7392570330045571
1443,7.123104600002989,0.1384665060134342,0.19491672631245677,-0.32142951959089006,0.1305116609602084,0.10307042445945523,-0.3397522824961523,-0.08183382851822826,-0.19956833173005556,0.246336107726709,-0.5351298500860906,-0.02779845825557116,0.7334529611250256
1444,7.128375900007086,0.14060048991870303,0.19531408079931872,-0.3242550789577284,0.13011201880112422,0.10211082441146531,-0.3385594250934689,-0.08440104086791153,-0.19968945152628267,0.24984811478562313,-0.5329397586635347,-0.02311228957102948,0.7275907854583559
1445,7.132887400002801,0.1415010859065368,0.19558144745941192,-0.3254835849361154,0.129700059028919,0.10115069949892923,-0.3373497530061411,-0.0869575175220955,-0.1997882011284955,0.2533317914790226,-0.5306692645355805,-0.01848672879562158,0.7216715909141085
1446,7.1372243000078015,0.14239903992292086,0.19577004031964446,-0.3267927072570652,0.12927583420377065,0.10019015637467166,-0.3361234031652482,-0.08950287351003952,-0.19986487535527755,0.25678686635595116,-0.5283187878440114,-0.01392276308119428,0.7156964655078507
1447,7.141365200004657,0.1433035402417323,0.196008058635158,-0.3281572736523576,0.12883939873263714,0.09922930026153938,-0.3348805137926298,-0.09203672592135172,-0.19991977370289976,0.2602130732138971,-0.5258887643704684,-0.009421361225759805,0.7096665000712006
1448,7.146635500001139,0.14422638775723995,0.1962020898989933,-0.32936695207458877,0.1283908088591494,0.0982682349303471,-0.33362122437554687,-0.09455869398024598,-0.19995320025566626,0.26361015111156516,-0.5233796454210542,-0.004983473462934297,0.7035827879626435
1449,7.150089200004004,0.14519748937256569,0.19636240370764793,-0.33054658412068927,0.12793012265314616,0.09730706267825646,-0.3323456756412853,-0.09706839911924373,-0.1999654635952973,0.2669778443802428,-0.5207918977071638,-0.0006100312566440998,0.6974464247792185
1450,7.154730900001596,0.1460954500469009,0.19653368013367065,-0.3316425500879366,0.12745739999985434,0.09634588430759262,-0.33105400953171005,-0.09956546505230285,-0.19995687670937531,0.27031590263376587,-0.5181260032225882,0.0036980528988671047,0.6912585080691667
1451,7.158341200003633,0.14691504765877147,0.19654856002253554,-0.33282113906546434,0.12697270258871765,0.0953847991051026,-0.3297463691777766,-0.10204951784735637,-0.19992775689888007,0.2736240807770889,-0.5153824591169399,0.00793988567369918,0.6850201370456391
1452,7.168303200000082,0.1487918966620181,0.19684496724969291,-0.3348462778402642,0.12647609390187667,0.09442390482165905,-0.3284228988740062,-0.10452018599824368,-0.19987842568483913,0.27690213901346533,-0.5125617775654507,0.01211459309159525,0.6787324123015568
1453,7.174750599995605,0.1506284259564989,0.1969550464780802,-0.3368968151478533,0.1259676392023047,0.09346329765241368,-0.3270837440529298,-0.1069771004960175,-0.1998092087141202,0.2801498428502453,-0.5096644856351891,0.016221320713852926,0.6723964355257188
1454,7.179091900005005,0.15156447037110188,0.19702559869848577,-0.33786590912507014,0.12544740552160225,0.0925030722174044,-0.32572905125950763,-0.10941989489960975,-0.1997204356643902,0.28336696310329457,-0.5066911251477488,0.020259233817821656,0.6660133092202536
1455,7.183004699996673,0.15248426835305523,0.19713621947761004,-0.3387698016520405,0.12491546164745321,0.09154332154261971,-0.32435896812553106,-0.11184820540583978,-0.19961244014826668,0.286553275900041,-0.5036422525384603,0.024227517569962637,0.6595841364195063
1456,7.187240800005384,0.15336548604751793,0.19725364683881036,-0.3396972538845243,0.12437187811074604,0.09058413704152371,-0.3229736433440122,-0.11426167091874867,-0.1994855596166873,0.2897085626811572,-0.5005184387121735,0.028125377193449673,0.6531100204104586
1457,7.191685800004052,0.15433798645559105,0.197335898255632,-0.3406895270110419,0.12381672717236292,0.0896256084970454,-0.3215732266435692,-0.1166599331182438,-0.1993401352615252,0.29283261020088797,-0.497320268895671,0.03195203813029121,0.6465920644547714
1458,7.197314699995332,0.15524283242153583,0.19749250190985307,-0.34160134069289955,0.12325008280964041,0.0886678240440353,-0.32015786876281277,-0.11904263652803812,-0.19917651191747565,0.29592521052603077,-0.4940483424867642,0.03570674619795555,0.6400313715125397
1459,7.202114200001233,0.15605853338067702,0.19773439421725195,-0.34260903661456416,0.12267202070250563,0.08771087015219281,-0.3187277214247413,-0.12140942858286874,-0.19899503796324167,0.2989861610335818,-0.49070327290012694,0.039388767740483215,0.6334290439678504
1460,7.205829400001676,0.1569610051429635,0.1980158070619536,-0.34350552069332896,0.12208261821929177,0.0867548316094675,-0.31728293731115176,-0.12375995969498037,-0.1987960652220451,0.3020152644070589,-0.4872856874099188,0.0429973897740721,0.6267861833562248
1461,7.209917900006985,0.15790572065542416,0.1982957753900356,-0.3442274496421515,0.12148195440223614,0.08579979150593697,-0.31582367003707423,-0.12609388331985805,-0.19857994886149066,0.3050123286315133,-0.4837962269892557,0.04653192012712308,0.6201038900940357
1462,7.214091600006213,0.15873977002812645,0.1986813752517567,-0.34507265362119693,0.12087010995266313,0.0848458312181645,-0.31435007412523724,-0.12841085602119445,-0.19834704729281033,0.3079771669872384,-0.4802355461465847,0.04999168757473526,0.613383263209983
1463,7.218362900006468,0.15955074642399356,0.19908940583620452,-0.3459537256252867,0.12024716721585567,0.08389303039403938,-0.3128623049805691,-0.13071053753507736,-0.19809772206951548,0.31090959804218815,-0.4766043127590198,0.05337604196764183,0.606625400078714
1464,7.2225075000023935,0.1604142260920244,0.19943905378830354,-0.3465512588887137,0.11961321016561889,0.08294146693810277,-0.3113605188647434,-0.13299259083338213,-0.19783233778548387,0.31380944564311547,-0.4729032079026988,0.056684354355579246,0.5998313961566671
1465,7.228998599995975,0.16199507994967943,0.20025050259970806,-0.3478321288002635,0.11896832438854006,0.08199121699736082,-0.30984487287077656,-0.13525668218635467,-0.1975512619725078,0.31667653890544295,-0.4691329256802197,0.059916017105084526,0.5930023447202256
1466,7.234239600002184,0.1626789762256373,0.20065002280447947,-0.34832932710243986,0.11831259706794896,0.08104235494758776,-0.3083155248976819,-0.13750248122437128,-0.19725486499733016,0.31951071220187627,-0.46529417304521636,0.0630704440117168,0.5861393366062608
1467,7.242038099997444,0.16402726662777312,0.20138204345774094,-0.3491973107936626,0.11764611696758294,0.08009495338012054,-0.30677263362518686,-0.1397296609988629,-0.19694351995819498,0.32231180514977115,-0.46138766962413386,0.06614707040670108,0.579243459955144
1468,7.24704849999398,0.16468778972346373,0.2018128068906154,-0.34963137345104656,0.1169689744149609,0.07914908308914692,-0.3052163584885204,-0.1419378980423903,-0.19661760258094002,0.3250796625972643,-0.4574141475352618,0.06914535325799423,0.5723157999563014
1469,7.254535900006886,0.16586262812971508,0.20272361560832636,-0.350474701567009,0.11628126128447007,0.07820481305948798,-0.30364685965327737,-0.1441268724278575,-0.19627749111465873,0.32781413460818054,-0.4533743512050868,0.07206477126577453,0.5653574385963912
1470,7.261433899999247,0.1664064141020022,0.20321998239393993,-0.3507284625061911,0.11558307098017026,0.07726221045487724,-0.30206429799036566,-0.1462962678268514,-0.19592356622695714,0.3305150764457277,-0.4492690371820243,0.07490482495235794,0.5583694544101784
1471,7.266963500005659,0.1674886195621055,0.2041956317663022,-0.35122559748226356,0.11487449841831965,0.07632134060673797,-0.3004688350510403,-0.14844577156709574,-0.1955562108988322,0.33318234855499185,-0.44509897394759285,0.07766503674654593,0.5513529222341853
1472,7.271434399997815,0.16805782622711626,0.20469496417245756,-0.3514256758391538,0.11415564000962655,0.07538226700346043,-0.2988606330420305,-0.15057507468900655,-0.19517581031919756,0.33581581654424725,-0.44086494172509744,0.08034495106241095,0.5443089129631924
1473,7.275040499996976,0.16855727879148844,0.2051854267262437,-0.35161431708582097,0.11342659364123214,0.07444505128018095,-0.2972398548007637,-0.152683872001338,-0.19478275177908339,0.3384153511650964,-0.43656773228588525,0.08294413437252701,0.5372384933096613
1474,7.279078799998388,0.16908440974472472,0.20565846507973634,-0.35173268459904367,0.11268745865842864,0.07350975320906408,-0.29560666377069283,-0.15477186213590674,-0.194377424565536,0.34098082829145493,-0.4322081487532361,0.08546217527565468,0.5301427255661497
1475,7.286708700004965,0.17014854257735995,0.2064610154023261,-0.3518661365688488,0.1119383358461169,0.07257643069008947,-0.2939612239767325,-0.15683874760138436,-0.1939602198552436,0.343512128897396,-0.4277870054039538,0.08789868455889151,0.5230226673707874
1476,7.291196300007869,0.17064719833925193,0.2068203023536537,-0.352027376303201,0.11117932741000759,0.0716451397423446,-0.2923037000008089,-0.15888423483614764,-0.19353153060791356,0.346009139033871,-0.4233051274677207,0.09025329525429966,0.5158793714758865
1477,7.295543300002464,0.17107383155140748,0.2071381356641839,-0.35230020725632266,0.11041053695757067,0.07071593449582518,-0.29063425695752704,-0.16090803426017564,-0.19309175145942747,0.34847174980432094,-0.4187633509242809,0.09252566269002421,0.5087138855197492
1478,7.302258800002164,0.1715442861700481,0.20743429022889573,-0.35246057175453405,0.10963206947873808,0.0697888671837444,-0.28895306046996294,-0.16290986032598326,-0.19264127861479946,0.3508998573391956,-0.4141625222985175,0.09471546453591703,0.5015272518017385
1479,7.30820830000448,0.17260577547703135,0.2080422873285317,-0.35266129801965856,0.10884403132636448,0.06886398813535191,-0.2872602766455852,-0.1648894315685818,-0.19218050974096376,0.3532933627693945,-0.4095034984534879,0.0968224008436828,0.4943205070606782
1480,7.312241799998446,0.17320641950590773,0.2084426980858023,-0.35271721538908457,0.10804653019645043,0.06794134576926313,-0.2855560720523108,-0.16684647065445662,-0.19170984385941692,0.3556521721986473,-0.4047871463814834,0.09884619408156536,0.4870946822566474
1481,7.3162704999995185,0.1736955536177251,0.2087038308883996,-0.3528697457842874,0.1072396751081324,0.06702098658729916,-0.28384061369469893,-0.1687807044295524,-0.19122968123873987,0.35797619667485064,-0.4000143429931804,0.10078658916359375,0.4798508023562333
1482,7.320402800003649,0.1741977228223991,0.20900204208662873,-0.353035685070111,0.10642357638344427,0.06610295516883757,-0.28211406899028624,-0.17069186396625666,-0.19074042328702473,0.3602653521603791,-0.3951859749049491,0.1026433534734083,0.4725898861212996
1483,7.325540200006799,0.17464817789766973,0.20928868487335173,-0.35319688736516014,0.10559834562685479,0.06518729416567448,-0.2803766057460715,-0.17257968460937406,-0.19024247244423148,0.3625195595013897,-0.390302938224387,0.10441627688268942,0.4653129459013305
1484,7.3295407999976305,0.1750595142310894,0.20954832581551594,-0.353341590218626,0.10476409570458589,0.06427404429739823,-0.27862839213515184,-0.17444390602108312,-0.18973623207449955,0.3647387443961368,-0.38536613833414335,0.10610517176421155,0.45802098742940417
1485,7.334355200000573,0.17548597525955525,0.20981591736689656,-0.3534044870225378,0.10392094072371692,0.06336324434727483,-0.27686959667351607,-0.1762842722248676,-0.18922210635843842,0.36692283736231424,-0.3803764896741006,0.10770987299954732,0.45071500962185124
1486,7.33837090000452,0.17589306829550955,0.21012832400055034,-0.353439403020684,0.10306899601107973,0.06245493115864488,-0.2751003881969991,-0.1781005316484154,-0.18870050018542273,0.3690717737034427,-0.3753349155219788,0.10923023798144715,0.44339600438165
1487,7.342467499998747,0.1762929837088598,0.21045960852961537,-0.35350340488439325,0.10220837809194998,0.0615491396318321,-0.2733209358384037,-0.1798924371654771,-0.1881718190459159,0.3711854934743197,-0.3702423477724288,0.1106661466109211,0.43606495640561
1488,7.346266799999285,0.1766686620505425,0.21078400912102238,-0.3535349927292881,0.10133920466853952,0.060645902721563186,-0.2715314090047947,-0.1816597461366765,-0.18763646892384667,0.37326394144555214,-0.36509972671468144,0.1120175012890503,0.428722842995393
1489,7.35155069999746,0.1769890080095437,0.2111044490293741,-0.35356570386824837,0.10046159459829493,0.05974525143489871,-0.269731977354971,-0.18340222044926718,-0.1870948561890628,0.37530706706718864,-0.3599080008088175,0.1132842269035567,0.4213706338724194
1490,7.356180700007826,0.17725751565358666,0.21150446121832897,-0.3536164078835072,0.09957566787200715,0.05884721482967475,-0.26792281077712043,-0.18511962655582825,-0.1865473874898864,0.3773148244314712,-0.3546681264607247,0.11446627081016092,0.41400929099670636
1491,7.36278900000616,0.1776799094341244,0.21216980546545763,-0.35360487834433174,0.09868154559173746,0.057951820013454725,-0.2661040793666611,-0.18681173551189253,-0.18599446964579402,0.37928717223472247,-0.3493810677958076,0.11556360280875941,0.4066397683896832
1492,7.36636400000134,0.17788038773117318,0.21255646291837285,-0.35353706448730926,0.09777934994856513,0.057059092142990986,-0.2642759534042715,-0.18847832301250114,-0.1854365095402453,0.3812240737383902,-0.3440477964315183,0.11657621511445347,0.39926301196102937
1493,7.370443599997088,0.17807014665728924,0.21297354111920186,-0.353485296797743,0.09686920420016276,0.05616905442419562,-0.26243860333411473,-0.19011916942767837,-0.18487391401368328,0.3831254967292663,-0.3386692912487734,0.11750412232346333,0.3918799593395759
1494,7.3743402999971295,0.17807014665728924,0.21297354111920186,-0.353485296797743,0.09595123264820464,0.05528172811261976,-0.26059219974225967,-0.19173405983682132,-0.18430708975673007,0.38499141347890325,-0.3332465381623214,0.11834736137396105,0.38449153970830985
1495,7.379436799994437,0.17844048503527388,0.21377927746709727,-0.3533569790701027,0.0950255606156136,0.0543971325144402,-0.2587369133353036,-0.1933227840619983,-0.18373644320360105,0.38682180070224853,-0.32778052989012757,0.1191059915018577,0.37709867364351884
1496,7.385707800000091,0.17863476014030746,0.21416277535072506,-0.35333240196760185,0.09409231442365153,0.05351528498795212,-0.2568729149191971,-0.19488513670015048,-0.18316238042576136,0.38861663951552045,-0.3222722657218395,0.11978009419158016,0.3697022729581164
1497,7.391585300007136,0.17894014433375896,0.2148252405029788,-0.35348281863892855,0.09315162136885874,0.05263620094556652,-0.25500037537827347,-0.19642091715419227,-0.18258530702584846,0.3903759153933452,-0.31672275128640015,0.12036977312187523,0.36230324054918106
1498,7.397982499998761,0.1791327941402758,0.21512671154339966,-0.3535601762208137,0.09220360969984706,0.051759893856311315,-0.2531194656544859,-0.19792992966300593,-0.18200562803188414,0.3920996181251775,-0.31113299831887314,0.12087515410667864,0.3549024702497431
1499,7.403828299997258,0.1796450783195951,0.21571844553862352,-0.3535535841205435,0.09124840859395167,0.050886375248834693,-0.251230356726856,-0.19941198333032642,-0.1814237477917993,0.39378774177102527,-0.30550402442654573,0.1212963850310873,0.34750084668484893
1500,7.408002500000293,0.17988523939437073,0.21597407660574677,-0.35362929901291634,0.09028614813374716,0.05001565471490943,-0.24933321959113444,-0.20086689215251347,-0.1808400698682939,0.39544028461649816,-0.29983685285437583,0.12163363578247398,0.34009924513193235
1501,7.412101199995959,0.18011804519776922,0.2162053102570991,-0.3537175781649212,0.08931695928343335,0.049147739913436246,-0.24742822523967728,-0.20229447504520803,-0.18025499693405375,0.39705724912720164,-0.2941325122498482,0.12188709817678432,0.33269853138551997
1502,7.416945699995267,0.1803362559994743,0.21644902545203318,-0.3538977048337867,0.08834097386509626,0.048282636574944596,-0.24551554464154074,-0.20369455586887114,-0.17966893066734624,0.3986386419024981,-0.2883920364273042,0.12205698588005721,0.3252995616262956
1503,7.420621800003573,0.18057363253194542,0.21665894310123474,-0.3539984796950025,0.0873583245348502,0.04742034850658912,-0.2435953487227986,-0.2050669634532024,-0.1790822716480175,0.4001844736286567,-0.28261646413180797,0.12214353432520991,0.31790318229454745
1504,7.424796000006609,0.18076273452942768,0.21686234052636305,-0.35415488341116463,0.08636914475886637,0.04656087759763973,-0.2416678083470845,-0.20641153162043607,-0.17849541925391274,0.4016947590314133,-0.27680683880261364,0.12214700062413021,0.31051022996801886
1505,7.42877139999473,0.18094170850608868,0.2170397244432436,-0.3543170380780777,0.08537356878929342,0.04570422382546319,-0.2397330942963624,-0.20772809920751148,-0.1779087715577406,0.40316951682796087,-0.27096420833629886,0.12206766347511776,0.30312153124418273
1506,7.434018400002969,0.18109619478142164,0.21718737934800486,-0.3544741535181539,0.08437173164007543,0.044850385261994134,-0.23779137725192712,-0.20901651008711575,-0.17732272522440196,0.4046087696783934,-0.26508962484962734,0.12190582306571737,0.2957379026269573
1507,7.437557299999753,0.18123976318112636,0.217327945807934,-0.3546246354841903,0.08336376906267232,0.04399935808069325,-0.23584282777563845,-0.21027661318759724,-0.17673767540880408,0.40601254413662086,-0.25918414444220456,0.12166180097098865,0.28836015041788104
1508,7.441300100006629,0.1813441609601843,0.21747627534560143,-0.3548653224242719,0.08234981752168792,0.04315113656399029,-0.2338876162913909,-0.211508262511749,-0.17615401565418076,0.4073808706007816,-0.2532488269589895,0.12133594004725556,0.28098907061176176
1509,7.446119600004749,0.18144673457694524,0.21759505763064255,-0.35507050755584274,0.08133001417041112,0.0423057131112093,-0.23192591306682206,-0.21271131715446073,-0.17557213779093941,0.40871378326317215,-0.24728473575272433,0.12092860432138113,0.2736254487968155
1510,7.453784199999063,0.1817109865420454,0.21778917621626678,-0.3553749690175841,0.08030449682627534,0.04146307824697349,-0.22995788819526242,-0.21388564131923932,-0.1749924318360559,0.4100113200597167,-0.24129293744634536,0.12044017887561274,0.2662700600593059
1511,7.458160700000008,0.18179760298004422,0.21787730454979795,-0.3556026669960947,0.07927340394624224,0.04062322063008725,-0.2279837115779298,-0.21503110433359748,-0.17441528589303684,0.411273522618998,-0.23527450169543582,0.11987106972804368,0.25892366889269414
1512,7.463204900006531,0.1818404754721856,0.21794939820652487,-0.3558483849767731,0.07823687460211541,0.03978612706289238,-0.22600355290637025,-0.21614758066331127,-0.17384108605247,0.412500436210876,-0.22923050095078204,0.11922170370873655,0.25158702911130787
1513,7.467138199994224,0.18191327398441717,0.21802219761892394,-0.35605543591983335,0.07719504845578973,0.03895178250109558,-0.22401758164514804,-0.21723494992554526,-0.17327021629318276,0.41369210969471654,-0.223162010221093,0.11849252833155512,0.24426088376853608
1514,7.471047099999851,0.18193994084148818,0.21810600924867896,-0.3562997678010373,0.07614806573444216,0.03812017006406411,-0.2220259670147869,-0.21829309690084456,-0.17270305838402855,0.41484859546725233,-0.21707010683594466,0.1176840116617508,0.23694596507955307
1515,7.475020600002608,0.18196649987305577,0.21816222155066906,-0.35650253603569615,0.07509606720566919,0.03729127104558698,-0.22002887797496604,-0.2193219115439929,-0.17213999178632083,0.4159699494100974,-0.21095587020900863,0.11679664217935028,0.22964299434857188
1516,7.4794710999995,0.18199228237832416,0.2181832638224241,-0.35668907738303146,0.07403919415257598,0.03646506492509868,-0.21802648320797197,-0.22032128899373837,-0.17158139355693436,0.41705623083693905,-0.20482038160162422,0.11583092863839098,0.22235268190062793
1517,7.483380000005127,0.18203400435911443,0.21822556427256026,-0.3568667483691164,0.07297758834882272,0.035641529379362394,-0.2160189511024078,-0.2212911295813881,-0.1710276382520919,0.4181075024404292,-0.1986647238867725,0.11478739992205206,0.21507572701789124
1518,7.487645200002589,0.18202436111127357,0.21823291452770974,-0.35710877920751954,0.07191139203363374,0.03482064029460944,-0.21400644973716096,-0.22223133883827392,-0.17047909783185472,0.41912383023879834,-0.1924899813135107,0.1136666048937288,0.20781281788050482
1519,7.49138920000405,0.18208883535716097,0.2182475955360919,-0.35717579809901323,0.07084074788677502,0.034002371779131645,-0.21198914686563047,-0.2231418275020927,-0.16993614156533604,0.42010528352221116,-0.186297239271925,0.11246911224409877,0.20056463151194553
1520,7.501192499999888,0.1820451895137007,0.21819039027214246,-0.35751754508104233,0.06976579900350552,0.03318669617632362,-0.20996720990021378,-0.2240225115221238,-0.1693991359366564,0.42105193479888614,-0.1800875840586597,0.11119551033422868,0.1933318337289023
1521,7.505746399998316,0.182041710690547,0.2181605305477167,-0.3576935203206016,0.06868668886950795,0.03237358407817166,-0.20794080589705446,-0.22487331206332567,-0.16886844455165853,0.4219638597409995,-0.173862102643079,0.10984640703477071,0.1861150790956641
1522,7.511702600007993,0.18196958168740354,0.21802262492051747,-0.35809077304867254,0.0676035613358042,0.031563004339185706,-0.20591010154105133,-0.22569415550931507,-0.16834442804540006,0.42284113713039573,-0.16762188243411752,0.10842242956129655,0.17891501088300912
1523,7.516689099997166,0.1819648051515466,0.21790828637733323,-0.3583112057937369,0.06651656059366114,0.030754924090770876,-0.20387526313112922,-0.226484973464231,-0.16782744399044186,0.4236838488041284,-0.16136801104787496,0.10692422430581812,0.17173226103158454
1524,7.520708800002467,0.18197630628637596,0.21781446337202545,-0.3584930797496798,0.06542583114949198,0.029949308756034902,-0.20183645656577195,-0.22724570275348682,-0.1673178468059493,0.4244920795998514,-0.1551015760760092,0.105352456664544,0.1645674501197641
1525,7.524521800005459,0.18200585179853365,0.21771604575704118,-0.35874696886711993,0.06433151779975833,0.029146122065027664,-0.19979384732881797,-0.22797628542341336,-0.16681598766762276,0.425265917301082,-0.1488236648549832,0.10370781086192106,0.15742118733596866
1526,7.529156400007196,0.18206410392042088,0.2175885194573845,-0.3589975010108266,0.06323376560587807,0.02834532607040908,-0.1977476004755185,-0.2286766687397971,-0.16632221441847356,0.4260054525823548,-0.14253536423621968,0.10199098977101038,0.15029407045543355
1527,7.536534500002745,0.18221373400120236,0.21729457511325784,-0.3595287672478838,0.062132719869144024,0.027546881163541422,-0.19569788061885768,-0.22934680518532002,-0.16583687148046128,0.4267107789542894,-0.13623776035721719,0.10020271473024664,0.14318668582140434
1528,7.541138200002024,0.18226380582087207,0.21712666512887632,-0.3598271539520988,0.06102852610565892,0.02675074609100207,-0.19364485191613504,-0.22998665245590433,-0.1653602997670089,0.42738199270859245,-0.1299319384136809,0.09834372535663022,0.1360996083307422
1529,7.5455521999974735,0.18230837707852954,0.21693778603722674,-0.3601250204091525,0.059921330021291734,0.02595687797151263,-0.19158867805581048,-0.23059617345596672,-0.16489283659641124,0.4280191928630153,-0.12361898243272064,0.09641477935540126,0.12903340142391825
1530,7.549749700003304,0.18230549850914549,0.21675752776765078,-0.36046145893572196,0.05881127748666095,0.025165232313280494,-0.18952952224461167,-0.23117533629258713,-0.16443481560615236,0.42862248110628925,-0.1172999750471678,0.09441665232624499,0.12198861707937439
1531,7.553915600001346,0.18226904746621617,0.21655148187553586,-0.3607436296099119,0.05769851451214973,0.024375763031748574,-0.18746754719490422,-0.23172411426859796,-0.16398656666814723,0.42919196174306035,-0.11097599727106236,0.09235013756607814,0.11496579581222656
1532,7.557912799995393,0.18221619994756788,0.21640844954546123,-0.36101965296702254,0.05658318722295807,0.023588422467748924,-0.18540291511232482,-0.2322424858745996,-0.1635484158049241,0.42972774163884386,-0.10464812827636064,0.09021604586846566,0.1079654666772861
1533,7.562173900005291,0.1821385622276598,0.21623364459617808,-0.36130981505022713,0.055465441834196993,0.022803161406055927,-0.1833357876836765,-0.23273043477990685,-0.1631206851067622,0.4302299301650188,-0.09831744517091368,0.08801520531971777,0.1009881472763716
1534,7.566868900001282,0.1820364035034937,0.2161033287562711,-0.3615519538726345,0.05434542462603037,0.022019929094334725,-0.18126632606508575,-0.23318794982243196,-0.1627036926498002,0.43069863914388284,-0.09198502277776542,0.0857484610917167,0.09403434376988246
1535,7.571942599999602,0.18190614906511166,0.21599095622939365,-0.3618585277011526,0.05322328191886932,0.0212386732624803,-0.1791946908704216,-0.23361502499750955,-0.16229775241513064,0.4311339827937867,-0.08565193341581849,0.08341667523152267,0.08710455089260354
1536,7.579065099998843,0.18161811701705016,0.21583443213984102,-0.3624732871686037,0.052099160048624624,0.02045934014234269,-0.17712104215997607,-0.23401165944566862,-0.1619031742088954,0.4315360776743666,-0.07931924668191481,0.0810207264478084,0.08019925197371056
1537,7.583642500001588,0.1814905324908457,0.21580944872864458,-0.36276165431083307,0.05097320534202212,0.019681874487833588,-0.17504553942940437,-0.23437785743935852,-0.16152026358339738,0.4319050426318935,-0.0729880292343774,0.07856150989417153,0.07331891896094277
1538,7.588401000000886,0.18135537676157035,0.21579157558366552,-0.3630241847251748,0.049845564091986316,0.018906219595409574,-0.17296834159892538,-0.23471362836863546,-0.16114932175924193,0.43224099874476013,-0.06665934457805954,0.07603993694937407,0.06646401244890904
