,time,x,y,z,vx,vy,vz,ax,ay,az,jx,jy,jz
1979,9.651098000002094,-0.017681334373619816,0.0001451089863273229,-0.0295218564108008,0.00898174925963602,-0.016195239863332492,0.006942079911413132,0.0275713147727046,0.0338470058889345,-0.02438715109413376,0.06311228246955769,0.18021180127483105,-0.07768557255892602
1980,9.655394000001252,-0.017574221579587174,0.00011693580335696936,-0.029543431691038697,0.009116317659167298,-0.0160288404809878,0.006822813688178787,0.027877330269903213,0.03472274946647834,-0.024764318684858514,0.06303165188547298,0.18063170909417495,-0.07771040773428174
1981,9.659366600011708,-0.017464743582141545,6.733652681116292e-05,-0.029559535488361904,0.009252369769609347,-0.015858185427583403,0.006701716209679098,0.02818294015153613,0.03560047632480952,-0.02514158836289948,0.06294580253030616,0.18102916120163065,-0.07772753420565771
1982,9.664790700000594,-0.017367197152673285,3.407517357751082e-05,-0.0296030313225907,0.009389903543908538,-0.015683265349209656,0.006578787062278202,0.028488119015968507,0.03648007683261431,-0.0255189224860857,0.06285466441534102,0.18140391065529238,-0.07773688186566002
1983,9.668666500001564,-0.017225003234679296,-3.340561548414653e-07,-0.02963977143257363,0.009528916811361718,-0.015504071427333977,0.006454026016348116,0.02879284112411759,0.03736144016705046,-0.025896283072529,0.06275816758354892,0.18175571312808017,-0.0777383810108484
1984,9.6729667000036,-0.017105123552944374,-7.482456411210341e-05,-0.029685912283551094,0.009669407276002906,-0.01532059538454638,0.0063274330279243845,0.029097080399586642,0.03824445432665515,-0.026273631802698205,0.06265624213819093,0.1820843269763119,-0.07773196236344142
1985,9.679300800009514,-0.016792169985430344,-0.0001986747301337959,-0.029760678623129012,0.009811372514990684,-0.015132829490241008,0.006199008240350849,0.029400810428935338,0.03912900614458507,-0.026650930021599795,0.06254881827164376,0.18238951330811062,-0.07771755709321435
1986,9.6838226000109,-0.016664340277005238,-0.000263497069177907,-0.029807462845093204,0.009954809976996853,-0.01494076656623206,0.006068751985913015,0.02970400446208794,0.040014981302187745,-0.027028138741065858,0.06243582629443974,0.18267103605163135,-0.077695096839585
1987,9.688619500011557,-0.016553273735291266,-0.00034703314755488634,-0.02983865887981346,0.01009971698059697,-0.014744399992302584,0.005936664787459446,0.03000663541288033,0.04090226434290335,-0.027405218642150016,0.06231719666451152,0.18292866202309313,-0.07766451373388313
1988,9.692220400000224,-0.01643805607938718,-0.0004001930793678702,-0.02986233312735112,0.010246090712663407,-0.0145437237116845,0.005802747360010636,0.03030867585974713,0.04179073868649578,-0.02778213007763215,0.06219286001663109,0.1831621609946008,-0.07762574042179876
1989,9.69587880000472,-0.016344651875691736,-0.0004550518636769517,-0.029902434654681252,0.010393928226761653,-0.014338732236468268,0.005667000612354803,0.030610098046549985,0.042680286643611544,-0.028158833074632808,0.06206274719203333,0.1833713057617415,-0.07757871008600459
1990,9.70018300000811,-0.016228100942585474,-0.0005092492357174742,-0.029915112974709484,0.010543226441550462,-0.014129420652940535,0.005529425648630068,0.030910873883547768,0.043570789430665426,-0.02853528733733817,0.06192678926821377,0.18355587221093952,-0.07752335646894652
1991,9.704486400005408,-0.01611356549107131,-0.0005827552720943149,-0.029960518700067246,0.010693982139186552,-0.013915784626848178,0.0053900237698925,0.03121097494850978,0.04446212718505164,-0.028911452249836378,0.06178491758889086,0.18371563938655486,-0.07745961389579728
1992,9.7084329000063,-0.01600215627832547,-0.0006437027241679881,-0.030006556233766777,0.010846191963734552,-0.013697820408587262,0.005248796475669477,0.03151037248797271,0.04535417898067905,-0.02928728687906605,0.06163706379412222,0.18385038955770955,-0.07738741729756778
1993,9.71261930000037,-0.01588490806336708,-0.0007023598942446578,-0.030070143966266557,0.010999852419582883,-0.013475524838315362,0.005105745465497821,0.03180903741864243,0.046246822843828854,-0.029662749977877784,0.0614831598505639,0.18395990828482658,-0.07730670223437132
1994,9.716806200012796,-0.015770639098843207,-0.000785904829675729,-0.030126420695701414,0.011154959869866267,-0.013248895350985675,0.004960872640446165,0.03210694032894132,0.04713993576933323,-0.030037799988209272,0.0613231380818621,0.1840439844858659,-0.07721740491883533
1995,9.720841900008963,-0.01567247495762131,-0.0008783097185241871,-0.030167209882419093,0.011311510534895484,-0.013017929981301399,0.0048141801046209885,0.03240405148070186,0.04803339373707301,-0.030412395044374776,0.06115693119916605,0.1841024105022416,-0.07711946223965559
1996,9.724920500011647,-0.015564902506708759,-0.0009780085110611318,-0.030186374563154456,0.011469500490595074,-0.012782627368588838,0.004665670166655743,0.03270034081100727,0.048927071728792765,-0.030786492976469706,0.060984472331751007,0.1841349821644047,-0.07701281178528721
1997,9.729601800005184,-0.015482797399919517,-0.0010904761293537458,-0.030248514686369236,0.011628925666949567,-0.012542986761587716,0.00451534534118249,0.03299577793417984,0.04982084374523181,-0.031160051313890807,0.06080569505773981,0.18414149885707648,-0.07689739186776647
1998,9.735815500011086,-0.015380425292627986,-0.0012149850175639534,-0.03029136268055615,0.011789781846458895,-0.012299008023157164,0.00436320835028546,0.03329033214391775,0.05071458282356967,-0.031533027288972615,0.06062053343491146,0.18412176358411694,-0.07677314154665765
1999,9.74213480000617,-0.01519199857489726,-0.001435885070114725,-0.030313434448723336,0.011952064662603634,-0.012050691634895831,0.004209262124935981,0.03358397241558082,0.051608161055184266,-0.031905377840740615,0.06042892203158502,0.1840755830330121,-0.07664000065311898
2000,9.750438600007328,-0.015049496716238708,-0.0016440639305328624,-0.030297789723027463,0.012115769598320754,-0.011798038701674621,0.004053509806408199,0.03387666740862571,0.05250144960372072,-0.03227705961878158,0.06023079595756746,0.18400276763896475,-0.07649790981408103
2001,9.757702400005655,-0.014991896167353936,-0.0018037841880860434,-0.030266483461463503,0.01228089198449061,-0.011541050956080566,0.0038959547476750253,0.03416838546919091,0.05339431872346875,-0.03264802898723137,0.060026090895153275,0.18390313164857264,-0.07634681047653193
2002,9.7629706000007,-0.014938320485233546,-0.0018741496523507646,-0.030286345019747956,0.01244742699843583,-0.011279730762770359,0.0037366005147837214,0.03445909463283185,0.054286637778046716,-0.03301824202888033,0.05981474313016425,0.18377649318307754,-0.07618664493190275
2003,9.770909600003506,-0.01475126957843956,-0.0020158255865843034,-0.030343284719480664,0.012615369662432836,-0.011014081122732054,0.003575450888210529,0.03474876262740617,0.0551782752593901,-0.03338765454939646,0.059596689583017066,0.18362267430117019,-0.07601735634054695
2004,9.77640240000619,-0.014626624833748773,-0.002092776089749399,-0.030380085392608527,0.012784714842236682,-0.01074410567745346,0.003412509864193757,0.0350373568761093,0.05606909880704227,-0.033756222081666724,0.059371867839806726,0.1834415010613345,-0.07583888875630748
2005,9.780406999998377,-0.014508753508435555,-0.00217231905003062,-0.030419117434973216,0.012955457245619964,-0.010469808712995863,0.003247781656044748,0.035324844500660445,0.05695897522774501,-0.03412389989025704,0.05914021618339349,0.18323280358371433,-0.07565118715116499
2006,9.784100900011254,-0.014390368755384055,-0.0022416318949559934,-0.030468996872012714,0.013127591420926439,-0.01019119516397161,0.0030812706954361276,0.035611192324639114,0.0578477705153264,-0.034490642975991345,0.0589016736244807,0.18299641611148645,-0.07545419743996078
2007,9.795319400000151,-0.014134374961105575,-0.002451467322115713,-0.030523837425072833,0.013301111755640103,-0.009908270617424181,0.0029129816336667834,0.03589636687697239,0.058735349870883496,-0.034856406080650194,0.058656179932670964,0.1827321770717241,-0.07524786650518764
2008,9.79957970000396,-0.014064754741383698,-0.0025081091043221765,-0.030538594915956292,0.013476012474970435,-0.00962104131660932,0.002742919342902992,0.03618033439557287,0.059621577723257234,-0.03522114369178928,0.05840367566748829,0.18243992913573406,-0.07503214222184125
2009,9.804037000008975,-0.014030490257494062,-0.002502827928292697,-0.03059899100042377,0.013652287640454534,-0.009329514164675902,0.002571088917395126,0.03646306083112717,0.06050631774979705,-0.035584810047678245,0.058144102209353545,0.1821195192788519,-0.07480697348232505
2010,9.809041200001955,-0.013972074393659871,-0.002563521969976278,-0.030608491353763125,0.013829931148576844,-0.00903369672824513,0.002397495674669366,0.03674451185103478,0.06138943289741268,-0.03594735914235975,0.05787740179050055,0.18177079883967837,-0.07457231022140173
2011,9.816141400006018,-0.013829078901182746,-0.0026719605316702175,-0.03064989667422426,0.014008936729407164,-0.00873359724088669,0.0022221451566938333,0.037024652843497055,0.062270785403910414,-0.03630874473082904,0.057603517525819846,0.18139362357874197,-0.07432810344118403
2012,9.820259500003884,-0.013772315746177502,-0.00272383146447641,-0.030675662583974007,0.014189297945257768,-0.008429224606490478,0.002045043131018569,0.03730344892175627,0.06315023681961081,-0.036668920334334026,0.05732239344361715,0.1809878537365719,-0.07407430523615742
2013,9.824907200003508,-0.013679130125342585,-0.0027689915315291308,-0.03071919080177367,0.014371008189360367,-0.008120588402532623,0.00186619559188878,0.037580864928484024,0.06402764802924484,-0.037027839245795786,0.05703397451627368,0.18055335409116605,-0.07381086881822732
2014,9.829042500001378,-0.013604823336344461,-0.002826862464697478,-0.030807908445317157,0.014554060684563677,-0.007807698883234418,0.0016856087613307592,0.03785686544031878,0.06490287927412539,-0.037385454535349506,0.056738206690795115,0.1800899940148393,-0.07353774854178391
2015,9.833377000002656,-0.013495967014692169,-0.002863343177479029,-0.030885521979431788,0.014738448482052288,-0.007490566982612822,0.0015032890902099102,0.03813141477255199,0.06577579017459094,-0.037741719056005776,0.05643503691923633,0.17959764753043522,-0.07325489992877696
2016,9.83832860000257,-0.013369522481417562,-0.0029239741697590247,-0.0309493722627374,0.014924164460087583,-0.007169204317421234,0.0013192432592602893,0.03840447698396233,0.06664623975271816,-0.038096585449431994,0.056124413188988635,0.1790761933668855,-0.07296227969379294
2017,9.842714099999284,-0.013277865587100937,-0.002978787977648973,-0.031050053859324904,0.015111201322771413,-0.006843623189979281,0.0011334781800851036,0.038676015881797504,0.06751408645529995,-0.038450006151853615,0.05580628455291687,0.17852551501410008,-0.07265984576912686
2018,9.84726260000025,-0.013155575033144054,-0.0030344862954389358,-0.031116653986495626,0.015299551598833146,-0.00651383659089037,0.0009460009961275853,0.03894599502690295,0.06837918817708574,-0.03880193340007515,0.0554806011593332,0.17794550077717167,-0.07234755732984079
2019,9.851773300004425,-0.01308291234223804,-0.0031093553128749827,-0.03117018939664955,0.015489207640440764,-0.006179858201645759,0.0007568190836116696,0.03921437773899658,0.06924140228428072,-0.03915231923762064,0.05514731428179457,0.1773360438298786,-0.07202537481880143
2020,9.858417800001916,-0.012964817907058305,-0.00323661339928395,-0.03124005747135521,0.01568016162203676,-0.00584170239711396,0.0005659400524519068,0.039481127102089,0.07010058563830077,-0.03950111552099335,0.054806376348710766,0.1766970422674696,-0.07169325997168925
2021,9.86254670000926,-0.01290794447479917,-0.0033082264835827386,-0.031247503969575798,0.015872405539199465,-0.005499384247914235,0.0003733717471320434,0.03974620597004822,0.07095659461977966,-0.039848273926054556,0.05445774097275014,0.17602839915871407,-0.07135117584197086
2022,9.86683620000258,-0.012891533845282304,-0.0033643297453718047,-0.03128537328276625,0.0160659312075305,-0.005152919522672975,0.00017912224755170763,0.040009576972308114,0.07180928515282511,-0.04019374595452139,0.0541013629800299,0.17533002259720126,-0.07099908682582635
2023,9.87155700000585,-0.012829529661973545,-0.003423178981308523,-0.03129998117834867,0.016260730261569104,-0.004802324690161756,-1.6800130159365123e-05,0.040271202519719926,0.07265851272952017,-0.04053748294058331,0.05373719843907751,0.1746018257518722,-0.07063695868702362
2024,9.875248399999691,-0.01278545323100961,-0.003461744522243954,-0.031343963777380024,0.01645679415373417,-0.004447616921315925,-0.0002143868328601273,0.04053104481054568,0.07350413243466612,-0.04087943605763695,0.053365204689550014,0.1738437269167682,-0.07026475858173149
2025,9.879806299999473,-0.012737226161539729,-0.0034971785332350023,-0.031373301927694656,0.01665411415329464,-0.004088814091132586,-0.000413629069650593,0.040789065836592475,0.0743459989707633,-0.04121955632513881,0.05298534037069801,0.17305564955998023,-0.0698824550832635
2026,9.883791400003249,-0.012694376254450202,-0.003627303374758444,-0.03142992621070462,0.01685268134536893,-0.003725934780446894,-0.0006145178111583457,0.0410452273894865,0.07518396668322604,-0.041557794615575655,0.0525975654495613,0.172237522371784,-0.06949001820674378
2027,9.887533800007075,-0.01265342643883274,-0.003580354401436419,-0.03146674570088556,0.017052486629954094,-0.0033589982775855593,-0.0008170437888597318,0.041299491067085393,0.07601788958582761,-0.041894101661552156,0.052201841248883066,0.17138927931194525,-0.06908741943368676
2028,9.891734800010454,-0.012604391323020698,-0.003697118800590376,-0.03150622818307422,0.017253520720985384,-0.002988024579896498,-0.0010211974944362907,0.04155181828002755,0.07684762138637079,-0.042228428062995434,0.05179813047472972,0.17051085965617954,-0.06867463173648246
2029,9.89822250000725,-0.012571490921327555,-0.003727761946736588,-0.03155847939070213,0.017455774145426945,-0.0026130343951535537,-0.0012269691791669637,0.04180217025841689,0.07767301551257942,-0.04256072429447585,0.05138639724380309,0.16960220804175083,-0.06825162960277838
2030,9.902260900009423,-0.01250408603166228,-0.00375118720864327,-0.031598431804612595,0.017659237242394456,-0.0022340491428352502,-0.0014343488533566267,0.042050508058641814,0.07849392513820684,-0.04289094071264353,0.05096660711043242,0.16866327451219354,-0.0678183890597496
2031,9.912710000004154,-0.012345510132313834,-0.0038202421801562065,-0.03170859611878408,0.01786390016231034,-0.0018510909552765518,-0.0016433262858014841,0.04229679257032685,0.0793102032093566,-0.043219027563780106,0.05053872709323341,0.16769401456114155,-0.06737488769824805
2032,9.916746000002604,-0.0123081769424755,-0.003859660110746118,-0.03172242415979372,0.01806975286609221,-0.001464182678692614,-0.0018538910032918595,0.04254098452341565,0.08012170247101118,-0.043544934991464966,0.050102725701421644,0.16669438917524868,-0.06692110469682246
2033,9.920877100012149,-0.012281055270114142,-0.00389230507050362,-0.031723259127182456,0.018276785124375278,-0.0010733478740735532,-0.002066032290152923,0.0427830444953838,0.08092827549376408,-0.04386861304435534,0.04965857296076758,0.1656643648761852,-0.06645702084559965
2034,9.925843700009864,-0.012263849482074912,-0.00391363654300777,-0.03171459717370579,0.018484986516769317,-0.0006786108179492796,-0.0022797391878238834,0.04302293291857988,0.08172977470075082,-0.04419001168407944,0.049206240439180704,0.1646039137616956,-0.06598261857001834
2035,9.929368600001908,-0.012269276392904427,-0.003962627522247565,-0.031705493916316274,0.01869434643115082,-0.0002799965030234585,-0.0024950004944761643,0.04326061008769289,0.08252605239477408,-0.04450908079324204,0.04874570127190997,0.16351301354570297,-0.06549788195440637
2036,9.933523900006549,-0.012262510256574231,-0.0040037115024565365,-0.031697254944744555,0.018904854062991052,0.00012246936132430698,-0.0027118047646710825,0.04349603616734457,0.08331696078561804,-0.04482577018354156,0.048276930186348044,0.16239164759744484,-0.06500279676539213
2037,9.937381000010646,-0.012251213878293853,-0.0040272303713686855,-0.031713510325439884,0.019116498414720583,0.0005287603486689652,-0.002930140309057548,0.04372917119980429,0.08410235201754712,-0.04514002960399773,0.047799903526426823,0.16123980497962612,-0.06449735047514073
2038,9.941932400004587,-0.012247859407021338,-0.004063850982704353,-0.03172518942089285,0.019329268295130885,0.0009388493153040376,-0.0031499951941102965,0.04395997511282459,0.08488207819698414,-0.045451808749289106,0.04731459927659232,0.1600574804855734,-0.06398153228440576
2039,9.948502200000805,-0.012209711872149183,-0.004105690962136271,-0.03174872491189373,0.019543152318813647,0.0013527084001400168,-0.0033713572419091617,0.04418840772759529,0.08565599142036344,-0.045761057268199366,0.04682099708534704,0.1588446746753762,-0.06345533314538725
2040,9.952070800005458,-0.012199855028305907,-0.004144618598974976,-0.03177351132297351,0.0197581389056385,0.0017703090247379598,-0.0035942140299598854,0.044414428766814236,0.08642394380215397,-0.046067724772171456,0.04631907828834797,0.15760139391100014,-0.0629187457843866
2041,9.959267700003693,-0.012142802057072424,-0.0042042106974982596,-0.031848641110172216,0.019974216280269658,0.0021916218934790693,-0.0038185528910569463,0.04463799786287274,0.0871857875030475,-0.04637176084396839,0.04580882593104857,0.15632765039035806,-0.06237176472424904
2042,9.965958000000684,-0.012056248866777104,-0.004273068697412566,-0.03193448423107687,0.020191372471722067,0.0026166169938710428,-0.0040443609131888955,0.044859074566153345,0.08794137475830667,-0.046673115046439714,0.04529022479087336,0.15502346218032345,-0.06181438630658381
2043,9.970681800012244,-0.012014764131057884,-0.004328592782491575,-0.03199075123234939,0.02040959531295764,0.003045263596991939,-0.004271624939486677,0.045077618353437626,0.08869055790626851,-0.046971736931392526,0.04476326139891367,0.15368885324867243,-0.061246608713752315
2044,9.975313800008736,-0.011958987546448436,-0.004357499987177327,-0.03202992681046974,0.020628872440522177,0.0034775302580722857,-0.004500331568215415,0.04529358863642168,0.08943318941699804,-0.04726757604856612,0.044227924061133066,0.1523238534949395,-0.0606684319906145
2045,9.979082200006816,-0.011915895687374663,-0.004392508823829576,-0.032073065537582275,0.020849191294223468,0.0039133848172161105,-0.0047304671528101425,0.04550694477033714,0.0901691219210874,-0.04756058195470888,0.043684202879071085,0.1509284987801726,-0.06007985806602384
2046,9.983243599999696,-0.011875941213750907,-0.004442634988817279,-0.032113515799654345,0.021070539116851132,0.004352794400261549,-0.004962017801955903,0.045717646062675296,0.09089820823859503,-0.04785070422275611,0.04313208977003447,0.14950283095557376,-0.05948089077406116
2047,9.987735100003192,-0.011840035383238395,-0.004490148764999369,-0.03213731474888446,0.021292902953938705,0.00479572541978167,-0.005194969379712673,0.04592565178201176,0.09162030140811972,-0.048137892451107694,0.04257157848676482,0.1480468978900111,-0.05887153587499794
2048,9.991972900010296,-0.011829655092173822,-0.004561611288622489,-0.03218033159581362,0.021516269653568416,0.0052421435762261374,-0.005429307505685573,0.04613092116692955,0.09233525471600394,-0.04842209627300404,0.04200266463657181,0.1465607534963892,-0.05825180107597943
2049,9.996427800011588,-0.011815594382357575,-0.004611054230759946,-0.03219239894477792,0.021740625866219207,0.005692013859204299,-0.005665017555240787,0.04633341343503828,0.09304292172566096,-0.04870326536599916,0.0414253456999215,0.14504445775686503,-0.057621696051417745
2050,10.000040400002035,-0.011780876326777337,-0.004671435531305572,-0.032209548987309614,0.021965958044658403,0.006145300548910286,-0.005902084659767662,0.04653308779208668,0.09374315630702039,-0.048981349461529176,0.0408396210484692,0.143498076746896,-0.05698123246308515
2051,10.008563499999582,-0.011736809425027517,-0.004764650125879464,-0.03228651685562532,0.022192252443877625,0.006601967217690685,-0.0061404937069873666,0.046729903441165566,0.09443581266608679,-0.04925629835457507,0.04024549196252685,0.14192168265810703,-0.056330423979898375
2052,10.012619000000996,-0.011713939141377501,-0.004811660467421841,-0.032332868106773174,0.022419495121073437,0.007061976731755278,-0.006380229341308559,0.04692381959199829,0.09512074537460596,-0.049528061913418166,0.03964296164795485,0.14031535381996454,-0.05566928629738417
2053,10.016944600007264,-0.011677669120194344,-0.004863516203094307,-0.03238586765620915,0.02264767193567304,0.0075252912530313285,-0.006621275964230459,0.047114795470315884,0.09579780939983318,-0.04979659008948708,0.03903203525246848,0.13867917472024377,-0.054997837156816165
2054,10.024480899999617,-0.011617252479357566,-0.00496600670106696,-0.032456957862320474,0.022876768549405253,0.007991872241161881,-0.006863617734793708,0.047302790327313854,0.0964668601343976,-0.05006183292729438,0.03841271988134935,0.1370132360242779,-0.054316096364013286
2055,10.035653300001286,-0.011579899190691443,-0.005067547648144966,-0.03252188868330427,0.02310677042641722,0.008461680455648475,-0.007107238570079407,0.04748776344918786,0.09712775342625737,-0.05032374057446135,0.03778502461255248,0.13531763459297647,-0.05362408580779035
2056,10.040407899999993,-0.011560410582513109,-0.005114271922156313,-0.032557719361071574,0.023337662833437176,0.008934675958138693,-0.007352122145756712,0.0476696741667453,0.09778034560873915,-0.05058226329182915,0.03714896051120008,0.13359247349960107,-0.05292182947805064
2057,10.04592770000454,-0.01150573483298594,-0.005234282164598097,-0.032616710248833225,0.023569430839983568,0.009410818114858947,-0.00759825189667938,0.04784848186508977,0.09842449353065658,-0.05083735146365482,0.036504540643452876,0.1318378620452864,-0.05220935348351057
2058,10.05322120001074,-0.011483901205706623,-0.005292741652579461,-0.03263761525932755,0.023802059318620877,0.009890065599192827,-0.007845611017531635,0.048024145993375476,0.09906005458650194,-0.05108895560789039,0.03585178008975058,0.1300539157732953,-0.0514866860690468
2059,10.05852030000824,-0.011522382538996644,-0.0053932229349155855,-0.032630980375658786,0.024035532945262544,0.010372376394405317,-0.008094182463523756,0.04819662607462854,0.09968688674670499,-0.051337026386543395,0.03519069595741308,0.12824075648199643,-0.05075385763265572
2060,10.06258080000407,-0.011546572334753993,-0.00542587727752937,-0.03260959982634379,0.024269836199521402,0.010857707796513117,-0.008343948951137789,0.04836588171563196,0.10030484858795248,-0.05158151461611673,0.034521307392594604,0.1263985122365534,-0.05001090074201534
2061,10.06693320001068,-0.011559914400394828,-0.005457461100998042,-0.03259838210520805,0.02450495336510801,0.011346016417301355,-0.008594892958923746,0.04853187261687108,0.10091379932356219,-0.05182237127812573,0.033843635591582835,0.12452731737931398,-0.049257850150639666
2062,10.072446700010914,-0.011553761675054343,-0.005491039845168517,-0.03259921745263704,0.024740868530277255,0.01183725818748685,-0.008846996728346625,0.04869455858253626,0.10151359883390534,-0.052059547529690824,0.033157703811435284,0.12262731253888912,-0.04849474281361569
2063,10.077742300010868,-0.011504693291867213,-0.005529662767638413,-0.032600782558627014,0.024977565588323442,0.01233138836002814,-0.009100242264684595,0.04885389953057983,0.10210410769687084,-0.0522929947142036,0.03246353737994559,0.12069864463791063,-0.04772161790291346
2064,10.08274130000791,-0.011415739601023461,-0.005558415013280069,-0.03267869947076168,0.025215028238124042,0.012828361513582387,-0.009354611337978677,0.049009855502823794,0.10268518721836505,-0.052522664372064126,0.03176116370493273,0.11874146689945711,-0.04693851682225927
2065,10.088071100006346,-0.01136865789661406,-0.005565473424818862,-0.03271685714086322,0.025453239984732312,0.013328131556109363,-0.0096100854840343,0.04916238667511507,0.10325669946284063,-0.052748508251487206,0.031050612282846453,0.1167559388521374,-0.04614548322156252
2066,10.09248980000848,-0.011318946151742608,-0.005580426240824793,-0.03274260730149286,0.02569218414001909,0.013830651728622691,-0.00986664600547501,0.049311453367524814,0.10381850728384752,-0.052970478319375465,0.03033191470668235,0.11474222633382175,-0.045342563010886856
2067,10.100171300000513,-0.01126311920216253,-0.005583377828063438,-0.032767630132134906,0.025931843823364036,0.014335874609088419,-0.010124273972848584,0.04945701605458857,0.10437047435459951,-0.053188526772257154,0.029605104673200697,0.11270050149401124,-0.044529804373956115
2068,10.104418000002624,-0.011255121842779398,-0.005582568675415204,-0.032807576797079845,0.026172201962396547,0.014843752116470979,-0.01038295022578579,0.04959903537558372,0.10491246519854973,-0.05340260604728635,0.028870217989443184,0.1106309427948375,-0.043707257781185845
2069,10.108815500003402,-0.011203882653448913,-0.00559827700154856,-0.03278608042729099,0.026413241293786607,0.015354235514926493,-0.010642655374212131,0.04973747214484103,0.10544434521996819,-0.05361266883330316,0.028127292578542032,0.10853373501068389,-0.04287497600223086
2070,10.113420200010296,-0.011192423664537687,-0.005597575404562716,-0.03276832459744631,0.02665494436408578,0.015867275418143367,-0.01090336979961285,0.049872287362087014,0.10596598073451449,-0.05381866808195171,0.02737636848481621,0.10640906922641964,-0.04203301411803948
2071,10.117278300007456,-0.011177005793578982,-0.005603067719406203,-0.03275707848918132,0.02689729353061863,0.016382821793830153,-0.01116507365635143,0.050003442222813665,0.10647723899979891,-0.05402055701885374,0.02661748787814986,0.1042571428342386,-0.041181429532405264
2072,10.121478000000934,-0.011202250689667514,-0.0056065740739602,-0.03274359016556161,0.027140270962424738,0.016900823968350534,-0.011427746873041848,0.05013089812867208,0.10697798824592455,-0.05421828915483563,0.025850695057648424,0.10207815952909399,-0.04032028198300674
2073,10.125011700001778,-0.01123877274152171,-0.005606800930119936,-0.032701473513953014,0.027383858641251535,0.017421230631505285,-0.011691369153974753,0.05025461669788606,0.10746809770600399,-0.05441181829720621,0.025076036454568212,0.0998723293027207,-0.039449633551925954
2074,10.129617400001734,-0.011273427664131409,-0.0056196400434694324,-0.03265775656863914,0.027628038362598067,0.017943989841461085,-0.011955919980597899,0.05037455977568187,0.10794743764664365,-0.054601098561083035,0.02429356063451548,0.0976398684362373,-0.038569548675636604
2075,10.133672800002389,-0.011280066433731013,-0.005616528457227742,-0.03261294579391496,0.027872791736809868,0.01846904902982597,-0.01222137861305101,0.05049068944473079,0.10841587939838886,-0.05478608438076438,0.023503318298911266,0.09538099949132066,-0.03768009415445247
2076,10.137494499998866,-0.011280560412744809,-0.005606388107260562,-0.03258131547641822,0.028118100190225044,0.01899635500687116,-0.012487724091755283,0.05060296803560108,0.10887329538612239,-0.054966730521144695,0.022705362285718515,0.09309595129994613,-0.03678133916142702
2077,10.142038600009982,-0.011279380507330768,-0.005589541061335846,-0.03257235332006118,0.02836394496637159,0.019525853966899112,-0.012754935239057736,0.05071135813721568,0.10931955915940945,-0.05514299208917089,0.021899747569428495,0.09078495895268641,-0.035873355250695085
2078,10.145902900010697,-0.011236351247094021,-0.005591920232217858,-0.03254359199733051,0.028610307127215937,0.020057491493757466,-0.013022990660930581,0.050815822607311975,0.10975454542278171,-0.055314824545336636,0.02108653126030372,0.08844826378556245,-0.03495621636524743
2079,10.150124700012384,-0.01119653619059963,-0.005584910791043899,-0.03253181563479218,0.0288571675544629,0.02059121256649858,-0.013291868748725759,0.05091632458290003,0.11017813006595344,-0.05548218371521206,0.02026577260287501,0.08608611336544056,-0.034029998844129626
2080,10.154243100012536,-0.011170399491960371,-0.005570435855582232,-0.032527313527793984,0.029104506950906998,0.021126961565184416,-0.01356154768098472,0.05101282749071528,0.110590190193963,-0.05564502580100643,0.01943753297369056,0.08369876147397007,-0.03309478142905662
2081,10.158467900007963,-0.011169033346759711,-0.005572587650005802,-0.0325301171265652,0.029352305841835256,0.021664682276836475,-0.013832005425303514,0.051105295057661836,0.11099060415723253,-0.055803307393161125,0.018601875878315417,0.08128646809005603,-0.03215064527043431
2082,10.163362500010408,-0.011147334731766137,-0.005558028723891579,-0.03247857660946658,0.029600544576481404,0.022204317901530417,-0.01410321974025327,0.0511936913212429,0.11137925158153889,-0.05595698548197001,0.01775886694758007,0.07884949937086222,-0.03119767393277978
2083,10.169605900009628,-0.011117535600380434,-0.005577468386852552,-0.03246437706161425,0.029849203329531473,0.022745811058635056,-0.014375168177356207,0.05127798063997421,0.11175601339788928,-0.056106017469224424,0.01690857393307711,0.07638812763133898,-0.030235953399531786
2084,10.17526530000032,-0.01103313129687672,-0.005590295382808998,-0.03242493525168156,0.030098262102680726,0.02328910379319522,-0.014647828083117216,0.05135812770377679,0.11212077187229418,-0.05625036117988006,0.016051066701905235,0.07390263132227193,-0.029265572077243295
2085,10.179200099999434,-0.010976625214862527,-0.005612941864060972,-0.03240826640208221,0.03034770072624166,0.0238341375824581,-0.014921176601111086,0.05143409754434495,0.11247341063543083,-0.056389974873742955,0.0151864172306603,0.07139329500684718,-0.02828662079914777
2086,10.183710500001323,-0.010920002610763627,-0.005626424489294198,-0.032389522466804106,0.03059749886080298,0.02438085334254263,-0.015195190674125414,0.05150585554548604,0.11281381471219049,-0.05652481725717149,0.014314699598673389,0.06886040933572965,-0.027299192828091356
2087,10.18986969999969,-0.010876939175311729,-0.005526375902699029,-0.032364935748662546,0.030847635998939457,0.024929191435251376,-0.01546984704635929,0.05157336745342831,0.11314187055110211,-0.05665484749479137,0.013435989980496292,0.06630427102065099,-0.02630338385882309
2088,10.193648300002678,-0.010864340188590614,-0.005528394986703011,-0.03235711906065586,0.031098091466972712,0.025479091675024327,-0.015745122265677796,0.05163659938709349,0.11345746605362529,-0.05678002522122015,0.012550366637635067,0.06372518280650401,-0.02529929201963521
2089,10.197636800003238,-0.010834614754429813,-0.00553785041462176,-0.03230842527362893,0.03134884442678276,0.02603049333603384,-0.016020992685922365,0.05169551784833053,0.11376049060330522,-0.056900310552798636,0.011657909909532591,0.06112345344194062,-0.02428701787334588
2090,10.201674600000842,-0.010792036118127716,-0.005539756303626651,-0.0322541489257535,0.03159987387767015,0.02658333515942018,-0.01629743446927704,0.051750089732106555,0.11405083509478284,-0.05701566409932561,0.010758702203801547,0.05849939764847118,-0.02326666441761677
2091,10.208339700009674,-0.010727028182751487,-0.005529376611719965,-0.03217426619722992,0.03185115865826853,0.027137555360667042,-0.016574423588690743,0.05180028233665095,0.11432839196265356,-0.0571260469757927,0.009852827985709538,0.055853336088063574,-0.022238337084598273
2092,10.213566100006574,-0.0106845668063836,-0.005532269947096471,-0.03214094916205207,0.032102677448507456,0.027693091637116446,-0.016851935830355495,0.051846063373548655,0.114593055210167,-0.057231420814116134,0.008940373766918388,0.053185595329240117,-0.021202143739895
2093,10.218910100011271,-0.010626447098093982,-0.00551905627458643,-0.032110238841399116,0.03235440877162533,0.028249881175622316,-0.01712994679624061,0.05188740097777882,0.11484472043776038,-0.05733174777486232,0.008021428093480042,0.05049650781167122,-0.020158194680844586
2094,10.223758200008888,-0.010596549685831217,-0.005499156880152861,-0.03208806450740176,0.03260633099623217,0.028807860660341973,-0.01740843190668279,0.05192426371769529,0.11508328487141808,-0.05742699055896411,0.0070960815330918525,0.04778641180926477,-0.01910660263410296
2095,10.228985800000371,-0.010499401013942469,-0.005461152824180799,-0.03199273167718766,0.03285842233842193,0.02936696628066482,-0.01768736640303212,0.051956620604944825,0.1153086473908502,-0.057517112419424365,0.006164426661614322,0.04505565139175074,-0.018047482752529372
2096,10.23368190000474,-0.010463908957116045,-0.005425720310849244,-0.03196135576353039,0.033110660863933765,0.029927133739277353,-0.01796672535035399,0.05198444110431963,0.11552070855748366,-0.05760207717300348,0.00522655804885478,0.042304576384760914,-0.016980952611364543
2097,10.237672800009022,-0.010414779818930282,-0.005392893581968825,-0.031937898939929564,0.03336302449036193,0.030488298260363526,-0.018246483640186755,0.052007695143540485,0.11571937064225842,-0.05768184921188725,0.004282572243620794,0.03953354232840366,-0.015907132203695485
2098,10.247357800006284,-0.01025806730972979,-0.005330252874621053,-0.031858298972308664,0.03361549098941407,0.03105039459793953,-0.018526615993355075,0.05202635312296681,0.11590453765322097,-0.057756393515332086,0.0033325677580474584,0.036742910434334274,-0.014826143935200745
2099,10.254701400001068,-0.010148472273024952,-0.005239883068756589,-0.031831416905557165,0.033868037989217385,0.03161335704432213,-0.01880709696283889,0.05204038592522992,0.1160761153629079,-0.05782567566128396,0.0023766450512030407,0.03393304754132216,-0.01373811261817005
2100,10.2594245000073,-0.010099412343917726,-0.005209500101279313,-0.031795232884533814,0.034120642976672465,0.03217711943872941,-0.019087900936697873,0.05204976492478601,0.11623401133551181,-0.05788966183796765,0.0014149065119778228,0.03110432606931651,-0.01264316546479238
2101,10.26301880000392,-0.010060448238863517,-0.005162047407187195,-0.03175451585466569,0.03437328329985433,0.03274161517601312,-0.01936900214105117,0.05205446199738513,0.11637813495382271,-0.05794831885544291,0.00044745644126128494,0.028257123972011994,-0.011541432079706869
2102,10.267143100005342,-0.010012703706637548,-0.005123199749957677,-0.03171240197148928,0.034625936170460135,0.03330677721552178,-0.01965037464311235,0.05205444952945264,0.11650839744593833,-0.05800161415712377,-0.000525598966586872,0.025391824687916946,-0.010433044451811117
2103,10.270877800008748,-0.009984214228368909,-0.0050711780044667846,-0.031671974555076816,0.03487857866630309,0.03387253809009329,-0.01993199235427941,0.05204970042737929,0.11662471191173614,-0.05804951583125749,-0.001504151642966017,0.022508817089926737,-0.009318136945321626
2104,10.275314099999378,-0.009971316553560376,-0.005035730776091506,-0.0316585074812764,0.03513118773385235,0.03443882991517596,-0.020213829033279628,0.05204018812671656,0.11672699334910099,-0.058091992622359305,-0.0024880916649580196,0.01960849543340567,-0.008196846290081317
2105,10.279275699998834,-0.00992363057172124,-0.0049993131965549095,-0.031641121834027716,0.035383740190818365,0.035005584398076724,-0.020495858289368875,0.05202588660127363,0.11681515867990096,-0.05812901394259912,-0.0034773072759383184,0.016691259302780922,-0.0070693115711093
2106,10.283444200002124,-0.009901565922026847,-0.0049709450093084065,-0.03161009075331013,0.03563621272878326,0.0355727328473353,-0.0207780535855852,0.052006770372112814,0.11688912677570432,-0.05816054988313646,-0.0044716849068678075,0.01375751355665251,-0.005935674217388203
2107,10.287552699999653,-0.009901454768235816,-0.004937328214164086,-0.031585938952638684,0.03588858191587575,0.03614020618222303,-0.021060388242056475,0.05198281451644029,0.11694881848322988,-0.05818657122540028,-0.005471109198258399,0.010807668271423782,-0.004796077989884612
2108,10.291701300011482,-0.009884878074757342,-0.004912207252824718,-0.03156070829134294,0.036140824199490156,0.036707934942365066,-0.021342835439361788,0.05195399467638855,0.1169941566495241,-0.058207049452310325,-0.006475463022804791,0.007842138683457178,-0.003650668968798344
2109,10.296020599998885,-0.009900818815483747,-0.004877060878347923,-0.03152189741399718,0.03639291590904914,0.03727584929748477,-0.02162536822194623,0.05192028706768744,0.11702506614685759,-0.058221956759436665,-0.007484627508674647,0.004861345129760585,-0.002499595540036603
2110,10.299931900008232,-0.009892125869692339,-0.004853592491638815,-0.031471960954237585,0.036644833258809635,0.037843879057269054,-0.021907959501588817,0.05188166848822023,0.11704147389733283,-0.058231266066093273,-0.008498482063449112,0.0018657129872099911,-0.001343008380909235
2111,10.304114200000186,-0.009920166198362295,-0.0048398065357412815,-0.03143111674668122,0.03689655235071139,0.03841195368135326,-0.02219058206092324,0.05183811632646148,0.1170433088971964,-0.058234951026361816,-0.009516904398705247,-0.001144327389685471,-0.00018106044504156497
2112,10.308448299998416,-0.00992847996092878,-0.004827874089317875,-0.03140614972322828,0.037148049177267516,0.03898000228942422,-0.022473208557011168,0.051789608569793526,0.11703050224084863,-0.058232986040042053,-0.01053977055523168,-0.004168340732469539,0.0009860930534984845
2113,10.312550700007703,-0.009937565713240169,-0.004809202024182847,-0.031402396471524235,0.03739929962449635,0.03954795367144004,-0.022755811524967712,0.05173612381269834,0.11700298714454387,-0.0582253462635252,-0.011566954928868436,-0.007205886923868907,0.002158294656862016
2114,10.317096900005708,-0.00993000088244382,-0.0048007324295280054,-0.0313956000284483,0.037650279474894036,0.0401157362979652,-0.023038363381638803,0.05167764126482154,0.11696069896977468,-0.058212007620586585,-0.01259833029696164,-0.010256521064359982,0.0033353846808723184
2115,10.321605700009968,-0.009899215414894448,-0.004805898484533135,-0.03137759797459077,0.0379009644104471,0.04068327833061936,-0.023320836429330274,0.0516141407589051,0.1169035752463334,-0.05819294681309384,-0.013633767845423582,-0.013319793540164491,0.004517201233272106
2116,10.325680800000557,-0.009884954002619128,-0.00481360938747098,-0.03136865121659967,0.03815133001568447,0.041250507632638114,-0.02360320285958831,0.05154560275858582,0.11683155569504425,-0.05816814133162646,-0.014673137196388297,-0.016395250092665646,0.005703580232767122
2117,10.329373500004294,-0.009877206726246413,-0.004827616579458015,-0.03136109762171483,0.03840135178076833,0.04181735177954395,-0.02388543475703079,0.05147200836605633,0.11674458225015871,-0.05813756946600303,-0.015716306436452544,-0.019482431889236134,0.006894355428868127
2118,10.3333699000068,-0.009855000042245347,-0.004838483771351789,-0.031359279572737715,0.03865100510462303,0.04238373806992596,-0.02416750410322889,0.051393339329585445,0.11664259908140735,-0.058101210315712214,-0.016763142145491707,-0.022580875595468827,0.008089358422533029
2119,10.338427700000466,-0.009812587163777897,-0.004873543760660575,-0.03137545191998735,0.038900265298101276,0.042949593536326366,-0.02444938278063846,0.05130957805089477,0.11652555261570144,-0.05805904380024387,-0.01781350942604003,-0.025690113448800733,0.009288418687610647
2120,10.342190900002606,-0.009779355503173213,-0.004906704312911961,-0.031397323504244415,0.039149107587186906,0.04351484495623245,-0.02473104257658074,0.051220707592388656,0.11639339155847782,-0.058011050669316194,-0.01886727193322431,-0.028809673333520216,0.010491363593087324
2121,10.347041300003184,-0.00973834661230848,-0.004938619239475233,-0.03141501960690301,0.03939750711623324,0.044079418863172085,-0.02501245518727198,0.05112671168423473,0.11624606691468016,-0.05795721251299494,-0.01992429190523981,-0.03193907885714712,0.011698018426137363
2122,10.351434700001846,-0.009709814201521423,-0.004980403343873283,-0.031442994978879306,0.03964543895123646,0.04464324155791133,-0.02529359222190144,0.05102757473129208,0.11608353200937041,-0.05789751177170076,-0.020984430194356977,-0.03507784942817501,0.012908206415977943
2123,10.35542649999843,-0.009668624727417242,-0.0050267685459926305,-0.031456865009700886,0.0398928780831432,0.04520623911975224,-0.02557442520675724,0.05092328181988443,0.11590574250796369,-0.057831931746100955,-0.022047546298447122,-0.03822550033516417,0.014121748758528858
2124,10.359291800006758,-0.009672545939331102,-0.005071033412497488,-0.0314722699078868,0.040139799431191434,0.04576833741792895,-0.02585492558939938,0.05081381872441562,0.11571265643607993,-0.057760456606882,-0.02311349839301531,-0.04138154282717353,0.015338464641877108
2125,10.362980700010668,-0.009680176467938593,-0.005121655994167755,-0.031460942746281466,0.04038617784628404,0.0463294621231,-0.026135064742879303,0.05069917191382517,0.11550423419900527,-0.05768307140439882,-0.024182143363728325,-0.044545484195519465,0.01655817127254616
2126,10.367038800002774,-0.009702055316307773,-0.00517585392854532,-0.031450547267777976,0.04063198811439427,0.0468895387189349,-0.026414813970005377,0.05057932855788152,0.11528043860075653,-0.05759976207819718,-0.0252533368394255,-0.04771682785684871,0.01778068390256938
2127,10.371962900011567,-0.00974000275056167,-0.00522748078217997,-0.03143697888467999,0.040877204960002446,0.04744849251379283,-0.026694144507653644,0.05045427653331057,0.11504123486274205,-0.05751051546640535,-0.026326933225599824,-0.05089507343751247,0.019005815857366916
2128,10.377481100003934,-0.009783308718789283,-0.005291008125415628,-0.03142963570898608,0.04112180304956306,0.0480062486524914,-0.02697302753112323,0.050324004429756944,0.11478659064201271,-0.05741531931499168,-0.02740278573833645,-0.054079716859228015,0.020233378564425017
2129,10.381341000000248,-0.009799770560789447,-0.005343071199409416,-0.031434395362145776,0.04136575699500163,0.048562732128163685,-0.027251434158535873,0.05018850155557573,0.11451647604909719,-0.05731416228688398,-0.028480746438695633,-0.057270250426013754,0.021463181582776346
2130,10.38553800000227,-0.009788575107791067,-0.005416616610984188,-0.031424865386117974,0.04160904135724046,0.04911786779420123,-0.027529335455278907,0.0500477579434524,0.11423086366541542,-0.057207033970947195,-0.029560666267526854,-0.06046616291238337,0.022695032633279575
2131,10.389988100010669,-0.009771339994323155,-0.0054951359367898835,-0.031436697926477464,0.04185163064975254,0.04967158037628088,-0.027806702438490937,0.049901764355848775,0.11392972856026387,-0.05709392489081574,-0.030642395080700678,-0.06366693965278428,0.023928737629696183
2132,10.39672900000005,-0.009780418913551383,-0.005636826127827547,-0.031511982333113836,0.04209349934214257,0.050223794484473235,-0.028083506081589632,0.04975051229027315,0.11361304830736572,-0.05697482651357685,-0.03172578168474461,-0.06687206263226533,0.025164100710562118
2133,10.400428200009628,-0.009770137736084044,-0.005729517000700419,-0.031544261634899824,0.04233462186375416,0.050774434625430534,-0.028359717318840953,0.04959399398437237,0.1132808030009795,-0.056849731258301256,-0.03281067387286907,-0.07008101057835774,0.026400924271851683
2134,10.40450210000563,-0.009747461305686218,-0.005818607815745003,-0.031575114693137625,0.04257497260730211,0.051323425214652024,-0.02863530704996918,0.049432202420844035,0.1129329752715609,-0.05671863250441714,-0.033896918461369545,-0.07329325905415318,0.027639009000430547
2135,10.408430600000427,-0.009734586428885065,-0.005890881147838961,-0.03159785063501121,0.04281452593252881,0.05187069058882453,-0.028910246144806924,0.04926513133216675,0.11256955030097203,-0.05658152459992369,-0.03498436132639073,-0.07650828055256258,0.028878153908294613
2136,10.412332899999456,-0.009734586428885065,-0.005890881147838961,-0.03159785063501121,0.043053256169883765,0.05241615501823605,-0.029184505447984427,0.049092775205146495,0.1121905158372319,-0.05643840286944077,-0.03607284744103836,-0.0797255445917385,0.030118156367591072
2137,10.417067500005942,-0.009721190269876771,-0.006000624569528558,-0.03167801374410583,0.043291137624225186,0.052959742719260045,-0.02945805578365753,0.048915129285277165,0.11179586220880258,-0.05628926362209055,-0.03716222091282408,-0.08294451781164423,0.03135881214641774
2138,10.42114040000888,-0.009740049448936245,-0.006058785667197489,-0.031720237297496415,0.043528144578542934,0.05350137786690828,-0.029730867960273594,0.048732189580913784,0.1113855823384051,-0.05613410415920725,-0.038252325021429084,-0.08616466407175105,0.0325999154453962
2139,10.425311099999815,-0.009758930822541824,-0.006113364745905631,-0.03175184611117456,0.04376425129770176,0.05404098460745012,-0.030002912775374382,0.048543952867256775,0.11095967175635996,-0.05597292278187113,-0.03934300225677152,-0.08938544454984601,0.03384125893501432
2140,10.429318000009516,-0.00978446652385061,-0.0061566973427543545,-0.031759196791518146,0.04399943203220408,0.05457848707109579,-0.03027416102043524,0.04835041669014591,0.11051812861344736,-0.05580571879826271,-0.04043409435736303,-0.0926063178419317,0.03508263379373313
2141,10.433901600001263,-0.009855991370231942,-0.006188823715199298,-0.03181943428044387,0.0442336610219711,0.05511380938474148,-0.030544583485739886,0.04815157936966284,0.11006095369328192,-0.055632492530833494,-0.04152544234893919,-0.09582674006319894,0.03632382974685252
2142,10.437829300004523,-0.009881564621277084,-0.006223721951992439,-0.03181728817772028,0.04446691250014151,0.0556468756847741,-0.03081415096528998,0.047947440003540565,0.10958815042419627,-0.055453245323289296,-0.042616886583349035,-0.0990461649500529,0.03756463510613017
2143,10.441747600008966,-0.009903141031598882,-0.006254101802279621,-0.0318403834656045,0.04469916069688676,0.05617761012993301,-0.031082834261748717,0.0477379984703787,0.1090997248906278,-0.05526797954738246,-0.04370826677768841,-0.10226404396317297,0.03880483681014775
2144,10.446237000011024,-0.009939038561752614,-0.00627810039458406,-0.031897429459178644,0.04493037984324228,0.05670593691422642,-0.03135060419141756,0.04752325543266353,0.1085956858440031,-0.055076698609509554,-0.04479942205366196,-0.10547982639158619,0.04004422046541828
2145,10.45011499999964,-0.009944958412865476,-0.006307750403378344,-0.03194217463383748,0.045160544174953555,0.05723178027989992,-0.03161743158924527,0.047303212339591935,0.10807604471311462,-0.054879406957110924,-0.04589019097715846,-0.10869295945773409,0.04128257038822832
2146,10.456168500008062,-0.00994676830330373,-0.006308025281569283,-0.03199749483354891,0.04538962793633617,0.057755064530454876,-0.03188328731386834,0.04707787142969827,0.10754081561398462,-0.05467611008486824,-0.04698041159802416,-0.11190288842351209,0.042519669647207846
2147,10.462543600006027,-0.009935204242709236,-0.006357223148153961,-0.032088272641379194,0.04561760538414909,0.05827571404371395,-0.03214814225268163,0.04684723573328337,0.10699001535921164,-0.05446681454069658,-0.04806992149001855,-0.11510905669726021,0.043755300106620425
2148,10.471919900010109,-0.009930727030686912,-0.006394114172571521,-0.03220492272300512,0.04584445079148021,0.05879365328493111,-0.03241196732693845,0.0466113090746448,0.10642366346679509,-0.05425152793152771,-0.049158557790937134,-0.11831090594168349,0.044989242470366314
2149,10.475758700005828,-0.009898758284389363,-0.0064161108097030425,-0.03226031949870852,0.04607013845164314,0.0593088068199439,-0.03267473349687907,0.046370096074107275,0.10584178216843403,-0.05403025892888052,-0.05024615724288554,-0.12150787618268016,0.04622127632669049
2150,10.47944429999916,-0.009884257743797802,-0.0064297828266483194,-0.03235972135712978,0.046294642682084414,0.0598210993283655,-0.03293641176688683,0.04612360214985255,0.10524439641729555,-0.05380301727421531,-0.05133255623268931,-0.12469940591905494,0.0474511801935874
2151,10.48337800000445,-0.00984803214462965,-0.0064387292794360375,-0.03247190231969228,0.046517937828299834,0.06033045561681405,-0.03319697319067061,0.04587183351954848,0.10463153389524854,-0.05356981378406831,-0.05241759083242361,-0.12788493223309447,0.04867873156489354
2152,10.48780230000557,-0.009788111597890618,-0.006452130880043074,-0.03260062742737568,0.04673999826775913,0.060836800632177106,-0.03345638887647268,0.045614797201777135,0.10400322501955861,-0.05333066035496294,-0.05350109684004718,-0.13106389090198164,0.049903706957059014
2153,10.4957327000011,-0.009642586051860039,-0.0064879219720811,-0.03287019415426468,0.046960798413837726,0.06134005947490849,-0.03371462999230056,0.04535250101726113,0.10335950294903978,-0.05308556996809484,-0.05458290982012466,-0.13423571651002558,0.051125881956588834
2154,10.49998800001049,-0.00957478176239177,-0.006471873674703828,-0.03301144253167355,0.047180312719754584,0.06184015741235519,-0.03397166777118176,0.0450849535898878,0.1027004035896586,-0.05283455669378739,-0.055662865144621564,-0.13739984256168244,0.05234503126814431
2155,10.504303200010328,-0.009497268811437871,-0.006476987531534351,-0.03315708191764013,0.047398515682515165,0.06233701989211147,-0.03422747351644035,0.04481216434753079,0.10202596559958703,-0.052577635695714546,-0.05674079803375612,-0.14055570159534256,0.05356092876329499
2156,10.508281100002932,-0.00939446478588824,-0.006477545459920077,-0.033307895711231536,0.04761538184685833,0.06283057255539756,-0.034482018606994,0.04453414352266913,0.10133623039370031,-0.052314823234887654,-0.05781654359689201,-0.14370272529785902,0.05477334752991077
2157,10.512387800001306,-0.009271276873271108,-0.006454229636151322,-0.03345518375995175,0.04783088580920613,0.06332074125046015,-0.03473527450267058,0.044250902152803556,0.10063124214751676,-0.052046136673403375,-0.05888993687345639,-0.14684034461979187,0.055982059922183885
2158,10.5173053000035,-0.009116980007284219,-0.00643169616671092,-0.03360012775442041,0.04804500222161537,0.06380745204599185,-0.03498721274954298,0.0439624520806701,0.09991104780057644,-0.05177159447794944,-0.05996081287386719,-0.14996798989134233,0.05718683761127008
2159,10.52083059999859,-0.008962268604652523,-0.006375282474877651,-0.03378343613213775,0.04825770579572987,0.06429063124456695,-0.035237804985281056,0.04366880595425097,0.09917569705925479,-0.051491216223065066,-0.06102900662045411,-0.1530850909389514,0.058387451636537774
2160,10.525151300011204,-0.00878313884940615,-0.006337157747210892,-0.03392175576958226,0.04846897130673233,0.06477020539609041,-0.03548702294451964,0.04336997722658285,0.09842524239900835,-0.05120502259415297,-0.062094353188357154,-0.15619107720253664,0.05958367245741397
2161,10.52927759999875,-0.008627945041047105,-0.006265748016548594,-0.03407909442792845,0.04867877359729487,0.06524610131125697,-0.03573483846424138,0.04306598015536273,0.09765973906604962,-0.050913035390240294,-0.06315668774638752,-0.15928537785333938,0.06077527000581505
2162,10.533363400012604,-0.008444618347636462,-0.0061806759357626384,-0.0341951840464601,0.04888708758152723,0.06571824607501793,-0.035981223489173216,0.04275682980235155,0.09687924507844783,-0.05061527752648515,-0.06421584559783516,-0.16236742191235462,0.061962013739150085
2163,10.538254099999904,-0.008299329482767601,-0.006090448755231458,-0.034299383121135625,0.0490938882489217,0.06618656706005252,-0.03622615007719545,0.04244254203257595,0.09608382122665277,-0.05031177303642612,-0.06527166222120744,-0.16543663836931607,0.063143672693884
2164,10.543764900008682,-0.008172091598371236,-0.0059764334042853185,-0.0344373682052075,0.04929915066829359,0.06665099194024092,-0.036469590404762116,0.04212313351332847,0.09527353107343838,-0.05000254707397196,-0.06632397331088372,-0.16849245630220902,0.0643200155396479
2165,10.548243600002024,-0.008056578633360765,-0.005854155276458346,-0.034571699680347574,0.0495028499917162,0.06711144870413599,-0.03671151677233158,0.04179862171296647,0.09444844095326378,-0.04968762591512892,-0.06737261481767044,-0.17153430499728312,0.0654908106338833
2166,10.552129900010186,-0.007936777066866735,-0.00571864333237268,-0.03471224585798873,0.049704961458449284,0.06756786566843057,-0.03695190160980617,0.04146902489951056,0.09360861997104879,-0.04936703695946318,-0.0684174229892412,-0.1745616140695371,0.06665582607700728
2167,10.5561810000072,-0.007778755746863318,-0.005549071958295844,-0.03483117784798243,0.049905460398860235,0.06802017149141736,-0.03719071748197966,0.04113436213904324,0.09275414000036193,-0.049040808731295626,-0.06945823441044613,-0.17757381358364796,0.06781482976808498
2168,10.562998300010804,-0.007437071253596066,-0.005226012870586463,-0.03503010376053505,0.050104322238336926,0.06846829518643856,-0.03742793709399097,0.0407946532939085,0.09188507568101897,-0.048708970880626735,-0.07049488604347592,-0.18057033417531518,0.06896758946099595
2169,10.567807300001732,-0.007437071253596066,-0.005226012870586463,-0.03503010376053505,0.050301522501191444,0.06891216613532189,-0.0376635332967828,0.04044991902071332,0.0910015044160899,-0.048371554183788974,-0.07152721526786504,-0.18355060717299193,0.07011387282108017
2170,10.576230500009842,-0.006895789250121654,-0.004601889357057083,-0.03533515751085036,0.05049703681455344,0.06935171410180002,-0.03789747909256391,0.04010018076813187,0.0901035063683119,-0.04802859054382456,-0.07255505992031941,-0.18651406471997375,0.0712534474822494
2171,10.580199500007438,-0.00671519914412192,-0.004389382392293457,-0.03545409172212835,0.050690840912252184,0.06978686924491065,-0.038129747640273846,0.039745460774513255,0.0891911644559065,-0.04768011299058623,-0.07357825833435401,-0.18946013989681496,0.07238608110454903
2172,10.583645899998372,-0.00648752955446576,-0.00414115062404649,-0.03555417952051911,0.05088291063868622,0.07021756213237462,-0.03836031226104887,0.039385782065293945,0.08826456434779888,-0.04732615568055885,-0.07459664937972563,-0.192388266844043,0.07351154143215458
2173,10.587847700007842,-0.0062044077084476585,-0.003877235088554221,-0.035652719170027276,0.05107322195267959,0.07064372375394953,-0.03858914644368792,0.03902116845021632,0.08732379445823829,-0.04696675389639982,-0.07561007250164657,-0.1952978808851416,0.07462959635178774
2174,10.591883900007817,-0.0059552975930403425,-0.0036157903774783466,-0.035748454532747186,0.05126175093132355,0.07106528553475629,-0.03881622385011699,0.03865164452035455,0.08636894594081862,-0.0466019440461963,-0.07661836775976517,-0.19818841864977269,0.07574001395153596
2175,10.596000100005767,-0.005703834498250698,-0.0033311468312046295,-0.0358550161885131,0.05144847377380254,0.07148217934857591,-0.03904151832085073,0.038277235644949184,0.08540011268189814,-0.04623176366243697,-0.07762137586689924,-0.20105931819720643,0.07684256258005932
2176,10.600180200010072,-0.005432162660166586,-0.0030418796364262927,-0.03593640656503965,0.05163336680520343,0.07189433753111388,-0.03926500388044992,0.037897967968051754,0.08441739129341715,-0.04585625140069668,-0.07861893822750893,-0.20391001913992898,0.07793701090616871
2177,10.60420710001199,-0.005147990696564294,-0.0027436647601510617,-0.036006771092008914,0.05181640648030723,0.07230169289322913,-0.03948665474297338,0.037513868404980784,0.08342088110511271,-0.045475447038032,-0.07961089697589539,-0.20673996276739687,0.07902312797875809
2178,10.6087494000094,-0.004840497728309279,-0.0024270069802401067,-0.03606486706567486,0.05199756938736194,0.07270417873412459,-0.03970644531742283,0.03712496463859052,0.0824106841561299,-0.04508939147108576,-0.08059709501411146,-0.20954859216990715,0.08010068328707425
2179,10.612786199999393,-0.004537510454516077,-0.002102684865398453,-0.03610480784363534,0.052176832251835774,0.07310172885449592,-0.03992435021317929,0.03673128511535387,0.08138690518602942,-0.044698126713898854,-0.081577376049571,-0.21233535236255172,0.08116944682130695
2180,10.616947800008347,-0.004241373568150978,-0.0018198251093568818,-0.036179304563276664,0.05235417194014956,0.07349427756963568,-0.04014034424542962,0.03633285904126108,0.0803496516251918,-0.04430169589542774,-0.08255158463234345,-0.21509969040922416,0.08222918913348216
2181,10.62104910000926,-0.003990097613527079,-0.0014904683421365869,-0.03631266215761056,0.052529565463387475,0.07388175972248939,-0.040354402440581756,0.035929716377535684,0.07929903358461778,-0.04390014325676599,-0.08351956619212073,-0.21784105554664818,0.08327968139864064
2182,10.624966400006087,-0.0036583797906379863,-0.0011772525630037666,-0.03645557159243378,0.052702989980984855,0.07426411069666054,-0.04056650004166696,0.03552188783616929,0.07823516384512513,-0.04349351414806852,-0.08448116707484374,-0.22055889930839612,0.08432069547628401
2183,10.62952070000756,-0.0032990783589688017,-0.0008369422240641835,-0.03656388284206234,0.05287442280439238,0.0746412664293615,-0.04077661251372767,0.035109404875276855,0.0771581578459419,-0.043081855025176904,-0.08543623457897623,-0.22325267564886483,0.0853520039720708
2184,10.633644600005937,-0.0029208618982205516,-0.0005114760835215539,-0.03665708818350692,0.05304384140071551,0.07501316342430678,-0.040984715549189234,0.03469229969427403,0.07606813367269656,-0.042665213445944705,-0.08638461699141306,-0.22592184106717822,0.08637338029974397
2185,10.638122300006216,-0.0025034605391695483,-0.00018385061539366913,-0.03671568341076428,0.05321122339632812,0.07537973876454553,-0.041190785073213984,0.03427060522887845,0.07496521204480536,-0.04224363806626145,-0.08732616362301142,-0.22856585473098362,0.08738459874327197
2186,10.642121199998655,-0.002116987528315978,0.00014129487161638555,-0.0368158777108469,0.053376546580459656,0.07574093012523016,-0.04139479724903607,0.03384435514593711,0.07384951630225722,-0.04181717863577415,-0.08826072484373292,-0.23118417860010926,0.0883854345191841
2187,10.645998400010283,-0.001686156768183569,0.0004397957165656154,-0.03692181220642611,0.05353978890875499,0.07609667578631792,-0.04159672848327563,0.03341358383808189,0.0727211723917965,-0.041385885993305636,-0.0891881521173849,-0.23377627755005023,0.08937566383908133
2188,10.65183290001005,-0.0012122524108184368,0.0007917316129366812,-0.03702973692529774,0.05370092850680624,0.07644691464520233,-0.04179655543123089,0.03297832641821531,0.07158030885250413,-0.04094981206196876,-0.09010829803594925,-0.23634161949525045,0.09035506397230327
2189,10.658195299998624,-0.000217873532628383,0.001446760499999341,-0.03728614515537418,0.05385994367365559,0.07679158622927192,-0.04199425500214662,0.03253861871382866,0.0704270568007782,-0.0405090098439759,-0.09102101635348712,-0.23887967551214898,0.09132341330873213
2190,10.663051200011978,0.0002716320029042356,0.0017923870524412032,-0.037465103264143595,0.05401681288526826,0.07713063070839328,-0.04218980436445757,0.03209449726115479,0.06926154991471538,-0.04006353341514282,-0.0919261620196093,-0.24138991996195777,0.0922804914217141
2191,10.6681976000109,0.0008076338626303243,0.002171258114750391,-0.037597928936252786,0.05417151479797459,0.077463988907316,-0.04238318095100507,0.03164599929915773,0.06808392441789539,-0.03961343791908633,-0.09282359121250121,-0.24387183061313883,0.09322607913107836
2192,10.672725700002047,0.001321627262613421,0.0025799985629069615,-0.0376876501266945,0.05432402825188058,0.07779160231799677,-0.0425743624642252,0.031193162763361464,0.06689431906256958,-0.03915877956111521,-0.09371316137149167,-0.24632488876354755,0.09415995856623403
2193,10.677045000004,0.0017856486665329908,0.0029473607924096505,-0.03782462625373102,0.0544743322742459,0.07811341311184057,-0.04276332688130703,0.030736026279520295,0.06569287511225545,-0.03869961560181391,-0.09459473122915507,-0.24874857936220965,0.09508191322932492
2194,10.680886400004963,0.002232338916562585,0.0033078825624278433,-0.03791825871709597,0.05462240608282857,0.07842936415185633,-0.04295005245931945,0.030274629157133068,0.06447973632373946,-0.03823600435031855,-0.09546816084293695,-0.2511423911306988,0.09599172805842163
2195,10.685141400012071,0.0026591824647573706,0.003675383195748082,-0.03799952579916047,0.05476822908919563,0.07873939900472468,-0.04313451774030483,0.029809011382803785,0.0632550489284905,-0.03776800515728518,-0.09633331162629341,-0.2535058166840826,0.09688918949073039
2196,10.689830600007554,0.0030853227349416073,0.00405978347049895,-0.038105928883294386,0.054911780901998976,0.07904346195277483,-0.04331670155633797,0.029339213613451164,0.06201896161348613,-0.037295678407550346,-0.09719004637933511,-0.2558383526514049,0.09777408552579857
2197,10.69616180000594,0.004031862922505765,0.004833933787916061,-0.03821916978791481,0.055053041330215526,0.07934149800586815,-0.043496583034548994,0.02886527716936981,0.06077162550145373,-0.03681908551248387,-0.09803822931896707,-0.25813949979567097,0.09864620578869589
2198,10.70085680000193,0.004513099995211218,0.005232389637896854,-0.038294384055248126,0.055191990386350955,0.07963345291318558,-0.04367414160210863,0.02838724402714574,0.05951319413052913,-0.036338288902033965,-0.09887772610851549,-0.2604087631333028,0.09950534159315011
2199,10.70529000001261,0.004995371352027581,0.005611470976364139,-0.03838302971276504,0.05532860828960632,0.07991927317491622,-0.04384935699117459,0.027905156812428843,0.05824382343333486,-0.035853352016464786,-0.09970840388683307,-0.26264565205303037,0.10035128600461596
2200,10.708847700007029,0.005456850831388499,0.005980971050883977,-0.038464467090322856,0.05546287546900661,0.0801989060538443,-0.0440222092437973,0.02741905879256508,0.056963671715480814,-0.035364339297786644,-0.10053013129687469,-0.2648496804341864,0.10118383390325607
2201,10.71854080000776,0.006507983506032464,0.006740038742919714,-0.03856940256628399,0.05559477256649046,0.0804722995868317,-0.04419267871678347,0.026928993869090995,0.05567289963349025,-0.03487131618087955,-0.10134277851373572,-0.2670203667643741,0.10200278204681278
2202,10.724755700008243,0.007491439134799174,0.007516991340219093,-0.03874560620546411,0.05572428043996006,0.08073940259619355,-0.044360746086516106,0.026435006570093393,0.054371670172154274,-0.034374349084310425,-0.10214621727214511,-0.26915723425647553,0.10280792913334984
2203,10.729440300012357,0.007994765783158846,0.007918341418928639,-0.0388294857101474,0.05585138016629113,0.08100016470096402,-0.044526392353729335,0.02593714204243682,0.05306014862131792,-0.03387350540084451,-0.10294032089340643,-0.27125981096496915,0.10359907586384276
2204,10.733718400006182,0.008468214202734444,0.008302883882222074,-0.03892896428595782,0.05597605304430201,0.08125453632804923,-0.04468959884823664,0.02543544604386185,0.05173850255210144,-0.03336885348765166,-0.10372496431177983,-0.2733276299015232,0.10437602500459638
2205,10.737919200008037,0.008948214169293167,0.008721620363650978,-0.039010576740475957,0.05609828059768155,0.08150246872326466,-0.044850347233611094,0.02492996493495707,0.05040690179256018,-0.032860462656208414,-0.1045000241002983,-0.2753602291498323,0.10513858144946833
2206,10.74218230000406,0.009444568454923138,0.00914900426388267,-0.039082861153320166,0.05621804457787487,0.08174391396225442,-0.04500861951181597,0.024420745671007753,0.04906551840278693,-0.03234840316189662,-0.10526537849601189,-0.27735715197966293,0.10588655228187714
2207,10.747405100002652,0.009931315437852962,0.009574573414276703,-0.03915427390821425,0.0563353269669266,0.08197882496128943,-0.04516439802778385,0.023907835793724134,0.047714526649460486,-0.03183274619329986,-0.10602090742465431,-0.2793179469600748,0.10661974683657345
2208,10.75161659999867,0.010419556947891172,0.009981927349484677,-0.039233674715246136,0.0564501099802812,0.08220715548794179,-0.04531766547394288,0.02339128342285229,0.04635410297984438,-0.03131356386119872,-0.10676649252472584,-0.2812421680717875,0.1073379767611528
2209,10.755447700008515,0.010962818964820275,0.010412767101461792,-0.03926717471483523,0.056562376069539726,0.08242886017163228,-0.045468404894688674,0.02287113724767055,0.04498442599523986,-0.03079092918726603,-0.10750201717098735,-0.28312937481866146,0.10804105607728821
2210,10.759423399998925,0.011520357128569995,0.01081311812560221,-0.03935179332386097,0.0566721079251729,0.08264389451404847,-0.045616599690800466,0.02234744651837431,0.04360567642389762,-0.030264916092463335,-0.10822736649735964,-0.28497913233826316,0.10872880124166096
2211,10.764511200002744,0.012089031271255244,0.011244171041271317,-0.03942992424703868,0.05677928847919033,0.0828522148994302,-0.0457622336237998,0.02182026103735231,0.042218037093393154,-0.029735599385140067,-0.10894242741922304,-0.2867910115114836,0.10940103120656762
2212,10.769557500010706,0.012669155600657142,0.011684396368030864,-0.039535197125716764,0.05688390090776568,0.0830537786047198,-0.04590529082025056,0.021289631150357494,0.040821692902470286,-0.02920305474883699,-0.10964708865511329,-0.2885645890711797,0.11005756748018156
2213,10.775276800006395,0.013892513734246171,0.012565339411831676,-0.03969127272147539,0.05698592863381774,0.08324854380957417,-0.046045755775999064,0.02075560773757548,0.03941683079235773,-0.028667358729795457,-0.11034124074780897,-0.2902994477098067,0.11069823418644671
2214,10.77949540001282,0.014509827647759814,0.013010618759061105,-0.03979660563745614,0.05708535532954657,0.08343646960623624,-0.046183613360352774,0.020218242204593857,0.03800363971756367,-0.02812858872417408,-0.11102477608480762,-0.29199517618601073,0.11132285812458205
2215,10.783401900000172,0.015068000993377033,0.013476149334183219,-0.039894882524637125,0.05718216491892437,0.08361751600926262,-0.04631884882019613,0.019677586473275537,0.036582310616153475,-0.027586822964974746,-0.11169758891818686,-0.29365136943014825,0.11193126882817413
2216,10.78830930001277,0.01569806353491801,0.013924324910909572,-0.03998731774496796,0.05727634158014051,0.0837916439651048,-0.04645144778404213,0.019133692972539112,0.03515303637951564,-0.027042140508679955,-0.11235957538384721,-0.2952676286487014,0.11252329862383643
2217,10.792366400011815,0.016324710057979582,0.014404164895929841,-0.04005812470530071,0.057367869748000525,0.08395881536154146,-0.046581396266018205,0.018586614629049304,0.033716011821621275,-0.026494621221603627,-0.11301063352013357,-0.29684356142756035,0.11309878268941351
2218,10.796224300007452,0.016986439361088696,0.014876925908143221,-0.04013858103088443,0.05745673411627863,0.08411899303695936,-0.046708680669784695,0.0180364048578206,0.03227143364778289,-0.025944345765957538,-0.11365066328583275,-0.29837878183414324,0.11365755911170781
2219,10.800735500000885,0.017652572610043427,0.015372595706089565,-0.04022271708785608,0.05754291964002364,0.08427214078948045,-0.04683328779238453,0.017483117552737213,0.030819500422918138,-0.025391395585635617,-0.11427956657754465,-0.29987291051832476,0.11419946894370747
2220,10.804553400012082,0.018276049750450253,0.015844562550817943,-0.04034690432499076,0.05762641153781797,0.08441822338593269,-0.04695520482802278,0.016926807076992387,0.029360412539324355,-0.024835852891718448,-0.1148972472464244,-0.301325574812145,0.1147243562612933
2221,10.808875600007012,0.018903796533884534,0.016336834081265055,-0.04048923456768271,0.057707195293989134,0.08455720657066211,-0.04707441937177477,0.01636752825345029,0.02789437218397007,-0.024277800647700437,-0.11550361111429343,-0.30273640882826897,0.11523206821940384
2222,10.812483500005328,0.019583996191671983,0.016812395461100253,-0.04057044461379706,0.057785256660773596,0.08468905707418363,-0.047190919423220984,0.015805336354933683,0.0264215833053096,-0.023717322554442442,-0.11609856598911814,-0.3041050535571696,0.11572245510763675
2223,10.816766600008124,0.020229754965857983,0.01728135376575582,-0.04063534691681992,0.057860581660433105,0.08481374262166819,-0.047304693390007466,0.015240287094440537,0.024942251579627036,-0.0231545030348526,-0.11668202167985481,-0.30543115696300666,0.1161953704052655
2224,10.820972100002107,0.02088234898660319,0.017787357629348126,-0.04073568240351828,0.05793315658732339,0.08493123194126387,-0.04741573009133022,0.014672436615292836,0.02345658437691608,-0.02258942721829832,-0.11725389001065982,-0.3067143740781743,0.11665067083564963
2225,10.825353899999756,0.021510013771780523,0.018325108766625398,-0.04087215195300675,0.05800296800991511,0.08504149477224905,-0.047524018761342456,0.014101841481220729,0.02196479072630234,-0.0220221809247525,-0.11781408483446466,-0.307954367096492,0.1170882164200176
2226,10.829605500010077,0.022131624027475275,0.018819237856966858,-0.04096319274461926,0.05807000277276664,0.08514450187301563,-0.04762954905248344,0.013528558666385146,0.02046708128101469,-0.021452850648677035,-0.11836252204591602,-0.3091508054650123,0.1175078705306004
2227,10.833653500012588,0.022785905898971417,0.01932583592071767,-0.0410239629688637,0.05813424799844847,0.08524022502888048,-0.04773231103872766,0.012952645545342067,0.018963668282912585,-0.020881523542646836,-0.1188991195936807,-0.31030336597441804,0.11790949994309477
2228,10.837579900005949,0.023496913224918814,0.019854157096576907,-0.04106169200770864,0.058195691089418924,0.08532863705972321,-0.04783229521875306,0.01237415988295154,0.017454765526576283,-0.020308287400717676,-0.11942379749211582,-0.31141173284798096,0.11829297488843434
2229,10.841822300004424,0.02407883532427882,0.020400031549138824,-0.0411562359846082,0.05825431972985098,0.08540971182744765,-0.04792949251902727,0.011793159824234642,0.015940588322967065,-0.019733230641541314,-0.11993647783230484,-0.3124755978290557,0.11865816910384809
2230,10.84630790000665,0.024724056600430498,0.02090550085339375,-0.04123691834635502,0.05831012188741049,0.08548342424326512,-0.04802389429681064,0.011209703884181453,0.014421353462664786,-0.019156442291231344,-0.1204370847924609,-0.3134946602670843,0.11900495988318555
2231,10.850886000000171,0.02532256362272732,0.021477603870651306,-0.041363524988850035,0.0583630858149857,0.085549750274797,-0.04811549234307513,0.010623850937513214,0.012897279178690066,-0.018578011965983316,-0.12092554464769895,-0.3144686272020846,0.11933322812648794
2232,10.854400200012606,0.02600254660597366,0.022004300491565473,-0.04131787244050748,0.05841320005236764,0.08560866695299428,-0.04820427888533767,0.010035660208401815,0.01136858510891847,-0.017998029854452882,-0.12140178577917787,-0.315397213447597,0.11964285838878548
2233,10.8629246000055,0.02714336703572584,0.02317531801509126,-0.04156237172506755,0.05846045342788168,0.08566015237887195,-0.04829024659040687,0.00944519126014975,0.009835492258094316,-0.017416586699895816,-0.1218657386826148,-0.31628014167206164,0.11993373892810046
2234,10.868492400011746,0.027723195291441925,0.023794925484236812,-0.041730238841259905,0.058504835059969826,0.08570418573005661,-0.04837338856704201,0.008852503984833646,0.008298222959451864,-0.01683377378207386,-0.12231733597617372,-0.31711714247860157,0.12020576175263695
2235,10.873961900011636,0.028342646616892432,0.02441557287045876,-0.04185034123214634,0.058546334358723966,0.08574074726714574,-0.04845369836852363,0.008257658592914515,0.006757000835951733,-0.016249682898930463,-0.1227565124077315,-0.31790795448318765,0.12045882266713741
2236,10.879482300006202,0.029430489750100323,0.025625924611713348,-0.04209803222518563,0.058584941027369664,0.08576981833987676,-0.04853116999513474,0.007660715602817783,0.005212050761140546,-0.01566440634804041,-0.12318320486152286,-0.3186523243911613,0.12069282131838743
2237,10.884341500001028,0.029911560945600667,0.026271821942121645,-0.0423242624366121,0.058620645063700516,0.08579138139310423,-0.048605797896551194,0.0070617358304861915,0.00366359881964189,-0.015078036907837506,-0.12359735236416766,-0.3193500070720908,0.12090766123984949
2238,10.888024400002903,0.030525733240639435,0.02691964764956449,-0.042411831258728085,0.05865343676146246,0.08580541997258294,-0.04867757697414048,0.006460780378908625,0.0021118722672867915,-0.014490667818624625,-0.12399889609008383,-0.32000076563293794,0.12110324989540658
2239,10.891702200009604,0.031027035231698388,0.027565553026840113,-0.04256621418281708,0.05868330671168799,0.0858119187305553,-0.0487465025831676,0.00585791062762784,0.0005570994908920164,-0.013902392763370568,-0.12438777936628974,-0.32060437148951276,0.12127949872219745
2240,10.896645700006047,0.03156470372534225,0.028234301266424,-0.04271289987851769,0.058710245803980446,0.08581086343114126,-0.04881257053490725,0.005253188222230099,-0.0010004900323053773,-0.013313305848298106,-0.12476394767659983,-0.3211606044361972,0.12143632317252437
2241,10.90028529999836,0.03210199035461452,0.02887518932728805,-0.04289371029163625,0.05873424522774825,0.08580224095552924,-0.04887577709866113,0.004646675063819676,-0.002560665775548727,-0.012723501583267849,-0.12512734866521705,-0.3216692527139143,0.1215736427548148
2242,10.904466000007233,0.03263710917291071,0.0295465731551362,-0.04311179109468444,0.058755296473389035,0.08578603930696631,-0.04893611900367945,0.004038433298481227,-0.004123196203789062,-0.012133074861962563,-0.12547793213972674,-0.32213011307632083,0.12169138107361901
2243,10.908584200005862,0.033183325776384186,0.030254133366381615,-0.043329532837526545,0.0587733913334236,0.08576224761554636,-0.04899359344098561,0.0034285253067329116,-0.005687848815230275,-0.011542120941876769,-0.12581565007349735,-0.3225429908542031,0.12178946586862582
2244,10.912673700004234,0.03363352937639145,0.031027919215299165,-0.04361679439540152,0.05878852190357984,0.08573085614279541,-0.04904819806510323,0.002817013692973204,-0.0072543901831833395,-0.010950735424116401,-0.12614045660749218,-0.32290770001805597,0.12186782905267955
2245,10.91697099999874,0.03406479650146884,0.031735776478827506,-0.043820769304099054,0.05880068058382641,0.08569185628605251,-0.04909993099568478,0.0022039612749242313,-0.008822585998220625,-0.010359014233013457,-0.12645230805149713,-0.32322406323882663,0.12192640674878048
2246,10.920879400000558,0.03455746115965169,0.03247750218199382,-0.04408207878978821,0.05880986007935622,0.0856452405826453,-0.04914879081904103,0.0015894310730744736,-0.010392201110621323,-0.009767053595560618,-0.12675116288476979,-0.32349191194680416,0.12196513932605274
2247,10.924932900001297,0.0350581021051369,0.033184612820102564,-0.04427311392626864,0.05881605340151957,0.08559100271385844,-0.049194776589570485,0.000973486300123634,-0.011962999573098888,-0.009174950020670895,-0.12703698175611508,-0.3237110863886354,0.12198397143466337
2248,10.92925460000697,0.03547708633321754,0.03396202790963359,-0.04457283435112089,0.058819253868707004,0.08552913750869366,-0.04923788783108785,0.0003561903504324511,-0.01353474468380128,-0.008582800278267511,-0.12730972748339298,-0.3238814356824498,0.12198285203967787
2249,10.933507400011877,0.03592454150930358,0.03469499912655778,-0.04481455596286119,0.05881945510718162,0.08545964094741956,-0.04927812453805061,-0.0002623932105197885,-0.015107199029574702,-0.007990701378209326,-0.12756936505246433,-0.32400281787107577,0.12196173445383664
2250,10.93767710000975,0.0363975902970105,0.035468601740432704,-0.04507913414187244,0.05881665105186107,0.08538251016491007,-0.049315487176682986,-0.0008822006566673222,-0.01668012452948145,-0.007398750549057085,-0.12781586161558062,-0.32407509997332995,0.12192057636923727
2251,10.943494000006469,0.036802996947107355,0.03622782979408801,-0.0453129781274163,0.05881083594704962,0.0852977434537701,-0.049349976685996506,-0.0015031681118768863,-0.01825328247856251,-0.006807045216685946,-0.12804918648922403,-0.32409815803336406,0.12185933988790754
2252,10.947868000002927,0.03723028721140016,0.0370096118558866,-0.04558787843307098,0.058802004347120636,0.08520534026724705,-0.04938159447870619,-0.0021252315604509383,-0.019826433591835318,-0.0062156829827497255,-0.12826931115140375,-0.3240718771680546,0.12177799155125357
2253,10.951696800009811,0.03764488124980926,0.03777208272219078,-0.04591615604069869,0.05879015111714926,0.08510530122192718,-0.04941034244204172,-0.002748326857612511,-0.021399338048516993,-0.00562476160300244,-0.12847620923841527,-0.3239961516124202,0.12167650236836858
2254,10.95536120000179,0.03806814310253759,0.03844786523462779,-0.04615857098112939,0.058775271433495105,0.08499762810021631,-0.04943622293845291,-0.003372389739969122,-0.022971755536463308,-0.005034378965482749,-0.12866985654107022,-0.323870884763052,0.12155484784318825
2255,10.959883600007744,0.03863989952132686,0.03905094110699616,-0.04630146660700701,0.05875736078433487,0.08488232385260389,-0.04945923880620853,-0.003997355835953198,-0.024543445296813616,-0.004444633068566972,-0.128850231000404,-0.32369598921954307,0.1214130080004787
2256,10.963817399999243,0.039070767862851075,0.039764199872923595,-0.04656883996957162,0.058736414970144715,0.0847593925997096,-0.04947939335988798,-0.004623160676236517,-0.026114166168831977,-0.003855621998896467,-0.1290173127028684,-0.3234713868239038,0.12125096741064355
2257,10.967548300002818,0.039427794218737384,0.04049879169744078,-0.04686960516967204,0.05871243010413265,0.08462883963411204,-0.049496690390764826,-0.005249739704116191,-0.0276836766349346,-0.003267443909185206,-0.12917108387501766,-0.32319700869795065,0.12106871521333727
2258,10.971451300007176,0.03975223431197786,0.041204847273779,-0.047212743251097734,0.05868540261262097,0.08449067142195817,-0.04951113416708205,-0.005877028285869809,-0.029251734865893695,-0.002680196995913462,-0.12931152887769512,-0.32287279527865564,0.12086624513987199
2259,10.975995600005264,0.04008753955089812,0.04191856711835466,-0.04760252901261372,0.05865532923537883,0.0843448956043531,-0.04952272943421841,-0.006504961721077322,-0.030818098766207738,-0.0020939794769135526,-0.1294386341997276,-0.32249869635144324,0.12064355553440553
2260,10.97946590000356,0.04044111523605812,0.04262519608795068,-0.04792760401196333,0.058622207025905225,0.08419152099852914,-0.04953148141474589,-0.007133475252907373,-0.032382526019628106,-0.0015088895688536918,-0.12955238845113554,-0.3220746710814242,0.12040064937389916
2261,10.98342240000784,0.04072284108021764,0.04330856366108667,-0.04828959459488532,0.058586033351662646,0.08403055759879369,-0.049537395808377536,-0.007762504078365749,-0.03394477413483213,-0.0009250254646260276,-0.1296527823558672,-0.3216006880425554,0.12013753428683338
2262,10.99244620000536,0.04120806710476381,0.04469683666510232,-0.049041921424339975,0.05854680589426172,0.08386201657725521,-0.04954047879180532,-0.008391983358503734,-0.035504600491232254,-0.0003424853106450035,-0.1297398087440645,-0.32107672524471514,0.11985422257067115
2263,10.996651599998586,0.041421447475077915,0.04536713604781688,-0.04945218034797738,0.058504522649597344,0.08368591028432727,-0.04954073701842764,-0.009021848228584168,-0.03706176238491109,0.00023863281593776146,-0.12981346254386916,-0.3205027701586851,0.11955073120805827
2264,11.00017640000442,0.041569321124648145,0.04616956319192217,-0.05014179886097596,0.05845918192793583,0.08350225224901019,-0.0495381776179661,-0.00965203380820303,-0.03861601707467178,0.0008182309300958228,-0.12987374077277686,-0.3198788197390302,0.11922708188175193
2265,11.00487110001268,0.04175252700289609,0.046855655963926976,-0.050630543340628234,0.05841078235395338,0.0833110571789495,-0.049532808195971195,-0.010282475211364411,-0.04016712182819357,0.00139621116186119,-0.1299206425285474,-0.31920488044486756,0.11888330098826742
2266,11.009494800004177,0.04200191428978569,0.04750069911127143,-0.0511030471888495,0.05835932286672576,0.08311234096027008,-0.049524636833216715,-0.010913107556506815,-0.04171483396828205,0.001972475779322186,-0.12995416897967954,-0.31848096825851807,0.11851941965023387
2267,11.013009500005865,0.042201680309538636,0.048212479201734104,-0.05159878638132798,0.05830480271966978,0.08290612065718496,-0.04951367208498253,-0.011543865976478752,-0.04325891091920357,0.002546927211679487,-0.12997432335545878,-0.3177071087020321,0.11813547372744998
2268,11.017669600012596,0.04232985694684102,0.0488607793097157,-0.05203632925717816,0.058247221480436887,0.08269241451137842,-0.049499922980225666,-0.012174685628461657,-0.04479911025309342,0.003119468072353908,-0.12998111093558778,-0.31688333685158265,0.11773150382663206
2269,11.021493600012036,0.04245725446154261,0.049534990799381846,-0.052505991526281666,0.05818657903075898,0.08247124194116269,-0.04948339902063911,-0.012805501703838106,-0.0463351897364274,0.0036900011821394407,-0.12997453903940814,-0.3160096973497177,0.11730755530984645
2270,11.025661799998488,0.04258786957335972,0.05022611101598106,-0.05297768784111695,0.05812287556624686,0.08224262354040827,-0.049464110179597995,-0.013436249438003508,-0.04786690737654621,0.00425842959239505,-0.12995461701472238,-0.31508624441546634,0.116863678301619
2271,11.029595100000734,0.042642864541076145,0.050999292386048646,-0.05363391277743743,0.0580561115961415,0.0820065810772478,-0.049442066900993176,-0.014066864120119394,-0.049394021468222075,0.004824656608268652,-0.12992135622622514,-0.31411304185229305,0.11639992769471529
2272,11.033482099999674,0.042642864541076145,0.050999292386048646,-0.05363391277743743,0.05798628794301825,0.08176313749255323,-0.049417280097951835,-0.014697281102806525,-0.050916290640256975,0.005388585811946694,-0.12987477004355202,-0.3130901630538946,0.11591636315458485
2273,11.03839539999899,0.04291372203172184,0.05240657621793772,-0.05461784786144454,0.057913405742444024,0.08151231689818644,-0.04938976115144464,-0.015327435811776067,-0.05243347390210189,0.005950121085922726,-0.1298148738289554,-0.3120176910078368,0.11541304912246375
2274,11.042680700003984,0.042947990704273936,0.05317778273513389,-0.055186963816653216,0.0578374664425878,0.08125414457502331,-0.04935952190877922,-0.01595726375539715,-0.05394533069048651,0.006509166636278318,-0.1297416849246164,-0.310895718297028,0.11489005481712922
2275,11.047188299999108,0.04302182698784788,0.053908480909568644,-0.05569927747099787,0.05775847180378478,0.08098864697075141,-0.04932657468197987,-0.016586700534199132,-0.055451620916048945,0.007065627015969673,-0.12965522263960239,-0.30972434709902663,0.11434745423530158
2276,11.051511099998606,0.042958401792553294,0.05476666195740621,-0.05636627094082975,0.05767642389805465,0.08071585169744139,-0.04929093224605347,-0.01721568185030696,-0.05695210500995471,0.00761940714811319,-0.1295555082364797,-0.3085036891831801,0.11378532615068807
2277,11.062788600000204,0.04311458272229197,0.057041785062564826,-0.05815705877260067,0.057591325108574155,0.08043578752889244,-0.04925260783714205,-0.0178441435168081,-0.058446543970494806,0.008170412349263257,-0.12944256491759099,-0.30723386590559504,0.11320375411166453
2278,11.067100900007064,0.04308219838571628,0.05786942349349179,-0.05882952957679529,0.057503178129104854,0.08014848439775223,-0.04921161515056191,-0.01847202146704955,-0.05993469940965254,0.008718548352675553,-0.12931641781100617,-0.30591500820193823,0.11260282643759194
2279,11.070899700003793,0.043063645798053156,0.058651778359165636,-0.05947913671275611,0.05741198596337612,0.07985397339241163,-0.0491679683387297,-0.019099251763863474,-0.06141633359962863,0.009263721331549075,-0.1291770939561575,-0.30454725657806714,0.11198263621376463
2280,11.07506300001114,0.04308350517545737,0.05940630594851572,-0.060105280458479717,0.057317751924423746,0.07955228675367461,-0.0491216820089757,-0.01972577060872007,-0.06289120951931416,0.009805837922240157,-0.12902462228916872,-0.30313076109848913,0.11134328128498788
2281,11.079641600008472,0.043041471818144425,0.060160235006369404,-0.06083958012932532,0.057220479633884824,0.07924345787120321,-0.04907277122124448,-0.020351514350806312,-0.06435909090070104,0.010344805247441713,-0.12885903362788798,-0.30166568137264865,0.11068486424778273
2282,11.083410899998851,0.04295855726101872,0.06089098954849015,-0.0615006474529379,0.05712017302124916,0.07892752127973761,-0.049021251485682996,-0.020976419496029273,-0.06581974227521921,0.010880530939320945,-0.1286803606566343,-0.3001521865390426,0.11000749244121671
2283,11.087870100003784,0.0428968872795342,0.06159687370476368,-0.06214510045301694,0.05701683632306741,0.0786045126550917,-0.04896713876011612,-0.02160042271594277,-0.06727292901999035,0.011412923162608701,-0.128488637910667,-0.29859045524716793,0.10931127793635959
2284,11.095540900001652,0.042761665745163165,0.06305318369470736,-0.06345805712064514,0.056910474082116275,0.07827446880992456,-0.048910449447409715,-0.022223460856596097,-0.06871841740398721,0.011941890637633743,-0.12828390176038734,-0.29698067563730474,0.10859633752436343
2285,11.10009930000524,0.04273625463988057,0.06372163729441449,-0.06412164313217261,0.0568010911465214,0.07793742768928796,-0.048851200392721485,-0.022845470947303725,-0.07015597463408826,0.012467342663295133,-0.12806619039528155,-0.29532304531813797,0.10786279270316629
2286,11.104226000010383,0.04271929346214318,0.06442429461215851,-0.06484873307435741,0.05668869266883814,0.07759342836595075,-0.048789408880639915,-0.023466390209334855,-0.07158536890101691,0.012989189139965947,-0.1278355438076148,-0.2936177713422207,0.10711076966281913
2287,11.108393900009103,0.04262130501591797,0.06509643292722023,-0.06558162807613338,0.0565732841050906,0.07724251103549985,-0.04872509263221136,-0.024086156064521597,-0.07300636942515426,0.013507340592321454,-0.12759200377588564,-0.29186507017928226,0.10634039926943623
2288,11.11247990000993,0.04251339721910787,0.06579665540673083,-0.06632133775838471,0.05645487121376884,0.07688471701121881,-0.04865826980185577,-0.024704706143784765,-0.07441874650221496,0.01402170819208504,-0.12733561384805017,-0.2900651676873853,0.10555181704776999
2289,11.117028300010134,0.042472225558855006,0.0664288017996876,-0.06701956596752295,0.056333460054785484,0.07652008871874473,-0.04858895897417137,-0.025321978295576288,-0.07582227154877584,0.014532203780685071,-0.12706641932452475,-0.28821829908193936,0.10474516316241171
2290,11.120976000005612,0.04236574041752355,0.06707717908922692,-0.06769718186397528,0.056209056988392084,0.07614866969050439,-0.048517179160628594,-0.02593791059423731,-0.07721671714764716,0.015038739891815946,-0.1267844672409774,-0.28632470890257616,0.1039205823976205
2291,11.12523040000815,0.04229301277601227,0.06771427497809651,-0.06839836756127265,0.05608166867405556,0.07577050455993013,-0.04844294979615394,-0.026552441348271148,-0.07860185709307578,0.015541229773896567,-0.1264898063509175,-0.28438465097789223,0.1030782241357835
2292,11.129889900010312,0.042211337119342586,0.06837087780164253,-0.06915642532536279,0.05595130206929487,0.07538563905545627,-0.048366290735604126,-0.02716550910853025,-0.07997746643576978,0.01603958741241944,-0.1261824871080932,-0.2823983883880682,0.10221824233450971
2293,11.133536000008462,0.04213035781706228,0.06897756148068554,-0.06982930627582333,0.05581796442847849,0.07499411999429723,-0.048287222250131226,-0.027777052676316347,-0.08134332152773455,0.016533727552183672,-0.12586256164870574,-0.2803661934253722,0.10134079550236129
2294,11.13800700000138,0.042040543090815945,0.06955534877407776,-0.0705469291138075,0.05568166330158326,0.07459599527600858,-0.04820576502343939,-0.02838701111139299,-0.08269920006690966,0.017023565719405123,-0.12553008377344918,-0.278288347552558,0.10044604667322662
2295,11.142532400001071,0.04193247289121383,0.07017344301652678,-0.07124545492788058,0.055542406532914854,0.07419131387583182,-0.04812194014793393,-0.028995323739909682,-0.08404488114159633,0.017509018243697137,-0.12518510892938475,-0.2761651413591687,0.09953416337933992
2296,11.147703800001182,0.041820894958712176,0.07082811011397594,-0.07199527995468705,0.055400202259790726,0.0737801258378237,-0.04803576912076364,-0.029601930162236875,-0.08538014527466534,0.017990002279915315,-0.1248276941916579,-0.2739968745157561,0.0986053176229527
2297,11.152051299999584,0.041760343225194785,0.07140955670518302,-0.07276794636895256,0.05525505891118588,0.07336248226777149,-0.04794727383975696,-0.030206770260711252,-0.08670477446753497,0.01846643582985969,-0.12445789824506635,-0.27178385572602637,0.09765968584666297
2298,11.157188100012718,0.04168025597211607,0.07201217496709458,-0.07350606592965263,0.05510698520634226,0.07293843532589522,-0.047856476599252976,-0.030809784207290653,-0.08801855224390889,0.018938237763827834,-0.1240757813654877,-0.2695264026769231,0.09669744890240838
2299,11.162485699998795,0.041390694229677845,0.07315134169927787,-0.07514006962285105,0.05495599015334215,0.07250803821933786,-0.04776340008582792,-0.031410912471118026,-0.08932126369326375,0.019405327842012286,-0.12368140540117528,-0.2672248419866588,0.09571879201913032
2300,11.16674340001191,0.04134143398765574,0.07362448269356497,-0.0759220728434646,0.054802083047645944,0.07207134519444476,-0.04766806737391772,-0.03201009582599387,-0.09061269551407687,0.019867626735735812,-0.12327483375393031,-0.2648795091507067,0.094723904769116
2301,11.171181800003978,0.041281871066641905,0.07408606059078403,-0.07666231216622535,0.05464527347059498,0.07162841152883409,-0.04757050192133744,-0.03260727535775676,-0.09189263605678402,0.020325056048518073,-0.1228561313601586,-0.26249074848576737,0.09371298103302639
2302,11.175584199998411,0.04120378153547263,0.07455300138342559,-0.07741972674031286,0.054485571287879855,0.07117929352325994,-0.04747072756469828,-0.03320239247157131,-0.09316087536645702,0.02077753833696718,-0.12242536467181922,-0.26005891307172163,0.09268621896361791
2303,11.179349000012737,0.041183106872275645,0.07501781636064153,-0.07814399756683961,0.05432298664797479,0.07072404849326991,-0.04736876851472293,-0.03379538889912323,-0.09441720522519148,0.021224997131489818,-0.12198260163727298,-0.25758436469158513,0.09164382094816673
2304,11.18393030000152,0.0411232880061761,0.07544600957147778,-0.07892628755271305,0.05415752998053871,0.0702627347606585,-0.04726464935146034,-0.03438620670572126,-0.09566141919419478,0.021667356956813547,-0.121527911682038,-0.25506747376947886,0.09058599356960449
2305,11.187684300006367,0.04104590409152,0.07588287112560038,-0.07969653025664034,0.05398921199478345,0.06979541164471775,-0.0471583950194007,-0.034974788297305694,-0.0968933126555651,0.02210454335231502,-0.12106136568946001,-0.2525086193066292,0.08951294756637522
2306,11.19413460000942,0.04095144760970511,0.07626472759809494,-0.08041130861632961,0.053818043677809374,0.06932213945328655,-0.04705003082249168,-0.03556107642736327,-0.09811268285375228,0.022536482892147835,-0.12058303598130517,-0.2499081888154139,0.08842489779102346
2307,11.200815600008356,0.0407960270187474,0.0771082717219025,-0.08183291695175876,0.05364403629290887,0.0688429794736,-0.04693958241905679,-0.036145014203748105,-0.09931932893669126,0.022963103205163916,-0.12009299629828288,-0.24726657825147147,0.08732206316752404
2308,11.207044700000552,0.040737743827319,0.07751397601668537,-0.0825502884514779,0.053467201377838364,0.06835799396294064,-0.046827075816617,-0.03672654509540863,-0.10051305199659834,0.023384332994622305,-0.11959132178050651,-0.24458419194389164,0.08620466664736447
2309,11.213494900002845,0.040760654044891216,0.0782893255481492,-0.08401500922406913,0.053287550743059076,0.06786724613909331,-0.04671253736661646,-0.03730561293902037,-0.10169365511042132,0.023800102057679278,-0.11907808894789967,-0.24186144252350308,0.08507293516439149
2310,11.218071300012523,0.04074787429574966,0.07866025822490832,-0.08475813590777544,0.053105096469946954,0.06737080017060536,-0.046595993759053475,-0.03788216194552464,-0.1028609433799343,0.024210341304653903,-0.1185533756805554,-0.23909875084927498,0.0839270995884341
2311,11.22240560001228,0.04075810899156904,0.07906755889423396,-0.08542900050354633,0.05291985090897205,0.0668687211668531,-0.04647747201701761,-0.03845613670657294,-0.10401472397146781,0.024614982778063076,-0.11801726119905516,-0.23629654593284932,0.08276739467771577
2312,11.22645940000075,0.04078330132707815,0.07949372383687067,-0.08610947642474072,0.052731826677847614,0.06636107516791663,-0.046356999491134,-0.039027482200876894,-0.10515480615526554,0.025013959671420116,-0.11746982604475416,-0.23345526486122253,0.08159405903006858
2313,11.231089699998847,0.040874005796164986,0.07984106936689789,-0.08676598850338238,0.05254103665964936,0.06584792913426409,-0.04623460385391632,-0.03959614380046377,-0.10628100134445859,0.025407206347791027,-0.11691115206003984,-0.23057535271759527,0.08040733503296262
2314,11.23613390000537,0.04101728440470109,0.08019778997367369,-0.08735749105228086,0.05234749400090528,0.06532935093624767,-0.046110313094029624,-0.04016206727683762,-0.10739312313364827,0.02579465835810273,-0.11634132236856938,-0.2276572625004095,0.07920746881236394
2315,11.240681600000244,0.04113715719962281,0.08057560272790476,-0.08799623406672513,0.0521512121096567,0.06480540934341308,-0.04598415551046445,-0.040725198807046045,-0.1084909873370887,0.026176252459197566,-0.11576042135549276,-0.22470145504059277,0.07799471018043524
2316,11.247073700011242,0.04139139798966443,0.08138803712720909,-0.08918584176405207,0.05195220465349137,0.06427617401362448,-0.045856159706623226,-0.041285484979652634,-0.10957441202646094,0.026551926631628517,-0.11516853464766713,-0.22170839891703017,0.07676931258209331
2317,11.251525200001195,0.041521509785739,0.08182559604681713,-0.08973032239779988,0.05175048555754859,0.06374171548200683,-0.045726354584320165,-0.04184287280061485,-0.11064321756823048,0.02692162009718967,-0.114565749093869,-0.21867857037028376,0.07553153304043844
2318,11.256122200007669,0.041708759423811415,0.08219504098268432,-0.09026256930578624,0.051546069002496954,0.06320210514970767,-0.045594769337695774,-0.04239730969906744,-0.1116972266605802,0.027285273336176523,-0.11395215274501017,-0.21561245321458203,0.07428163210107129
2319,11.26142960001016,0.04183837509925077,0.08256414147969926,-0.09079041952535782,0.051338969422485,0.06265741527248099,-0.04546143344704752,-0.04294874353301143,-0.11273626436991051,0.027642828104370853,-0.11332783483436272,-0.2125105387481002,0.07301987377531342
2320,11.266856000002008,0.042041055587411384,0.0833026902853349,-0.09179499838356128,0.05112920150306528,0.06210771894909512,-0.0453263766725781,-0.04349712259490894,-0.11376015816689847,0.02799422744974498,-0.11269288575779855,-0.2093733256615539,0.07174652548234754
2321,11.272312800007056,0.04212736816810952,0.0836293594781956,-0.0922713673702833,0.05091678017909204,0.06155309010956705,-0.0451896290480627,-0.0440423956171839,-0.11476873796210851,0.02833941572888023,-0.11204739705404838,-0.20620131994512886,0.07046185799029334
2322,11.2773942000058,0.04223516704173572,0.08391235598408495,-0.0926789592764051,0.05070172063259275,0.060993603503225004,-0.045051220874436644,-0.04458451177762908,-0.11576183614114731,0.02867833862309444,-0.11139146138498572,-0.20299503479377054,0.06916614535623562
2323,11.281489600005443,0.042322355806184854,0.08420878900409698,-0.09309873006102688,0.0504840382906141,0.06042933468660168,-0.04491118271330489,-0.04512342070471953,-0.11673928759935513,0.029010943154273345,-0.11072517251594106,-0.1997549905108571,0.0678596648652216
2324,11.292244900003425,0.04252228142110849,0.08501714975829215,-0.09428241646135918,0.05026374882304287,0.05986036001116029,-0.04476954538037488,-0.04565907248283251,-0.1177009297760254,0.029337177700400986,-0.11004862529605083,-0.19648171441027928,0.06654269696824458
2325,11.296226900012698,0.04258146676165546,0.08525103240493229,-0.09464206621218009,0.050040868140402345,0.059286756610855945,-0.044626339938814416,-0.04619141765737393,-0.11864660268814496,0.02965699201078417,-0.10936191563864599,-0.1931757407169514,0.06521552521923196
2326,11.300587600009749,0.04261565862863864,0.08544231901239749,-0.09502174085718,0.049815412391624826,0.058708602389534514,-0.04448159769253614,-0.046720407239811614,-0.11957614896364777,0.02997033722096622,-0.10866514050168485,-0.18983761046577835,0.06387843621105563
2327,11.308737700004713,0.04269694447388052,0.08582483623028794,-0.09569079888665206,0.049587397961800554,0.05812597600817185,-0.04433535017941008,-0.04724599271261557,-0.1204894138741749,0.03027716586732533,-0.10795839786823398,-0.18646787139910428,0.06253171951058333
2328,11.320928600005573,0.042857247338801086,0.08628298259726377,-0.0964989334137648,0.049356841469903545,0.05753895687195587,-0.044187629164406064,-0.04776812603410549,-0.12138624536733338,0.030577431901352935,-0.10724178672700137,-0.18306707786266782,0.0611756675927893
2329,11.325060400005896,0.04292921143778274,0.08645724546304326,-0.09673240308526061,0.04912375976649453,0.05694762511721393,-0.044038466632667625,-0.04828675964320592,-0.12226649409844664,0.030871090703607783,-0.10651540705292602,-0.17963579070009028,0.05981057577394372
2330,11.329260900005464,0.04304573787284997,0.08658450806073499,-0.09693681269975594,0.04888816993140145,0.05635206159818772,-0.04388789478251899,-0.0488018464641096,-0.12313001346178996,0.031158099097341362,-0.10577935978782783,-0.17617457714592324,0.058436742143900426
2331,11.333381500007818,0.043194399059951503,0.08670158913436873,-0.09715574775171976,0.048650089271378164,0.05575234787365818,-0.04373594601840656,-0.049313339910849276,-0.12397665962130346,0.03143841536179039,-0.10503374682112104,-0.17268401071728104,0.05705446749750258
2332,11.337650200002829,0.04334944685398406,0.08681411188746095,-0.09738604299911453,0.0484095353177418,0.05514856619342308,-0.043582652943776445,-0.049821193891778456,-0.12480629154077588,0.03171199924513234,-0.1042786709705945,-0.16916467110408442,0.05566405526512627
2333,11.341837400002987,0.04349290635968297,0.08692158620286411,-0.09761676927294058,0.04816652582398914,0.054540799484629664,-0.04342804835388971,-0.050325362813961376,-0.1256187710134926,0.0319788119771,-0.10351423596326284,-0.16561714405794173,0.05426581144238208
2334,11.346457899999224,0.04367717853118335,0.08704368709332466,-0.09777992319931557,0.04792107876339227,0.053929131337964925,-0.043272165228576895,-0.050825801587472685,-0.12641396269134123,0.03223881628125084,-0.10274054641629178,-0.1620420212796951,0.05286004451899521
2335,11.350538300001062,0.043938306315376416,0.08716994611051831,-0.09784425436677564,0.04767321232657376,0.053313645993706006,-0.04311503672493356,-0.05132246562960742,-0.12719173411336845,0.03249197638688746,-0.10195770781800116,-0.1584399003056586,0.0514470654068851
2336,11.354217200001584,0.04422092572550952,0.08732290364670428,-0.09788250231482894,0.047422944919061544,0.05269442832763369,-0.04295669616995873,-0.051815310869001624,-0.12795195573378254,0.03273825804062511,-0.10116582650894858,-0.15481138439257666,0.05002718736746555
2337,11.358900000006544,0.04456813028145943,0.08749062924321196,-0.09789015614661321,0.047170295158823955,0.05207156383681175,-0.04279717705313778,-0.052304293749664374,-0.12869450094939439,0.03297762851760265,-0.10036500966309594,-0.15115708240133185,0.04860072593818679
2338,11.363167900010012,0.04489094140236281,0.08763897664408558,-0.09788260128840885,0.04691528187378526,0.051445138625235004,-0.042636513018971534,-0.052789371234921556,-0.12941924612649197,0.033210056632333396,-0.09955536526906143,-0.14747760867943038,0.0471679988583412
2339,11.367080100011664,0.04520662373084765,0.08778462628354808,-0.0978844277222383,0.04665792409932209,0.0508152393893487,-0.04247473785945367,-0.05327050081127185,-0.13012607062714202,0.033435512749192334,-0.09873700211145914,-0.14377358294229436,0.04572932599415455
2340,11.37149830000999,0.04548925039219602,0.08794974529580867,-0.0979040011032764,0.046398241075741156,0.05018195340344213,-0.04231188550649828,-0.053747640492155226,-0.13081485683491223,0.03365396879253638,-0.09791002975232839,-0.14004563015338942,0.04428502926318496
2341,11.375475799999547,0.045796445362785904,0.08810704291138387,-0.09790399010203932,0.04613625224573876,0.04954536850491914,-0.04214799002431936,-0.054220748821634523,-0.1314854901800085,0.03386539825645421,-0.09707455851265497,-0.13629438040321723,0.042835432558051806
2342,11.38347130001057,0.04655433407144871,0.08844035925877684,-0.09784565725841766,0.045871977251842444,0.04890557307944841,-0.04198308560176428,-0.054689784877990616,-0.13213785916382087,0.0340697762141425,-0.09623069945398595,-0.1325204687872028,0.041380861669517155
2343,11.3877424000093,0.04692256852512751,0.08862440017046601,-0.09777605815787303,0.045605435933835196,0.0482626560459964,-0.04181720654460292,-0.05515470827723167,-0.13277185538287398,0.03426707932690558,-0.09537856436013942,-0.12872453528250585,0.039921644208942786
2344,11.391963300004136,0.047271687520327094,0.08887057082854753,-0.09765993963408331,0.045336648326162556,0.0476167068417459,-0.04165038726777455,-0.055615479176516845,-0.133387373552176,0.034457285852775445,-0.09451826571901073,-0.12490722462378594,0.03845810953014568
2345,11.3960395000031,0.04761727975532432,0.0890471337330519,-0.09750231115309997,0.045065634655322956,0.046967815406903,-0.04148266228759414,-0.05607205827749478,-0.13398431152796153,0.03464037565474954,-0.09364991670447656,-0.12106918617795263,0.036990588650675414
2346,11.400114500007476,0.04793825829867948,0.08921089737720046,-0.09733613523810516,0.04479241533724172,0.04631607216939559,-0.04131406621392014,-0.05652440682955764,-0.1345625703298232,0.03481633020864348,-0.09277363115839833,-0.11721107381793142,0.035519414172536456
2347,11.404255600005854,0.04825613561039455,0.08936290094492692,-0.09717239446172096,0.04451701097462912,0.04566156802946604,-0.04114463374228564,-0.05697248663301119,-0.13512205416222797,0.03498513261055595,-0.09188952357272616,-0.11333354579547582,0.034044920202378974
2348,11.40846400000737,0.04856141730413349,0.08951067570203237,-0.09701196525200843,0.04423944235432291,0.04500439434416174,-0.04097439964599471,-0.05741626004216152,-0.13566267043541289,0.035146767583943424,-0.09099770907170464,-0.10943726461305663,0.03256744227118164
2349,11.41264000000956,0.04891912711442763,0.08962344854200337,-0.09685874354484432,0.04395973044461568,0.044344642911726344,-0.04080339876818585,-0.05785568996831881,-0.13618432978565495,0.03530122148630217,-0.0900983033941817,-0.10552289689485903,0.031087317253450333
2350,11.417214600005536,0.049247273426027534,0.08974933361362586,-0.09667609103915166,0.04367789639256726,0.04368240595589507,-0.0406316660138646,-0.05829073988271842,-0.13668694609491192,0.035448482315455346,-0.08919142287602132,-0.10159111325691939,0.02960488328595641
2351,11.421262500007288,0.04964218119937706,0.08983167926303054,-0.09649453486826476,0.04339396152130264,0.04301777611009685,-0.04045923634190714,-0.058721373819359844,-0.13717043650982905,0.03558853971544298,-0.08827718443262073,-0.0976425881764329,0.02812047968603843
2352,11.426445600009174,0.04996729900489704,0.08994899611813925,-0.09630082773052552,0.04310794732729589,0.042350846401566444,-0.040286144757037054,-0.05914755637776393,-0.13763472146010866,0.0357213849820128,-0.08735570554153249,-0.09367799986026401,0.026634446869491363
2353,11.429923700008658,0.05038569397873022,0.0900462457130398,-0.09610473805375093,0.04281987547764022,0.04168171023536954,-0.040112426301777096,-0.0595692527256491,-0.1380797246762384,0.03584701106771016,-0.0864271042251924,-0.08969803011269138,0.02514712626806753
2354,11.433748300012669,0.05074488709559834,0.09016717500819242,-0.09590433173605038,0.04252976780730465,0.04101046137834399,-0.039938116048377804,-0.05998642860152684,-0.1385053732065743,0.03596541258656526,-0.08549149903375362,-0.08570336420241946,0.023658860246613393
2355,11.439628400010406,0.051124302803363955,0.09028011666828749,-0.09569574376369708,0.04223764631637768,0.0403371939429604,-0.03976324909072499,-0.060399050317216776,-0.13891159743377526,0.03607658581837586,-0.0845490090280274,-0.08169469072888871,0.022169992019866504
2356,11.446203200001037,0.051816024718710475,0.09051611734718833,-0.09522671779305233,0.04194353316729812,0.03966200237110492,-0.03958786053622809,-0.06080708476028196,-0.13929833109058648,0.03618052871258418,-0.08359975376252983,-0.07767270148791676,0.020680865568937046
2357,11.450158100007684,0.052234694331352936,0.09063405597708735,-0.09497407356117044,0.04164745068207345,0.03898498141778748,-0.039411985497691475,-0.06121049939638467,-0.13966551127496893,0.03627724089174635,-0.08264385326863476,-0.07363809133670277,0.019191825557498408
2358,11.456365700010792,0.052684950006710064,0.09074623118324253,-0.09469912080635318,0.04134942133948607,0.0383062261347784,-0.03923565908517064,-0.061609262271563305,-0.14001307846457223,0.03636672365459332,-0.08168142803783192,-0.06959155805822742,0.01770321724771131
2359,11.46010870000464,0.053070310977757336,0.09085395219835626,-0.09441574398003454,0.04104946777228776,0.03762583185417668,-0.03905891639781542,-0.06200334201443039,-0.14034097653054836,0.03644897997868176,-0.0807125990050903,-0.06553380222508061,0.016215386415906065
2360,11.464376500007347,0.05346755160466628,0.09096987066617994,-0.0940821850285914,0.04074761276438293,0.03694389417191292,-0.038881792515702444,-0.06239270783829267,-0.14064915275070305,0.03652401452263402,-0.07973748753232596,-0.061465527062749215,0.014728679268047573
2361,11.474628500000108,0.0545774729416911,0.09126303165572593,-0.09298939631098624,0.04044387924800118,0.0362605089311903,-0.0387043224916589,-0.06277732954319339,-0.14093755782198267,0.036591833627966135,-0.07875621539197399,-0.05738743831239703,0.013243442355007688
2362,11.479200000001583,0.0549904684342449,0.09130612511909779,-0.09264900086955173,0.04013829030085964,0.03557577220586696,-0.03852654134307947,-0.06315717751787736,-0.14120614587229496,0.03665244532050311,-0.07776890475066396,-0.05330024409316911,0.011760022487669556
2363,11.484054600005038,0.055409407829307554,0.09138828559589925,-0.09232024148090352,0.03983086914331541,0.03488978028378319,-0.038348484043738564,-0.06353222274167974,-0.1414548744716611,0.03670585931138062,-0.07677567815299798,-0.04920465476405323,0.010278766651888616
2364,11.48764590000792,0.05581954951565426,0.09147820135188361,-0.0920097882703084,0.039521639135508706,0.03420262965003682,-0.03817018551559999,-0.06390243678633911,-0.14168370464269706,0.03675208699763251,-0.07577665850543053,-0.04510138278533104,0.00880002192333483
2365,11.491735600007814,0.05620486012511595,0.09159523521032677,-0.09168593061394333,0.0392106237744972,0.033514416970210015,-0.03799168062062622,-0.06426779181773529,-0.1418926008704217,0.0367911414623636,-0.0747719690602494,-0.04099114257965155,0.007324135382240772
2366,11.499946200012346,0.056918328387509036,0.09177684994411606,-0.09098363495568808,0.03889784669138189,0.03282523907355077,-0.037813004152589126,-0.06462826059755272,-0.1420815311113906,0.03682303747450763,-0.07376173339965633,-0.03687465039275952,0.005851454028080176
2367,11.50439470000856,0.05730201609055401,0.09183458862471798,-0.09064821650643458,0.03858333164842486,0.032135192936112306,-0.0376341908288841,-0.06498381648487,-0.14225046680215514,0.03684779148817026,-0.07274607541994665,-0.03275262415391095,0.004382324694201487
2368,11.508516400004735,0.05769402694880188,0.09189549726057107,-0.0903320724033129,0.03826710253615929,0.03144437566385353,-0.03745527528234962,-0.06533443343767653,-0.14239938286704507,0.03686542164155721,-0.07172511931578654,-0.028625783336008084,0.0029170939624408566
2369,11.512730200003716,0.058004962604100326,0.09194870923781008,-0.09006520682417336,0.03794918337049196,0.030752884475704022,-0.03727629205309432,-0.06568008601431691,-0.1425282577252732,0.036875947755487776,-0.07069898956458641,-0.02449484881548656,0.0014561080777390192
2370,11.520780700011528,0.058521604657443535,0.09204452810736419,-0.08960522880479051,0.03762959828979862,0.0300608166865967,-0.03709727558033332,-0.0660207493748638,-0.14263707329736144,0.03687939133149378,-0.06966781091096919,-0.02036054273198714,-2.871372136199436e-07
2371,11.525282100003096,0.05878211044550742,0.09208655386935125,-0.0893735119797123,0.03730837155201255,0.029368269690471387,-0.03691826019423589,-0.06635639928241921,-0.14272581501088719,0.03687577554950418,-0.06863170835133177,-0.016223588347844486,-0.0014517463672794055
2372,11.52930940000806,0.0590594778306612,0.09212793778424669,-0.08913812260221902,0.03698552753170681,0.028675340943252418,-0.03673928010778633,-0.06668701210434469,-0.14279447180554897,0.03686512526511546,-0.06759080711849776,-0.012084709907425157,-0.002897924890099167
2373,11.538549100005184,0.05956086544149935,0.09224535011238999,-0.08864723265316568,0.036661090717170365,0.027982127945803452,-0.03656036940865965,-0.06701256481342073,-0.14284303613755175,0.036847467006448226,-0.06654523266645984,-0.00794463249634719,-0.0043384786612171615
2374,11.542219599999951,0.05979197404084788,0.0922915481259347,-0.08840463151789557,0.03633508570747844,0.027288728226862884,-0.03638156205111398,-0.06733303498893552,-0.14287150398331064,0.03682282897059036,-0.06549511065521019,-0.003804081900613603,-0.005773064399081218
2375,11.546283300005598,0.05998321010920372,0.09241189684119877,-0.088165334024121,0.036007537209557565,0.026595239325963048,-0.03620289184790135,-0.06764840081770332,-0.14287987484247164,0.036791241019627906,-0.06444056693565717,0.0003362155343079902,-0.007201339669894203
2376,11.551568800001403,0.06017873569849925,0.0925024562601287,-0.08793652411064376,0.03567847003524562,0.025901758776336575,-0.03602439246219898,-0.06795864109501273,-0.14286815174024917,0.036752734676264456,-0.06338172753462691,0.004475533044427493,-0.008622962972293032
2377,11.555464800010668,0.060352227384677035,0.09260586454911857,-0.08775564410542558,0.035347909098347285,0.025208384087813316,-0.035846097399563175,-0.0682637352255052,-0.14283634122907993,0.036707343119030046,-0.0623187186399479,0.008613143588164176,-0.01003759382183163
2378,11.562379499999224,0.06067373927183568,0.09283722596685999,-0.08751660765064813,0.03501587941168527,0.024515212729711,-0.03566803999990785,-0.06856366322398359,-0.14278445338959303,0.03665510117708055,-0.06125166658561698,0.012748319987236356,-0.011444892835244306
2379,11.567204999999376,0.06079168936758568,0.09297818178299312,-0.08744117857830527,0.034682406084147493,0.023822342113722948,-0.03549025342950998,-0.06885840571615115,-0.14271250183089698,0.036596045324589016,-0.06018069783704462,0.01688033506747715,-0.012844521814466159
2380,11.57120560000476,0.060855430348700106,0.09313256046499371,-0.08734205045631001,0.03434751431773056,0.023129869576806013,-0.035312770673043885,-0.06914794393928127,-0.14262050369018445,0.03653021367473019,-0.05910593897637709,0.021008461799544596,-0.014236143830387312
2381,11.575985600007698,0.06096325552079353,0.09328600172567643,-0.08728268854009712,0.03401122940457992,0.022437892364072134,-0.03513562452564627,-0.0694322597428182,-0.14250847963165478,0.03645764597325958,-0.05802751668789399,0.02513197343949468,-0.015619423306317942
2382,11.583482000001824,0.06117486496296036,0.09366969812940841,-0.08726743200581881,0.03367357672402701,0.0217465076116867,-0.03495884758501411,-0.06971133558890899,-0.14237645384475467,0.03637838359168878,-0.05694555774347906,0.029250143669185772,-0.016994026101141216
2383,11.587609900001553,0.0612969501785101,0.09386416273341194,-0.08729643385273544,0.03333458173962349,0.021055812329777143,-0.03478247224353724,-0.06998515455286662,-0.14222445404173767,0.03629246952005836,-0.05586018898816254,0.033362246736483234,-0.01835961959213154
2384,11.591916600009426,0.061386028957451134,0.09409097860744692,-0.08733049696994313,0.03299426999617284,0.020365903385355065,-0.03460653068046765,-0.07025370032356576,-0.1420525114545435,0.03619994835931026,-0.05477153732573375,0.0374675575952329,-0.019715872757415646
2385,11.596164600006889,0.06145265549101993,0.09430651491693022,-0.08738256609787633,0.032652667116759404,0.019676877485255092,-0.03443105485412729,-0.07051695720377067,-0.1418606608309998,0.036100866313261475,-0.05367972970442156,0.04156535204497258,-0.0210624562580542
2386,11.600512600009097,0.061537156496111106,0.09450641491629357,-0.08743810046630969,0.032309798799775344,0.018988831159093732,-0.034256076494156566,-0.07077491011039563,-0.14164894043034842,0.03599527118018074,-0.052584893102641084,0.04565490687035087,-0.02239904251972192
2387,11.610405700004776,0.061703292219835615,0.09488903562758222,-0.08772867823065442,0.031965690815945975,0.018301860742251506,-0.03408162709380544,-0.07102754457469776,-0.14141739201809822,0.03588321234397036,-0.05148715451480459,0.04973549998022305,-0.02372530581396439
2388,11.614402100007284,0.061815580957970837,0.09506033279056272,-0.08791425483751379,0.03162036900535372,0.017616062358881635,-0.03390773790226909,-0.07127484674240224,-0.1411660608602055,0.035764740764955255,-0.05038664093719462,0.053806410546393714,-0.025040922339009914
2389,11.6184845000098,0.06188073033524737,0.09524979215593413,-0.08811262413375945,0.03127385927446084,0.016931531904948453,-0.03373443991706997,-0.07151680337376026,-0.14089499571658448,0.03563990897028168,-0.049283479353897694,0.05786691914197585,-0.026345570300114966
2390,11.622634500003189,0.061953684706122586,0.09545843802028214,-0.08837780099051529,0.030926187593131416,0.016248365031298815,-0.03356176387648812,-0.07175340184353969,-0.14060424883394934,0.03550877104392776,-0.04817779672279658,0.06191630787933646,-0.027638929989422058
2391,11.628814000010609,0.0621383755748526,0.09591875624908673,-0.08890593412249508,0.03057737999165297,0.015566657126769677,-0.03338974025204177,-0.07198463014094833,-0.1402938759379906,0.0353713826163285,-0.04706971996161916,0.06595386054759894,-0.028920683865308997
2392,11.63344250000955,0.062256811286702345,0.09613228033813681,-0.0891652826479586,0.030227462557757805,0.014886503301335017,-0.03321839924101977,-0.07221047686948988,-0.1399639362248873,0.03522780085361796,-0.04595937593404195,0.06997886274967306,-0.030190516631208815
2393,11.63832490000641,0.06235568011322918,0.09633061372376739,-0.08943036668965103,0.029876461433644547,0.014207998369295342,-0.0330477707590677,-0.07243093124675293,-0.13961449235215784,0.035078084446491284,-0.04484689143584648,0.07399060203878345,-0.03144811531387986
2394,11.642149999999674,0.06244594126809356,0.0965542964614514,-0.08979117112345639,0.029524402813000086,0.013531236832513017,-0.032877884432829074,-0.07264598310413352,-0.13924561042885125,0.03492229359868929,-0.04373239318112686,0.0779883680544674,-0.03269316934110576
2395,11.646375700001954,0.06250329473504905,0.09672941362629144,-0.09016313251034962,0.029171312938022137,0.01285631286369659,-0.032708769592643294,-0.07285562288649115,-0.13885736000508198,0.03476049001510844,-0.04261600778854683,0.08197145265801327,-0.03392537061880554
2396,11.65111020000768,0.06255355432391822,0.09691385772051012,-0.09051887786141975,0.02881721809644284,0.012183320289737318,-0.03254045526530205,-0.0730598416517384,-0.13844981406091142,0.034592736889539025,-0.04149786176764428,0.0859391500673105,-0.035144413607533904
2397,11.655828500006464,0.06264158551971287,0.09708069798754837,-0.09083503765982809,0.028462144618553516,0.011512352575101047,-0.03237297016686607,-0.07325863107036436,-0.13802304899457915,0.034419098892034844,-0.04037808150518167,0.089890756991083,-0.03634999539835246
2398,11.660114600002998,0.06274776395276867,0.09726817364625079,-0.09112225232527527,0.02810611887423093,0.010843502805278613,-0.032206342695543996,-0.07345198342489215,-0.13757714461008666,0.034239642155917335,-0.03925679325154074,0.09382557276247779,-0.037541815788052525
2399,11.663737599999877,0.06285795514650863,0.0974451413531928,-0.09140843602883088,0.02774916726996538,0.010176863670297968,-0.03204060092463518,-0.0736398916092708,-0.137112184104136,0.034054434264417344,-0.03813412310715999,0.09774289947198145,-0.038719577353710975
2400,11.668299000011755,0.06296148761862767,0.09766110756396411,-0.09163861508318831,0.027391316245891174,0.009512527448301108,-0.03187577259553834,-0.07382234912820157,-0.1366282540524265,0.03386354423695774,-0.03701019700901363,0.10164204209963663,-0.039882985526560374
2401,11.671855100008544,0.06303967747450871,0.09781892634457007,-0.09188328059687469,0.02703259227281971,0.008850585989188947,-0.031711885110827884,-0.07399935009639887,-0.13612544439531296,0.03366704251508007,-0.03588514071713042,0.1055223086465315,-0.041031748665155424
2402,11.67610280000372,0.06314677918254853,0.09793217383852912,-0.09217133790198893,0.026673021849275527,0.008191130698337191,-0.031548965527399754,-0.07417088923778589,-0.13560384842282874,0.033465000948018755,-0.03475907980115091,0.10938301026553571,-0.04216557812781774
2403,11.679837600007886,0.06329724444862553,0.09803324995259237,-0.09252358585244193,0.026312631498535514,0.007534252520386216,-0.03138704054968849,-0.07433696188462473,-0.13506356275907794,0.03325749277792641,-0.033632139626921756,0.11322346139125591,-0.04328418834434138
2404,11.683924000011755,0.06348149398397503,0.09815552283020156,-0.09290765750417877,0.02595144776567183,0.0068800419231079945,-0.03122613652295726,-0.07449756397658097,-0.13450468734600043,0.03304459262475401,-0.032504445343125785,0.11704297986918469,-0.044387296886942096
2405,11.687603300000774,0.06367974534884908,0.0982201737158366,-0.09331401665646887,0.025589497214598887,0.0062285888813531105,-0.03106627942666251,-0.07465269205972298,-0.13392732542651448,0.03282637647078977,-0.03137612186794639,0.12084088708401618,-0.04547462454043334
2406,11.694030400001791,0.06383698103015203,0.09827099539657808,-0.09375719806185494,0.025226806425124697,0.005579982861080842,-0.03090749486789477,-0.07480234328545585,-0.1333315835270412,0.032602921644860526,-0.03024729387576515,0.12461650808710253,-0.04654589537161261
2407,11.697606600006113,0.06394935361371205,0.09831818158215594,-0.09410844378232565,0.024863401990006896,0.004934312803475276,-0.030749808074897206,-0.07494651540939033,-0.13271757143941554,0.03237430680619948,-0.02911808578389185,0.1283691717230254,-0.04760083679784167
2408,11.701947400011704,0.06403981729054231,0.09840507369515256,-0.09445842863107098,0.024499310512013643,0.004291667109150407,-0.030593243890663535,-0.07508520679014724,-0.13208540220218837,0.032140611927984314,-0.027988621739325804,0.13209821075525718,-0.048639179654804736
2409,11.70951510001032,0.06427419497086856,0.09842677560299634,-0.09495339443361717,0.02413455860098971,0.0036521336224471564,-0.03043782676661692,-0.07521841638809719,-0.13143519208132384,0.03190191828054959,-0.026859025605547548,0.13580296199088765,-0.04966065826342907
2410,11.713155600009486,0.06438103518780523,0.09843907130452663,-0.09522253363753476,0.023769172870928102,0.0030157996158251986,-0.03028358075637143,-0.07534614376403573,-0.13076706055029647,0.031658308414277754,-0.02572942094933997,0.1394827664043912,-0.05066501049595294
2411,11.725132200008376,0.06469084971999516,0.09839598920877447,-0.0959477030145574,0.02340317993704763,0.0023827517743525103,-0.030130529509577366,-0.07546838907779378,-0.13008113026959287,0.03140986614217298,-0.024599931027638085,0.14313696926041042,-0.05165197784112623
2412,11.73368119999941,0.06492159010487943,0.09834211335637609,-0.09642982267693653,0.023036606412876814,0.0017530761802955002,-0.029978696265851673,-0.07558515308678343,-0.12937752706562264,0.0311566765221219,-0.023470678774406794,0.1467649202355318,-0.0526213054685289
2413,11.737627300011807,0.06503639228402705,0.09823129327624126,-0.09672279545346872,0.022669478907344432,0.0011268582978125696,-0.029828103848794838,-0.07569643714447906,-0.1286563799090432,0.03089882583884546,-0.02234178678754594,0.15036597353903108,-0.053572742291993256
2414,11.741733400005614,0.06514692221389579,0.09812590311327014,-0.0969686733984692,0.022301824021876995,0.0005041829577539235,-0.02967877466009567,-0.07580224319883386,-0.1279178208925041,0.03063640158554662,-0.021213377315822134,0.15393948803256485,-0.05450604103211611
2415,11.74591070000315,0.06524997427836016,0.09807550683574537,-0.09716695139936042,0.021933668347503488,-0.00011486565742957753,-0.029530730673725532,-0.07590257379063191,-0.12716198520781705,0.030369492445258182,-0.020085572245826782,0.15748482734878594,-0.05542095827784744
2416,11.75009780000255,0.0653131488741864,0.09800499036653647,-0.09743644252367407,0.02156503846196763,-0.0007302040286657437,-0.029383993430223417,-0.07599743205177605,-0.12638901112255527,0.030098188271895518,-0.018958493088959943,0.1610013600088604,-0.056317254547142044
2417,11.754232100007355,0.06535805329594978,0.0979116643682038,-0.09771619600744919,0.02119596092684805,-0.001341749315125817,-0.029238584031073357,-0.07608682170351155,-0.1255990399560882,0.02982258007101874,-0.017832260968439692,0.16448845953886487,-0.057194694346661315
