,time,x,y,z,vx,vy,vz,ax,ay,az,jx,jy,jz
2503,10.552647799995611,-0.01882134163552709,-0.030703529204471638,0.020744818337872832,0.0019194422495246144,-0.012321386180126587,0.015212579674705067,0.03027316339515521,0.04384658826834202,0.00993968803826962,0.10686257264293281,0.24096477284204287,-0.11957120127700363
2504,10.55734119999397,-0.018767054885998162,-0.030761818255117288,0.02077037206924399,0.0020479747405785986,-0.012134442081314152,0.015253422827685085,0.03072367747827573,0.04486352614149913,0.009432081937807028,0.10690835884624492,0.2416168652262277,-0.12130173897604705
2505,10.56134669999301,-0.018700281545062328,-0.030813474658216163,0.020789055282447493,0.002178406460574299,-0.011943206238761144,0.015292111094068082,0.031174352256969348,0.045883138362530905,0.00891718364340265,0.10693901363987235,0.24223558002002513,-0.12303138517578655
2506,10.565522399992917,-0.01862845679373744,-0.030868950830277443,0.0207978407739945,0.0023107379492747298,-0.011747667705906031,0.015328613747631963,0.03162512371393566,0.04690528370965029,0.008394997503974265,0.10695442860979035,0.24282064732668474,-0.12475987278526987
2507,10.56972179999866,-0.018554954190030365,-0.03090638413133498,0.020813234007382587,0.002444969475598132,-0.011547816133881493,0.015362900083201144,0.032075927379996254,0.047929819837906736,0.007865528998390298,0.106954497430153,0.24337180198227304,-0.12648693285499357
2508,10.573759499995504,-0.018491728709057652,-0.03094231775724633,0.020811160451578353,0.0025811010357374336,-0.011343641776170537,0.015394939421427842,0.032526698342986715,0.048956603299278735,0.007328784743197807,0.10693911590264923,0.24388878362922248,-0.12821229461255704
2509,10.578204799996456,-0.01845070437470352,-0.03097316822302326,0.020801519352301248,0.002719132351317658,-0.011135135493176943,0.015424701113605053,0.03297737125681344,0.04998548956307049,0.00678477250019846,0.10690818199567387,0.24437133678947662,-0.1299356854989559
2510,10.586324199990486,-0.018398608268172696,-0.031024962213056093,0.020775231885726386,0.0028590628675919587,-0.010922288756708812,0.015452154546510558,0.03342788035067424,0.05101633303661112,0.0062335011838698775,0.10686159588330205,0.24481921093721268,-0.13165683120551286
2511,10.590761399987969,-0.01838509013065414,-0.031042269551209697,0.020763247376936324,0.003000891751676951,-0.01070509365437397,0.015477269147281253,0.03387815943844193,0.05204898708625475,0.0056749808686296765,0.10679925998405465,0.24523216057112404,-0.13337545571144344
2512,10.595636399986688,-0.01838509013065414,-0.031042269551209697,0.020763247376936324,0.003144617890828024,-0.010483542893885924,0.015500014388317065,0.03432814192820984,0.05308330405867969,0.005109222795939576,0.10672107899944236,0.24560994528624436,-0.1350912813220544
2513,10.599313599988818,-0.018384507421736352,-0.031077456395997058,0.020748815120650695,0.0032902398907552954,-0.010257629807279223,0.015520359792213853,0.03477776083199871,0.05411913530248503,0.00453623938124693,0.10662695995227668,0.24595232984529591,-0.13680402870757208
2514,10.602941499993904,-0.01840154852272945,-0.031140909433203207,0.020722467889808437,0.003437756073980891,-0.010027348355033034,0.01553827493672456,0.03522694877562359,0.05515633119008224,0.003956044220761071,0.10651681222473623,0.2462590842495427,-0.13851341694259878
2515,10.612724199992954,-0.01844915177434564,-0.03121712629011745,0.02073166723224807,0.0035871644782382067,-0.009792693130101712,0.015553729459748023,0.03567563800871986,0.05619474113987944,0.003368652098061859,0.10639054759617636,0.24652998380912844,-0.140219163546194
2516,10.619322799990186,-0.01850576326409839,-0.03132219895358001,0.02073911415991405,0.00373846285491382,-0.009553659361851216,0.015566693064344822,0.03612376041492716,0.057234213638756366,0.00277407899053788,0.10624808028066979,0.24676480921287855,-0.14192098452257823
2517,10.624123399989912,-0.018529365170671455,-0.03137784113351964,0.020757963439050446,0.003891648667532693,-0.009310242919900218,0.015577135523779527,0.03657124752223026,0.05827459626482802,0.002172342075651708,0.10608932696426625,0.24696334659754748,-0.14361859440245564
2518,10.62766699999338,-0.018529365170671455,-0.03137784113351964,0.020757963439050446,0.004046719090287339,-0.009062440317864694,0.015585026686588588,0.037018030513455605,0.059315735710494887,0.001563459737029674,0.10591420684195904,0.2471253876164909,-0.1453117062849527
2519,10.631964899992454,-0.018513389233538208,-0.0314525270702389,0.02079662698769227,0.004203671006611592,-0.008810248717004815,0.015590336481673158,0.03746404023692241,0.06035747780577709,0.0009474515703735932,0.10572264165434597,0.24725072950774304,-0.1470000318801692
2520,10.636139700000058,-0.018516178766827488,-0.03158336520514615,0.020878250790846674,0.004362501007799626,-0.008553665929773016,0.015593034923416066,0.03790920721724708,0.061399667541929825,0.0003243383891919084,0.10551455572397243,0.2473391751614802,-0.1486832815523381
2521,10.640581199986627,-0.018529551011723336,-0.03164820761996036,0.02092028752252273,0.0045232053916708734,-0.008292690423262137,0.015593092116822225,0.038353461666299375,0.06244214909533726,-0.0003058577696522655,0.10528987599134462,0.24739053318685053,-0.15036116436359023
2522,10.644649299996672,-0.01855516376438795,-0.03172778549475254,0.02095811161970452,0.004685780161281479,-0.008027321322552515,0.015590478262681586,0.038796733494308525,0.06348476585168245,-0.0009431136405787001,0.10504853205060051,0.2474046179781483,-0.15203338811831976
2523,10.650307499992778,-0.01858087155750709,-0.031795614555757135,0.020993669579210242,0.004850221023682871,-0.007757558413956981,0.015585163662753898,0.03923895232111792,0.06452736043039045,-0.001587404724115698,0.10479045618482646,0.24738124978031403,-0.1536996594081473
2524,10.655193499987943,-0.01859957125941521,-0.031848945106398595,0.021023544108992088,0.005016523388728091,-0.007483402148162665,0.015577118724974456,0.03968004748758675,0.06556977470934172,-0.0022387052819162947,0.10451558340100774,0.2473202547537397,-0.15535968365747665
2525,10.661681099998532,-0.018616204915247847,-0.03194074670895332,0.02108572009246256,0.005184682367926475,-0.007204853643268569,0.015566313968680157,0.04011994806713715,0.06661184984985262,-0.0028969883319674697,0.1042238514646007,0.2472214650383583,-0.15701316516964073
2526,10.665418799995678,-0.018638552709380675,-0.031984259497149475,0.021116365979923696,0.005354692773347303,-0.006921914687717848,0.015552720029854961,0.04055858287744539,0.06765342632192009,-0.0035622256439948015,0.10391520093371427,0.2470847188169982,-0.15865980717363232
2527,10.669840599992312,-0.01865660691852814,-0.03201798491041039,0.02113240557102779,0.005526549116573028,-0.00663458774312371,0.015536307666393993,0.04099588049227583,0.06869434392972769,-0.0042343877350649916,0.10358957519288903,0.2469098603779823,-0.16029931187141452
2528,10.673942199995508,-0.01865047234148267,-0.03204300008762496,0.0211566676315631,0.005700245607702667,-0.006342875946987925,0.015517047763385342,0.04143176925345623,0.0697344418374103,-0.004913443865388635,0.10324692048646193,0.24669674017695123,-0.1619313804858058
2529,10.6779353999882,-0.01865522584864284,-0.03206437223985847,0.021174369463854825,0.005875776154405949,-0.006046783115310905,0.015494911338408707,0.041866177282992606,0.07077355859507452,-0.005599362034325597,0.1028871859515049,0.24644521489788973,-0.16355571330893443
2530,10.68209869999555,-0.01863735207302999,-0.03206626757808632,0.0211954325115175,0.006053134361028784,-0.005746313745092277,0.015469869546850118,0.042299032495322,0.07181153216507143,-0.006292108976595355,0.10251032365032499,0.2461551475133342,-0.1651720097512568
2531,10.685528999994858,-0.01863735207302999,-0.03206626757808632,0.0211954325115175,0.006232313527750605,-0.005441473016720951,0.015441893687231876,0.042730262609701156,0.0728481999485184,-0.006991650158694622,0.10211628860251404,0.24582640734374167,-0.16677996839113424
2532,10.690284299998892,-0.018645852679470106,-0.03207753778800823,0.02120352094399731,0.006413306649794085,-0.005132266796253653,0.01541095520655685,0.0431597951627295,0.07388339881206628,-0.007697949775524561,0.10170503881653513,0.24545887011599857,-0.1683792870249624
2533,10.694740399994773,-0.01864401436535684,-0.03208340274070087,0.021220755924701972,0.006596106416687774,-0.004818701637580967,0.0153770257056661,0.043587557521004225,0.07491696511490864,-0.008410970747229875,0.10127653532083383,0.24505241802104752,-0.16996966271784703
2534,10.698816199990688,-0.018647053158923326,-0.032078851477142116,0.021229559647381043,0.006780705211582172,-0.0045007847844799045,0.01534007694460898,0.04401347689390531,0.07594873473602977,-0.00913067471625204,0.10083074219446216,0.24460693977061143,-0.17155079185481972
2535,10.708300499987672,-0.018682250322473778,-0.03209506049964537,0.0212485102785386,0.006967095110619752,-0.004178524172552087,0.015300080848025014,0.044437480346508365,0.07697854310168749,-0.009857022044598889,0.10036762659720311,0.24412233065299327,-0.17312237019258847
2536,10.711753999989014,-0.018682250322473778,-0.03209506049964537,0.0212485102785386,0.00715526788235945,-0.0038519284310466195,0.015257009510536636,0.04485949481262325,0.07800622521312696,-0.010589971811332788,0.09988715879918435,0.24359849258793084,-0.1746840929118166
2537,10.715515899995808,-0.018687780629575487,-0.03210552231556638,0.02127482402652822,0.007345214987256147,-0.003521006884566739,0.015210835202151999,0.04527944710795595,0.07903161567452181,-0.011329481810279622,0.09938931220996913,0.24303533418048637,-0.17623565466992336
2538,10.71965949999867,-0.01871014540402886,-0.032153019647981104,0.021339223873336338,0.0075369275771956625,-0.0031857695546593534,0.015161530373676846,0.04569726394339151,0.0800545487211384,-0.012075508547960752,0.09887406340711259,0.24243277077394884,-0.17777674965439855
2539,10.723781999986386,-0.01871633783503843,-0.03218451716152421,0.021375480383875028,0.007730396495085789,-0.0028462271612865954,0.015109067662134447,0.04611287193839585,0.08107485824771872,-0.012828007241750082,0.09834139216417208,0.24179072450172864,-0.17930707163662454
2540,10.727961799988408,-0.01875333039993096,-0.03224399469282005,0.021417572755287613,0.007925612274503818,-0.0025023911241785035,0.015053419896192558,0.046526197634533896,0.0820923778370779,-0.013586931818258319,0.09779128147816027,0.24110912433822282,-0.18082631402619767
2541,10.73222839999653,-0.01875491056420025,-0.03229049421253738,0.021468124672595762,0.00812256513940102,-0.002154273564065976,0.014994560101596437,0.0469371675091018,0.08310694078891201,-0.01435223491194651,0.09722371759642946,0.2403879061486301,-0.18233416992574106
2542,10.736336099987966,-0.018757065609254497,-0.03234512694007179,0.021529180579046077,0.008321245003864535,-0.0018018873037931522,0.014932461506606867,0.04734570798887048,0.08411838014881133,-0.015123867863970923,0.09663869004297604,0.239627012737694,-0.18383033218620165
2543,10.740425399999369,-0.01876517819121028,-0.03241364123111204,0.021593874494064618,0.008521641471937067,-0.001445245869308404,0.014867097547442256,0.04775174546393816,0.08512652873747423,-0.015901780721261326,0.0960361916441531,0.238826393897353,-0.18531449346262346
2544,10.744679299998095,-0.018751176908843016,-0.03247638190771804,0.021669860219799122,0.008723743837494864,-0.0010843634905331344,0.014798441873723825,0.04815520630168916,0.08613121918011746,-0.016685922235834618,0.0954162185537797,0.23798600645327567,-0.18678634627038923
2545,10.7480504999985,-0.018751176908843016,-0.03247638190771804,0.021669860219799122,0.008927541084184415,-0.0007192551021075891,0.014726468353922882,0.048556016860856685,0.08713228393607837,-0.017476239864345867,0.09477877027763565,0.23710581431026095,-0.18824558304192218
2546,10.75168199998734,-0.018751176908843016,-0.03247638190771804,0.021669860219799122,0.009133021885418289,-0.0003499363440129198,0.014651151080809121,0.048954103505686956,0.08812955532860448,-0.01827267976787869,0.09412384969733066,0.23618578849648325,-0.18969189618384
2547,10.757071099986206,-0.018659509754634235,-0.032617437244708294,0.021834404267803795,0.009340174604430526,2.3576437931257338e-05,0.014572464376898972,0.04934939262020205,0.08912286557482517,-0.019075186811976893,0.0934514630935366,0.23522590720655995,-0.19112497813455206
2548,10.761218399988138,-0.018629735296111394,-0.032660132986215895,0.02187353607687656,0.009548987294392079,0.00040126619169453227,0.014490382799902966,0.04974181062255879,0.09011204681590108,-0.019883704566919135,0.09276162016857198,0.23422615584342038,-0.19254452142229228
2549,10.765472299986868,-0.018564307133031883,-0.032696485131475585,0.02192299939531046,0.009759447698586665,0.0007831151587893168,0.014404881148171128,0.050131283979500965,0.09109693114734667,-0.02069817530823853,0.09205433406832828,0.23318652705895465,-0.19395021872357782
2550,10.769629599992186,-0.018522373218450194,-0.03271463943382375,0.021943384842913524,0.009971543250647487,0.0011691048741510987,0.014315934466135317,0.05051773922090211,0.09207735064952095,-0.021518540017488947,0.0913296214035274,0.2321070207934201,-0.19534176292208472
2551,10.773726999992505,-0.018453625897413,-0.032736115411916136,0.021979636514782627,0.010185261074855106,0.001559216166146012,0.014223518049747476,0.05090110295439608,0.09305313741828114,-0.022344738383259743,0.09058750227029991,0.23098764431358482,-0.1967188471679306
2552,10.7778849999886,-0.01837803187554064,-0.03273876200322442,0.02201508183464367,0.010400587986496854,0.0019534291567063792,0.014127607451912744,0.05128130188009267,0.09402412359579368,-0.023176708802440747,0.08982800027007305,0.22982841224958656,-0.1980811649373553
2553,10.781590799990228,-0.01837803187554064,-0.03273876200322442,0.02201508183464367,0.010617510492288089,0.0023517232615948595,0.014028178487916388,0.051658262805375076,0.09499014140149728,-0.024014388381739193,0.08905114252875866,0.22862934663048612,-0.19942841009279
2554,10.78488059999654,-0.01837803187554064,-0.03273876200322442,0.02201508183464367,0.010836014790855629,0.0027540771907978213,0.013925207240843531,0.05203191265977634,0.09595102316321254,-0.02485771293945016,0.08825695971522984,0.2273904769184944,-0.20076027694330406
2555,10.788369699992472,-0.01837803187554064,-0.03273876200322442,0.02201508183464367,0.011056086773283673,0.00316046894904854,0.013818670066990621,0.052402178509931674,0.09690660134839275,-0.025706617007482002,0.08744548605907634,0.22611184004185253,-0.20207646030541976
2556,10.7922935999959,-0.018326295003144876,-0.032746749404830175,0.022035762049791685,0.01127771202372257,0.003570875836480796,0.013708543601267532,0.05276898757460393,0.0978567085955105,-0.026561033833638368,0.08661675936762797,0.22479348042634575,-0.20337665556428433
2557,10.797018599987496,-0.018163416022593824,-0.03275363942851423,0.022083335109719125,0.011500875820060758,0.003985274449413437,0.013594804762589221,0.05313226723977886,0.09880117774557391,-0.02742089538415835,0.0857708210422364,0.2234354500254319,-0.20466055873518862
2558,10.80076279999048,-0.01812484856385613,-0.03274944884304697,0.022104706940435283,0.01172556313466019,0.0044036406812664524,0.013477430759255938,0.05349194507382733,0.0997398418737667,-0.02828613234651624,0.08490771609380536,0.2220378083489648,-0.2059278665254215
2559,10.80467639998824,-0.018117544341629207,-0.03275647794614211,0.02211351410111428,0.011951758635155546,0.0048259497236090715,0.01335639909432096,0.05384794884273134,0.10067253432120592,-0.02915667413248227,0.08402749315755914,0.2206006224904935,-0.2071782763964496
2560,10.808824799998549,-0.01809321478902327,-0.03275996198793317,0.022129025426597487,0.012179446685317483,0.005252176067340344,0.013231687570944797,0.05420020652537084,0.10159908872681211,-0.030032448881445555,0.08313020450704031,0.21912396715311697,-0.2084114866264103
2561,10.813198099989677,-0.018087702084909518,-0.032772467201582826,0.022136208921702517,0.01240861134598021,0.005682293504002689,0.013103274297734792,0.05454864632886839,0.10251933905928559,-0.030913383464000296,0.08221590606732625,0.21760792467387466,-0.20962719637290705
2562,10.81725349999033,-0.018071434238065565,-0.032777248359934036,0.022146863250047933,0.012639236376033643,0.006116275127228875,0.012971137694069084,0.05489319670398835,0.10343311964918306,-0.03179940348579659,0.08128465742745533,0.2160525850466513,-0.2108251057360954
2563,10.821249099986744,-0.018065522427194985,-0.03279631583121146,0.02213886180257209,0.012871305233480403,0.006554093334322878,0.012835256495403855,0.05523378636058733,0.10434026522108794,-0.03269043329165703,0.08033652185205364,0.21445804594357668,-0.2120049158220483
2564,10.82471989998885,-0.01805857191894065,-0.032796612734874685,0.022144959076624463,0.013104801076557808,0.006995719827975041,0.012695609758562675,0.05557034428311288,0.10524061092586778,-0.0335863959699603,0.0793715662921531,0.21282441273490083,-0.21316632880638936
2565,10.828103299994837,-0.01805857191894065,-0.032796612734874685,0.022144959076624463,0.0133397067649251,0.007441125618111927,0.012552176867006831,0.055902799746146925,0.10613399237301273,-0.03448721335729288,0.07838986139519229,0.2111517985073251,-0.21430904799818004
2566,10.832116099991254,-0.018046857688193266,-0.032813243066406435,0.02212961305090182,0.013576004860916068,0.007890281023881217,0.012404937536085504,0.05623108232999028,0.10702024566304899,-0.035392806043370084,0.07739148151419137,0.2094403240807698,-0.2154327779040477
2567,10.83662249999179,-0.018031444061117646,-0.032864655901655174,0.022069651081226833,0.013813677630857333,0.008343155675771994,0.012253871818264775,0.05655512193628483,0.10789920742001993,-0.03630309337622728,0.07637650471609267,0.20769011802355997,-0.2165372242925418
2568,10.840276199989605,-0.018031444061117646,-0.032864655901655174,0.022069651081226833,0.014052707046452458,0.008799718517870684,0.01209896010833436,0.05687484880366972,0.10877071482402774,-0.03721799346768215,0.07534501278925851,0.2059013166660116,-0.21762209425870624
2569,10.84458459999587,-0.018028106661323127,-0.032893617357485784,0.02204727929674293,0.014293074786232056,0.009259937810252932,0.011940183148590947,0.05719019352346808,0.10963460564382911,-0.03813742319906894,0.07429709125011816,0.2040740641124005,-0.21868709628885522
2570,10.848865399995702,-0.01797735166714662,-0.0329520617396937,0.021996982554729587,0.014534762237069992,0.009723781131511634,0.01177752203399706,0.057501087055400545,0.11049071826947783,-0.03906129822724524,0.07323282934895577,0.2022085122512964,-0.21973194032553953
2571,10.852929999993648,-0.01795696235318044,-0.032987343542082694,0.021970881606410662,0.014777750495765747,0.0101912153814214,0.011610958217314272,0.05780746074332172,0.11133889174500713,-0.03998953299087196,0.0721523200748307,0.20030482076424488,-0.22075633783268925
2572,10.857391899990034,-0.017934313853428654,-0.03301969030118029,0.02195363797753954,0.015022020370693102,0.01066220678373969,0.011440473514209681,0.058109246330975806,0.11217896580114504,-0.0409220407169673,0.07105566015962284,0.19836315713277872,-0.2217600018609197
2573,10.861278799988211,-0.017916683082341626,-0.0330503971905168,0.021945285108362526,0.015267552383515154,0.011136720889144787,0.011266050108334546,0.05840637597776753,0.11301078088805655,-0.04185873342773528,0.06994295008119504,0.19638369664374303,-0.22274264711298614
2574,10.864690699992934,-0.017916683082341626,-0.0330503971905168,0.021945285108362526,0.015514326770965757,0.011614722578310753,0.011087670556373892,0.05869878227454465,0.11383417820810572,-0.042799521947669505,0.06881429406566539,0.19436662239291722,-0.22370399000937072
2575,10.869400999989011,-0.017899035177961965,-0.03309673111278779,0.021933233933918293,0.015762323486697465,0.012096176065119563,0.010905317793065947,0.058986398259388145,0.11464899974863084,-0.04374431591093258,0.067669800088782,0.19231212528691755,-0.22464374875398785
2576,10.874079999994136,-0.0178969550226649,-0.03311876558497924,0.021913512491936835,0.016011522203196,0.012581044900010512,0.010718975136190287,0.05926915743340646,0.1154550883147248,-0.044693023769011735,0.0665095798763936,0.19022040404336418,-0.22556164339999316
2577,10.87830679999024,-0.017911516659458348,-0.033138587260577786,0.021900269474434898,0.01626190231376116,0.01306929197346695,0.01052862629152362,0.05954699377652957,0.11625228756201315,-0.04564555279865117,0.06533374890400896,0.1880916651892977,-0.22645739591568165
2578,10.882152899997893,-0.017927288706030123,-0.03315461571416116,0.02189263463145169,0.016513442934554253,0.0135608795196403,0.010334255357762124,0.059819841763299256,0.11704044202942267,-0.04660180911006145,0.06414242639543877,0.18592612305782916,-0.2273307302504612
2579,10.886500499997055,-0.017945759128170813,-0.03316976627482633,0.02187936538752459,0.01676612290671192,0.014055769120111365,0.010135846831409142,0.06008763637865162,0.11781939717193313,-0.04756169765540619,0.0629357353205134,0.18372399978300943,-0.22818137240088557
2580,10.890600899991114,-0.01795833606408715,-0.033173174662147045,0.021870513968689345,0.017019920798526406,0.014553921707788879,0.009933385611627116,0.06035031313368761,0.11858899939330535,-0.04852512223756623,0.06171380239187023,0.18148552529290451,-0.22900905047673295
2581,10.894815999999992,-0.01796488310532346,-0.03318373431084377,0.021864986207397012,0.017274814907692216,0.015055297570945265,0.009726857005052518,0.06060780808142786,0.11934909607877794,-0.049491985519181395,0.06047675806080427,0.1792109373008629,-0.22981349476711524
2582,10.898888699986855,-0.017975600109064946,-0.033185047642050367,0.02185261384239524,0.017530783263619017,0.015559856357389509,0.009516246730572567,0.06086005783254767,0.12009953562772555,-0.050462189031969834,0.05922473651217638,0.17690048129496272,-0.23059443780660263
2583,10.902952599994023,-0.01797127081169368,-0.033184093960957464,0.021849726019409498,0.017787803629810733,0.016067557078776957,0.009301540924062615,0.06110699957108841,0.12084016748627133,-0.05143563318632471,0.05795787565837343,0.17455441052562568,-0.23135161444134736
2584,10.907138399998075,-0.017981028841733162,-0.033197193605201,0.021839383118003788,0.01804585350631066,0.0165783581150559,0.009082726143083074,0.06134857107014109,0.12157084217984612,-0.05241221728118835,0.0566763171323155,0.17217298599138517,-0.23208476189519125
2585,10.911204199990609,-0.01795945330898001,-0.033190786164305666,0.021823820644086223,0.01830491013221241,0.01709221721905065,0.008859789371534693,0.061584710707498345,0.12229141134568675,-0.05339183951420371,0.05538020627950495,0.16975647642279695,-0.2327936198357416
2586,10.916621899988968,-0.017922609516402416,-0.03319618425315297,0.02182222648971009,0.01856495048823664,0.017609091521180807,0.008632718024270994,0.0618153574812704,0.12300172776526629,-0.05437439699214298,0.05406969214911243,0.16730515826448125,-0.23347793044039974
2587,10.92093299998669,-0.017898033579442738,-0.03321117919727611,0.021816620969135853,0.018825951299373523,0.018128937534316502,0.008401499951666705,0.06204045102546144,0.12370164539664885,-0.055359785741612856,0.0527449274840953,0.1648193156552857,-0.2341374384623258
2588,10.92453979999118,-0.017882095181811976,-0.03323014785424899,0.021792047007323716,0.019087889037590663,0.018651711158769263,0.008166123444141036,0.06225993162550185,0.12439101940676146,-0.05634790072003632,0.0514060687103444,0.16229924040655855,-0.23477189129632303
2589,10.928125299993551,-0.017847837108136415,-0.03324957177174535,0.02178539172198846,0.01935073992460628,0.01917736768741824,0.00792657723663462,0.06247374023373253,0.12506970620357552,-0.057338635826910386,0.05005327592485522,0.1597452319785223,-0.2353810390446252
2590,10.931569999986095,-0.017847837108136415,-0.03324957177174535,0.02178539172198846,0.019614479934727525,0.019705861810971424,0.007682850513038984,0.0626818184848374,0.12573756346819026,-0.05833188391533919,0.04868671288291932,0.15715759745473815,-0.23596463458256975
2591,10.935076899986598,-0.017847837108136415,-0.03324957177174535,0.02178539172198846,0.019879084797753688,0.020237147623361526,0.007434932910577346,0.06288410871121954,0.1263944501868108,-0.059327536803841514,0.04730654698433256,0.1545366515146521,-0.23652243362414083
2592,10.939295099989977,-0.017840169232062372,-0.03328047367102341,0.02175914687840038,0.02014453000194388,0.02077117862727613,0.007182814524135651,0.06308055395831677,0.12704022668261294,-0.06032548528843245,0.045912949258616685,0.15188271640421558,-0.23705419478736428
2593,10.944006599995191,-0.017803663945655142,-0.033372634975252294,0.021698177337203074,0.020410790797048904,0.021307907739821743,0.006926485910542652,0.06327109799985296,0.1276747546474866,-0.06132561915497879,0.044506094349251506,0.14919612190457157,-0.23755967965953717
2594,10.9485294999904,-0.017803215641173317,-0.033417511190594065,0.021678911694433277,0.020677842197407068,0.021847287298321177,0.006665938092797924,0.06345568535302054,0.12829789717365,-0.0623278271918277,0.04308616049691485,0.14647720529879862,-0.2380386528622738
2595,10.953518999987864,-0.01776686754413983,-0.033436511584179596,0.021688584486107353,0.02094565898510373,0.022389269066243802,0.006401162564246653,0.0636342612935901,0.12890951878512624,-0.06333199720270802,0.04165332952172783,0.14372631133670602,-0.23849088211635103
2596,10.957465899991805,-0.01778889125635802,-0.03348562221988132,0.021676823666565433,0.02121421571319421,0.02293380423926812,0.006132151292700079,0.06380677187094273,0.12950948546907406,-0.06433801601990316,0.04020778680450296,0.14094379219767308,-0.23891613830633532
2597,10.962197199987711,-0.017755652179851998,-0.03349860036275889,0.02167688857281834,0.021483486708989783,0.02348084345147603,0.005858896724500441,0.06397316392302066,0.13009766470696413,-0.06534576951769414,0.03874972126699293,0.13813000745152662,-0.2393141955449729
2598,10.967227099987213,-0.017748636138021644,-0.033528375311197296,0.021671241645280503,0.02175344607740632,0.024030336781678124,0.0055813917885293085,0.06413338509119162,0.13067392550559223,-0.06635514262607121,0.03727932535113831,0.13528532401745175,-0.2396848312373268
2599,10.971814699994866,-0.017726980996674135,-0.03355588753394591,0.021670546999210973,0.022024067704375157,0.024582233759869364,0.005299629900158164,0.06428738383502301,0.13123813842792117,-0.06736601934471341,0.035796794997312496,0.13241011612093143,-0.24002782614464258
2600,10.977525899987086,-0.01767138521811482,-0.03359803063245697,0.021647784957891787,0.022295325260315867,0.0251364833738144,0.005013604965140127,0.06443510944696185,0.13179017562374198,-0.06837828275723501,0.034302329621562565,0.12950476524871005,-0.24034296444792422
2601,10.982492600000114,-0.01763770954735076,-0.033606240054488645,0.02165211777724907,0.02256719220367058,0.025693034075761696,0.004723311383441671,0.06457651206691647,0.13232991086014664,-0.06939181504569832,0.03279613209184483,0.1265696601017784,-0.24063003381120246
2602,10.986597699986303,-0.01760392194235534,-0.03360204371957037,0.02164855918521657,0.022839641784499397,0.026251833789285712,0.004428744053013199,0.06471154269673601,0.13285721955180432,-0.07040649750539128,0.03127840870325457,0.12360519654637707,-0.24088882544447754
2603,10.99001639999915,-0.01760392194235534,-0.03360204371957037,0.02164855918521657,0.023112647048136533,0.026812829916256404,0.0041298983734973605,0.06484015321458354,0.1333719787910329,-0.07142221055986936,0.02974936915224978,0.12061177756301618,-0.2411191341663201
2604,10.993695899989689,-0.01760392194235534,-0.03360204371957037,0.02164855918521657,0.02338618083890676,0.02737596934393515,0.003826770249873988,0.06496229638919891,0.13387406737765778,-0.07243883377626001,0.028209226509868752,0.11758981319350914,-0.24132075846611173
2605,10.997052099992288,-0.01760392194235534,-0.03360204371957037,0.02164855918521657,0.023660215803901662,0.027941198452196166,0.0035193560960405657,0.065077925894047,0.1343633658486493,-0.0734562458808285,0.026658197193941795,0.11453972048601958,-0.2414935005659055
2606,11.001008399995044,-0.01760392194235534,-0.03360204371957037,0.02164855918521657,0.023934724396815283,0.028508463120872383,0.0032076528383271643,0.06518699632134732,0.13483975650752975,-0.07447432477480323,0.025096500940297403,0.11146192343812068,-0.24163716648188838
2607,11.004790199993296,-0.01760392194235534,-0.03360204371957037,0.02164855918521657,0.02420967888183878,0.029077708737224716,0.0028916579189447356,0.06528946319598063,0.13530312345354217,-0.07549294755045893,0.023524360772963916,0.10835685293786791,-0.24175156608542736
2608,11.012847399993916,-0.01750488045439847,-0.03358999507240202,0.021601760774962873,0.02448505133761362,0.029648880203533838,0.002571369299365686,0.06538528298926859,0.13575335261057345,-0.07651199050745587,0.02194200297336759,0.10522494670288685,-0.2418365131636808
2609,11.01671109999006,-0.017505994773087934,-0.033605321867178066,0.021602703711337608,0.024760813661242765,0.03022192194481358,0.0022467854636356536,0.06547441313262194,0.13619033175582318,-0.07753132916943292,0.020349657048528313,0.10206664921747796,-0.24189182547975582
2610,11.02049639998586,-0.017487651148834993,-0.0336023796331145,0.021606803502755418,0.02503693757235945,0.03079677791664494,0.0019179054216154159,0.06555681203105244,0.13661395054821066,-0.07855083830085298,0.01874755569825461,0.09888241166774107,-0.2419173248323942
2611,11.025471599990851,-0.017464233892869503,-0.03361309092353967,0.02161513978506066,0.025313394617252974,0.03137339161312972,0.0015847287121518706,0.065632439076545,0.13702410055651043,-0.07957039192409882,0.017135934781339818,0.09567269187472294,-0.2419128371151678
2612,11.02949489999446,-0.017444247996748298,-0.033620337708999096,0.021611799052502212,0.025590156173050965,0.03195170607496264,0.0012472554061770248,0.06570125466128555,0.1374206752872084,-0.08058986333681778,0.015515033280761668,0.09243795422559246,-0.2418781923751653
2613,11.033454599994002,-0.017408463159050997,-0.03363255826962231,0.021624007976516688,0.025867193451957496,0.03253166389762076,0.0009054861097339303,0.06576322019074057,0.13780357021206993,-0.08160912512951307,0.013885093267887831,0.08917866960284845,-0.24181322487115178
2614,11.037295399990398,-0.017408463159050997,-0.03363255826962231,0.021624007976516688,0.026144477505546326,0.03311320723966927,0.0005594219669285181,0.06581829809658352,0.13817268279541217,-0.0826280492033789,0.012246359865690464,0.08589531531156464,-0.24171777313118273
2615,11.042333999997936,-0.017349655850771074,-0.03367956786422039,0.021641111915076207,0.026421979229108675,0.033696277831182286,0.0002090646628062904,0.06586645184946441,0.13852791252107152,-0.08364650678837704,0.01059908121097301,0.08258837500467826,-0.24159168000965317
2616,11.04583730000013,-0.017324812335992174,-0.03371233132801965,0.02165584570349491,0.02669966936605481,0.034280816982277446,-0.0001455835738471567,0.06590764597161815,0.1388691609190583,-0.08466436846155186,0.008943508415612826,0.07925833860632893,-0.24143479274376448
2617,11.049542399996426,-0.01731741103167977,-0.033745507637610854,0.021660440178343073,0.026977518512368896,0.034866765591762876,-0.0005045199677827966,0.06594184604930718,0.13919633159189035,-0.08568150416558232,0.007279895526823492,0.07590570223325527,-0.24124696300939033
2618,11.05360379999911,-0.017260345307336656,-0.03378074339934206,0.021674202476819532,0.02725549712111645,0.035454064155895325,-0.000867741194643035,0.06596901874509455,0.13950933024059725,-0.08669778322756815,0.0056084994864409685,0.07253096811425772,-0.241028046976323
2619,11.057508300000336,-0.01725407349393138,-0.033819122535262695,0.02167907374295745,0.027533575507003777,0.03604265277724816,-0.0012352433783957679,0.06598913180994337,0.13980806469038648,-0.08771307437804748,0.003929580089238137,0.06913464450773686,-0.24077790536288005
2620,11.061033799996949,-0.01725407349393138,-0.033819122535262695,0.02167907374295745,0.027811723850988616,0.036632471173687786,-0.0016070220888486269,0.06600215409513879,0.14009244491596345,-0.0887272457702434,0.00224339994027249,0.06571724561731684,-0.24049640348985193
2621,11.064328899999964,-0.01725407349393138,-0.033819122535262695,0.02167907374295745,0.028089912204941295,0.03722345868745692,-0.0019830723392443863,0.06600805556402824,0.140362383066497,-0.08974016499953662,0.0005502244112720952,0.06227929150556409,-0.2401834113337718
2622,11.06755969999358,-0.01725407349393138,-0.033819122535262695,0.02167907374295745,0.028368110496355604,0.037815554294363354,-0.002363388583938502,0.06600680730357589,0.1406177934902227,-0.09075169912316179,-0.0011496784039347011,0.05882130800581278,-0.23983880357948933
2623,11.071296499998423,-0.017239130012415574,-0.03384527471814941,0.02169180903611218,0.028646288533108716,0.038408696613072384,-0.0027479647161597304,0.06599838153572754,0.14085859275867513,-0.09176171468012422,-0.0028560377349400325,0.05534382663210906,-0.239462459672029
2624,11.074672599992482,-0.017230045474743938,-0.03394334864862122,0.021691225566069096,0.02892441600826928,0.039002823914501474,-0.0031367940658547757,0.06598275162858154,0.14108469969054158,-0.09277007771133397,-0.004568580181221652,0.05184738448728692,-0.2390542638677135
2625,11.078163199999835,-0.01722959660426647,-0.03397011922615407,0.02168261936575297,0.02920246250495286,0.03959787413131582,-0.003529869397617891,0.06595989210736142,0.1412960353751281,-0.09377665377995426,-0.006287029759546032,0.04833252416918896,-0.23861410528453528
2626,11.082181699996,-0.01720142019146351,-0.03397941135135006,0.02168817326753031,0.029480397501223738,0.04019378486752324,-0.003927182908706364,0.0659297786651867,0.1414925231954308,-0.09478130799196093,-0.008011107952302674,0.044799793675046426,-0.23814187795175698
2627,11.085729499987792,-0.01720142019146351,-0.03397941135135006,0.02168817326753031,0.029758190375042196,0.04079049340816682,-0.004328726227142809,0.06589238817363842,0.1416740888508049,-0.09578390501691034,-0.009740533756762561,0.041249746304033476,-0.23763748085872216
2628,11.089116399991326,-0.01720142019146351,-0.03397941135135006,0.02168817326753031,0.030035810409256247,0.041387936729113714,-0.004734490409905139,0.0658476986931153,0.14184066037922427,-0.09678430910891253,-0.011475023735253364,0.03768294055801137,-0.23710081800285798
2629,11.092987699987134,-0.017196036361241184,-0.03398844245642596,0.02167211351420705,0.030313226796637126,0.04198605150693841,-0.005144465941205128,0.06579568948297697,0.14199216817912322,-0.09778238412780589,-0.013214292066243628,0.03409994004047907,-0.2365317984368519
2630,11.096467600000324,-0.017196036361241184,-0.03398844245642596,0.02167211351420705,0.030590408644957583,0.04258477412889858,-0.005558642730856383,0.06573634101147009,0.14212854503081276,-0.09877799356053003,-0.014958050596327915,0.03050131335374754,-0.2359303363149843
2631,11.100756599989836,-0.017166442009395662,-0.03399363148101384,0.02165726863797167,0.030867324982111935,0.043184040703001525,-0.005977010112732584,0.06566963496543393,0.14224972611746295,-0.09977100054269313,-0.016706008893104526,0.02688763399435592,-0.23529635093860027
2632,11.104921499994816,-0.017138117126368903,-0.03399592952351071,0.02163792187491843,0.031143944761276923,0.04378378706815947,-0.006399556843316779,0.0655955542597818,0.14235564904564318,-0.10076126788032955,-0.01845787429893714,0.023259480246748218,-0.2346297668007032
2633,11.109320499992464,-0.017110794807396325,-0.03400153920774578,0.02164193174293222,0.031420236866112276,0.04438394880443164,-0.00682627110034258,0.06551408304675468,0.14244625386541418,-0.10174865807184416,-0.02021335198559135,0.01961743507523024,-0.23393051362965184
2634,11.116662299988093,-0.017084541825408615,-0.03401400529366497,0.021642929404728447,0.03169617011600003,0.04498446124335151,-0.007257140481528056,0.06542520672494335,0.14252148308996493,-0.10273303333013926,-0.02197214500973669,0.015962086014226787,-0.23319852643194233
2635,11.121440999995684,-0.01707847473630012,-0.03403059131003711,0.021646063382391275,0.03197171327132167,0.04558525947833709,-0.007692152003403137,0.06532891194807548,0.14258128171478748,-0.10371425560492031,-0.02373395436930441,0.012294025056859966,-0.23243374553405746
2636,11.125547399991774,-0.01707847473630012,-0.03403059131003711,0.021646063382391275,0.03224683503877213,0.046186278375182396,-0.008131292100231302,0.0652251866335645,0.1426255972363813,-0.10469218660517644,-0.025498479060690898,0.008613848541870486,-0.23163611662336478
2637,11.12894779999624,-0.017071313499556377,-0.034048900149900294,0.021640902211546253,0.03252150407670954,0.046787452582627974,-0.008574546623026329,0.0651140199708163,0.14265437967048075,-0.1056666878218319,-0.027265416136796512,0.004922157038904347,-0.23080559078804463
2638,11.132660399991437,-0.017026428612641375,-0.034122769662892856,0.02164951007411819,0.0327956890005396,0.0473887165430082,-0.009021900838664875,0.0649954024292902,0.14266758156979928,-0.1066376205505641,-0.029034460765889294,0.0012195552321881335,-0.22994212455603058
2639,11.136267599998972,-0.017001934000782332,-0.034175860087502535,0.02164685370336105,0.03306935838813371,0.04799000450297335,-0.009473339429095628,0.06486932576631098,0.14266515804128366,-0.1076048459147838,-0.0308053062912825,-0.0024933481973831453,-0.22904567993294545
2640,11.14039389998652,-0.016981119950320086,-0.034240214325481404,0.02163451912220153,0.03334248078527983,0.04859125052428429,-0.009928846490645717,0.06473578303462887,0.14264706676287167,-0.10856822488877384,-0.03257764429181477,-0.006215940691721007,-0.22811622443901636
2641,11.143948199998704,-0.016981119950320086,-0.034240214325481404,0.02163451912220153,0.0336150247111648,0.04919238849467746,-0.01038840553342504,0.0645947685897238,0.1426132679997467,-0.10952761832098151,-0.03435116464312139,-0.00994760593655586,-0.22715373114495144
2642,11.149495699995896,-0.016935895691752627,-0.03436672288941699,0.021635308552388148,0.03388695866388705,0.049793352138798055,-0.010851999480829199,0.06444627809685043,0.14256372462008238,-0.11048288695746031,-0.03612555557968474,-0.013687723983960664,-0.22615817870676205
2643,11.153002199993352,-0.01691432696396101,-0.03443072411531008,0.021623679430286133,0.03415825112599853,0.05039407502919913,-0.011319610669141701,0.064290308537821,0.1424984021102709,-0.11143389146545647,-0.0379005037576517,-0.01743567137635906,-0.22512955139951465
2644,11.157115999987582,-0.01688976093730036,-0.034492325263784415,0.021623786880456602,0.03442887057007498,0.05099449059740452,-0.011791220847236022,0.06412685821752236,0.14241726858962905,-0.11238049245713583,-0.03967569431840545,-0.021190821271990467,-0.22406783914999542
2645,11.161315499994087,-0.016908340122824495,-0.03457199736033589,0.02159602411920812,0.03469878546431319,0.05159453214503318,-0.012266811176378104,0.06395592677016443,0.14232029482457562,-0.11332255051344642,-0.04145081095287881,-0.024952543571803893,-0.22297303756827283
2646,11.165897099999713,-0.01686040322463559,-0.03462314136051,0.021590226935757663,0.03496796427815418,0.05219413285498269,-0.012746362230129944,0.06377751516525729,0.14220745424227343,-0.11425992620811204,-0.043225535966595875,-0.02872020504775151,-0.22184514797814195
2647,11.16942749998998,-0.01686040322463559,-0.03462314136051,0.021590226935757663,0.035236375487931355,0.05279322580266965,-0.013229853994354904,0.06359162571331363,0.14207872294373072,-0.1151924801317521,-0.04499955034542851,-0.03249316947245243,-0.22068417744643523
2648,11.17352509999182,-0.016854182648133396,-0.03467825122637971,0.02158642434129676,0.03550398758254261,0.05339174396732482,-0.013717265867325313,0.06339826207127403,0.1419340797163549,-0.11612007291612242,-0.04677253382205378,-0.036270797750196454,-0.21949013881118487
2649,11.17793749998964,-0.01679208132207975,-0.03475943257954444,0.021562829132274232,0.03577076906914507,0.05398962024334104,-0.01420857665993287,0.06319742924765206,0.14177350604595318,-0.1170425652584719,-0.04854416494309826,-0.040052448049256936,-0.21826305070862118
2650,11.182088099987595,-0.016763692605540788,-0.034790866142288615,0.02155868153510653,0.03603668847887121,0.05458678745167146,-0.014703764596002377,0.06298913360739596,0.1415969861281741,-0.11795981794600992,-0.050314121136954965,-0.04383747593548098,-0.21700293759899314
2651,11.186100299993996,-0.01673595818459691,-0.03482034948724258,0.021535510929153706,0.03630171437256518,0.055183178351276084,-0.015202807312709314,0.06277338287646372,0.14140450687938472,-0.11887169188047955,-0.05208207878225797,-0.047625234507124935,-0.21570982979119657
2652,11.190507099992828,-0.01668313329040373,-0.034831470134711114,0.021532911606670542,0.03656581534653801,0.055778725650613904,-0.015705681861101578,0.06255018614610933,0.1411960579469775,-0.11977804810283109,-0.053847713276999956,-0.05141507453090228,-0.21438376346619567
2653,11.194673499994678,-0.016649561899713925,-0.034833842686360944,0.021521085113235,0.03682896003834022,0.056373362019178294,-0.016212364706725896,0.06231955387687722,0.14097163171910146,-0.12067874781799087,-0.05561069910827733,-0.055206344579210316,-0.21302478069922554
2654,11.198741299987889,-0.016631966912268287,-0.03484953294394576,0.021512036334086094,0.03709111713255048,0.05696702009907307,-0.016722831730359374,0.06208149790230271,0.14073122333381333,-0.1215736524197202,-0.057370709922647506,-0.058998391168501446,-0.2116329294807629
2655,11.20298649999313,-0.01655374142394871,-0.03481329411320648,0.02152244659809429,0.03735225536657898,0.0575596325166269,-0.017237058228846486,0.06183603143231556,0.14047483068764297,-0.12246262351555946,-0.059127418597082364,-0.06279055889876413,-0.2102082637362516
2656,11.207236899994314,-0.016509997606681103,-0.03479820917159822,0.02152739017739367,0.03761234353648415,0.05815113189404396,-0.01775501891604196,0.06158316905634471,0.14020245444356794,-0.12334552295185215,-0.060880497310501845,-0.0665821905940781,-0.20875084334456995
2657,11.2111057999864,-0.016473399472833487,-0.034771020623385496,0.021525757468315313,0.037871350502801424,0.05874145086108796,-0.01827668792385984,0.06132292674612159,0.13991409803839264,-0.12422221283884365,-0.06262961761587132,-0.07037262744420794,-0.20726073415522736
2658,11.215662099988547,-0.016442353491005784,-0.03474359904901698,0.02151361779436891,0.03812924519638292,0.05933052206679715,-0.018802038803429053,0.06105532185817954,0.13960976768952713,-0.12509255557584933,-0.06437445051284583,-0.07416120914719809,-0.20573800800427738
2659,11.219684599986069,-0.016408682686182563,-0.034713963761203274,0.02150666050791402,0.03838599662424642,0.059918278191227414,-0.019331044526355645,0.06078037313604689,0.13928947240116163,-0.12595641387648593,-0.06611466652094425,-0.07794727405293195,-0.20418274272893422
2660,11.224157099990409,-0.016361096068404975,-0.03466156793369329,0.021518580900050294,0.03864157387543272,0.06050465195722096,-0.01986367748609205,0.06049810071213126,0.1389532239698326,-0.1268136507939609,-0.06784993575323615,-0.08173015930761697,-0.20259502218088019
2661,11.22834819999116,-0.016361096068404975,-0.03466156793369329,0.021518580900050294,0.03889594612686998,0.061089576142197954,-0.020399909499413657,0.06020852610929284,0.13860103698937626,-0.12766412974641514,-0.0695799279905238,-0.08550920099915742,-0.20097493623825194
2662,11.232124899994233,-0.016331845185137025,-0.034634327551146836,0.0215219496617183,0.03914908264924367,0.06167298358996884,-0.020939711808002914,0.05991167224210428,0.13823292885526547,-0.12850771454231377,-0.07130431275600137,-0.0892837343033753,-0.1993225808162944
2663,11.236114299987094,-0.01627325908043013,-0.03457586406704089,0.021534171392202477,0.039400952812870794,0.06225480722256516,-0.021483055080141162,0.05960756341779566,0.13784891976832558,-0.12934426940588015,-0.07302275939037388,-0.09305309363104002,-0.19763805787667127
2664,11.240504599991256,-0.016238186591245936,-0.03455746821667281,0.021551649024810878,0.03965152609357684,0.06283498005208608,-0.022029909412508493,0.059296225336882474,0.1374490327378264,-0.13017365900256803,-0.07473493712741754,-0.0968166127756669,-0.19592147543542182
2665,11.244801399996504,-0.01620638258991218,-0.034533140044162684,0.021544613303549245,0.03990077207857407,0.0634134351925579,-0.022580244332091742,0.05897768509347512,0.13703329358394728,-0.13099574846456594,-0.07644051516996303,-0.10057362506204437,-0.19417294756955408
2666,11.248778599998332,-0.0161794918970768,-0.03453107590137857,0.021541471751713386,0.04014866047233977,0.06399010587180416,-0.02313402879820072,0.05865197117526791,0.13660173093961211,-0.1318104034163273,-0.07813916276628345,-0.10432346349544865,-0.19239259442226506
2667,11.252840799992557,-0.016127855247983092,-0.034533380095269225,0.02152918102799574,0.04039516110249326,0.0645649254433238,-0.023691231204592753,0.058319113463206174,0.1361543762516919,-0.13261749000012032,-0.07983054928686772,-0.10806546091150475,-0.19058054220677947
2668,11.25701129999652,-0.01605353303488858,-0.03451942181547435,0.021516652261923685,0.04064024392567025,0.06513782739817474,-0.024251819381705574,0.0579791432308295,0.1356912637815724,-0.1334168749015918,-0.08151434430155996,-0.11179895012665184,-0.18873692320879815
2669,11.26119929998822,-0.01594865925000277,-0.03451632713984522,0.021511754717707065,0.04088387903339294,0.0657087453768598,-0.02481576059899866,0.057632093143289646,0.13521243060508498,-0.13420842537533917,-0.08319021765704485,-0.11552326408917117,-0.18686187578754784
2670,11.265351799986092,-0.015837070599228186,-0.03451599754828854,0.021498240613609748,0.04112603665793469,0.06627761318121224,-0.02538302156740286,0.057277997256041616,0.1347179166117984,-0.13499200927048438,-0.0848578395546593,-0.11923773603073373,-0.1849555443754255
2671,11.269451699990896,-0.01571668758110188,-0.03450785391306806,0.0214849728393665,0.0413666871781775,0.06684436478627788,-0.025953568441878305,0.05691689101320644,0.13420776450366922,-0.13576749505624278,-0.08651688062850985,-0.12294169961842438,-0.18301807947622964
2672,11.27380219999759,-0.015576932952981947,-0.03448508113457454,0.02146495447951585,0.041605801125460744,0.0674089343521912,-0.026527366824080505,0.05654881124560435,0.13368201979304872,-0.13653475184748248,-0.08816701202387596,-0.1266344891071992,-0.18104963766197138
2673,11.278054099995645,-0.015419414834855863,-0.03444925946025946,0.021439305716766575,0.0418433491894199,0.06797125623604194,-0.02710438176513462,0.056173796168457045,0.13314073080004477,-0.13729364943026776,-0.08980790547587914,-0.13031543949273164,-0.17905038156825687
2674,11.28215439998894,-0.015261892052391784,-0.03440519397492323,0.0214061307408295,0.04207930222381383,0.06853126500372947,-0.027684577768517758,0.05579188537875827,0.13258394864923678,-0.13804405828738153,-0.09143923338839738,-0.13398388666460231,-0.17702047988823372
2675,11.285559199997806,-0.015261892052391784,-0.03440519397492323,0.0214061307408295,0.042313631252339216,0.06908889544180191,-0.02826791879304938,0.055403119852311444,0.13201172726574267,-0.13878584962382115,-0.09306066891320398,-0.1376391675597887,-0.17496010736509499
2676,11.289254899995283,-0.015261892052391784,-0.03440519397492323,0.0214061307408295,0.042546307474430535,0.06964408256927768,-0.028854368255989644,0.05500754194043324,0.1314241233706359,-0.13951889539226064,-0.09467188602930918,-0.14128062031640928,-0.17286944478313476
2677,11.294527299993206,-0.014831902255491169,-0.03418332211490392,0.02130240831365412,0.042777302271044225,0.07019676164944667,-0.029443889036245553,0.05460519536632211,0.1308211964757113,-0.14024306831847363,-0.09627255962248354,-0.14490758442767745,-0.17074867895735038
2678,11.298745299995062,-0.01470311507109496,-0.0340819970392001,0.02126675011734024,0.043006587210425884,0.07074686820164851,-0.030036443477684555,0.05419612522109145,0.13020300887759806,-0.14095824192671136,-0.09786236556494246,-0.14851940089601898,-0.16859800272158545
2679,11.303036499986774,-0.014567479471251029,-0.03396876185704338,0.021226441309598824,0.043234134053859105,0.07129433801302429,-0.030631993392555276,0.05378037795946694,0.12956962565121954,-0.141664290565029,-0.09944098079516984,-0.1521154123873083,-0.16641761491520923
2680,11.307322099994051,-0.014434853770526876,-0.033828479149356376,0.021189122717154403,0.04345991476139452,0.07183910715023938,-0.03123050006501507,0.05335800139514774,0.12892111464259992,-0.14236108943055445,-0.10100808339785917,-0.15569496338517766,-0.16420772036832817
2681,11.311309999990044,-0.014300648272321052,-0.033685581622748796,0.021153276230721416,0.04368390149755765,0.07238111197117414,-0.03183192425476415,0.052929044695831005,0.12825754646101684,-0.14304851459469295,-0.10256335268395002,-0.15925740034535182,-0.16196852988552637
2682,11.315546799989534,-0.014175423089503458,-0.033538151670511857,0.021099156071378532,0.0439060666370344,0.07292028913658001,-0.032436226200785935,0.052493558377899124,0.12757899447049958,-0.14372644302826107,-0.10410646927073777,-0.16280207184996248,-0.15970026022813055
2683,11.31969140000001,-0.014018450641923754,-0.033347201446890094,0.02108822234546456,0.044126382770332644,0.07345657562169791,-0.03304336562519322,0.0520515943007692,0.1268855347806731,-0.14439475262654303,-0.10563711516203404,-0.16632832876179518,-0.15740313409499634
2684,11.323099999994156,-0.014018450641923754,-0.033347201446890094,0.02108822234546456,0.044344822709418905,0.07398990872783649,-0.03365330173717981,0.05160320566090474,0.12617724623694826,-0.14505332223426246,-0.10715497382835489,-0.16983552437842245,-0.1550773801018136
2685,11.326395599986428,-0.014018450641923754,-0.033347201446890094,0.02108822234546456,0.04456135949332837,0.07452022609390736,-0.034265993237077255,0.0511484469854893,0.12545421041005866,-0.1457020316704645,-0.10865973028711438,-0.173323014586177,-0.15272323275892855
2686,11.329736899991984,-0.014018450641923754,-0.033347201446890094,0.02108822234546456,0.044775966393747056,0.07504746570791457,-0.034881398320516406,0.05068737412576184,0.12471651158494501,-0.146340761753302,-0.11015107118280079,-0.17679015801391806,-0.15034093244768085
2687,11.333176199987063,-0.013895423806093174,-0.03312944835457382,0.021028738443853952,0.044988616920564564,0.07557156591839553,-0.03549947468269327,0.05022004425001374,0.12396423674898792,-0.14696939432472003,-0.11162868486711128,-0.1802363161865424,-0.14793072539525498
2688,11.336653999998816,-0.013470445623241406,-0.03238297557484123,0.020934676361170957,0.045199284827396165,0.07609246544581097,-0.03612017952273867,0.04974651583624755,0.12319747557959013,-0.14758781227503268,-0.11309226147902166,-0.18366085367819207,-0.1454928636480465
2689,11.34051239999826,-0.013317261072152118,-0.03212857094966121,0.02093397191165797,0.04540794411707255,0.07661010339388064,-0.03674346954819122,0.049266848664497966,0.12241632043110968,-0.1481958995673856,-0.11454149302476765,-0.187063138265112,-0.14302760504354264
2690,11.344621299998837,-0.013154126797912538,-0.031860198205770435,0.020917465122561558,0.0456145690470962,0.07712441926086236,-0.03736930097957332,0.04878110380881565,0.12162086632114527,-0.14879354126209854,-0.11597607345771425,-0.1904425410781101,-0.14053521318071832
2691,11.348193899990292,-0.013154126797912538,-0.031860198205770435,0.020917465122561558,0.045819134135062875,0.07763535295077201,-0.03799762955506937,0.04828934362891449,0.12081121091617633,-0.14938062354088175,-0.11739569875808988,-0.19379843675457242,-0.13801595738894862
2692,11.352382999990368,-0.012973737845926555,-0.03158056891307222,0.020894666511266556,0.04602161416404669,0.07814284478454163,-0.03862841053530599,0.04779163176148284,0.1199874545165599,-0.1499570337309202,-0.11880006701256185,-0.19713020358998537,-0.13547011269543865
2693,11.3566584999935,-0.012604981767101543,-0.031073827115075628,0.020905060001349257,0.04622198418794768,0.07864683551111336,-0.03926159870823345,0.04728803311115971,0.11914970004088608,-0.15052266032881922,-0.12018887849362911,-0.20043722368891678,-0.13289795979117305
2694,11.360218699992402,-0.012604981767101543,-0.031073827115075628,0.020905060001349257,0.04642021953680067,0.07914726631846608,-0.03989714839410753,0.04677861384117659,0.1182980530096947,-0.1510773930244049,-0.12156183573880883,-0.2037188831154088,-0.13029978499538775
2695,11.363890399996308,-0.012604981767101543,-0.031073827115075628,0.020905060001349257,0.046616295822043984,0.07964407884457206,-0.04053501345057097,0.04626344136366598,0.11743262152855563,-0.1516211227243735,-0.12291864362959334,-0.20697457204273453,-0.1276758802185672
2696,11.368429999987711,-0.012419459301035099,-0.030844300184822926,0.020928038728926547,0.0468101889417464,0.08013721518828083,-0.041175147277834175,0.045742584329637424,0.1165535162705159,-0.15215374157578399,-0.1242590094701532,-0.21020368490247124,-0.12502654292397133
2697,11.373222999987776,-0.011902957883326518,-0.03005024139556704,0.020965940719394827,0.04700187508579103,0.08062661792012787,-0.04181750282395447,0.04521611261862236,0.11566085045791637,-0.15267514298938734,-0.1255826430657626,-0.21340562053284254,-0.12235207608769592
2698,11.377575499995146,-0.011701805932074474,-0.029742804885887215,0.021002421700775858,0.0471913307410148,0.08111223009306566,-0.04246203259021321,0.04468409732798882,0.11475473984358078,-0.1531852216627869,-0.12688925680092367,-0.2165797823262827,-0.11965278815727123
2699,11.38186969999515,-0.011516515509114648,-0.029450366120497628,0.02104542886180814,0.04737853269630212,0.08159399525311466,-0.04310868863658988,0.04414661076192735,0.11383530269138029,-0.15368387360342345,-0.1281785657171643,-0.2197255783761759,-0.11692899300880395
2700,11.38605159999861,-0.011328477644617937,-0.029143359016468067,0.021084058860563755,0.047563458047631534,0.08207185744993192,-0.04375742258733262,0.043603726420109505,0.11290265975617679,-0.15417099615137855,-0.12945028759048613,-0.22284242162272347,-0.11418100990266711
2701,11.390333999996074,-0.011058401104560318,-0.028831965370648693,0.02116138396851216,0.047746084203074156,0.08254576124729408,-0.044408185636624596,0.04305551898602056,0.11195693426314844,-0.15464648800198955,-0.1307041430084378,-0.22592972999789157,-0.11140916343774368
2702,11.393842899997251,-0.011058401104560318,-0.028831965370648693,0.02116138396851216,0.04792638888774272,0.0830156517334922,-0.04506092855434561,0.042502064314968,0.11099825188650052,-0.15511024922827,-0.13193985544678893,-0.22898692656939293,-0.10861378350423083
2703,11.397517199991851,-0.011058401104560318,-0.028831965370648693,0.02116138396851216,0.04810435014868988,0.08348147453163608,-0.0457156016919283,0.04194343942176778,0.11002674072756632,-0.1555621813031298,-0.13315715134578188,-0.23201343968365512,-0.10579520523501211
2704,11.401829899987206,-0.010775293318227014,-0.02852106310180979,0.02121404702385971,0.04827994635975443,0.08394317580986528,-0.04637215498830814,0.04137972246810997,0.10904253129230215,-0.15600218712138955,-0.13435576018593717,-0.2350087031077273,-0.10295376895560475
2705,11.406707199988888,-0.009961215318119778,-0.02757220603832475,0.02135624935351534,0.04845315622635407,0.08440070229146397,-0.047030537975966305,0.040810992749606104,0.10804575646818078,-0.1564301710215828,-0.13553541456338852,-0.23797215617007927,-0.1000898201326901
2706,11.410384899994824,-0.009961215318119778,-0.02757220603832475,0.02135624935351534,0.048623958790223604,0.08485400126487737,-0.047690699787064354,0.04023733068252025,0.10703655150048819,-0.15684603880753872,-0.13669585026472253,-0.24090324390024803,-0.0972037093212359
2707,11.413681699996232,-0.009961215318119778,-0.02757220603832475,0.02135624935351534,0.04879233343409726,0.08530302059362711,-0.048352589159669807,0.03965881779018587,0.1060150539680286,-0.15724969776973902,-0.13783680634129913,-0.24380141716728645,-0.09429579211021907
2708,11.417531099999906,-0.009659968901594825,-0.027235617499731773,0.02138369582624136,0.048958259886333996,0.08574770872612321,-0.0490161544440716,0.039075536689110714,0.10498140375824289,-0.15764105670644374,-0.1389580251830291,-0.2466661328169667,-0.09136642906695883
2709,11.42153259999759,-0.009180212025741648,-0.02650060730053111,0.021399632235537824,0.04912171822548449,0.08618801470537003,-0.049681343609184456,0.03848757107477201,0.103935743041745,-0.15802002594458012,-0.14005925259158444,-0.24949685380769293,-0.08841598568007017
2710,11.426180399997977,-0.008928891870173745,-0.02604143566913292,0.021389909983300953,0.04928268888479858,0.08662388817856356,-0.0503481042490411,0.03789500570710458,0.10287821624628146,-0.15838651736038714,-0.14114023785301785,-0.25229304934507846,-0.08544483230104857
2711,11.429962599999271,-0.0086971752954802,-0.025629147256670367,0.021401278101267844,0.049441152656672094,0.08705527940657697,-0.05101638358937111,0.03729792639568425,0.10180897003012025,-0.15874044439981086,-0.14220073380976725,-0.2550541950151422,-0.082453344084497
2712,11.433885699996608,-0.008451214356453308,-0.025204349497113133,0.021357773062309085,0.04959709069703167,0.08748213927333236,-0.051686128494265286,0.03669641998460914,0.10072815325487508,-0.15908172209864538,-0.14324049693202087,-0.25777977291608134,-0.07944190092700695
2713,11.437957299989648,-0.008146106267875297,-0.024748762193001678,0.021319700128263612,0.049750484529656594,0.08790441929505588,-0.05235728547292433,0.03609057433708137,0.09963591695777156,-0.1594102671024137,-0.14425928738841964,-0.26046927178857787,-0.07641088740470596
2714,11.441647399988142,-0.007868016618280316,-0.02429057786211774,0.021280929475803536,0.049901316050436316,0.08832207162941365,-0.05302980068649086,0.03548047831969219,0.09853241432336128,-0.15972599768598386,-0.14525686911607363,-0.2631221871445967,-0.07336069270948446
2715,11.445281599997545,-0.007621013821378932,-0.023848691366830096,0.021235473661594652,0.05004956753156256,0.08873504908452659,-0.05370361995496361,0.03486622178641337,0.0974178006546899,-0.16002883377291427,-0.1462330098898696,-0.2657380213946322,-0.07029171058391491
2716,11.449019699997734,-0.0073672217281534344,-0.023379703289999432,0.02119039068272254,0.05019522162565463,0.08914330512786232,-0.05437868876419274,0.034247895562297806,0.09629223334392571,-0.16031869695452255,-0.14718748139104573,-0.2683162839733625,-0.06720433925487652
2717,11.45303179998882,-0.007080828796795526,-0.022823838775754293,0.02113577132773441,0.05033826136981678,0.08954679389500203,-0.055054952272954885,0.033625591426892594,0.09515587184245569,-0.1605955105086732,-0.14812005927500918,-0.27085649146366875,-0.06409898136589941
2718,11.45715439999185,-0.006834287800853686,-0.02227768896212849,0.021045397044161463,0.05047867018962654,0.08994547019828011,-0.055732355320106744,0.03299940209736748,0.09400887763045586,-0.16085919941827903,-0.14903052323837226,-0.273358167718978,-0.06097604390824207
2719,11.461292099993443,-0.006536206702756746,-0.0217932674866326,0.021064402726321162,0.05061643190305282,0.09033928953529434,-0.05641084243181595,0.03236942121136209,0.092851414185943,-0.16110969038951092,-0.1499186570851844,-0.2758208439838885,-0.05783593815071698
2720,11.465493699986837,-0.006153615288605256,-0.021120514561267283,0.02093426695638362,0.05075153072430257,0.09072820809728412,-0.05709035782886819,0.03173574330955506,0.09168364695331474,-0.16134691186971004,-0.15078424879233607,-0.27824405901303845,-0.054679079568279214
2721,11.46985589999531,-0.005818329355986553,-0.020489905565390834,0.02083531110785096,0.05088395126759501,0.09111218277737446,-0.05777084543404933,0.031098463817958645,0.09050574331138522,-0.1615707940649973,-0.1516270905741121,-0.2806273591881777,-0.05150588776939438
2722,11.473273599985989,-0.005818329355986553,-0.020489905565390834,0.02083531110785096,0.05101367855086224,0.09149117117868305,-0.058452248879601015,0.030457679029942522,0.0893178725409245,-0.16178126895757516,-0.1524469789458717,-0.28297029863340506,-0.048316786422201885
2723,11.476718499994604,-0.005818329355986553,-0.020489905565390834,0.02083531110785096,0.05114069799937482,0.0918651316222878,-0.059134511514748946,0.02981348608799058,0.08812020579170952,-0.16197827032271664,-0.15324371478683374,-0.2852724393285323,-0.045112203179490225
2724,11.480928099990706,-0.005525386018736774,-0.01985846095836658,0.02073462515796378,0.05126499544929109,0.09223402315505291,-0.05981757641330242,0.029165982965194705,0.08691291604909494,-0.1621617337454381,-0.15401710340194516,-0.2875333512205389,-0.041892569602501574
2725,11.485933499992823,-0.004446329476364606,-0.01778610005784384,0.02043112698327563,0.05138655715112891,0.09259780555731204,-0.060501386381323796,0.028515268446489432,0.08569617810011249,-0.16233159663685154,-0.15476695458281003,-0.28975261233307975,-0.03865832108358316
2726,11.49033009998675,-0.004213333324687377,-0.017187724443323983,0.0203707560357736,0.051505369773158706,0.09295643935040648,-0.061185883964866475,0.027861442109631478,0.08447016849910716,-0.16248779825019127,-0.15549308266765788,-0.2919298088740113,-0.0354098967677034
2727,11.49374129998614,-0.004213333324687377,-0.017187724443323983,0.0203707560357736,0.05162142040471667,0.09330988580407681,-0.06187101145777971,0.027204604305928068,0.0832350655329191,-0.1626302796965103,-0.15619530660032938,-0.29406453534090243,-0.03214773947285153
2728,11.497308899997734,-0.004213333324687377,-0.017187724443323983,0.0203707560357736,0.05173469655943697,0.09365810694370591,-0.06255671090957869,0.02654485614071817,0.08199104918561932,-0.16275898396004151,-0.15687344998825753,-0.2961563946244936,-0.02887229560933973
2729,11.501563599988003,-0.0038992082592618363,-0.016472104330905617,0.020252735081513693,0.051845186178402024,0.09400106555741175,-0.06324292413337852,0.02588229945361078,0.08073830110280797,-0.162873855913219,-0.15752734115942296,-0.29820499811007223,-0.025584015098027116
2730,11.506606999988437,-0.002843374435828538,-0.014391538915900235,0.01987442748218908,0.05195287763320964,0.09433872520298787,-0.06392959271389023,0.02521703679848456,0.0794770045554839,-0.16297484233135498,-0.15815681321826242,-0.30020996577673004,-0.02228335128748537
2731,11.510848299993086,-0.002843374435828538,-0.014391538915900235,0.01987442748218908,0.052057759728956036,0.09467105021468956,-0.06461665801547761,0.02454917142325329,0.07820734440349517,-0.16306189190696746,-0.15876170410051024,-0.30217092629447,-0.01897076087012607
2732,11.514300999988336,-0.002843374435828538,-0.014391538915900235,0.01987442748218908,0.05215982170713352,0.09499800570986408,-0.0653040611902729,0.023878807249401692,0.0769295070585796,-0.16313495526375496,-0.15934185662695355,-0.3040875171191293,-0.01564670379731042
2733,11.517714799992971,-0.002843374435828538,-0.014391538915900235,0.01987442748218908,0.05225905324844162,0.09531955759542382,-0.06599174318634976,0.023206048851296433,0.075643680447005,-0.1631939849702135,-0.15989711855608005,-0.305959384585087,-0.012311643193462266
2734,11.52249929998652,-0.002486105621072224,-0.013531030987165684,0.01970062634270905,0.052355444475510916,0.09563567257416104,-0.06667964475595214,0.022531001435277063,0.07435005397181813,-0.16323893555289204,-0.1604273426355985,-0.30778618399572794,-0.008966045269205872
2735,11.527542099996936,-0.0011828361830971783,-0.010401717443961915,0.019184197934166668,0.052448985955538534,0.09594631815090207,-0.06736770646377732,0.0218537708185316,0.07304881847471216,-0.16326976350928116,-0.16093238665281095,-0.30956757971163273,-0.0056103792335502195
2736,11.532123599987244,-0.0008003393957135815,-0.009595064695063887,0.019022672396554828,0.05253966870283417,0.0962514626384991,-0.06805586869531137,0.021174463407761607,0.0717401661975227,-0.1632864273203311,-0.1614121134838177,-0.3113032452364652,-0.002245117205142031
2737,11.536305399989942,-0.0004093984257175798,-0.008782463323947056,0.018905577617782474,0.052627484181275795,0.09655107516365845,-0.06874407166521591,0.020493186177641766,0.07042429074336196,-0.16328888746259493,-0.16186639114153664,-0.31299286330052706,0.0011292658773899458
2738,11.540380299993558,-5.647002528132999e-05,-0.007924128716078373,0.01874555451697121,0.05271242430667404,0.09684512567260398,-0.06943225542576503,0.019810046649079077,0.06910138703740128,-0.1632771064199929,-0.162295092822519,-0.3146361259419538,0.004512292345976543
2739,11.544648699986285,0.0002902608002414321,-0.007085844497994225,0.018597944157932762,0.05279448144904436,0.09713358493657416,-0.07012035987533032,0.019125152867276753,0.06777165128731222,-0.1632510486951957,-0.1626980969525431,-0.3162327345855238,0.007903481894512407
2740,11.548826899990672,0.0006788627303589106,-0.0062417796269671096,0.018441485983395442,0.05287364843478616,0.09741642455715172,-0.07080832476691226,0.018438613379608053,0.06643528094337639,-0.16321068082062298,-0.16307528723096734,-0.31778240011905556,0.01130235167109927
2741,11.553001799999038,0.0009650932336125487,-0.005430100046933827,0.018294993763715624,0.052949918548767995,0.0976936169714248,-0.07149608971671657,0.017750537213305193,0.06509247465827456,-0.16315597136905463,-0.1634265526738243,-0.3192848429673672,0.014708416371104323
2742,11.557170499989295,0.0013571361745785822,-0.004490743921985001,0.018179764113158563,0.05302328553631807,0.09796513545697826,-0.07218359421277398,0.017061033852968747,0.0637434322465649,-0.1630868909638493,-0.16375178765563786,-0.32073979316377627,0.01812118833100939
2743,11.561334699988947,0.0017149846284902177,-0.00373879882703184,0.01805482895507077,0.05309374360511943,0.09823095413671382,-0.07287077762360177,0.016370213217903006,0.062388354643861034,-0.1630034122887677,-0.1640508919499464,-0.32214699041911776,0.021540177623026308
2744,11.5651455999905,0.0017149846284902177,-0.00373879882703184,0.01805482895507077,0.05316128742700907,0.09849104798349768,-0.07355757920690496,0.01567818563928294,0.061027443865720496,-0.16290551009739773,-0.16432377076851468,-0.32350618418825966,0.024964892150453725
2745,11.5698596000002,0.002498203259791045,-0.0019002841023530866,0.017710264332739666,0.05322591213968013,0.09874539282463424,-0.07424393811831562,0.014985061837158383,0.059660902966254634,-0.16279316122217827,-0.16457033479921787,-0.3248171337340935,0.02839483774375015
2746,11.573862499993991,0.0028912469977039456,-0.0009902448329554654,0.01764065261867293,0.05328761334828652,0.0989939653461645,-0.07492979342016812,0.014290952897301019,0.058288935996470594,-0.16266634458301849,-0.1647905002425813,-0.32607960818898024,0.03182951825729784
2747,11.57751719999942,0.0028912469977039456,-0.0009902448329554654,0.01764065261867293,0.05334638712694897,0.09923674309698881,-0.0756150840903089,0.013595970247899812,0.05691174796235612,-0.16252504119551,-0.1649841888469599,-0.3272933866136329,0.035268435666831896
2748,11.58112629999232,0.0028912469977039456,-0.0009902448329554654,0.01764065261867293,0.05340223002016196,0.0994737044928125,-0.07629974903093886,0.012900225636110681,0.05552954478271822,-0.16236923417872895,-0.16515132794234055,-0.3284582580534176,0.03871109016750865
2749,11.584578699999838,0.0028912469977039456,-0.0009902448329554654,0.01764065261867293,0.05345513904410121,0.09970482881991335,-0.07698372707748706,0.012203831104466226,0.054142533246786785,-0.16219890876262455,-0.1652918504727523,-0.3295740215920559,0.04215698027258679
2750,11.588222599995788,0.00327411992969917,-0.0001520879038756415,0.017561891643638694,0.05350511168783102,0.09993009623872998,-0.07766695700751379,0.011506898967151409,0.05275092097159423,-0.16201405229499125,-0.16540569502726998,-0.3306404864027119,0.04560560291269495
2751,11.591639299993403,0.00327411992969917,-0.0001520879038756415,0.017561891643638694,0.05355214591441069,0.10014948778727037,-0.07834937754964148,0.010809541786151169,0.05135491635914221,-0.1618146542480216,-0.165492805869597,-0.3316574717964497,0.049056453535659
2752,11.595314299993332,0.004486437107713707,0.002549897378880167,0.01738840817535923,0.053596240161899615,0.10036298538433998,-0.07903092739251222,0.010111872347276027,0.04995472855336722,-0.16160070622443698,-0.16555313296621274,-0.33262480726804594,0.052509026206862014
2753,11.599317000000156,0.004486437107713707,0.002549897378880167,0.01738840817535923,0.05363739334426066,0.10057057183258807,-0.07971154519377001,0.009414003636071745,0.04855056739691658,-0.1613722019631931,-0.16558663201307186,-0.3335423325391411,0.05596281371010972
2754,11.602965699989,0.00521537306207659,0.0047369698405903835,0.017156860364034573,0.05367560485216108,0.10077223082137156,-0.08039116958906559,0.008716048813619174,0.04714264338774657,-0.1611291373447591,-0.1655932644608422,-0.33440989759871936,0.05941730764897417
2755,11.608628399990266,0.005807088043564084,0.006866021452833542,0.016758564775806138,0.05371087455367084,0.10096794692943584,-0.08106973920108222,0.008018121192230419,0.04573116763555409,-0.16087151039596795,-0.1655729975386696,-0.33522736274090204,0.06287199854858778
2756,11.612099199992372,0.006079849904947811,0.007886352424566846,0.016555019230434804,0.05374320279485773,0.10115770562741144,-0.08174719264858099,0.007320334211047565,0.044316351818053414,-0.1605993212944367,-0.16552580427645824,-0.3359945986000456,0.06632637595786006
2757,11.615503899985924,0.006414389259537689,0.008928607009386587,0.016307802437689135,0.053772590400278895,0.10134149328012593,-0.08242346855546348,0.006622801411550296,0.0428984081371093,-0.16031257237255386,-0.1654516635256541,-0.3367114861831324,0.06977992855208882
2758,11.619624399987517,0.006679321528158892,0.009940085231374587,0.01599646631945161,0.05379903867336848,0.10151929714872976,-0.08309850555985031,0.005925636412978705,0.04147754927473824,-0.1600112681210321,-0.1653505599785208,-0.337377916899444,0.07323214423593785
2759,11.623812899997574,0.00698337684313442,0.01100580651152432,0.015740161135455236,0.05382254939672121,0.1016911053926362,-0.08377224232317367,0.005228952887677748,0.04005398834898943,-0.15969541519202388,-0.1652224841858966,-0.337993792587508,0.07668251024675228
2760,11.627947699991635,0.007263671391188057,0.011898492656894966,0.015511528098631374,0.05384312483227145,0.10185690707127491,-0.0844446175392822,0.0045328645363697665,0.03862793886971733,-0.1593650224017996,-0.16506743257342144,-0.3385590255393114,0.08013051325818299
2761,11.632140899993828,0.007549722351286867,0.012798940284329105,0.015215159659822215,0.05386076772136764,0.10201669214565871,-0.08511556994355685,0.0038374850633615645,0.037199614694257574,-0.15902010073298656,-0.16488540745622424,-0.339073538521777,0.08357563948409115
2762,11.63630589999957,0.0078414453451661,0.01370833094985602,0.01485841416910673,0.05387548128474178,0.10217045147976299,-0.08578503832203574,0.003142928151692557,0.03576922998301797,-0.15866066333636664,-0.16467641705206093,-0.33953726479549795,0.08701737478270358
2763,11.640989799998351,0.008253397654545589,0.014516002442857195,0.01464273578422973,0.053887269222373704,0.102318176841717,-0.08645296152054578,0.0024493074382305304,0.03433699915499652,-0.15828672553223055,-0.1644404754928939,-0.3399501481307229,0.09045520476098991
2764,11.644780799993896,0.008646011930588594,0.015315276776946989,0.014407260731526386,0.05389613571324933,0.10245986090480673,-0.08711927845383886,0.0017567364887216233,0.03290313684323849,-0.15789830481128744,-0.16417760283490482,-0.3403121428205884,0.09388861487923263
2765,11.648840999987442,0.009024721542986528,0.01607669843104049,0.014080496986222449,0.05390208541501272,0.10259549724828936,-0.08778392811473114,0.0010653287728011585,0.03146785785024422,-0.15749542083512894,-0.1638878250669324,-0.34062321369159665,0.09731709055576067
2766,11.652899099994102,0.009374820909492232,0.016841491065681724,0.013643287199591127,0.05390512346351167,0.10272508035801929,-0.08844684958324345,0.0003751976389719835,0.03003137710333932,-0.15707809543624765,-0.16357117411732777,-0.34088333611133687,0.10074011727181724
2767,11.657173199986572,0.009880771322998852,0.017575404751293336,0.013363144607120474,0.05390525547223692,0.1028486056268854,-0.0891079820357412,-0.0003135437104429852,0.028593909610019043,-0.15664635261760942,-0.1632276878592214,-0.3410924959934482,0.1041571806765331
2768,11.661434099994947,0.010409952474780099,0.01827883918993411,0.013186636299084757,0.05390248753165503,0.10296606935505935,-0.08976726475407201,-0.0010007822443673005,0.02715567041327845,-0.15620021855177904,-0.16285741011419425,-0.34125068979982276,0.10756776669197603
2769,11.665491499996278,0.010451668214270064,0.019143015898865284,0.012585376428604814,0.053896826208435104,0.10307746875005523,-0.09042463713469913,-0.0016864051280498621,0.02571687454694043,-0.1557397215795995,-0.162460390654347,-0.34135792454004843,0.1109713616182475
2770,11.669461899989985,0.010451668214270064,0.019143015898865284,0.012585376428604814,0.053888278544569464,0.10318280192660055,-0.09108003869782905,-0.002370299748149371,0.0242777369909933,-0.1552648922084248,-0.1620366852027616,-0.3414142177680954,0.11436745223859687
2771,11.673746399988886,0.01083476220910058,0.0199475721547956,0.012065405830274751,0.05387685205638806,0.10328206790631826,-0.09173340909653131,-0.0030523537378175786,0.02283847262694983,-0.15477576310990618,-0.16158635543234925,-0.34141959757624896,0.11775552592452361
2772,11.67803689998982,0.012070428074863266,0.02155399751630074,0.01153316632392147,0.05386255473346672,0.1033752666172205,-0.09238468812584881,-0.0037324550017745275,0.021399296193239686,-0.15427236911733236,-0.1611094689630796,-0.34137410258629447,0.12113507074083771
2773,11.6824568999873,0.012741063705597782,0.02252883365751975,0.011144089335226148,0.05384539503742935,0.10346239889301372,-0.09303381573189631,-0.004410491741368969,0.01996042224064701,-0.15375474722252472,-0.16060609935758674,-0.34127778193796016,0.12450557555064955
2774,11.685896699986188,0.012741063705597782,0.02252883365751975,0.011144089335226148,0.053825381900644016,0.10354346647221556,-0.09368073202094576,-0.005086352479617112,0.018522065087804976,-0.15322293657228858,-0.16007632611514824,-0.3411306952746228,0.12786653012025964
2775,11.6902596999862,0.013251119999970737,0.02342096148050286,0.010608914369353517,0.053802524724813415,0.10361847199708356,-0.09432537726849669,-0.005759926086212862,0.017084438776758956,-0.15267697846442096,-0.15952023466403514,-0.34093291272628334,0.13121742522391874
2776,11.69470919999003,0.0140124488266871,0.025186031853246617,0.009335350482340654,0.05377683337945958,0.10368741901235622,-0.09496769192833057,-0.006431101802502666,0.01564775702860986,-0.15211691634327426,-0.1589379163522315,-0.34068451488981927,0.13455775274842854
2777,11.69882449999568,0.014881249029540956,0.025785337863666827,0.008897049361718347,0.053748318200303284,0.1037503119638064,-0.0956076166415474,-0.007099769266418125,0.014212233199249257,-0.15154279579487703,-0.1583294684365222,-0.3403855928065225,0.13788700579755364
2778,11.70301459998882,0.015511141875194883,0.026549819083884093,0.008262220004665121,0.05371698998753816,0.10380715619660738,-0.09624509224558256,-0.007765818537359497,0.012778080235197933,-0.15095466454161272,-0.15769499406994808,-0.3400362479369325,0.14120467879621568
2779,11.70710319999489,0.015705458986837697,0.027372299050039982,0.007658778073774455,0.05368286000399981,0.10385795795351252,-0.09688005978320205,-0.008429140121023205,0.01134551062955942,-0.15035257243645686,-0.1570346022876283,-0.3396365921329746,0.14451026759444063
2780,11.711321399998267,0.015953196603950615,0.02829379413789274,0.007029465793433082,0.05364593997323033,0.10390272437284895,-0.09751246051147415,-0.009089624994166485,0.009914736378100029,-0.14973657145677435,-0.1563484079909505,-0.3391867476074132,0.14780326957103085
2781,11.715870699990774,0.016229766653574815,0.028988086975258544,0.006469233912113702,0.0536062420774384,0.10394146348632585,-0.09814223591071529,-0.009747164629302295,0.008485968935466789,-0.1491067156976773,-0.15563653193012877,-0.33868684690063194,0.1510831837369331
2782,11.719616799993672,0.01631936189499741,0.029708608865714317,0.0056965927257817735,0.05356377895535524,0.10397418421665791,-0.09876932769340835,-0.010401651019317613,0.007059419171554676,-0.1484630613649449,-0.15489910068513088,-0.33813703284475616,0.15434951083827383
2783,11.723692199986544,0.016988303788674653,0.030368540462217365,0.005267252565101582,0.05351856369998687,0.10400089637500445,-0.09939367781309134,-0.011052976702008211,0.005635297328034466,-0.14780566676750645,-0.15413624664497694,-0.33753745852513095,0.15760175345903307
2784,11.727905799998553,0.017341960648454564,0.03118354490774726,0.004562556377077992,0.053470609856262855,0.10402161065822509,-0.10001522847321428,-0.011701034784523084,0.0042138129750525005,-0.14713459230948978,-0.1533481079854118,-0.3368882872391709,0.16083941612332797
2785,11.73227889998816,0.017968686897844182,0.03181185373492269,0.004143447126128537,0.05341993141858195,0.10403633864595242,-0.1006339221359621,-0.012345718967711623,0.0027951749681136015,-0.14644990048183523,-0.15253482864495288,-0.33618969245259656,0.1640620053972772
2786,11.736421800000244,0.018435743370941608,0.03247790329233042,0.003505995066524742,0.05336654282825513,0.10404509279748238,-0.10124970153104174,-0.012986923570366711,0.0013795914051583239,-0.14575165585347843,-0.15169655829931625,-0.33544185775307656,0.16726902999041812
2787,11.740620399999898,0.018772149128849874,0.03311257377878755,0.0029966462002215446,0.05331045897084617,0.10404788644848251,-0.10186250966443146,-0.013624543553356927,-3.2730416154363086e-05,-0.14503992506210295,-0.15083345233422452,-0.3346449768012912,0.17046000085664834
2788,11.744993299987982,0.018768832063963195,0.03402507246465646,0.0021980449701913176,0.053251695173410045,0.10404473380751939,-0.10247228982709071,-0.014258474543641018,-0.0014415840409479456,-0.14431477680446467,-0.14994567181660137,-0.33379925327943344,0.17363443129466294
2789,11.748926999993271,0.019085479671574312,0.034706985529499114,0.001634048947689402,0.05319026720162945,0.104035649952406,-0.10307898560362877,-0.014888612858157875,-0.0028467638994018572,-0.14357628182629026,-0.14903338346415698,-0.3329049008371674,0.17679183704785945
2790,11.75305979998666,0.01938042251853887,0.035311154772522516,0.0009883212542980506,0.05312619125685037,0.1040206508263705,-0.10368254088093018,-0.015514855527585294,-0.004248065348786766,-0.14282451291175233,-0.14809675961336982,-0.3319621430350627,0.17993173640368265
2791,11.757234999997308,0.019715113895365483,0.035979838361785615,0.00032801944985437416,0.053059483973017255,0.10399975323404728,-0.10428289985673522,-0.016137100319960834,-0.005645284715250905,-0.14205954487252428,-0.1471359781858714,-0.3309712132855264,0.18305365029238224
2792,11.761363399986294,0.019945410322141664,0.03664599648432092,-0.00035519040432670235,0.05299016241350853,0.10397297483729143,-0.10488000704817371,-0.01675524576415808,-0.007038219335346806,-0.1412814545364167,-0.14615122265324107,-0.3299323547912546,0.18615710238515584
2793,11.764931499987142,0.019945410322141664,0.03664599648432092,-0.00035519040432670235,0.052918244067873405,0.1039403341508179,-0.10547380730025041,-0.017369191173211677,-0.008426667597287864,-0.14049032073559722,-0.14514268200021763,-0.32884582048122485,0.18924161919165075
2794,11.76909189998696,0.02023441706195505,0.03734818267740754,-0.0009750461972894472,0.052843746848470464,0.10390185053766689,-0.1060642457942805,-0.017978836667484545,-0.00981042898192428,-0.139686224294397,-0.14411055068633416,-0.3277118729442525,0.19230673015679692
2795,11.773447399988072,0.020925359951933762,0.038915088975019975,-0.0024965471757762165,0.052766689087009024,0.1038575442044965,-0.10665126805627334,-0.01858408319767064,-0.011189304103428038,-0.13886924801670608,-0.1430550286059844,-0.3265307843601355,0.19535196775694566
2796,11.777917999992496,0.020543907543596425,0.03989533478360124,-0.004022414099473497,0.05268708953099381,0.1038074361967035,-0.10723481996526267,-0.01918483256762695,-0.012563094749676703,-0.1380394766729613,-0.14197632104692848,-0.325302836428412,0.19837686759528914
2797,11.782199399996898,0.020841085635223838,0.04070224314958884,-0.004493509491654743,0.052604967340073625,0.10375154839337322,-0.10781484776158175,-0.01978098745702821,-0.013931603922325956,-0.13719699698673013,-0.14087463864724747,-0.3240283202947575,0.20138096849653464
2798,11.786428599996723,0.021516318084763994,0.04126006039540879,-0.004902560330665485,0.05252034208229482,0.10368990350206016,-0.10839129805508163,-0.020372451443837942,-0.015294635876560854,-0.1363418976208947,-0.1397501973507569,-0.3227075364750481,0.20436381260080888
2799,11.790464299992893,0.022880232674128323,0.04171723922924401,-0.005072072304281208,0.0524332337302607,0.1036225250534003,-0.1089641178332909,-0.0209591290265894,-0.01665199616051592,-0.1354742691634397,-0.13860321836088907,-0.32134079477711963,0.20732494545676752
2800,11.79463589999068,0.023890470827354716,0.0421459557334543,-0.005455089292720294,0.05234366265719786,0.10354943739555637,-0.10953325446951453,-0.021540925646470036,-0.018003491654354217,-0.13459420411284848,-0.1374339280930561,-0.31992841422025026,0.2102639161138845
2801,11.799077799994848,0.0240788189792179,0.04283648869461474,-0.0063778438772200035,0.05225164963293077,0.10347066568849703,-0.11009865573087074,-0.02211774770920316,-0.019348930608995802,-0.1337017968631098,-0.13624255812550465,-0.3184707229523936,0.2131802772138961
2802,11.802511899993988,0.0240788189792179,0.04283648869461474,-0.0063778438772200035,0.052157215819765394,0.10338623589811104,-0.11066026978626403,-0.022689502606720396,-0.02068812268448617,-0.13279714368833884,-0.13502934514867523,-0.31696805816519236,0.2160735850813752
2803,11.805858099993202,0.0240788189792179,0.04283648869461474,-0.0063778438772200035,0.05206038276828267,0.10329617479015824,-0.111218045214293,-0.02325609873861856,-0.022020878987995457,-0.13188034272701657,-0.1337945309130784,-0.3154207660068035,0.21894339981341285
2804,11.809233599997242,0.0240788189792179,0.04283648869461474,-0.0063778438772200035,0.05196117241304264,0.10320050992405957,-0.11177193101109131,-0.02381744553339472,-0.023347012111439247,-0.1309514939658513,-0.13253836217570117,-0.31382920149256527,0.22178928536838266
2805,11.816612700000404,0.02567925237024183,0.0451393996191354,-0.008783054770058325,0.05185960706820013,0.10309926964652795,-0.11232187659810029,-0.024373453469453292,-0.024666336168711923,-0.13001069922326686,-0.13126109064495817,-0.3121937284135372,0.22461080965376445
2806,11.820648900000378,0.02585194782687858,0.045648711777814176,-0.00942402649671176,0.051755709423032904,0.10299248308504154,-0.11286783182977113,-0.024924034095879097,-0.025978666832523697,-0.12905806213252163,-0.12996297292420242,-0.31051471924294527,0.22740754461300422
2807,11.826807399993411,0.02614906415987079,0.046279163767563136,-0.010082002273928258,0.05164950253738335,0.10288018014116149,-0.11340974700119516,-0.0254691000529702,-0.02728382137083245,-0.1280936881244626,-0.1286442704538107,-0.3087925550405626,0.23017906631138754
2808,11.830394899996463,0.02614906415987079,0.046279163767563136,-0.010082002273928258,0.05154100983701457,0.1027623914836957,-0.11394757285566104,-0.026008565092524565,-0.028581618682861736,-0.12711768440991916,-0.12730524945185895,-0.30702762535505734,0.23292495502090407
2809,11.83489539999573,0.026470971848580282,0.04681496401619316,-0.010692350619562183,0.05143025510888174,0.10263914854171055,-0.11448126059213776,-0.0265423440978746,-0.029871879334696292,-0.12613015996174062,-0.12594618085340342,-0.3052203281243404,0.2356447953040809
2810,11.840166699999829,0.027658154514272084,0.048243031807393116,-0.012435756638974333,0.051317262496319585,0.10251048349739218,-0.11501076187268222,-0.02707035310366371,-0.0311544255944468,-0.1251312254964814,-0.12456734024838301,-0.3033710695739481,0.23833817609676247
2811,11.844458999999915,0.027779556101221223,0.04886918314970966,-0.013115989308558177,0.05120205649414706,0.10237642927875955,-0.11553602882976949,-0.027592509315359146,-0.03242908146697572,-0.12412099345573892,-0.12316900781816048,-0.30148026411349593,0.2410046907898146
2812,11.848897399991984,0.02790390165427172,0.049342554182963155,-0.013770218059107782,0.051084661943690435,0.10223701955223098,-0.11605701407354418,-0.028108731128495303,-0.03369567272817643,-0.12309957798714886,-0.12175146827071859,-0.2995483342312371,0.2436439373097313
2813,11.85285440000007,0.028188093817730037,0.049784394468048686,-0.014495986715719783,0.050965104027726076,0.10209228871504619,-0.11657367069899166,-0.02861893814764184,-0.03495402695879779,-0.12206709492504272,-0.12031501077452926,-0.29757571038675906,0.24625551819812452
2814,11.857114099999308,0.02834778077148359,0.050132104647908654,-0.015085891976088027,0.050843408265344094,0.1019422718875454,-0.11708595229302698,-0.02912305120509098,-0.036203973577806206,-0.121023661770772,-0.11885992889111326,-0.29556283090185365,0.24883904069007617
2815,11.860586099996,0.02834778077148359,0.050132104647908654,-0.015085891976088027,0.0507196005067341,0.10178700490530765,-0.11759381294150024,-0.02962099237925859,-0.037445343875277655,-0.119969397672704,-0.11738652050630825,-0.2935101418495965,0.2513941167913329
2816,11.86401359998854,0.02834778077148359,0.050132104647908654,-0.015085891976088027,0.050593706927894125,0.10162652431115082,-0.11809720723611651,-0.030112685012793707,-0.03867797104481211,-0.11890442340589377,-0.1158950877602647,-0.29141809694167164,0.2539203633543231
2817,11.869724299991503,0.029421961891329874,0.051553662504203755,-0.016569494312971857,0.05046575402526404,0.10146086734699557,-0.11859609028126902,-0.030598053730391137,-0.03990169021546327,-0.11782886135143782,-0.11438593697618918,-0.28928715741397965,0.2564174021529758
2818,11.874115699989488,0.029776195743778797,0.05192835650497048,-0.017024934034370068,0.050335768610285145,0.10129007194559583,-0.11909041770078468,-0.031077024456301817,-0.04111633848317651,-0.11674283547551456,-0.11285937858785448,-0.28711779191056824,0.2588848599563215
2819,11.877880999993067,0.029776195743778797,0.05192835650497048,-0.017024934034370068,0.05020377780388688,0.10111417672213813,-0.1195801456445804,-0.03154952443153583,-0.0423217549417281,-0.11564647130811695,-0.1113157270658976,-0.28491047636592315,0.2613223686008571
2820,11.881146199986688,0.029776195743778797,0.05192835650497048,-0.017024934034370068,0.05006980903090198,0.1009332209657114,-0.12006523079522963,-0.032015482230752956,-0.04351778071315893,-0.11453989592148273,-0.10975530084292634,-0.282665693885658,0.2637295650616586
2821,11.884431099999349,0.029776195743778797,0.05192835650497048,-0.017024934034370068,0.04993389001441151,0.1007472446306503,-0.12054563037443834,-0.03247482777883585,-0.044704258977695956,-0.11342323790822789,-0.10817842223745637,-0.2803839346256416,0.2661060915222237
2822,11.888297299999977,0.030111614363671612,0.052285197431026,-0.017539716378119595,0.049796048770021174,0.1005562883277533,-0.12102130214942927,-0.03292749236714091,-0.04588103500315501,-0.11229662735918843,-0.10658541737670016,-0.27806569566960193,0.26845159544302866
2823,11.892410499989635,0.031272247219387136,0.05347733870935413,-0.01931358684185369,0.049656313600070466,0.10036039331537794,-0.12149220443923296,-0.033373408669422164,-0.04704795617381842,-0.11116019584097506,-0.1049766161182293,-0.2757114809052452,0.2707657296287838
2824,11.896456799993755,0.03185865249141326,0.05405219935098106,-0.01987672362057357,0.049514713087776,0.10015960149041536,-0.12195829612088427,-0.033812510757423,-0.0482048720187815,-0.11001407637324684,-0.10335235197053293,-0.27332180089892927,0.2730481522943717
2825,11.900649599992905,0.03259011856464891,0.05445919781283514,-0.02033390925154209,0.049371276091310624,0.09995395537914688,-0.12241953663552292,-0.03424473411613123,-0.04935163423976193,-0.10885840340570938,-0.10171296201249563,-0.2708971727689304,0.27529852712945324
2826,11.904741299993477,0.03266359503191688,0.05488102289685432,-0.02110533800218144,0.04922603173781988,0.0997434981279849,-0.12287588599439683,-0.034670015658692765,-0.05048809673836621,-0.10769331279484262,-0.1000587868118188,-0.26843812005734435,0.2775165233617275
2827,11.908926099989912,0.03299590687567429,0.05533412834478749,-0.021683879721398104,0.04907900941737702,0.09952827349410101,-0.12332730478476639,-0.0350882937409797,-0.05161411564280776,-0.10651894178036427,-0.09839017034240956,-0.26594517260066075,0.2797018158188309
2828,11.912301199990909,0.03299590687567429,0.05533412834478749,-0.021683879721398104,0.04893023877687838,0.09930832583594332,-0.12377375417570831,-0.03549950817580819,-0.05272954933407128,-0.10533542896143436,-0.09670745990076192,-0.26341886639905104,0.2818540849888632
2829,11.915665399996216,0.033257908375466896,0.055770563735416306,-0.022393222461111258,0.04877974971388044,0.09908370010364467,-0.12421519592381829,-0.03590360024680204,-0.0538342584715179,-0.10414291427260762,-0.095011006021355,-0.2608597434844099,0.283973017079527
2830,11.91931329999352,0.033257908375466896,0.055770563735416306,-0.022393222461111258,0.04862757237037977,0.09885444182932437,-0.12465159237881107,-0.03630051272189749,-0.054928106017926,-0.10294153895953899,-0.0933011623910933,-0.25826835178718843,0.28605830407586813
2831,11.923485299994354,0.034007461577695464,0.05685939397237991,-0.023851395040600746,0.048473737126537526,0.0986205971172858,-0.12508290648901607,-0.03669018986648542,-0.05601095726396257,-0.10173144555444773,-0.09157828576281503,-0.25564524500205976,0.28810964379660586
2832,11.927750299990294,0.034557605898158705,0.05784762681670335,-0.025221573079313105,0.04831827459434982,0.09838221263411276,-0.1255091018067674,-0.03707257745618676,-0.05708267985208,-0.10051277785134642,-0.0898427358678942,-0.2529909824524576,0.29012673994904
2833,11.932627499991211,0.034695869569498,0.05830195259148166,-0.025995429016933285,0.04816121561126547,0.09813933559866685,-0.1259301424936871,-0.03744762278925752,-0.058143143799833666,-0.09928568088104087,-0.08809487532796295,-0.2503061289540301,0.29210930218252296
2834,11.93843859998742,0.03476815813898448,0.05869442790586123,-0.02659541647593896,0.048002591233752535,0.0978920137719881,-0.12634599332586036,-0.03781527469861975,-0.05919222152261579,-0.0980503008859065,-0.08633506956578052,-0.24759125467705057,0.2940570461404868
2835,11.942261799995322,0.03490833984420633,0.05923217912855164,-0.02727657887427655,0.04784243273081534,0.09764029544710173,-0.1267566196989019,-0.038175483563514856,-0.06022978785580166,-0.0968067852944474,-0.08456368671527564,-0.24484693500782723,0.29596969351101404
2836,11.9457024000003,0.03490833984420633,0.05923217912855164,-0.02727657887427655,0.04768077157746345,0.09738422943873291,-0.12716198763291311,-0.038528201320776015,-0.06125572007630446,-0.09555528269564424,-0.08278109753079009,-0.24207375040915166,0.2978469720759431
2837,11.94964199999231,0.03490833984420633,0.05923217912855164,-0.02727657887427655,0.04751763944813397,0.09712386507293189,-0.12756206377732937,-0.03887338147571626,-0.06226989792353484,-0.09429594281309742,-0.0809876752955507,-0.23927228627982644,0.2996886157584961
2838,11.95321339998918,0.03502327814621604,0.05956233530747164,-0.028012562638116013,0.04735306821006864,0.09685925217661213,-0.12795681541565693,-0.03921097911262934,-0.06327220361976148,-0.09302891647897225,-0.07918379572939743,-0.23644313281331208,0.30149436466942275
2839,11.956554899996265,0.03502327814621604,0.05956233530747164,-0.028012562638116013,0.04718708991664731,0.09659044106700426,-0.12834621047009848,-0.03954095090490035,-0.06426252188986943,-0.09175435560775297,-0.07736983689579514,-0.2335868848555347,0.30326396515165044
2840,11.960959399992134,0.03565508525261775,0.06056424178344563,-0.03001584809139774,0.047019736800679224,0.09631748254102826,-0.12873021750606667,-0.03986325512472286,-0.06524073998051272,-0.0904724131698117,-0.07554617910815793,-0.23070414176189533,0.3049971698234335
2841,11.96540109999478,0.03609128286254058,0.0610501316619343,-0.031385669104601305,0.04685104126765395,0.09604042786458701,-0.12910880573658481,-0.04017785165241982,-0.06620674767865813,-0.08918324316479903,-0.07371320483551448,-0.22779550725352177,0.3066937376199948
2842,11.968926299989109,0.03609128286254058,0.0610501316619343,-0.031385669104601305,0.046681035888953594,0.09575932876178371,-0.1294819450265733,-0.04048470198536524,-0.06716043732951703,-0.08788700059486264,-0.07187129860754322,-0.22486158927280375,0.30835343383365255
2843,11.97253329999512,0.03609128286254058,0.0610501316619343,-0.031385669104601305,0.046509753395027824,0.09547423740406576,-0.1298496058970212,-0.04078376924650403,-0.0681017038538627,-0.08658384143770034,-0.07002084691900622,-0.22190299983825226,0.30997603015242675
2844,11.978274499997497,0.036977092250458365,0.06170823083406899,-0.03339020027639233,0.046337226668533245,0.09518520639929788,-0.13021175952904268,-0.041075018192467776,-0.06903044476473019,-0.085273922619454,-0.0681622381336109,-0.21892035489872458,0.31156130469711973
2845,11.982243599995854,0.037300916072493084,0.061956870612879175,-0.034073974505007903,0.04616348873743888,0.09489228878076662,-0.13056837776781663,-0.041358415221283945,-0.06994656018349632,-0.08395740198745037,-0.06629586238732951,-0.2159142741870573,0.31310904205686635
2846,11.986517799989088,0.03752929749852934,0.0621222158362758,-0.03478528570987309,0.04598857276809929,0.09459553799611863,-0.13091943312640944,-0.041633928379676256,-0.07084995285533738,-0.08263443828279539,-0.0644221114912059,-0.21288538107314875,0.314619033323149
2847,11.990528199996334,0.03788628295880254,0.06228263458378029,-0.03550635895667217,0.045812512058297,0.09429500789623552,-0.1312648987894811,-0.04190152736995405,-0.07174052816406266,-0.08130519111282855,-0.06254137883367976,-0.2098343024165326,0.31609107612227194
2848,11.994707499994549,0.038216753015832175,0.06244071406033265,-0.03627604280142419,0.04563534003025593,0.09399075272404792,-0.13160474861687363,-0.04216118355648859,-0.07261819414632194,-0.07996982092344355,-0.06065405928245839,-0.2067616684184842,0.3175249746462935
2849,11.998776799999176,0.0385579933881302,0.06266510416194343,-0.036979756508747054,0.045457090223627324,0.09368282710329155,-0.13193895714708087,-0.042412869971774514,-0.073482861505185,-0.07862848897128155,-0.05876054908596601,-0.20366811247369979,0.3189205396824131
2850,12.00285509999958,0.03893834153876447,0.06285792555345311,-0.037722847541242915,0.04527779628844999,0.09337128602720896,-0.1322674996005993,-0.04265656132207467,-0.0743344436230918,-0.07728135729580338,-0.05686124577440079,-0.20055427102158882,0.320277588640811
2851,12.00702309999906,0.03933442123262037,0.06300872501716934,-0.03846398980150328,0.04509749197808673,0.09305618484719926,-0.13259035188315907,-0.0428922339926468,-0.07517285657417162,-0.07592858869124745,-0.05495654806043047,-0.19742078339722055,0.3215959455809383
2852,12.011203399990336,0.039600913505993963,0.06317019631894681,-0.0392233940994639,0.04491621114213881,0.09273757926141919,-0.1329074905888349,-0.04311986605255066,-0.07599801913593024,-0.07457034667847987,-0.053046855739556954,-0.1942682916819651,0.32287544123625367
2853,12.015680399999836,0.03998299033745112,0.06343538837890607,-0.04001376986987842,0.04473398771934032,0.09241552530333833,-0.13321889300303602,-0.04333943725903431,-0.07680985280030378,-0.07320679547674337,-0.05113256959018084,-0.19109744055386918,0.32411591303740744
2854,12.019839899992805,0.040381831802666704,0.06373216892401053,-0.04080169483119357,0.04455085573043425,0.09209007933025101,-0.13352453710537457,-0.043550929061498656,-0.07760828178407864,-0.07183809997531192,-0.04921409127339677,-0.18790887713780582,0.3253172051338717
2855,12.023534899999504,0.040381831802666704,0.06373216892401053,-0.04080169483119357,0.04436684927103194,0.09176129801174797,-0.13382440157241277,-0.04375432460503883,-0.0783932330386769,-0.07046442570505719,-0.047291823232551024,-0.18470325085543832,0.32647916841401725
2856,12.027789599989774,0.04057721118405217,0.06402247859654715,-0.04164850735522835,0.0441820025044579,0.0914292383181503,-0.13411846578028902,-0.04394960873356167,-0.07916463625930703,-0.06908593880993377,-0.045366168592592064,-0.18148121327503763,0.32760166052363743
2857,12.032008899986977,0.04115245209475139,0.06452146941659612,-0.04323937140149429,0.04399634965458175,0.09109395750890872,-0.13440670980722338,-0.04413676799247858,-0.07992242389347938,-0.06770280601838961,-0.043437531059245436,-0.17824341796119259,0.32868454588292173
2858,12.036364999992657,0.04131806803751089,0.06483542566472097,-0.044068919722641,0.043809924998639206,0.09075551312097016,-0.13468911443590137,-0.04431579063097316,-0.08066653114888642,-0.06631519461470864,-0.041506314818044385,-0.17499052032445195,0.3297276957018815
2859,12.040750099986326,0.041542925955519616,0.06512470519264153,-0.044931300205674964,0.04362276286004377,0.09041396295711426,-0.13496566115573483,-0.04448666660384299,-0.08139689600064776,-0.064923272410292,-0.0395729244332475,-0.17172317747093754,0.3307309879942296
2860,12.045374199995422,0.04182501594938874,0.06543798732348399,-0.04573896607388704,0.04343489760119104,0.09006936507426284,-0.13523633216499928,-0.0446493875729149,-0.08211345919791999,-0.06352720771488483,-0.037637764746674685,-0.16844204805196653,0.33169430758971774
2861,12.04896399998688,0.04189217096065598,0.06562976335853964,-0.046598924545479564,0.04324636361625774,0.08972177777176493,-0.13550111037284704,-0.04480394690803342,-0.08281616426987137,-0.062127169307755116,-0.0357012407764926,-0.16514779211372196,0.3326175461449355
2862,12.053001199994467,0.04208876330558181,0.06584323343079299,-0.0474125062846326,0.04305719532399711,0.0893712595796599,-0.1357599794011965,-0.04495033968762201,-0.08350495753102163,-0.06072332640883134,-0.0337637576159809,-0.16184107094701017,0.33350060215257726
2863,12.05756579998706,0.04189586958661128,0.06634155489761198,-0.04832226743394981,0.04286742716053249,0.08901786924692087,-0.1360129235864977,-0.045088562698817294,-0.08417978808594719,-0.059315848649805145,-0.03182572033231066,-0.15852254693714152,0.33434338094918115
2864,12.061041199995088,0.04189586958661128,0.06634155489761198,-0.04832226743394981,0.04267709357215068,0.08866166572968116,-0.13625992798137468,-0.045218614437176,-0.0848406078333524,-0.057904906045205214,-0.029887533865366706,-0.15519288341397217,0.33514579472134587
2865,12.065274799999315,0.041985767382380045,0.06662424680596585,-0.049054679515287455,0.0424862290080971,0.08830270817944667,-0.13650097835614472,-0.04534049510595481,-0.08548737146950768,-0.05649066896344904,-0.027949602926644935,-0.15185274450214342,0.3359077625104318
2866,12.0699225999997,0.04210564884920066,0.06705281030046943,-0.050637572673961406,0.04229486791337427,0.08794105593129715,-0.13673606120021486,-0.04545420661496336,-0.08612003649105551,-0.05507330809787945,-0.02601233189825625,-0.14850279497155539,0.3366292102157504
2867,12.075557599993772,0.04228943592649982,0.06711984260887065,-0.05125838621503147,0.04210304472154556,0.08757676849207861,-0.1369651637233563,-0.04555975257899107,-0.08673856319718562,-0.053652994437792464,-0.024076124732068473,-0.1451437000881113,0.3373100705962488
2868,12.079377399990337,0.04237412575319092,0.06745520352760856,-0.05208173588832024,0.041910793847546195,0.08720990552858955,-0.13718827385685636,-0.0456571383158085,-0.08734291469118052,-0.05222989923946273,-0.022141384849017533,-0.14177612546476862,0.33795028327069593
2869,12.082884299990836,0.042488849224980675,0.0676047739756102,-0.05283064623564719,0.04171814968050345,0.08684052685576386,-0.1374053802545488,-0.045746370843743896,-0.08793305688133321,-0.05080419399717287,-0.020208515038619163,-0.13840073691293156,0.3385497947163771
2870,12.086473799994565,0.04292827183226062,0.06748562356730686,-0.05335344644231679,0.04152514657656774,0.08646869242485296,-0.13761647229372193,-0.045827458878835756,-0.08850895848123855,-0.04937605041425293,-0.018277917358712314,-0.13501820029422062,0.3391085582663064
2871,12.090484799991827,0.0432579682981019,0.06755469686748614,-0.05397825671551748,0.04133181885175657,0.08609446231160997,-0.137821540075905,-0.045900412831562515,-0.08907059100946067,-0.0479456403741365,-0.0163499930354653,-0.13162918137265295,0.3396265341049667
2872,12.094207999994978,0.0432579682981019,0.06755469686748614,-0.05397825671551748,0.04113820077481303,0.08571789670447848,-0.1380205744275327,-0.045965244803150514,-0.08961792878857905,-0.04651313591143981,-0.01442514236367556,-0.12823434566726785,0.3401036892625826
2873,12.098730799989426,0.04341189371015988,0.06797417819375666,-0.05552232269917095,0.040944326560080575,0.08533905589278817,-0.13821356690048825,-0.04602196858146145,-0.09015094894361565,-0.0450787091830702,-0.01250376460739382,-0.1248343583052308,0.34053999760793596
2874,12.103100699998322,0.04310279592038012,0.06840576858141152,-0.05643336751867839,0.040750230360395864,0.08495800025496049,-0.1384005097725257,-0.04607059963646085,-0.09066963139984527,-0.04364253243937013,-0.010586257900903263,-0.12142988387544927,0.34093543983973157
2875,12.10732119999011,0.04311778482816058,0.06860379496790227,-0.05698722826792321,0.04055594626000146,0.08457479024672694,-0.13858139604757178,-0.046111155115269,-0.09117395887999173,-0.042204777995303006,-0.008673019150084253,-0.1180215862827338,0.34129000347652344
2876,12.111462299988489,0.043200760662449544,0.06882607452039226,-0.05774028750288344,0.04036150826747994,0.0841894863893626,-0.13875621945590827,-0.046143653836796035,-0.09166391690081256,-0.0407656182016868,-0.006764443934194979,-0.11461012860253696,0.3416036828452115
2877,12.115576299998793,0.043310707117591364,0.06896591594667212,-0.05849284121476391,0.04016695030871136,0.08380214925793691,-0.13892497445423474,-0.04616811628596323,-0.09213949376907458,-0.03932522541648152,-0.004860926408098219,-0.1111961729363023,0.34187647906811913
2878,12.119880299986107,0.043904972063230574,0.06895820704011389,-0.059186891917585395,0.039972306219855744,0.0834128394695842,-0.13908765622561195,-0.04618456460751212,-0.09260068057692379,-0.03788377197613654,-0.002962859204964157,-0.10778038026745547,0.34210840004866355
2879,12.125253799997154,0.04419451263261715,0.06918282515864072,-0.0599897641270526,0.03977760974036239,0.08302161767179664,-0.1392442606792863,-0.046193022599403805,-0.0930474711966525,-0.03644143016700381,-0.001070633339479034,-0.10436341031806845,0.3422994604556299
2880,12.12967629999912,0.044250075531707435,0.06944256969470976,-0.06082955938704449,0.03958289450600784,0.08262854453074249,-0.139394784450396,-0.046193515705810276,-0.09347986227486728,-0.03499837219682288,0.0008153618884108141,-0.10094592140622818,0.3424496817060616
2881,12.133930899988629,0.04433711868218382,0.06963099269747328,-0.061529704015887275,0.03938819404196412,0.08223368071961192,-0.13953922489955914,-0.04618607100970029,-0.09389785322606059,-0.03355477016628348,0.00269473898919015,-0.09752857030413994,0.34255909194677764
2882,12.138037099997746,0.044461940203097024,0.06980270921069125,-0.062245111206756264,0.0391935417558987,0.08183708690699276,-0.13967758011234427,-0.04617071722502208,-0.09430144622558975,-0.032110796040671484,0.004567112378872097,-0.09411201209699538,0.3426277260345319
2883,12.141630799989798,0.04461259317252466,0.07007931874380016,-0.06308778655469278,0.03899897093110801,0.08143882374527854,-0.13980984889862375,-0.046147484688485486,-0.09469064620206598,-0.030666621621604162,0.006432098473472543,-0.09069690004263499,0.3426556255148262
2884,12.14533259999007,0.04470074258918965,0.07034977853881692,-0.06389084960674209,0.03880451471968619,0.08103895185911122,-0.13993603079180963,-0.046116405350946105,-0.09506546082915729,-0.029222418518860652,0.008289315782833012,-0.08728388543203447,0.3426428385993893
2885,12.150603299989598,0.04487490848315397,0.07060667759340063,-0.06455019186381869,0.03861020613573096,0.08063753183386135,-0.14005612604797213,-0.04607751276839396,-0.09542590051680881,-0.027778358122313104,0.010138385003763599,-0.08387361745064362,0.3425894201423358
2886,12.154704299988223,0.04493696065965336,0.07080933382046971,-0.06532515209207787,0.03841607804858817,0.08023462420414766,-0.1401701356448406,-0.04603084209254965,-0.09577197840188414,-0.026334611573963954,0.01197892911247782,-0.08046674304060616,0.3424954316150177
2887,12.15842779999366,0.04500848910665483,0.07107744117106224,-0.0661344782394834,0.03822216317613675,0.07983028944239808,-0.14027806128068784,-0.04597643006107093,-0.09610371033823208,-0.024891349740094652,0.01381057345629153,-0.07706390676388825,0.34236094107958187
2888,12.162169099989114,0.04509760945222333,0.07141076494566777,-0.06688632271328829,0.03802849407811591,0.07942458794745415,-0.1403799053730977,-0.045914314987372896,-0.0964211148861831,-0.023448743183531236,0.015632945844558356,-0.07366575066634296,0.34218602316124486
2889,12.165583699999845,0.045068429663998065,0.07165777410558144,-0.06755990297593785,0.03783510314949584,0.07901758003322092,-0.14047567105761707,-0.04584453675006492,-0.09672421330148007,-0.022006962136032045,0.017445676638814363,-0.07027291414273816,0.3419707590193025
2890,12.169103899999756,0.045068429663998065,0.07165777410558144,-0.06755990297593785,0.03764202261389358,0.07860932591736484,-0.1405653621862928,-0.045767136782007625,-0.09701302952364742,-0.020566176470802926,0.019248398842105014,-0.06688603380277419,0.341715236316888
2891,12.17365179999615,0.04488111509802377,0.07197067381886425,-0.06842698059759204,0.03744928451703571,0.07819988571006214,-0.140648983326093,-0.04568215805899334,-0.09728759016380371,-0.019126555675145297,0.021040748187467845,-0.06350574333811732,0.34141954918949374
2892,12.179952299993602,0.04506271120392934,0.0726080673819826,-0.06967240278795292,0.03725692072026951,0.07778931940279983,-0.14072653975721314,-0.045589645088053736,-0.09754792449192183,-0.017688268823242308,0.02282236322554459,-0.06013267339047481,0.3410837982122725
2893,12.1834106999886,0.04506271120392934,0.0726080673819826,-0.06967240278795292,0.03706496289412418,0.07737768685723209,-0.14079803747126868,-0.04548964389539859,-0.0977940644235412,-0.016251484549088265,0.024592885411296925,-0.056767451420737434,0.340708090366132
2894,12.18694929999765,0.04485615534009789,0.07281827668013172,-0.07039498052876904,0.03687344251192371,0.07696504779409412,-0.1408634831693736,-0.04538220201398915,-0.09802604450593708,-0.014816371019566394,0.02635195918980026,-0.053410701579214015,0.3402925390026366
2895,12.192491899986637,0.044920795993779426,0.07339275366832321,-0.07160739534642505,0.03668239084345261,0.07655146178217581,-0.1409228842601069,-0.045267368470749865,-0.09824390190375173,-0.013383095907679908,0.02809923208109044,-0.0500630445769822,0.3398372638077357
2896,12.19646659999853,0.04494008810632932,0.073674814269987,-0.07216738985451834,0.03649183894867618,0.07613698822735748,-0.1409762488573669,-0.04514519377342257,-0.09844767638409233,-0.011951826365941314,0.029834354764038548,-0.04672509755837917,0.3393423907643326
2897,12.200462799999514,0.04490309635569486,0.07395720293555606,-0.0727147987596043,0.036301817671516655,0.07572168636170984,-0.14102358577811508,-0.045015729897067126,-0.09863741030110049,-0.010522728999924758,0.03155698115922924,-0.043397473974655446,0.33880805211371195
2898,12.204121099988695,0.044869281821186296,0.0741779217595884,-0.07328900994413504,0.03611235763368674,0.07530561523266055,-0.14106490454001,-0.044879030270212915,-0.09881314857999854,-0.00909596984198624,0.03326676851081872,-0.04008078345881453,0.3382343863158401
2899,12.207554099994011,0.0448709840795444,0.0744042018136119,-0.07388268205576547,0.03592348922858203,0.07488883369222982,-0.1411002153589329,-0.044735149760665456,-0.09897493870061744,-0.007671714325156388,0.03496337746734865,-0.03677563170166063,0.33762153800855405
2900,12.21136599998863,0.044896390874859776,0.07458473347826144,-0.07441119434394063,0.03573524261523377,0.07447140038633715,-0.1411295291464055,-0.044584144660972644,-0.09912283068041136,-0.006250127257210428,0.03664647216149251,-0.0334826203290764,0.3369696579656589
2901,12.21674359998724,0.04488480034430021,0.07474260961459299,-0.07491113924605937,0.035547647712323445,0.0740533737441814,-0.14115285750690015,-0.044426072673555,-0.09925687705696427,-0.0048313727949199385,0.03831572028871189,-0.03020234678055213,0.33627890305395103
2902,12.220836099993903,0.044903800424646,0.07485697385847773,-0.07540567869199466,0.03536073419226088,0.07363481196769643,-0.14117021273504285,-0.04426099289550462,-0.09937713286999371,-0.003415614418490835,0.039970793184800166,-0.026935404188987128,0.33554943618918354
2903,12.224245999997947,0.04501073753130267,0.074952236522649,-0.07594422839076459,0.03517453147532703,0.07321577302108437,-0.14118160781270972,-0.04408896580305765,-0.09948365564285687,-0.0020030149061919414,0.04161136590229173,-0.023682381261784097,0.3347814262909916
2904,12.227977099988491,0.04508918864336492,0.0750141853451267,-0.0765240662862937,0.03498906872388295,0.07279631462042835,-0.1411870564060172,-0.04391005323574501,-0.09957650536356476,-0.0005937363091784776,0.04323711728571537,-0.02044386216325638,0.33397504823679625
2905,12.232161199994152,0.0452113419871573,0.0750759323744067,-0.07701310160151675,0.034804374836646286,0.07237649422338648,-0.1411865728622064,-0.04372431838022645,-0.09965574446530977,0.0008120600734853722,0.044847730045670775,-0.017220426398367784,0.33313048281470325
2906,12.23760099998617,0.045335383407329934,0.07512498035226843,-0.07747020310391282,0.03462047844303672,0.0719563690189692,-0.14118017220642276,-0.04353182575381297,-0.09972143780651253,0.002214213719600654,0.046442890831707634,-0.01401264869782415,0.33224791667541487
2907,12.241642399996636,0.04549841952059145,0.07518132832684547,-0.07799935167822365,0.03443740789759173,0.07153599591740212,-0.14116787013839222,-0.04333264118768311,-0.09977365265039438,0.0036125649084005405,0.048022290303986755,-0.010821098904535453,0.3313275422831725
2908,12.245257399990804,0.04564471872620434,0.07517220599009543,-0.07858549642957831,0.034255191274453776,0.07111543154007663,-0.14114968302899447,-0.04312683180979814,-0.09981245864408127,0.005006954744905952,0.049585623203703584,-0.0076463418614665735,0.33036955786574945
2909,12.249810799999976,0.04576197861564665,0.0751401909573343,-0.0792122931071942,0.0340738563619302,0.07069473220959009,-0.14112562791673422,-0.042914466027521185,-0.09983792779724542,0.006397225184065997,0.05113258842225456,-0.004488937300894575,0.32937416736351194
2910,12.25331179999921,0.04590681630767104,0.07517300619865305,-0.07980239978240725,0.03389343065712732,0.07027395393987741,-0.14109572250411123,-0.04269561350994577,-0.09985013446029022,0.007783219054679425,0.05266288906912751,-0.001349439735089831,0.3283415803775692
2911,12.2571520999918,0.04590681630767104,0.07517300619865305,-0.07980239978240725,0.03371394136066,0.069853152426436,-0.1410599851538902,-0.042470345169939194,-0.09984915530208437,0.00916478008309337,0.05417623253849797,0.0017716016515620207,0.32727201211703194
2912,12.261236499994991,0.04599283638374131,0.07522965153773635,-0.0804183859788543,0.033535415371437935,0.06943238303664549,-0.14101843488527074,-0.04223873314590628,-0.09983506928725092,0.010541752916675733,0.055672330574513595,0.004873643108980771,0.32616568334540014
2913,12.265416599999298,0.04628422028339528,0.07530593651793861,-0.08166612802124508,0.03335787928152983,0.06901170080018387,-0.14097109136995803,-0.04200085078327947,-0.09980795765301739,0.011913983147057654,0.057150899335249146,0.00795614642633888,0.3250228203261023
2914,12.269685699997352,0.0463494073213607,0.07534181720324538,-0.0823218104341145,0.03318135937110661,0.06859116039954184,-0.1409179749281354,-0.041756772615740914,-0.09976790388563325,0.013281317333142579,0.058611659455315615,0.011018579035519583,0.32384365476720584
2915,12.273760299998685,0.04645642198297848,0.07543721774872568,-0.08291457003157159,0.0330058816034648,0.06817081616063761,-0.14085910652434036,-0.04150657434618245,-0.09971499369636101,0.014643603023878616,0.06005433610710707,0.014060414113070626,0.32262842376531864
2916,12.278520199994093,0.046482826823008604,0.07553052525825318,-0.0835239101939739,0.032831471620131066,0.06775072204353391,-0.1407945077632452,-0.04125033282740915,-0.09964931499704728,0.01600068878079088,0.06147865906066959,0.01708113068063879,0.3213773697487015
2917,12.28219079998962,0.04647682053421679,0.07564634830488587,-0.08419150801926477,0.032658154736049,0.0673309316332584,-0.14072420088534307,-0.04098812604259235,-0.09957095787528031,0.017352424200270635,0.06288436274217725,0.02008021370387071,0.3200907404196096
2918,12.286244299990358,0.0464644795562498,0.07577862851841038,-0.08481971828682922,0.03248595593484911,0.06691149813072941,-0.14064820876253972,-0.04072003308547788,-0.09948001456914028,0.018698659935618155,0.06427118629100038,0.023057154189766074,0.31876878869588243
2919,12.290445299993737,0.04641377081905948,0.07594723025030545,-0.08542014477362063,0.032314899864203064,0.0664924743437885,-0.1405665548936522,-0.04044613414035558,-0.09937657944154923,0.02003924771883621,0.06563887361535173,0.026011449282469495,0.31741177265180137
2920,12.294691199989757,0.046350756798304034,0.0760876592771342,-0.08598406326267233,0.03214501083126313,0.06607391267834109,-0.14047926339981523,-0.04016651046179641,-0.09926074895422755,0.02137404038217125,0.06698717344649707,0.028942602357487943,0.31601995545823675
2921,12.298865799995838,0.04633006392615306,0.0762581683021157,-0.08655780779343929,0.03197631279818778,0.06565586512960715,-0.14038635901979743,-0.03988124435416282,-0.0991326216412638,0.022702891879399546,0.06831583939151713,0.0318501231143208,0.3145936053221046
2922,12.303094399991096,0.046155843417954034,0.07643098960329404,-0.08719328999744057,0.03180882937775437,0.06523838327348319,-0.1402878671052277,-0.03959041915089871,-0.09899229808230468,0.024025657306855394,0.06962462998460786,0.034733527667490015,0.31313299542515266
2923,12.307269599987194,0.04605447053086479,0.07659817253771169,-0.08776538974440386,0.031642583829059934,0.06482151825801745,-0.14018381361573326,-0.039294119193604975,-0.09883988087537185,0.02534219292419872,0.0709133087369072,0.03759233863595843,0.3116384038620948
2924,12.310597699994103,0.04605447053086479,0.07659817253771169,-0.08776538974440386,0.03147759905331093,0.06440532079500019,-0.14007422511398884,-0.03899242981090714,-0.09867547460931209,0.026652356174919397,0.07218164418483669,0.0404260852309243,0.31011011357811513
2925,12.314248999988196,0.04605447053086479,0.07659817253771169,-0.08776538974440386,0.03131389758970278,0.06398984115167046,-0.13995912876067834,-0.03868543729712126,-0.09849918583588815,0.027956005706575787,0.07342940993694727,0.04323430334198074,0.3085484123057616
2926,12.319485099986196,0.045829509935615895,0.07708455035491203,-0.08925760009671807,0.031151501611389694,0.06357512914254086,-0.13983855230937092,-0.03837322889072443,-0.09831112304151725,0.029253001390765063,0.07465638471925856,0.04601653562162886,0.3069535925012486
2927,12.323692899997695,0.04569456707746888,0.07719710041034462,-0.08983623325995453,0.030990432921545682,0.06316123412134196,-0.13971252410131313,-0.03805589275263641,-0.09811139661866462,0.030543204342822816,0.07586235241908229,0.04877233156813413,0.30532595128018747
2928,12.327945400000315,0.04560150786042237,0.07731118880956911,-0.09037486543177682,0.030830712949517544,0.0627482049730879,-0.1395810730601372,-0.03773351794431904,-0.09790011883689947,0.03182647694124955,0.07704710212732097,0.05150124760671572,0.3036657903527619
2929,12.331992199993692,0.04554453029573325,0.07745475988469394,-0.09089915952014051,0.030672362747070695,0.06233609010626463,-0.13944422868648768,-0.03740619440569984,-0.09767740381362014,0.03310268284686184,0.07821042817923297,0.05420284716905866,0.3019734159583711
2930,12.336118299994268,0.0454521832228643,0.07759581009762742,-0.091405874127322,0.03051540298472859,0.06192493744514159,-0.1393020210525679,-0.03707401293292642,-0.09744336748445546,0.034371687021665855,0.07935213019365632,0.05687670077113929,0.3002491387997606
2931,12.340438899991568,0.045363210933089114,0.0776975887577674,-0.09189332129468726,0.030359853948206592,0.06151479442220826,-0.1391544807966082,-0.03673706515595816,-0.0971981275733493,0.035633355747451134,0.08047201311068382,0.059522386089354624,0.29849327397666
2932,12.34467889998632,0.04524789299145501,0.07777209785998399,-0.09243273426419661,0.030205735534940784,0.061105707970736854,-0.13900163911725685,-0.0363954435160018,-0.09694180356233498,0.036887556644102426,0.08156988722778308,0.06213948803494686,0.2967061409189474
2933,12.34898679998878,0.04514489440874226,0.07787915780244281,-0.09299417864746926,0.03005306725071266,0.06069772451747222,-0.13884352776789463,-0.03604924124279773,-0.09667451666100711,0.03813415868762776,0.08264556823435498,0.06472759882671413,0.29488806331936146
2934,12.35307259998808,0.04509097607330264,0.07802047472839727,-0.09356157534514616,0.029901868206370235,0.06029088997545012,-0.13868017905087504,-0.03569855233176345,-0.0963963897756978,0.039373032227900964,0.08369887724472493,0.06728631806199961,0.293039369065779
2935,12.357238699987647,0.04506443064168163,0.07811844371153201,-0.09408266647586545,0.0297521571146462,0.059885249736945034,-0.13851162581169177,-0.035343471521000834,-0.09610754747836459,0.04060404900611678,0.08472964082956183,0.069815252785951,0.29116039017307777
2936,12.361355399989408,0.04501874492574465,0.07821290218523584,-0.09455685512896593,0.029603952287073826,0.05948084866654874,-0.13833790143307417,-0.03498409426817378,-0.09580811597519684,0.04182708217195696,0.08573769104572032,0.07231401755904261,0.28925146271460017
2937,12.36554499999329,0.04493606925909964,0.07825506758269625,-0.09514111332830551,0.029457271631000904,0.05907773109438054,-0.13815903982901354,-0.03462051672726291,-0.09549822307494737,0.043042006300465945,0.08672286546450135,0.07478223452285311,0.2873129267532377
2938,12.37012579999282,0.04483002584087131,0.07833940512007785,-0.09570765251733371,0.029312132646702137,0.058675940809430074,-0.1379750754387209,-0.03425283572520405,-0.09517799815699683,0.044248697408634796,0.08768500719832799,0.0772195334640923,0.28534512627215464
2939,12.373471399987466,0.04483002584087131,0.07833940512007785,-0.09570765251733371,0.02916855242459045,0.05827552105303409,-0.13778604322051738,-0.03388114873841753,-0.09484757213915805,0.04544703297169207,0.08862396492583345,0.07962555187687016,0.28334840910516823
2940,12.377971799985971,0.04466335804865645,0.07847386142800195,-0.0963441664267318,0.029026547642527732,0.05787651451248822,-0.13759197864565836,-0.03350555386923477,-0.09450707744522782,0.04663689193910028,0.08953959291535901,0.08199993502320176,0.2813231268668042
2941,12.382230499992149,0.044522383908640405,0.07869430148954937,-0.09724715081841707,0.028886134563235435,0.057478963314795135,-0.13739291769209236,-0.0331261498222295,-0.09415664797229346,0.04781815475025674,0.09043175104685987,0.08434233599174204,0.27926963488204665
2942,12.38639269999112,0.044365135599935754,0.07884665085989633,-0.09775539613591616,0.02874732903180521,0.0570829090205498,-0.13718889683815602,-0.03274303588046023,-0.09379641905780134,0.048990703349897656,0.09130030483221772,0.08665241575474482,0.27718829211579893
2943,12.390605999986292,0.04415770478144165,0.07896938516605412,-0.09832211504703314,0.028610146473309946,0.05668839261796303,-0.1369799530562068,-0.032356311881630836,-0.09342652744639438,0.050154421203204506,0.09214512543395934,0.08892984322324039,0.2750794611020741
2944,12.39460539999709,0.04397702714986989,0.07918459820474576,-0.09886610581306408,0.028474601890515535,0.056295454517023974,-0.1367661238061939,-0.03196607819417588,-0.09304711125652593,0.05130919331061154,0.09296608968238027,0.09117429530042691,0.2729435078729299
