,time,x,y,z,vx,vy,vz,ax,ay,az,jx,jy,jz
2387,11.651970799997798,0.02216377536325473,-0.025501037429932795,0.05379556843567353,-0.003855038617927473,-0.0011544685412137679,0.012160722418461547,0.044796297284658795,0.07652355248346555,-0.029061606330844755,0.13623400608619923,0.1712694118629677,-0.1390314564117129
2388,11.656217700001434,0.022144227795877998,-0.025492807150705295,0.053873016803095156,-0.0036343752397867,-0.0007782310914606032,0.012016968717969591,0.04546218504477975,0.07735909703306752,-0.029742371081806215,0.13614983767936253,0.17053356809719328,-0.13942166911882478
2389,11.660329799997273,0.02212706010913841,-0.0254785385415782,0.053912860931574255,-0.003410457187387197,-0.0003979174873332374,0.01186988179456294,0.04612760962189226,0.0781909690359699,-0.03042500408816476,0.13604508392234602,0.16976872448980487,-0.13979604671092152
2390,11.666146799994747,0.022119852558539415,-0.025454803182202525,0.05396782243151635,-0.003183286980775278,-1.3546067123088687e-05,0.011719452707470374,0.04679247021209527,0.07901902667771003,-0.031109427649117095,0.13591965893424202,0.168974821083298,-0.14015447493505234
2391,11.670792299992172,0.02213039763288388,-0.025431746994243304,0.05400568910690889,-0.002952867633624177,0.0003748641371918873,0.011565672897107587,0.047456665601015774,0.0798431278668776,-0.03179556351099884,0.13577347994593883,0.16815180268890584,-0.1404968415877309
2392,11.679749999995693,0.02220865990640096,-0.02539418329160851,0.054011682814457986,-0.002719202655195524,0.0007672933986945872,0.01140853418775087,0.048120094179043116,0.08066313025842936,-0.03248333287737606,0.13560646732982473,0.16729961893513132,-0.14082303654179223
2393,11.685992999991868,0.022270762842966037,-0.025320029890779763,0.05401020778387215,-0.0024822960522263007,0.001163721294390694,0.011248028790161414,0.04878265395670542,0.08147889127723487,-0.033172656419267844,0.13541854462911782,0.16641822431569592,-0.1411329517730866
2394,11.689743199996885,0.022280314357651824,-0.025273827140958396,0.05400372970836571,-0.0022421523307405893,0.0015641267041862227,0.011084149304159595,0.04944424258018626,0.08229026814185066,-0.033863454285499195,0.1352096385868125,0.16550757823688658,-0.1414264813870038
2395,11.697947299995576,0.022307806376999032,-0.025226637146711625,0.05400088783049464,-0.001998776497785434,0.0019684878099817268,0.010916888721148574,0.050104757346979646,0.08309711788851994,-0.03455564611318333,0.13497967917423306,0.1645676450642827,-0.1417035216448215
2396,11.702067699996404,0.02232316207256832,-0.02519284018348464,0.05400611998667687,-0.0017521740630901358,0.0023767820948842086,0.010746240426586546,0.050764095221681474,0.08389929739539514,-0.03524915103833257,0.13472859961918482,0.1635983941688448,-0.14196397098987099
2397,11.706186099996556,0.022338609783267488,-0.025170366824043576,0.05402481967103454,-0.0015023510406483303,0.0027889863425377527,0.010572198202407034,0.0514221528519157,0.08469666340697973,-0.03594388770659657,0.13445633643369412,0.16259979997234583,-0.14220773007351364
2398,11.710350599998492,0.02235214422305859,-0.025151611843871467,0.05406405960903559,-0.0012493139502221815,0.003205076636573892,0.010394756229386593,0.05207882658439349,0.08548907255878618,-0.03663977428412685,0.13416282944132746,0.16157184199212676,-0.1424347017809211
2399,11.714982799996504,0.02235845562133143,-0.02513974522603462,0.054081723658675036,-0.0009930698187680582,0.0036250283601826916,0.010213909089459312,0.052734012481103015,0.08627638140220689,-0.03733672846856667,0.13384802180407943,0.16051450488515717,-0.14264479125665303
2400,11.719072099993356,0.02235651179267968,-0.025134562038863828,0.054120408247379,-0.0007336261817830535,0.004048816195805508,0.010029651767977541,0.05338760633562796,0.0870584464295942,-0.0380346675001651,0.1335118600488199,0.15942777849138076,-0.1428379059300269
2401,11.722969599999487,0.022364093585195637,-0.025131554238351648,0.05415091695310357,-0.00047099108457172823,0.004476414124950364,0.009841979655918244,0.05403950368959232,0.08783512409954604,-0.03873350817301414,0.13315429409329116,0.158311657876327,-0.14301395554027363
2402,11.727900600002611,0.022337071517470188,-0.025143238534394433,0.05418137425594207,-0.00020517308343245938,0.0049077954281308706,0.009650888552034338,0.054689599849229505,0.08860627086239366,-0.03943316684640792,0.13277527727164548,0.15716614337296955,-0.1431728521614714
2403,11.731962000005296,0.022319396997922892,-0.025117118479346737,0.054207522295520394,6.381875323721006e-05,0.00534293268492965,0.009456374664950466,0.055337789902073165,0.08937174318588824,-0.04013355945632302,0.13237476635951378,0.15599124062281275,-0.14331451022725097
2404,11.73596859999816,0.022315494765610795,-0.025119268133683252,0.054238655566632564,0.0003359748439168141,0.005781797774187153,0.00925843461520258,0.055983968733767715,0.0901313975810829,-0.040834601527018795,0.13195272159859467,0.15478696061618685,-0.14343884655526584
2405,11.739984200001343,0.022315494765610795,-0.025119268133683252,0.054238655566632564,0.0006112850930213815,0.006224361874316755,0.009057065437220735,0.05662803104499654,0.09088509062840645,-0.04153620818275655,0.13150910672075503,0.15355331973173247,-0.1435457803714215
2406,11.745197199998074,0.022275787109623142,-0.025100111398025236,0.054267808984526884,0.0008897388900426001,0.006670595463746997,0.008852264581254488,0.057269871368525474,0.09163267900392462,-0.04223829415963622,0.13104388897163233,0.15229033977505443,-0.14363523333385658
2407,11.749364699993748,0.02225676360593613,-0.02506656115648148,0.054284504515173373,0.0011713251087732855,0.007120468321491792,0.00864402991524031,0.057909384086359615,0.09237401950578512,-0.04294077381754933,0.13055703913372918,0.1509980480165262,-0.14370712955666878
2408,11.756054099998437,0.02222089383562349,-0.024998616912747816,0.05432275431604891,0.0014560321066157047,0.007573949527849423,0.008432359726610422,0.058546463447010734,0.09310896908084242,-0.043643561152247046,0.1300485315489913,0.1496764772282246,-0.14376139563337864
2409,11.760505199999898,0.022213183355660505,-0.024940896389473537,0.05434043363721059,0.0017438477239742885,0.008031007465231142,0.008217252724042468,0.05918100358287264,0.09383738485145811,-0.04434656980752158,0.12951834414085822,0.14832566571997577,-0.14379796066012449
2410,11.764365900002304,0.022197520370429075,-0.024878326172681584,0.0543309833971518,0.002034759283733256,0.00849160981912013,0.007998708039149517,0.05981289852770195,0.09455912414247275,-0.04504971308749972,0.1289664584357783,0.14694565737449236,-0.1438167562585813
2411,11.768561200005934,0.022206657621589472,-0.024817209742994208,0.05433509025726333,0.0023287535908196634,0.008955723579161617,0.007776725228109881,0.06044204223420188,0.09527404450834485,-0.045752903969047166,0.12839285958417782,0.1455365016815832,-0.14381771659859613
2412,11.772735000005923,0.02221377723815425,-0.02475840318388323,0.05433676090014274,0.0026258169318523652,0.009423315040384872,0.007551304273236193,0.061068328591706626,0.09598200376045343,-0.04645605511428214,0.12779753638087443,0.14409825377141558,-0.14380077842053285
2413,11.777170100001968,0.02223651515967352,-0.02469356213323482,0.05433752459746485,0.0029259350748773788,0.009894349804557785,0.007322445584483213,0.06169165144396307,0.09668285999456012,-0.04715907888319675,0.12718048128492643,0.14263097444681086,-0.1437658810573197
2414,11.781432599993424,0.022246888842166117,-0.02464792207387541,0.05432623222877283,0.003229093269190124,0.010368792781674708,0.00709015000089383,0.062311904607007244,0.09737647161842622,-0.04786188734638466,0.12654169043890837,0.14113473021455286,-0.1437129664561919
2415,11.785264599995571,0.022240070049002515,-0.02460741866099563,0.0543345588527148,0.003535276245244999,0.01084660819157823,0.00685441879198274,0.06292898188713254,0.09806269737957968,-0.04856439229787353,0.12588116368760321,0.13960959331568878,-0.14364197920012273
2416,11.789395200001309,0.02224443244004707,-0.024568202274563692,0.05435250431284322,0.0038444682146527467,0.011327759565715467,0.006615253659057239,0.0635427770989469,0.09874139639322776,-0.04926650526806059,0.12519890459610153,0.13805564175480337,-0.14355286652893545
2417,11.794395799995982,0.022238329710700885,-0.024526253218801038,0.05439324553446585,0.004156652870266028,0.011812209749029542,0.006372656736474614,0.06415318408351636,0.09941242817031021,-0.04996813753675005,0.12449492046729717,0.13647295932824627,-0.14344557836008778
2418,11.798079600004712,0.022202913827458905,-0.024483279386143017,0.05440256012593079,0.004471813386353626,0.012299920901986918,0.00612663059283563,0.06476009672659234,0.10007565264568752,-0.05066920014629071,0.12376922235877018,0.13486163565129292,-0.14332006730912195
2419,11.802737499994691,0.02216750595328525,-0.024427861432079277,0.05440529876932549,0.004789932418863693,0.012790854502741136,0.005877178232113625,0.06536340897691961,0.10073093020645923,-0.05136960391481214,0.123021825099047,0.13322176618421844,-0.14317628870977261
2420,11.806502599996747,0.022147243093392204,-0.02437365211478182,0.05441501790169149,0.005110992105776418,0.013284971349433503,0.005624303094718734,0.06596301486462207,0.10137812172040674,-0.052069259449557405,0.1222527473032286,0.13155345225726525,-0.14301420063372458
2421,11.810260500002189,0.022115924715904685,-0.024323505199531043,0.054430799637440526,0.005434974067546515,0.013782231562631222,0.005368009058496774,0.06655880851966298,0.10201708856455535,-0.052768077160310664,0.12146201138797666,0.1298568010944851,-0.14283376391001198
2422,11.814468099997612,0.02206949528503333,-0.024258096156951146,0.05442867488590168,0.005761859407635897,0.014282594587903465,0.005108300439662319,0.06715068419037654,0.10264769265385036,-0.05346596727291801,0.12064964358584829,0.12813192583643657,-0.1426349421440513
2423,11.819039900001371,0.022035134576143662,-0.024187971108212702,0.054412280281024794,0.006091628713136908,0.014786019198535887,0.0048451819936655436,0.06773853626206795,0.10326979646994139,-0.054162839842899706,0.11981567395897083,0.126378945561718,-0.1424177017362997
2424,11.8233523999952,0.022026419078968334,-0.02411894552079702,0.05439766999990022,0.006424262055486435,0.015292463498384097,0.004578658915992395,0.06832225927567921,0.10388326309006952,-0.05485860476915217,0.11896013641204745,0.12459798530731722,-0.14218201190053006
2425,11.826947299996393,0.02200923552729613,-0.024039529204267572,0.05438065481524705,0.0067597389912712035,0.0158018849248666,0.0043087368428976714,0.06890174794651689,0.10448795621605149,-0.05555317180773768,0.11808306870468434,0.12278917608775905,-0.14192784468171518
2426,11.831018600001698,0.022008754191327962,-0.023935783250910878,0.05435496376897694,0.007098038563124573,0.016314240252097628,0.004035421852070591,0.06947689718303841,0.10508374020335466,-0.05624645058575975,0.11718451246303062,0.12095265491303182,-0.14165517497351243
2427,11.836204899998847,0.02201734808013738,-0.02386513390821501,0.054318678609963866,0.00743913930071508,0.016829485594160285,0.0037587204632324378,0.07004760210569375,0.10567048009025702,-0.056938350615322035,0.11626451319072145,0.11908856480527426,-0.14136398053534158
2428,11.844046600002912,0.02204620403665432,-0.02371743669502522,0.05427028999597587,0.007783019221827022,0.017347576408520343,0.003478639638665884,0.0706137580658193,0.1062480416270863,-0.05762878130756856,0.11532312027911563,0.11719705481420412,-0.14105424200904768
2429,11.848015499999748,0.0220351912713043,-0.023655828794696472,0.05424361131884569,0.00812965583353336,0.017868467499581132,0.0031951867836755776,0.07117526066458062,0.10681629130553288,-0.05831765198680298,0.11436038701681858,0.11527828003126997,-0.1407259429351419
2430,11.852361099998234,0.02204212563585108,-0.023590899318067057,0.054247744125928386,0.008479026133461133,0.018392113022379697,0.0029083697469795833,0.07173200577196076,0.10737509638803025,-0.059004871904684626,0.11337637059848164,0.11333240160250858,-0.14037906976861209
2431,11.856308999995235,0.022050072942255493,-0.023539854577474227,0.0542515009651242,0.008831106611149627,0.018918466486424396,0.002618196821031309,0.07228388954579058,0.10792432493719652,-0.05969035025449885,0.11237113213286953,0.11135958674008993,-0.14001361189429531
2432,11.860202800002298,0.022042627186025593,-0.023480665963568365,0.05426099584700029,0.009185873249501448,0.019447480759674337,0.0023246767422715284,0.0728308084508181,0.10846384584533042,-0.060373996185499164,0.11134473665018814,0.10936000873253221,-0.13962956164180465
2433,11.8646155000024,0.022036421010646526,-0.023424421094292287,0.05425424877482551,0.00954330152632671,0.019979108072660994,0.002027818691310137,0.07337265927781339,0.10899352886395529,-0.061055718817319124,0.11029725310866424,0.10733384695356953,-0.13922691430000145
2434,11.869035199997596,0.022038267247666686,-0.023374377911370096,0.05423499387542908,0.009903366415980525,0.02051330002275227,0.0017276322930373064,0.07390933916270505,0.10951324463340414,-0.06173542725445166,0.10922875440036858,0.10528128686965496,-0.1388056681310049
2435,11.874842399993211,0.022030240145470826,-0.023314561121870917,0.05421511218919762,0.010266042391093959,0.0210500075785592,0.0014241276166636987,0.07444074560574458,0.11002286471243958,-0.06241303060079346,0.10813931735627405,0.10320252004608224,-0.13836582438373
2436,11.879174899993814,0.022051950721453016,-0.02326778660616627,0.054186353917360895,0.010631303424398645,0.02158918108448547,0.0011173151756894053,0.07496677649069534,0.11052226160790132,-0.06308843797425238,0.10702902275054146,0.10109774415170888,-0.13790738730694635
2437,11.88329729999532,0.0220247820322489,-0.023208974310727958,0.05414809446322132,0.010999122990645097,0.022130770265420045,0.0008072059278013055,0.07548733010404228,0.11101130880437479,-0.06376155852141549,0.10589795530402481,0.09896716296226406,-0.13743036416184942
2438,11.887253399996553,0.022063732682609936,-0.02316390466157583,0.05413934479098452,0.011369474068614827,0.02267472423157293,0.0004938112746985415,0.0760023051542186,0.11148988079387287,-0.06443230143227549,0.10474620368698802,0.09681098636222468,-0.13693476523413572
2439,11.893026299992924,0.022078646867612198,-0.023053571121043618,0.054102946413438185,0.011742329143226312,0.023220991483454155,0.00017714306184581536,0.07651160079084507,0.11195785310552461,-0.06510057595501324,0.10357386052102613,0.09462943034524383,-0.13642060384557328
2440,11.89731600000232,0.022092545833280488,-0.022996268136368212,0.05409611430138388,0.012117660207734799,0.023769519916995902,-0.0001427864218457785,0.0770151166239783,0.11241510233526383,-0.06576629141083408,0.1023810223801828,0.09242271701311534,-0.1358878963650591
2441,11.901835399999982,0.022105361975459273,-0.02296857698569756,0.05408949393181243,0.012495438766025957,0.024320256828817822,-0.00046596444441065137,0.0775127527433643,0.11286150617551115,-0.06642935720885536,0.10116778979125715,0.09019107457325952,-0.1353366622191549
2442,11.906169699999737,0.022126682001275735,-0.022936204435574085,0.054085554731352965,0.012875635835003335,0.024873148921635408,-0.0007923778312936055,0.0780044097376933,0.11329694344484274,-0.06708968286104329,0.09993426723329257,0.08793473733471507,-0.1347669239020929
2443,11.910223400001996,0.022146194005724464,-0.022935180569184994,0.05409434976217337,0.013258221947069626,0.02542814230981135,-0.0011220129658879466,0.07848998871385177,0.11372129411763943,-0.06774717799719661,0.09868056313624089,0.0856539457026226,-0.13417870698524412
2444,11.915890899996157,0.0221677268143678,-0.02293824617371531,0.05409931453647639,0.013643167152701708,0.025985182525049833,-0.001454855790147051,0.07896939131616774,0.11413443935370794,-0.06840175237997428,0.09740678987879488,0.08334894617118545,-0.13357204012604212
2445,11.920480999993742,0.02216819915625937,-0.02291177443066167,0.054104489606019684,0.014030441023119386,0.026544214522233687,-0.0017908918052696016,0.07944251974564535,0.11453626152786725,-0.06905331591996453,0.09611306378538251,0.08101999131509387,-0.1329469550763547
2446,11.926840500003893,0.022207234625104256,-0.02293244692779154,0.0541315821048227,0.014420012653047798,0.027105182685404197,-0.0021301060724586867,0.07990927677918416,0.1149266442594919,-0.06970177869079251,0.09479950512231583,0.07866733977939849,-0.13230348669029635
2447,11.931363199997577,0.022232592258686415,-0.022929472471112357,0.05415381797873509,0.014811850663573375,0.027668030833883386,-0.002472483213754956,0.08036956578877988,0.11530547244200513,-0.07034705094426413,0.09346623809308809,0.07629125626782016,-0.13164167293147297
2448,11.936853799998062,0.02224489169817224,-0.02291378418419744,0.05415498722171589,0.015205923205093317,0.028232702228538555,-0.0028180074129440097,0.08082329076070219,0.11567263227231471,-0.07098904312554306,0.09211339083281347,0.07389201152948345,-0.1309615548796508
2449,11.944092799996724,0.022275486976668132,-0.022863743471316793,0.05417887423260416,0.015602197960358482,0.028799139578188797,-0.003166662416538176,0.08127035631464583,0.1160280112801836,-0.07162766588835794,0.09074109540180357,0.0714698823440614,-0.13026317673684273
2450,11.947939699995914,0.022286557366051236,-0.02284053444783888,0.0541832467667578,0.016000642147609632,0.029367285046153026,-0.0035184315348328415,0.08171066772285034,0.11637149835752884,-0.07226283011023649,0.0893494877782746,0.06902515150531906,-0.12954658583280426
2451,11.951861499997904,0.022274140634122218,-0.022817771884338967,0.0541828781154549,0.016401222523806963,0.029937080256939277,-0.0038732976430374782,0.08214413092918403,0.11670298378764106,-0.0728944469077634,0.08793870785018036,0.06655810780304444,-0.12881183262993182
2452,11.957877599998028,0.022301257351814256,-0.022807808720195697,0.0541754069811625,0.0168039053879528,0.030508466303074896,-0.00423124318248149,0.0825706525681878,0.11702235927431702,-0.07352242765185912,0.0865088994061654,0.0640690460033555,-0.12805897072755643
2453,11.96252159999858,0.02233677402560552,-0.022823816334943674,0.054182508171910664,0.017208656584507095,0.031081383752077314,-0.004592250161894965,0.08299013998407452,0.1173295179708982,-0.07414668398307692,0.08506021012563339,0.061558266827372296,-0.12728805686562486
2454,11.968141399993328,0.022415251957531843,-0.022793375898412432,0.05415093701628637,0.017615441506895573,0.031655772653565034,-0.0049563001587644194,0.08340250124968027,0.11762435450920722,-0.07476712782691497,0.08359279156792633,0.05902607692824449,-0.12649915092776096
2455,11.974737800002911,0.022463768709704533,-0.022779216831514203,0.054149183585798656,0.018024225101110413,0.03223157254650855,-0.005323374320763578,0.08380764518536275,0.11790676502837447,-0.07538367140914064,0.08210679916060976,0.056472788866523856,-0.1256923159437004
2456,11.982706800001324,0.022516223118923987,-0.022774766572748465,0.054171126850482886,0.018434971869403193,0.032808722466620525,-0.0056934533672592345,0.084205481377843,0.11817664720354694,-0.07599622727112344,0.08060239218685937,0.05389872108387203,-0.12486761809109236
2457,11.98824720000266,0.022528004491757254,-0.022785327020821353,0.05421801989985141,0.01884764587406977,0.03338716095388496,-0.006066517590892187,0.08459592019898561,0.11843390027447037,-0.07660470828517418,0.07907973377194484,0.05130419787509459,-0.12402512669666126
2458,11.993373299992529,0.022493007802858588,-0.022817346086835097,0.05426581477955813,0.019262210741326714,0.03396682606022488,-0.006442546859233281,0.08497887282451348,0.1186784250739361,-0.07720902766988728,0.07753899086880697,0.048689549358492894,-0.12316491423672146
2459,11.998007100002724,0.022482581645129975,-0.022795403691525388,0.0543160098535186,0.019678629665278953,0.03454765535730808,-0.006821520616514589,0.08535425125265285,0.1189101240560844,-0.07780909900548363,0.07598033424272477,0.046055111444525836,-0.12228705633703708
2460,12.00461990000622,0.022478092311175677,-0.022804159339434558,0.054354780117257945,0.020096865411978374,0.035129585944490206,-0.007203417885435672,0.0857219683227041,0.1191289013245563,-0.07840483624915075,0.074403938455069,0.043401225802774314,-0.12139163177202057
2461,12.010783299992909,0.022466108707077083,-0.022799265854686078,0.05440628484344222,0.02051688032357308,0.035712554456894405,-0.007588217269044903,0.08608193773353384,0.11933466266048587,-0.07899615375037701,0.07280998184613942,0.04072823982720146,-0.12047872246326317
2462,12.01621649999288,0.02244992834506597,-0.022799503729890265,0.05442808823783632,0.02093863632254696,0.03629649707362705,-0.007975896952695748,0.08643407406198375,0.11952731555032542,-0.07958296626627688,0.07119864651708303,0.0380365065997023,-0.1195484134773909
2463,12.022827099994174,0.022447589199864625,-0.022787153536731334,0.05446133136368953,0.021362094916049082,0.0368813495261286,-0.008366434706077907,0.08677829278119177,0.11970676921349509,-0.08016518897690444,0.06957011831089084,0.03532638485193718,-0.11860079302323996
2464,12.02748600000632,0.022473448898215863,-0.022784162267467708,0.05446441723647344,0.02178721720031233,0.03746704710665873,-0.008759807885323203,0.08711451027882182,0.11987293462984909,-0.08074273750055211,0.06792458679247061,0.0325982389254436,-0.11763595244834589
2465,12.0346722999966,0.022550416173274433,-0.02281939396359188,0.054495312010366705,0.0222139638651609,0.03805352467691484,-0.009155993435186152,0.08744264387519748,0.12002572456695047,-0.08131552790903081,0.06626224522779395,0.029852438730021788,-0.11665398623474045
2466,12.039192700001877,0.02257237827016988,-0.02281149516951671,0.05452287314219419,0.022642295198606065,0.03864071667678289,-0.00955496789129896,0.08776261184133527,0.12016505360714629,-0.08188347674292841,0.0645832905621159,0.0270893597003899,-0.11565499199405052
2467,12.043536199998924,0.02259438165770329,-0.022837278283582934,0.05456144862571713,0.02307217109152974,0.039228557133219336,-0.009956707382500861,0.08807433341687314,0.12029083817443463,-0.0824465010268431,0.06288792339726519,0.024309382751105335,-0.1146390704618932
2468,12.04766430000018,0.022584837181962254,-0.022862179674658062,0.054612234659381545,0.023503551042455342,0.03981697966926323,-0.010361187633241654,0.08837772882788983,0.12040299656111546,-0.08300451828458841,0.0611763479680044,0.02151289422974932,-0.11360632549156109
2469,12.05241340000066,0.02258453109665803,-0.0228876781528401,0.05467274016693477,0.023936394162405412,0.04040591751317743,-0.01076838396605933,0.08867271930461008,0.12050144895421709,-0.08355744655436624,0.05944877211745946,0.018700285868372236,-0.11255686404699292
2470,12.06038529999205,0.022582026103535307,-0.022974547576095117,0.05478702600189197,0.024370659179845426,0.04099530350771798,-0.011178271304131661,0.08895922709899101,0.1205861174616895,-0.08410520440390434,0.05770540727161789,0.0158719547331978,-0.11149079619502375
2471,12.0645058999944,0.02256626374143409,-0.02298026391241157,0.0548254523423126,0.024806304445713134,0.0415850701195308,-0.011590824173901556,0.08923717550218567,0.12065692613835576,-0.08464771094555469,0.05594646841289504,0.01302830317258501,-0.1104082350969101
2472,12.068709600003784,0.022589534501398553,-0.02302607043841221,0.05485353852672598,0.025243287938532845,0.042175149448674364,-0.01200601670777593,0.08950648886187977,0.12071380101161226,-0.08518488585134956,0.05417217405276893,0.010169738763247317,-0.10930929699912494
2473,12.072745099998428,0.022606196929119214,-0.02306372932216583,0.05487176116367733,0.025681567269613893,0.04276547323826734,-0.0124238226468979,0.08976709259949664,0.12075667010686919,-0.08571664936801165,0.052382746203484216,0.007296674254729156,-0.10819410122341765
2474,12.076908799994271,0.022631582863654087,-0.023079346709018476,0.05489764283899144,0.026121099688332594,0.043355972884259714,-0.0128442153439921,0.09001891322726555,0.12078546347272262,-0.08624292233191484,0.05057841034882615,0.0044095275121404836,-0.10706277015613472
2475,12.081274199998006,0.022663976230063457,-0.023102495804182954,0.05491613886147595,0.026561842087497022,0.043946579445326046,-0.013267167766282771,0.09026187836514851,0.1208001132058495,-0.0867636261839919,0.04875939541396538,0.0015087214571507114,-0.10591542923679749
2476,12.086216499999864,0.02269248055889358,-0.02314076105279085,0.054932926450261835,0.027003751008793844,0.04453722365287936,-0.013692652498484375,0.09049591675762095,0.12080055347561709,-0.08727868298458587,0.04692593373437482,-0.001405315992755923,-0.10475220694593262
2477,12.093823100003648,0.022749058356866216,-0.023207597676802787,0.05500209325142193,0.02744678264831658,0.04512783592120425,-0.014120641745864367,0.09072095829030143,0.12078672054839881,-0.08778801542824093,0.04507826102382049,-0.004332151986760822,-0.10357323479215112
2478,12.097682599996917,0.02279154602888749,-0.023253684304304825,0.0550514576400803,0.027890892862174523,0.045718346357708,-0.014551107337377873,0.09093693400642602,0.12075855281158841,-0.08829154685842928,0.04321661634142845,-0.0072713488049239786,-0.10237864729847214
2479,12.10206570000446,0.022818929283379176,-0.023273289812524578,0.05509358180387242,0.028336037172181486,0.04630868477328847,-0.014984020728873934,0.09114377612316224,0.12071599079730383,-0.08878920128221045,0.041341242057830435,-0.010222463924125383,-0.10116858198788835
2480,12.106224300005124,0.022858928566443646,-0.023350306941950796,0.055151169930388835,0.028782170771623906,0.04689878069281709,-0.01541935300637301,0.09134141804775767,0.12065897720577179,-0.08928090338481934,0.0394523838203908,-0.013185050085730168,-0.09994317936817004
2481,12.110083699997633,0.022873170433697198,-0.023402405890118456,0.05519816253740911,0.029229248531107473,0.047488563365735675,-0.015857074889415346,0.09152979439351913,0.12058745692838442,-0.08976657854417987,0.037550290517517654,-0.016158655364972102,-0.09870258291590508
2482,12.115155199993753,0.02287891772054487,-0.023443518113998165,0.05528790157839861,0.02967722500448135,0.0480779617767655,-0.01629715673447982,0.09170884099561753,0.12050137707041988,-0.09024615284534075,0.03563521424206161,-0.019142823242049318,-0.09744693905977261
2483,12.118576699998812,0.022873923160063755,-0.023485874554247346,0.05535898691892022,0.030126054434839192,0.04866690465672714,-0.01673956853847289,0.09187849492671417,0.12040068697341864,-0.09071955309482996,0.03370741025380586,-0.02213709267492551,-0.09617639716304786
2484,12.123003799992148,0.022885992214582433,-0.023555914267056777,0.055424081883851735,0.030575690760596085,0.04925532049346943,-0.01718427994228731,0.09203869451240426,0.12028533823720727,-0.09118670683492387,0.03176713694105179,-0.025140998173829067,-0.09489110950533551
2485,12.129149600004894,0.0229034144585422,-0.023601540453113266,0.05547953082139354,0.03102608762164028,0.04984313754290593,-0.01763126023443015,0.09218937934647321,0.1201552847415618,-0.09164754235782703,0.029814655781304458,-0.028154069877442057,-0.09359123126352935
2486,12.133456499999738,0.02291714120281214,-0.023637796971524985,0.05548905283886001,0.03147719836555874,0.05043028384015747,-0.018080478354719702,0.09233049030596137,0.12001048266750156,-0.09210198871975822,0.027850231301062494,-0.031175833630770183,-0.0922769204919964
2487,12.13936640000611,0.0229916137321673,-0.023716654170678194,0.055561281160592974,0.031928976053935416,0.051016687210799,-0.018531902898050723,0.09246196956603273,0.11985089051820545,-0.09254997575493971,0.025874131034717824,-0.03420581106468419,-0.09094833810198379
2488,12.143619299997226,0.02301652058791474,-0.023748993457647954,0.05560201777703655,0.03238137346872139,0.051602275282209016,-0.01898550211822762,0.09258376061464312,0.11967646913954244,-0.09299143408948578,0.02388662548257044,-0.03724351967712231,-0.08960564784024722
2489,12.14790670000366,0.023020121862739745,-0.02377551872805304,0.05564295308801673,0.032834343118675655,0.05218697549501984,-0.019441243931865065,0.09269580826700347,0.11948718174020774,-0.09342629515518662,0.02188798806796406,-0.040288472915942626,-0.08824901626690038
2490,12.151821799998288,0.023019723822443324,-0.023839091561284814,0.05567852317573514,0.03328783724587535,0.05277071511466699,-0.01989909592235558,0.0927980586798345,0.11928299391145683,-0.09385449120318415,0.019878495093548675,-0.04334018026341351,-0.08687861273248426
2491,12.15602549999312,0.023022343899125143,-0.023845777121924448,0.05574546898291703,0.03374180783229457,0.05335342124303547,-0.020359025343903527,0.09289045936540828,0.119063873646429,-0.09427595531753605,0.017858425696676575,-0.046398147322329594,-0.08549460935425543
2492,12.160270899999889,0.0230104038412291,-0.023896644593743965,0.05581699446004036,0.034196206606450785,0.05393502083020128,-0.02082099912562487,0.09297295920537235,0.11882979135905253,-0.09469062142866451,0.015828061803938667,-0.0494618759037399,-0.08409718099169282
2493,12.164412800004357,0.022999484951939562,-0.023945380392173386,0.055864018625150995,0.034650985050117974,0.05451544068626579,-0.021284983875712187,0.09304550846435213,0.11858071990252353,-0.09509842432668568,0.013787688084848355,-0.05253086411627446,-0.08268650522122334
2494,12.168497599996044,0.022999111311722515,-0.02398601492009376,0.055913019685777415,0.03510609440510531,0.05509460749328128,-0.021750945885664244,0.0931080588033275,0.11831663458734985,-0.09549929967461605,0.011737591904680468,-0.055604606457054825,-0.08126276231016638
2495,12.172822099993937,0.02300425646036019,-0.023989709702587347,0.05599716707170782,0.03556148568010007,0.05567244781726525,-0.02221885113457952,0.09316056329277916,0.11803751319895245,-0.09589318402145186,0.009678063276473076,-0.05868259390417311,-0.0798261351898975
2496,12.177605000004403,0.0229818380438762,-0.024023927795685112,0.05602321426881528,0.0360171096575739,0.05624888812030143,-0.022688665293513096,0.09320297642560041,0.11774333601481692,-0.09628001481511733,0.0076093948122004165,-0.06176431401072339,-0.07837680942823215
2497,12.181263299993589,0.02301921232720717,-0.024051719207111154,0.05608168433381161,0.03647291690075117,0.05682385477272519,-0.023160353729896423,0.09323525412977006,0.1174340858211875,-0.09665973041527844,0.0055318816731254866,-0.06484925100036891,-0.0769149732010304
2498,12.185639300005278,0.022997941559350452,-0.02408209828447735,0.056095121643201254,0.0369288577606385,0.05739727406539118,-0.023633881512019325,0.09325735378078266,0.11710974792929589,-0.09703227010601831,0.0034458215193412123,-0.06793688586442805,-0.07544081726302417
2499,12.189466800002265,0.02304271440609127,-0.024105752429570505,0.056113102185815174,0.03738488238311412,0.05796907222202087,-0.024109213413573666,0.09326923421383174,0.11677031019111794,-0.09739757410837051,0.0013515144585094876,-0.0710266964604611,-0.07395453491786812
2500,12.194587399993909,0.023071413943074975,-0.024113891684232076,0.056126611497107626,0.03784094071607603,0.05853917541162772,-0.02458631391825784,0.09327085573574201,0.11641576301465091,-0.09775558359270653,-0.00075073700619229,-0.0741181576123389,-0.07245632198741615
2501,12.198542099999033,0.023108811578632805,-0.024108552753856812,0.056123654674725895,0.03829698251664756,0.05910750976101732,-0.025065147224441444,0.0932621801366463,0.11604609937870349,-0.09810624069097403,-0.0028606280289072135,-0.07721074121177289,-0.07094637678022567
2502,12.203059599996775,0.023149616437158915,-0.024105908327512696,0.056102641117113876,0.03875295735843869,0.05967400136736005,-0.02554567724988947,0.09324317070140337,0.11566131484719164,-0.09844948850878124,-0.004977851474707077,-0.08030391632128638,-0.06942490005929179
2503,12.210246999995434,0.023197738341408845,-0.024134376617906156,0.0560519666550429,0.03920881463886196,0.060238576310833646,-0.02602786763654527,0.09321379222075245,0.11526140758293328,-0.09878527113732381,-0.007102097973962144,-0.08339714927860596,-0.06789209500901427
2504,12.21800219999568,0.02321390919057426,-0.024090079703650333,0.05602481954031759,0.0396645035865016,0.060801160667333654,-0.02651168175537146,0.09317401100220067,0.11484637836093514,-0.09911353366515059,-0.009233055977461492,-0.08648990380245106,-0.06634816720139969
2505,12.222103499996592,0.02325020460162408,-0.02407537912130807,0.05603982127405087,0.04011997326853485,0.061361680521249504,-0.026997082711247882,0.09312379488063945,0.1144162305811644,-0.09943422218976453,-0.011370411812272567,-0.08958164109969932,-0.0647933245615022
2506,12.22642380000616,0.02326380423164086,-0.0240692628174245,0.05603712553924844,0.04057517259820399,0.061920061978303485,-0.02748403334792582,0.09306311322868625,0.11397097028079785,-0.09974728382905484,-0.01351384973832828,-0.09267181997390521,-0.06322777733210624
2507,12.230708599992797,0.023266230618313354,-0.024063316857664878,0.05600716842515245,0.04103005034233796,0.062476231178450366,-0.027972496253037573,0.09299193696674792,0.11351060614594041,-0.10005266673255672,-0.01566305200572957,-0.09575989693514764,-0.06165173803765473
2508,12.235189700004412,0.023312873803773768,-0.02404277594070261,0.05599674251145461,0.04148455512892214,0.0630301143088352,-0.028462433763160648,0.09291023857280244,0.11303514952280627,-0.10035032009253446,-0.01781769891275108,-0.09884532631118235,-0.060065421447427415
2509,12.241187399995397,0.023329899017159053,-0.02405620809657661,0.05597169959936121,0.04193863545471518,0.06358163761680634,-0.028953807968935867,0.09281799209189597,0.11254461442835659,-0.10064019415488458,-0.019977468864537242,-0.10192756035987459,-0.0584690445379742
2510,12.246452699997462,0.02335068560904143,-0.024044489818053454,0.055942823619801046,0.0423922396929117,0.0641307274229809,-0.02944658072023836,0.09271517314535142,0.11203901756038719,-0.10092224022985484,-0.022142038432475766,-0.10500604938288659,-0.05686282645480852
2511,12.251548500003992,0.02340094898671189,-0.0240165294285231,0.055900650702522925,0.04284531610084969,0.0646773101343602,-0.02994071363140054,0.09260175893968538,0.11151837830705989,-0.1011964107025753,-0.02431108241423517,-0.10808024184059352,-0.055246988473366204
2512,12.25625969999237,0.023433141663375852,-0.024009641672261998,0.05586451515800396,0.04329781282776128,0.06522131225749213,-0.030436168086486297,0.09247772827523003,0.11098271875587155,-0.1014626590433974,-0.02648427389445284,-0.1111495844682006,-0.05362175395923527
2513,12.260651999997208,0.023442151144193547,-0.02396352171632328,0.05583847689193615,0.04374967792256543,0.06576266041167751,-0.030932905244615363,0.09234306155445744,0.11043206370205459,-0.10172093981803756,-0.02866128430605964,-0.11421352239303349,-0.05198734832766285
2514,12.26436790000298,0.02348848621169193,-0.02394097680775604,0.055804352907425914,0.04420085934170133,0.06630128134221776,-0.031430886045337,0.09219774079000291,0.10986644065640276,-0.10197120869752196,-0.030841783492226778,-0.11727149925297424,-0.050343999002345555
2515,12.269262699992396,0.023505104197089517,-0.02394770970637546,0.055727042999629973,0.04465130495700115,0.06683710193370081,-0.0319300712140519,0.09204174961238444,0.10928587985251535,-0.10221342246792872,-0.03302543976892024,-0.12032295731601383,-0.04869193537350957
2516,12.273160600001574,0.02353207291371137,-0.023924539798868154,0.0556465472700091,0.04510096256360045,0.06737004922332236,-0.03243042126748126,0.09187507327741505,0.10869041425345442,-0.1024475390399245,-0.035211919988047964,-0.123367337600892,-0.047031388755287305
2517,12.277365899994038,0.02354653176822655,-0.023917471169603008,0.055579246123696635,0.04554977988788503,0.06790005041423972,-0.0329318965191823,0.09169769867330509,0.10808007955781015,-0.10267351745809154,-0.03740088960118465,-0.1264040799987942,-0.04536259234239785
2518,12.281198299999232,0.02357272650989065,-0.023919251435275523,0.055498568361690225,0.04599770459547244,0.06842703288895532,-0.033434457085108844,0.09150961432745168,0.10745491420516876,-0.10289131791004227,-0.039592012723858656,-0.12943262339607528,-0.04368578116613864
2519,12.287656000000425,0.023589229964127444,-0.023905866325108452,0.05543979865915496,0.04644468429922673,0.06895092422272713,-0.033938062889216074,0.09131081041291313,0.10681495938097836,-0.10310090173531838,-0.041784952200385056,-0.1324524057979781,-0.042001192049695775
2520,12.291620699994382,0.02362049049039502,-0.02391108750350295,0.05537443988343759,0.04689066656730468,0.06947165219700284,-0.034442673669108116,0.0911012787545654,0.10616025902080818,-0.1033022314340709,-0.04397936966922891,-0.13546286445331457,-0.04030906356278111
2521,12.29557059999206,0.02365363295409777,-0.023899126612508058,0.05533546898236747,0.04733559893123229,0.06998914481287555,-0.034948248981727624,0.09088101283493806,0.10549085981399647,-0.10349527067551775,-0.046174925628882514,-0.138463435980077,-0.03860963597560432
2522,12.299432600004366,0.0236875082508534,-0.023905155902482458,0.05526543065532922,0.04777942889400971,0.0705033303045577,-0.03545474820908627,0.09065000779972736,0.10480681120668266,-0.10367998430617571,-0.048371279504239806,-0.14145355649194613,-0.03690315121218875
2523,12.30373650000547,0.023730476541507013,-0.02389852838873613,0.05519852182933496,0.04822210393824299,0.07101413715287105,-0.03596213056403528,0.09040826046298457,0.10410816540421944,-0.1038563383578635,-0.05056808971345108,-0.14443266172566266,-0.0351898528030399
2524,12.307981999998448,0.02376745584609608,-0.023901480159666467,0.05513752130260625,0.048663571534300946,0.07152149409874936,-0.03647035509607513,0.09015576931197676,0.10339497737296106,-0.10402430005547295,-0.05276501373524068,-0.1474001871692269,-0.03346998583717594
2525,12.312299700002768,0.02379095254024333,-0.02388159443341757,0.05506259436723418,0.04910377914849567,0.07202533015675112,-0.03697938069720307,0.08989253451171758,0.10266730484142371,-0.10418383782450481,-0.054961708176670454,-0.1503555681908917,-0.031743796913529944
2526,12.316475100000387,0.023816471158179028,-0.02386747232140978,0.05501112940974723,0.049542674251284946,0.07252557462857882,-0.03748916610779714,0.08961855790916531,0.10192520830081378,-0.10433492129836597,-0.05715782884133108,-0.15329824016891347,-0.030011534091733925
2527,12.32270360000257,0.02389059721822968,-0.023829020771799943,0.05490312232610113,0.04998020432549499,0.07302215711660137,-0.037999669922535464,0.08933384303708614,0.10116875100492057,-0.10447752132542541,-0.05935303079794336,-0.15622763862202516,-0.028273446842294877
2528,12.327049999992596,0.023941737439334143,-0.023812784477798915,0.054845463368675275,0.05041631687456178,0.07351500753737719,-0.038510850596349636,0.08903839511758102,0.10039799896936927,-0.10461160997582672,-0.061546968449351175,-0.15914319934059343,-0.026529785996173248
2529,12.333883800005424,0.023989922497422246,-0.0237986863318625,0.05478948409093123,0.05085095943078939,0.07400405613517491,-0.03902266645041079,0.08873222106527416,0.09961302097023117,-0.104737160548054,-0.06373929560188762,-0.1620443585184229,-0.02478080369377484
2530,12.338886300000013,0.024063690975922775,-0.023737938451321803,0.05460891795604548,0.051284079563623707,0.07448923349548844,-0.03953507567814733,0.08841532949016108,0.09881388854198739,-0.10485414757524832,-0.06592966553509542,-0.16493055288516978,-0.02302675333336729
2531,12.343170899999675,0.02410684468242741,-0.023741545585299006,0.05453297515371201,0.05171562488793966,0.07497047055854328,-0.040048036351293,0.08808773070011475,0.09800067597484234,-0.10496254683127143,-0.0681177310717828,-0.16780121983932703,-0.021267889518932603
2532,12.34772219999286,0.024144208281270146,-0.023748963341150394,0.0544591758001828,0.05214554307234047,0.07544769863279052,-0.04056150642596403,0.08774943670304863,0.09717346031138403,-0.10506233533651392,-0.07030314464839592,-0.17065579758174268,-0.0195044680074676
2533,12.355668200005312,0.02421565544294619,-0.02373593894657731,0.054328893869502515,0.052573781847467305,0.07592084940838513,-0.04107544374876443,0.0874004612087348,0.0963323213425886,-0.10515349136344534,-0.07248555838568793,-0.17349372524963283,-0.017736745655744294
2534,12.359964499992202,0.02426413270369411,-0.02376986508054449,0.05427524936962554,0.05300028901431776,0.0763898549706452,-0.04158980606291802,0.08704081963027553,0.09547734160316644,-0.10523599444190358,-0.07466462415966515,-0.17631444305105015,-0.015964980366542585
2535,12.36493419999897,0.02433441072550551,-0.023794729759810552,0.05419608887091746,0.05342501245257128,0.07685464781348914,-0.04210455101442622,0.0866705290852266,0.09460860636624768,-0.10530982536412083,-0.07683999367279049,-0.17911739239976898,-0.01418943103436789
2536,12.369367599996622,0.024390870544394285,-0.023787258244945573,0.05412951214458204,0.05384790012891976,0.07731516085284747,-0.04261963615825005,0.08628960839637113,0.09372620363740448,-0.10537496618948394,-0.07901131852542419,-0.1819020160505467,-0.012410357490666773
2537,12.37334789999295,0.024486325515938306,-0.023820223418296847,0.054039463857118546,0.054268900105401814,0.07777132744004611,-0.043135018964515146,0.08589807809214264,0.09283022414800858,-0.10543140024902685,-0.0811782502874822,-0.1846677582347211,-0.010628020448553814
2538,12.380743999994593,0.02462987349779612,-0.02381521555908066,0.05385952941728982,0.054687960547738806,0.07822308137515764,-0.043650656824738766,0.08549596040669649,0.09192076134792206,-0.10547911214965308,-0.08334044057029148,-0.18741406479610256,-0.008842681447063225
2539,12.386965800003964,0.024714350644914663,-0.02382373866007699,0.05377805542219975,0.055105029733671144,0.07867035692031712,-0.044166507058077085,0.08508327927962883,0.09099791139751946,-0.10551808777808633,-0.08549754109862225,-0.19014038332712052,-0.007054602794939001
2540,12.391197100005227,0.02477624262096564,-0.023783240065873762,0.05368676049895851,0.055520056061293475,0.07911308881299946,-0.044682526917591454,0.0846600603553422,0.09006177315903975,-0.10554831430454688,-0.08764920378287631,-0.19284616330518212,-0.005264047513977686
2541,12.395772499992743,0.024828176068693898,-0.02378808496289969,0.05358115277269743,0.055932988057387154,0.07955121227925499,-0.0451986735965324,0.08422633098205692,0.08911244818726684,-0.10556978018615154,-0.08979508079141087,-0.19553085622920283,-0.0034712792819381172
2542,12.400123200000962,0.02492848732466688,-0.02377058469170958,0.05351203773203353,0.05634377438574846,0.07998466304689983,-0.04571490423463991,0.0837821202104677,0.08815004071953758,-0.10558247517003477,-0.09193482462297649,-0.19819391575626663,-0.0016765623750327324
2543,12.404211899993244,0.02497647473162707,-0.02375608447397551,0.05341256486442918,0.05675236385551084,0.08041337735865726,-0.04623117592445851,0.08332745879204456,0.08717465766507647,-0.10558639029618892,-0.09406808817924885,-0.20083479783837418,0.00011983838998467021
2544,12.408436400000936,0.025060578861752343,-0.02372804879704104,0.05333459115823354,0.05715870542945935,0.08083729198524624,-0.04674744571766547,0.08286237917697803,0.08618640859365664,-0.10558151790002115,-0.09619452483743271,-0.20345296085923723,0.0019176577141195594
2545,12.41453900000488,0.025215245767333215,-0.02369788420944641,0.05313435474400659,0.057562748232335745,0.08125634423841342,-0.04726367063141089,0.08238691551176769,0.08518540572358703,-0.10556785161462526,-0.09831378852291699,-0.20604786577107692,0.003716629874810275
2546,12.422054599999685,0.02544856617983046,-0.02368112702345577,0.05294467719564595,0.057964441559132406,0.0816704719839053,-0.04777980765466815,0.0819011036364536,0.08417176390902563,-0.1055453863727668,-0.10042553378195897,-0.2086189762313831,0.005516488784958945
2547,12.429075699998066,0.025559336411666446,-0.023677583699587643,0.052830390284399294,0.05836373488337331,0.08207961365437687,-0.04829581375459317,0.08140498108149048,0.08314560062661859,-0.10551411840858038,-0.10252941585437647,-0.21116575873959043,0.007316968052303792
2548,12.436231400002724,0.025865453353556063,-0.023658150507648898,0.0525859263782437,0.05876057786538033,0.08248370826223365,-0.04881164588289098,0.08089858706426452,0.08210703596146517,-0.10547404525897729,-0.1046250907462265,-0.21368768277362732,0.009117801039116634
2549,12.43972520000534,0.026046048622184015,-0.023669611806975372,0.05245985133636319,0.059154920360522674,0.08288269541240371,-0.04932726098218814,0.08038196248525283,0.08105619259240855,-0.10542516576476123,-0.10671221530244879,-0.216184220926293,0.01091872092220921
2550,12.44352839999192,0.026176897081892605,-0.023653771806464177,0.052337028844609106,0.05954671242744773,0.08327651531503599,-0.049842615992409856,0.07985514992382593,0.07999319577665273,-0.10536748007145078,-0.10879044727945289,-0.2186548490414194,0.012719460753231708
2551,12.448067599994827,0.02631336523712842,-0.023640562802976876,0.05222349288932086,0.05993590433629167,0.08366510879812167,-0.0503576678571604,0.07931819363369315,0.0789181733337067,-0.1053009896298069,-0.11085944541762675,-0.22109904634977395,0.014519753519246647
2552,12.452227500005392,0.026451708866397125,-0.023601658696091137,0.052116023333646865,0.0603224465768681,0.08404841732003511,-0.05087237353010528,0.07877113953799098,0.07783125562865723,-0.10522569719606417,-0.1129188695137445,-0.2235162956046589,0.01631933220356103
2553,12.456339399999706,0.026567424900054364,-0.02359009263770662,0.052016729388114434,0.060706289866832845,0.08442638298199147,-0.05138668998135356,0.07821403522401488,0.07673257555477188,-0.10514160683186462,-0.11496838049325132,-0.2259060832171629,0.01811792984679948
2554,12.460176599997794,0.02667223540521329,-0.023556016931088546,0.05192725635185604,0.06108738515982313,0.08479894854041756,-0.051900574203839124,0.0776469299375948,0.07562226851543409,-0.105048723903893,-0.11700764048240449,-0.22826789939102093,0.019915279608200834
2555,12.46673909999663,0.026786481875877028,-0.023504381712631126,0.05182043567551993,0.061465683653569275,0.08516605741923276,-0.05241398321969969,0.07706987457711464,0.07450047240541237,-0.10494705508321259,-0.11903631288024921,-0.23060123825703868,0.02171111482712052
2556,12.471403799994732,0.026899636439065462,-0.02346983234955807,0.05171083415906138,0.061841136797977383,0.08552765372203686,-0.05292687408665237,0.07648292168717648,0.07336732759146576,-0.10483660834430021,-0.12105406243040738,-0.23290559800703717,0.023505169084720768
2557,12.476948499999708,0.02720487709967126,-0.023356057811714567,0.051518406511988954,0.06221369630318136,0.08588368224420175,-0.05343920390436399,0.07588612545191015,0.0722229768922879,-0.10471739296377991,-0.12306055529265765,-0.23518048102727285,0.02529717626583051
2558,12.48223730000609,0.02734895827025478,-0.023294655312012726,0.051414466603368444,0.06258331414756263,0.08623408848486427,-0.05395092982081477,0.0752795416879292,0.07106756555779208,-0.10458941951885467,-0.12505545911428523,-0.2374253940312889,0.027086870620956615
2559,12.48635560000548,0.02749740386823578,-0.023246775557582134,0.05129344241569323,0.06294994258573593,0.0865788186588166,-0.05446200903865373,0.07466322783693431,0.06990124124774014,-0.10445269988543544,-0.12703844310117912,-0.23963984819215306,0.02887398682842792
2560,12.490170499993836,0.027701425274703692,-0.02316266345637807,0.051222398457369714,0.06331353415649947,0.086917819708291,-0.054972398821544394,0.07403724295796543,0.06872415400971826,-0.10430724723596702,-0.12900917808865459,-0.2418233592740366,0.030658260056653435
2561,12.493869700003415,0.027936297401229864,-0.023123166949696954,0.051123969923404185,0.06367404169074783,0.08725103931463593,-0.05548205650049931,0.07340164771930466,0.06753645625646312,-0.10415307603695027,-0.13096733661197862,-0.24397544776309082,0.03243942602647588
2562,12.498151899999357,0.028160777721678003,-0.02306875789963681,0.051008785733348515,0.0640314183193457,0.0875784259098803,-0.05599093948020186,0.07275650439003128,0.06633830274254188,-0.10399020204616041,-0.13291259297657673,-0.2460956389975761,0.03421722107360138
2563,12.50651979999384,0.028634049046778628,-0.02284985828133715,0.05083129858783796,0.06438561748096097,0.08789992868818265,-0.05649900524531414,0.07210187683123051,0.06512985054038964,-0.1038186423095605,-0.13484462332789837,-0.24818346329719954,0.03599138221108608
2564,12.514834000001429,0.029163750232854228,-0.02264841723384269,0.05058748383062811,0.06473659292985531,0.08821549761716178,-0.05700621136676922,0.07143783048685753,0.0639112590157077,-0.10363841515791027,-0.13676310572091893,-0.2502384560916176,0.037761647191860204
2565,12.518566300001112,0.029414911802051722,-0.02247022015702512,0.05048329150662351,0.06508429874363006,0.08852508344910522,-0.057512515508045974,0.07076443237425903,0.06268268980222635,-0.10344954020307036,-0.13866772018925633,-0.25226015804805935,0.039527754571270196
2566,12.522910800005777,0.02969772810198299,-0.02231053747483598,0.050367394923623285,0.06542868933092646,0.08882863773205205,-0.05801787543142492,0.0700817510743537,0.06144430677583657,-0.10325203833400226,-0.1405581488138808,-0.2542481151980262,0.041289443769619585
2567,12.526988199999323,0.029932209396687677,-0.022118996634822207,0.050261699985075105,0.06576971943907808,0.089126112820747,-0.05852224900422337,0.06938985672147385,0.06019627602809508,-0.10304593171246337,-0.14243407579139644,-0.2562018790630243,0.04304645513468864
2568,12.531143700005488,0.030210682536951104,-0.02188276605358342,0.050174196814230854,0.06610734416171336,0.08941746188746283,-0.05902559420500834,0.06868882099287,0.058938765839108016,-0.10283124376839692,-0.14429518750187317,-0.2581210067792855,0.04479853000421315
2569,12.53623830000288,0.03047618499868395,-0.02165116081514906,0.05005393804027373,0.0664415189463065,0.0897026389326881,-0.05952786912978576,0.0679787170978807,0.05767194664979808,-0.10260799919501726,-0.1461411725762078,-0.2600050612214353,0.046545410768302396
2570,12.539833799994083,0.030777557375944,-0.021440659826372846,0.04995906917218288,0.06677219960167495,0.08998159879567744,-0.060029031998164395,0.06725961976676957,0.05639599103356062,-0.10237622394359132,-0.14797172196299285,-0.261853611125065,0.04828684093177642
2571,12.54386859999795,0.031090572917062596,-0.021172356015143518,0.049853431164666895,0.06709934230542192,0.09025429716486101,-0.06052904115949307,0.06653160523923185,0.05511107366731424,-0.10213594521791595,-0.1497865289948725,-0.26366623120816923,0.05002256517640237
2572,12.55057289999968,0.0314720861201332,-0.020929105220619266,0.04979492965310254,0.06742290361132247,0.09052069058811045,-0.06102785509897004,0.06579475125257278,0.05381737130195186,-0.10188719146849136,-0.1515852894543646,-0.26544250229140526,0.05175232942301005
2573,12.555497900000772,0.032231671326954085,-0.0203987810005376,0.049629308827186996,0.06774284045665159,0.09078073648285863,-0.06152543244372289,0.06504913702956067,0.052515062732198116,-0.10162999238639078,-0.15336770163912858,-0.26718201141713266,0.053475880893465985
2574,12.560408899997128,0.03259746070876483,-0.020118804972622667,0.049518618506888774,0.06805911016945218,0.09103439314607009,-0.062021731968857234,0.06429484326595736,0.051204328765879326,-0.10136437889682676,-0.15513346642665704,-0.2688843519671924,0.05519296817248552
2575,12.564752099991892,0.032985336696088406,-0.01979443873109944,0.04943250822254524,0.06837167047574182,0.09128161976405938,-0.06251671260347284,0.06353195211772966,0.04988535219261222,-0.1010903831524145,-0.15688228733837165,-0.2705491237793846,0.05690334126926254
2576,12.570780699999888,0.03334670549762393,-0.01940107460274878,0.04935057832430617,0.06868047950665668,0.09152237642215429,-0.0630103334366455,0.06276054718794481,0.048558317751917636,-0.10080803852613317,-0.1586138706031031,-0.27217593326260364,0.05860675167889646
2577,12.57505559999845,0.033685781765698704,-0.01896997671207611,0.0492452768990508,0.06898549580553116,0.09175662411420159,-0.06350255372337311,0.06198071351335308,0.047223412100765846,-0.10051737960398573,-0.16032792521993622,-0.2737643935105881,0.06030295244359582
2578,12.579739900000275,0.034076630614924316,-0.018483639824052628,0.049147817780998526,0.0692866783349119,0.09198432475191223,-0.0639933328904846,0.06119253755066075,0.045880823780560395,-0.10021844217735912,-0.1620241630204003,-0.27531412441424685,0.061991698213637814
2579,12.58468189999985,0.03488965678095472,-0.017560599718873894,0.04902002795733951,0.06958398648350454,0.09220544117404368,-0.06448263054250997,0.060396107162496444,0.04453074318356774,-0.09991126323508602,-0.16370229872998524,-0.27682475277252167,0.06367274530806331
2580,12.590528700005962,0.03526615985058771,-0.017098258970713955,0.048923680243279824,0.06987738007305194,0.0924199371554163,-0.06497040646751001,0.05959151160307473,0.04317336251879995,-0.09959588095520983,-0.1653620500289643,-0.27829591240174884,0.06534585177508699
2581,12.59429259999888,0.03558570970250429,-0.016527278353110613,0.048807636548422274,0.07016681936514209,0.09262777741576093,-0.06545662064286428,0.05877884150356046,0.04180887577735786,-0.09927233469645359,-0.16700313761250393,-0.27972724424347895,0.06701077745220184
2582,12.598091599997131,0.035930449468950416,-0.01588144373230548,0.048704578816886605,0.0704522650679442,0.09282892762839519,-0.06594123324101603,0.0579581888571376,0.040437478697242624,-0.09894066498939488,-0.16862528525004167,-0.2811183964707157,0.06866728402595766
2583,12.606752799998503,0.03681844614048905,-0.014630938541300873,0.04853583945348898,0.07073367834287164,0.09302335442872556,-0.06642420463517318,0.057129647003786165,0.03905936872764327,-0.09860091352734839,-0.17022821984391517,-0.2824690245925365,0.07031513509139288
2584,12.610347900001216,0.03727384262324694,-0.013981151953940571,0.04842483562131705,0.07101102081116979,0.09321102542257347,-0.06690549540496382,0.056293310614771094,0.03767474499270829,-0.09825312315695756,-0.17181167148722426,-0.2837787915570584,0.07195409621109913
2585,12.61984709999524,0.03812734891301411,-0.01256313075714267,0.048147976446310116,0.07128425456042757,0.09339190919432269,-0.06738506634204505,0.05544927567684666,0.03628380825480925,-0.09789733786849736,-0.17337537352090768,-0.28504736785271434,0.0735839349738981
2586,12.624528999993345,0.03860211586548266,-0.011861099377840838,0.04801584793369507,0.07155334215101057,0.09356597531488567,-0.06786287845566419,0.05459763947618049,0.0348867608773052,-0.0975336027858902,-0.17491906259001685,-0.2862744316078019,0.07520442105311043
2587,12.630372700004957,0.039543634812172414,-0.010318453711550508,0.04768066546541735,0.07181824662241479,0.0937331943494862,-0.06833889297817115,0.05373850058200101,0.03348380678681639,-0.09716196415643659,-0.1764424786991693,-0.28745966868826855,0.07681532626439608
2588,12.634981800001697,0.040007715416983586,-0.009494807865215091,0.04752415505842008,0.07207893149953953,0.09389353786525678,-0.06881307137048089,0.052871958829972525,0.032075151435016235,-0.09678246934026237,-0.17794536526716426,-0.28860277279369906,0.07841642462314591
2589,12.639169400004905,0.040432207197248535,-0.008713359008092995,0.04730776344239299,0.07233536079887817,0.09404697843864833,-0.06928537532748427,0.051998115305301684,0.03066100175995017,-0.0963951667994843,-0.1794274691807438,-0.2897034455514685,0.08000749240140449
2590,12.64353289999417,0.04093952992878035,-0.00784705963989775,0.047193448514945786,0.07258749903462497,0.09419348966264948,-0.06975576678340627,0.0511170723255795,0.02924156614689067,-0.09600010608709598,-0.18088854084748232,-0.2907613966090267,0.08158830818430388
2591,12.647774299999584,0.04134225266591659,-0.006924069496027049,0.04697954956278063,0.07283531122469664,0.09433304615381313,-0.07022420791710965,0.05022893342336338,0.02781705438873796,-0.09559733783557639,-0.18232833424778913,-0.2917763437242829,0.08315865292598806
2592,12.65207620000001,0.041786039262940035,-0.005953050425557133,0.04673613136547565,0.07307876289666748,0.09446562355908779,-0.0706906611573429,0.04933380332850368,0.026387677645975854,-0.09518691374522392,-0.1837466069860076,-0.2927480128540562,0.08471831000500793
2593,12.656368399999335,0.042163332741807155,-0.005024233105502139,0.046501895762555104,0.07331782009361684,0.09459119856245168,-0.07115508918793075,0.04843178795021918,0.02495364840619224,-0.09476888657221898,-0.18514312034059668,-0.29367613824056155,0.08626706527916614
2594,12.66020529999514,0.04265458988692754,-0.004056746069547903,0.04629506244570047,0.07355244937988747,0.09470974889134759,-0.07161745495290575,0.04752299435892602,0.02351518044317399,-0.0943433101164177,-0.18651763931337995,-0.2945604624959002,0.08780470713979201
2595,12.665950299997348,0.043118282584780926,-0.0029832062548088207,0.04607371283991235,0.07378261784675369,0.0948212533229159,-0.07207772166158011,0.046607530767824555,0.022072488775586204,-0.09391023920887955,-0.18786993267784832,-0.2954007366845247,0.08933102656542666
2596,12.670686600002227,0.04353394771396545,-0.0019451361925450898,0.04577201946844107,0.074008293117998,0.09492569169002411,-0.07253585279355619,0.04568550651424914,0.02062578962524598,-0.09346972969913153,-0.18919977302650323,-0.29619672040364914,0.09084581717489923
2597,12.677553200002876,0.04456175986550022,0.0002840505209965112,0.04520383143370095,0.07422944335539536,0.09502304488709087,-0.07299181210367514,0.04475703204078583,0.019175300375000995,-0.09302183844217148,-0.1905069368172258,-0.29694818186157484,0.09234887527977453
2598,12.683181000000332,0.04498249073608383,0.0014204466719716195,0.04483037606904027,0.07444603726410338,0.095113294875702,-0.07344556362690197,0.04382221887616315,0.01772123952622341,-0.09256662328521328,-0.19179120441865968,-0.2976548979539072,0.09383999993615247
2599,12.687517500002286,0.04545907168170756,0.0025922225134066626,0.044515750919030914,0.074658044097958,0.09519642469001662,-0.07389707168314576,0.04288117961592076,0.016263826655929615,-0.09210414305417741,-0.19305236015459434,-0.2983166543376357,0.09531899299579977
2600,12.691332999995211,0.04597404891727787,0.003770111013564885,0.044147659827238804,0.07486543366467342,0.09527241844196145,-0.07434630088201354,0.04193402790286091,0.014803282373536607,-0.09163445753992969,-0.19429019234733647,-0.2989332455030507,0.0967856591565953
2601,12.696070299993153,0.04647831700344746,0.005048604701182108,0.04378567178577889,0.07506817633094592,0.09534126132621196,-0.07479321612749619,0.04098087840728797,0.013339828277265786,-0.09115762748427181,-0.1955044933600565,-0.2995044748434694,0.09823980601227016
2602,12.700802899998962,0.04694813964313162,0.006355305178927838,0.043376729594112075,0.07526624302746018,0.0954029396249585,-0.07523778262258506,0.04002184680704097,0.011873686910205213,-0.0906737145656871,-0.19669505963809758,-0.3000301547227457,0.09968124410142386
2603,12.706087400001708,0.04785091323173018,0.008983881799920183,0.04257790111853196,0.0754596052537971,0.09545744071245592,-0.07567996587381814,0.03905704976732434,0.010405081716041455,-0.09018278138484509,-0.1978616917492345,-0.3005101065405393,0.10110978695579848
2604,12.714860599997335,0.04875241938192056,0.011578836219842396,0.0417012663908216,0.0756482350832418,0.09550475305935423,-0.076119731695755,0.038086604920342236,0.008934236994472313,-0.08968489144986833,-0.19900419442287157,-0.3009441607953193,0.10252525114779278
2605,12.722748000000138,0.04967467624693561,0.014122807445057303,0.04076938236674137,0.07583210516749114,0.09554486623680916,-0.07655704621537895,0.03711063084474164,0.007461377856311735,-0.08918010916136508,-0.2001223765881681,-0.3013321571450801,0.10392745633719844
2606,12.726833599997915,0.05020154718556665,0.015346095334451719,0.0402928860017941,0.07601118874125985,0.09557777092037142,-0.0769918758764259,0.03612924704486963,0.0059867301782983535,-0.08866849979723157,-0.20121605141108048,-0.301673944465748,0.10531622531713998
2607,12.731552800003556,0.05066770763581765,0.016485360283736428,0.03971506531664122,0.07618545962678434,0.09560345889365308,-0.07742418744363828,0.03514257392985011,0.004510520557619218,-0.08815012949722757,-0.20228503633031045,-0.30196938090725844,0.10669138405920048
2608,12.735166400001615,0.05123147328534884,0.01754818981844615,0.03911261263378052,0.07635489223822275,0.0956219230517696,-0.07785394800694277,0.034150732792485684,0.00303297626616042,-0.08762506524732963,-0.20332915309214977,-0.30221833394728226,0.10805276175771587
2609,12.743022599999676,0.052483489825313694,0.019552234462812308,0.03786336213527179,0.07651946158594998,0.09563315740455582,-0.07828112498555109,0.033153845787990154,0.0015543252044964056,-0.08709337486386584,-0.20434822778421216,-0.3024206804425828,0.10940019087322121
2610,12.747635699997772,0.05316776922771133,0.020478230237520625,0.03726337674267651,0.07667914328074736,0.09563715707955484,-0.0787056861319827,0.03215203591255722,7.479585562986319e-05,-0.08655512697743666,-0.2053420908680419,-0.3025763066779838,0.11073350717503154
2611,12.751810400004617,0.053833771379177386,0.021409864235112014,0.03663114484297005,0.0768339135378863,0.09563391832477885,-0.0791275995360085,0.031145426981771036,-0.0014053827615058431,-0.0860103910166262,-0.20631057721059107,-0.30268510841293156,0.1120525497829406
2612,12.756048800001736,0.054532372237001865,0.022303187640784827,0.03593419461048662,0.07698374918110497,0.09562343851124049,-0.0795468336285148,0.030134143608864274,-0.0028859811387696205,-0.08545923719150837,-0.2072535261145569,-0.3027469909256344,0.11335716120802093
2613,12.7607960000023,0.05519688304990921,0.02322295331817814,0.035240027103174,0.07712862764647721,0.09560571613525302,-0.0799633571852868,0.029118311182829263,-0.004366769325748819,-0.08490173647695225,-0.20817078134757236,-0.30276186905476443,0.1146471873925091
2614,12.76456870000402,0.05586844777138746,0.024056492127066335,0.03455820574744291,0.07726852698617247,0.09558075082049891,-0.08037713933071065,0.028098055846388074,-0.005847516976896391,-0.08433796059573126,-0.20906219117024324,-0.30272966723870615,0.11592247774876031
2615,12.772895400004929,0.05723378942470431,0.02577480633830749,0.03308271809080817,0.07740342587210633,0.09554854331986559,-0.08078814954139321,0.02707350447382743,-0.007327993398856742,-0.08376798200144078,-0.20992760836302524,-0.3026503195523361,0.11718288519725634
2616,12.777429399997343,0.057932980684106954,0.026571359232583858,0.03242510999470884,0.07753330359948042,0.09550909551704813,-0.08119635764969842,0.026044784648704293,-0.008807967597967897,-0.08319187386122885,-0.2107668902519335,-0.3025237697413209,0.11842826620365242
2617,12.783074799997848,0.05869262647005348,0.027405843484338513,0.03171269577070654,0.0776581400902111,0.09546241042791764,-0.08160173384719971,0.02501202464142807,-0.010287208327927538,-0.08260971003834505,-0.2115798987330797,-0.3023499712539203,0.11965848081484813
2618,12.786994199996116,0.059333615424579905,0.0283302167887962,0.030967519271087488,0.07777791589624615,0.09540849220165415,-0.08200424868804766,0.023975353386725295,-0.011765484137610437,-0.0820215650745129,-0.2123665002960318,-0.3021288872702841,0.12087339269406781
2619,12.79109569999855,0.05997005023793839,0.02915941965861823,0.030262674934935382,0.07789261220276925,0.09534734612164313,-0.08240387309225186,0.02293490046099264,-0.013242563419024697,-0.08142751417213064,-0.21312656604599092,-0.3018604907292311,0.12207286915493659
2620,12.79572310000367,0.06064223735792041,0.0299811555741233,0.0295534366913245,0.0780022108312919,0.09527897860613464,-0.08280057834887673,0.021890796059544186,-0.014718214455394217,-0.08082763317630524,-0.2138599717247814,-0.3015447643525021,0.12325678119453821
2621,12.799681000004057,0.0613694750052274,0.030840676745581445,0.028810523497321314,0.07810669424263228,0.09520339720866436,-0.08319433611915072,0.020843170973758852,-0.016192205469354643,-0.0802219985567246,-0.2145665977306498,-0.3011817006664785,0.12442500352544138
2622,12.80487360000552,0.06204482288349264,0.031684558773825484,0.028132228850333417,0.07820604553977999,0.0951206106182358,-0.08358511843948807,0.019792156568133955,-0.01766430467125014,-0.07961068738937276,-0.2152463291368686,-0.3007713020213603,0.1255774146066821
2623,12.811023300004308,0.06335639159851181,0.033415742626712625,0.026687907309199968,0.07830024847064646,0.09503062865926348,-0.08397289772442217,0.018737884757250703,-0.019134280307518247,-0.07899377733809405,-0.21589905570914222,-0.3003135806077969,0.12671389667368899
2624,12.815384300003643,0.06403254572547369,0.03428467472285393,0.02598780371752366,0.07838928743070052,0.09493346229127603,-0.08435764676944994,0.01768048798265773,-0.02060190070915,-0.07837134663601117,-0.21652467192181193,-0.29980855847096305,0.12783433576713868
2625,12.818971700005932,0.06467437917296943,0.035169593144149296,0.025343137738146268,0.07847314746548867,0.09482912360837924,-0.084739338753786,0.01662009918967873,-0.02206693434021252,-0.07774347406680271,-0.2171230769728588,-0.29925626752207646,0.12893862176072926
2626,12.822913299998618,0.06530307649004609,0.03604704707371376,0.024656727824490982,0.07855181427303985,0.09471762583847879,-0.08511794724302577,0.015556851804150236,-0.023529149846421245,-0.07711023894584586,-0.21769417479770228,-0.29865674954734966,0.1300266483878604
2627,12.826948999994784,0.06593014067101521,0.03692252151528132,0.02396617534068279,0.0786252742061546,0.09459898334226242,-0.08549344619171692,0.014490879709095652,-0.024988316103748916,-0.07647172110122959,-0.2182378740817945,-0.29801005621437254,0.13109831326721014
2628,12.83111509999435,0.0665689834506951,0.03781911551337816,0.02329172214130002,0.07869351427457813,0.09447321161194155,-0.08586580994583855,0.01342231722134161,-0.026444202267058584,-0.07582800085464406,-0.21875408827200876,-0.2973162490759227,0.13215351792719657
2629,12.83615980000468,0.0672263278894215,0.03870636425254675,0.02255067204646255,0.07875652214705743,0.0943403272697521,-0.08623501324518786,0.012351299068082746,-0.02789657781874788,-0.07517915900215147,-0.21924273558682217,-0.29657539957120227,0.13319216782931437
2630,12.842713499994716,0.06786759494482389,0.03964818787143566,0.021835798930058874,0.07881428615328223,0.09420034806621488,-0.08660103122567371,0.011277960363400858,-0.02934521261739164,-0.07452527679484347,-0.2197037390252927,-0.29578758902450114,0.1342141723903359
2631,12.847790899992106,0.06910717223691691,0.04136621118849641,0.02046898274138938,0.07886679528570988,0.09405329287815557,-0.08696383942151682,0.010202436584744514,-0.030789876946369886,-0.0738664359193911,-0.22013702637483218,-0.29495290864128704,0.135219445003367
2632,12.852290900002115,0.06977115151902011,0.04222156898695089,0.019756886616003673,0.07891403920127407,0.0938991817064843,-0.08732341376735615,0.009124863549375093,-0.032230341562468234,-0.07320271847849259,-0.22054253021777628,-0.2940714595017254,0.1362079030577481
2633,12.856816700004856,0.07046076042860855,0.043051099356731765,0.019119227786631113,0.07895600822297717,0.09373803567373526,-0.08767973060026064,0.008045377390785296,-0.03366637774443777,-0.07253420697122448,-0.2209201879367526,-0.2931433525516314,0.1371794679577914
2634,12.861134499995387,0.0710853701415253,0.0438246753177221,0.018456167864033077,0.07899269334136588,0.09356987702136634,-0.08803276666164579,0.006964114535096129,-0.0350977573415017,-0.07186098427330183,-0.2212699417188487,-0.2921687085908578,0.13813406514034596
2635,12.866226700003608,0.07169360176656701,0.0446588578267976,0.01777204928431156,0.07902408621589019,0.09339472910681905,-0.08838249909909486,0.005881211677438354,-0.03652425282179595,-0.07118313361725317,-0.22159173855858388,-0.29114765825912386,0.13907162409118226
2636,12.872790800000075,0.07292670208816451,0.04636287091610031,0.016484667155345793,0.07905017917614553,0.09321261640033926,-0.08872890546808418,0.004796805758324376,-0.03794563732073095,-0.07050073857251622,-0.22188553025968766,-0.29008034201929034,0.13999207836018854
2637,12.87703999999212,0.07355209079556004,0.04717725108429066,0.015829931005743144,0.07907096522299803,0.09302356448155913,-0.08907196373361179,0.0037110339400165406,-0.03936168468926184,-0.06981388302546042,-0.22215127343568844,-0.28896691013808856,0.14089536557537188
2638,12.880909999992582,0.07413361207898429,0.048035279048584324,0.015222773624095453,0.07908643802959271,0.09282760003584094,-0.08941165227172906,0.002624033582897763,-0.04077216954205422,-0.06912265115934192,-0.22238892950931757,-0.2878075226643097,0.14178142745565755
2639,12.8855973000027,0.07473665946161386,0.048929644454709896,0.01465002451592469,0.07909659194224505,0.09262475085038364,-0.08974794987097488,0.0015359422218504122,-0.042176867305532786,-0.06842712743419731,-0.22259846471073255,-0.2866023494044627,0.14265020982248125
2640,12.889501600002404,0.07525172811957709,0.049806627471598475,0.014050029194495377,0.07910142198121604,0.09241504581009273,-0.09008083573371171,0.00044689754264933554,-0.04357555426580025,-0.06772739656668147,-0.2227798500745626,-0.2853515698959107,0.14350166261016772
2641,12.89769179999712,0.07645646025811852,0.05162630704978153,0.01276008898051545,0.0791009238413706,0.09219851489321419,-0.09041028947736394,-0.0006429626416250715,-0.044968007616413765,-0.06702354350985558,-0.2229330614357815,-0.2840553733774955,0.1443357398750895
2642,12.901916300004814,0.07705998468349914,0.05255042736151358,0.01208631247714344,0.07909509389271942,0.09197518916673357,-0.09073629113555803,-0.0017335004141479007,-0.04635400550600638,-0.0663156534329312,-0.22305807942441302,-0.2827139587576606,0.1451523998036001
2643,12.906069999997271,0.07766553943884859,0.05346216479752571,0.011409424336872968,0.07908392918084439,0.09174510078154081,-0.09105882115916375,-0.0028245777778790502,-0.04773332708574088,-0.06560381170097683,-0.22315488945907502,-0.2813275345800835,0.1459516047187377
2644,12.91207000000577,0.078277173343761,0.05435265894620911,0.010778899398136078,0.07906742742720783,0.09150828296736178,-0.09137786041723607,-0.003916056679055051,-0.04910575255658334,-0.06488810385459298,-0.22322348173936857,-0.27989631898682993,0.14673332108569415
2645,12.916333300003316,0.07886808171671096,0.05531173441305742,0.010125203118442345,0.07904558702934503,0.09126477002745771,-0.09169339019785752,-0.005007799030637644,-0.0504710632163841,-0.06416861558956177,-0.22326385123711825,-0.27842053967904357,0.1474975195160446
2646,12.920350700005656,0.07947936982785839,0.056245285196278055,0.009450191960272471,0.07901840706094033,0.09101459733309362,-0.09200539220888063,-0.0060996667357134,-0.05182904150675397,-0.06344543273647729,-0.2232759976864718,-0.27690043387518465,0.14824417477073454
2647,12.924996600006123,0.08005550166521945,0.057124789126070635,0.008865447702090919,0.07898588727178735,0.09075780131777672,-0.09231384857857076,-0.0071915217108387,-0.053179471059723295,-0.06271864124036274,-0.22325992557286614,-0.27533624826683034,0.14897326576182196
2648,12.931020499992885,0.08122835205234355,0.05885435595520959,0.007662557445608172,0.07894802808763345,0.09049441947126566,-0.09261874185614943,-0.008283225909324414,-0.05452213674417199,-0.06198832714028,-0.22321564412086883,-0.2737282389720545,0.14968477555297094
2649,12.93522679999296,0.08177913583957137,0.05971268775414593,0.007026472691593462,0.07890483060990906,0.09022449033335221,-0.09292005501223817,-0.00937464134445469,-0.05585682471201835,-0.06125457654893803,-0.22314316728090294,-0.27207667148640247,0.15037869135869492
2650,12.939540899998974,0.08232444409575862,0.060520317039439206,0.006471783064020406,0.07885629661534155,0.08994805348741676,-0.09321777143920291,-0.010465630112634306,-0.05718332244415454,-0.060517475632306424,-0.22304251371486422,-0.2703818206314777,0.15105500454234805
2651,12.945877699996345,0.0828201864011066,0.06137836823216942,0.005887400013753532,0.07880242855545404,0.08966514955375895,-0.09351187495139854,-0.011556054416459155,-0.058501418796116464,-0.05977711058924039,-0.22291370678063877,-0.26864397050115774,0.15171371061286293
2652,12.949960099998862,0.08337552734316865,0.06219162437031749,0.005349129846795024,0.0787432295559499,0.08937582018270544,-0.09380234978531342,-0.012645776587704403,-0.05981090404347663,-0.05903356763112302,-0.22275677451553197,-0.26686341440545747,0.15235480922023442
2653,12.954444799994237,0.08394189596447936,0.06303260681847798,0.004852145202195861,0.07867870341598349,0.08908010804749605,-0.09408918059961369,-0.013734659110225011,-0.06111156992694833,-0.05828693296153102,-0.22257174961861922,-0.2650404548120577,0.15297830414974928
2654,12.959789700005786,0.08496916498135793,0.06460628586811647,0.003694619024242351,0.07860885460731791,0.08877805683695013,-0.09437235247508692,-0.014822564642763306,-0.062403209697189536,-0.05753729275593035,-0.22235866943202998,-0.2631754032855198,0.1535842033149619
2655,12.964248399992355,0.08553719843375238,0.06538521077883158,0.0030932295172639342,0.07853368827337068,0.08846971124791432,-0.0946518509144855,-0.015909356041658402,-0.06368561815929501,-0.05678473314140801,-0.2221175759211751,-0.26126858042420675,0.15417251874941792
2656,12.970038100000238,0.0860914709305119,0.06615866003535555,0.002563831035600544,0.07845321022814844,0.08815511697749343,-0.09492766184226957,-0.01699489638345225,-0.06495859171696498,-0.05602934017644639,-0.22184851565392816,-0.2593203157949324,0.15474326659712723
2657,12.977574599994114,0.08711585162383434,0.06762660332935035,0.0013906808053750826,0.07836742695507108,0.08783432071506568,-0.09519977160424992,-0.018079048987387193,-0.06622192841633956,-0.055271199830746416,-0.22155153977877287,-0.25733094786536165,0.15529646710178915
2658,12.983435699992697,0.08773213338034123,0.06828508815666011,0.0008586231023542494,0.07827634560568565,0.08750737013408448,-0.09546816696713108,-0.01916167743778993,-0.06747542798948748,-0.05451039796510572,-0.22122670400192881,-0.2553008239341837,0.15583214459477152
2659,12.987749299994904,0.08834300359110378,0.06898750838782947,0.0003413961648901318,0.07817997399827098,0.08717431388366802,-0.09573283511795491,-0.020242645606336984,-0.06871889189753837,-0.05374702031135805,-0.2208740685634683,-0.2532303000590819,0.15635032748184594
2660,12.992388900005608,0.08887154061032476,0.06961994490988553,-0.0001371342839903162,0.07807832061633377,0.08683520157997858,-0.09599376366344468,-0.02132181767419667,-0.06995212337344715,-0.05298115245237991,-0.22049369821243697,-0.2511197409825246,0.1568510482286828
2661,12.998228099997505,0.08984617787176838,0.07088027645854819,-0.0011178576397460572,0.0779713946069971,0.08649008379739341,-0.09625094062924999,-0.022399058154042712,-0.07117492746438003,-0.052212879802170556,-0.22008566218098952,-0.24896952005539832,0.15733434334510923
2662,13.002673399998455,0.09033208694637551,0.07143185422133959,-0.0015259071625516154,0.07785920577928222,0.08613901205946937,-0.09650435445909324,-0.023474231911934738,-0.07238711107371153,-0.05144228758601161,-0.21965003415755466,-0.24678001915850922,0.15780025336813436
2663,13.006346499998472,0.09085861372410094,0.0719351361441829,-0.001973551006635088,0.07774176460228395,0.08578203882970313,-0.09675399401381793,-0.024547204189060836,-0.07358848300262219,-0.050669460820712324,-0.21918689225904284,-0.244551628621976,0.1582488228437452
2664,13.010420599995996,0.09139016748673788,0.0724733052210045,-0.0023998190403273995,0.07761908220324047,0.08541921750208863,-0.09699984857033898,-0.0256178406233376,-0.07477885399128661,-0.04989448429494695,-0.21869631900211092,-0.24228474714254306,0.15868010030747884
2665,13.014586799996325,0.09181271034384302,0.07299409479814133,-0.0028250219944503906,0.07749117036549831,0.08505060239147452,-0.09724190782049554,-0.02668600727086306,-0.07595803675964118,-0.049117442549690596,-0.21817840127349872,-0.2399797816988413,0.15909413826377614
2666,13.018648099998243,0.09218245237294714,0.0734764606557956,-0.0032673347449667257,0.07735804152637353,0.08467624872372422,-0.09748016186980665,-0.027751570627217975,-0.0771258460477216,-0.048338419858759356,-0.21763323029945167,-0.23763714746462536,0.1594909931641233
2667,13.022945899996555,0.09264235613316646,0.073934325603146,-0.0035821422621135756,0.07721970877490976,0.08429621262568072,-0.09771460123613039,-0.02881439764861111,-0.07828209865556036,-0.04755750020946061,-0.2170609016142456,-0.23525726772001646,0.15987072538398744
2668,13.026897699994151,0.09310685997376501,0.0743633445366315,-0.0039341551409188226,0.07707618584953362,0.0839105511149385,-0.0979452168482271,-0.029874355772864097,-0.07942661348263384,-0.04677476728335954,-0.21646151502782904,-0.23284057376077946,0.16023339919855326
2669,13.031326500000432,0.09357639806583097,0.07478226075224559,-0.004301959529735592,0.0769274871356085,0.0835193220894244,-0.09817200004422778,-0.03093131294023157,-0.08055921156685004,-0.04599030443716801,-0.21583517459260002,-0.23038750480566306,0.1605790827572682
2670,13.035244700004114,0.09403815275198218,0.07519616210371975,-0.00472983510597293,0.07677362766288763,0.08312258431679011,-0.09839494257000816,-0.0319851376140523,-0.08167971612306724,-0.04520419468376193,-0.21518198856933177,-0.22789850790183477,0.16090784805720346
2671,13.039630999992369,0.09450418657341632,0.07563891946068159,-0.005106240589964608,0.07661462310286689,0.08272039742361786,-0.09861403657746909,-0.033035698801227024,-0.08278795258113462,-0.04441652067333272,-0.21450206939226374,-0.22537403782844118,0.1612197709152378
2672,13.04792379999708,0.0953107952564685,0.07637672356926452,-0.005794862366057531,0.07645048976603844,0.08231282188444175,-0.09882927462272391,-0.03408286607251896,-0.08388374862344608,-0.04362736467467869,-0.21379553363337428,-0.2228145569983247,0.16151493093907315
2673,13.052708999995955,0.09573930311751473,0.07670638715302801,-0.006113310049414844,0.07628124459904562,0.08189991901058692,-0.09904064966419343,-0.03512650958267309,-0.08496693422199772,-0.04283680855664212,-0.21306250196585236,-0.22022053535793046,0.16179341149708926
2674,13.060564100000192,0.09652533402481328,0.07738257859914116,-0.006796471215824747,0.07610690518174025,0.08148175093882958,-0.09924815506060901,-0.03616650009035036,-0.08603734167494036,-0.042044933769697805,-0.21230309912678483,-0.21759245028543564,0.16205529968704552
2675,13.0649459999986,0.09690359274338683,0.07771557042765452,-0.007125515484723791,0.0759274897241438,0.08105838061988009,-0.09945178456892423,-0.037202708977873034,-0.08709480564261807,-0.041251821327698876,-0.21151745387907672,-0.2149307864871343,0.16230068630363947
2676,13.070152899992536,0.09723340098641053,0.07807209734715033,-0.007462271220810637,0.07574301706331343,0.08062987180669194,-0.099651532342136,-0.03823500827077758,-0.08813916318308436,-0.040457551789785336,-0.21070569897262245,-0.21223603589211157,0.1625296658049325
2677,13.074037400001544,0.09758804961248037,0.07840217280383217,-0.007794782290694332,0.0755535066601141,0.08019628904259901,-0.09984739292701565,-0.03926327065717151,-0.08917025378708769,-0.03966220524246094,-0.20986797110474525,-0.20950869754523943,0.16274233627765433
2678,13.080459599994356,0.09831281541685571,0.07895047631836735,-0.008435764802788943,0.07535897859589773,0.07975769764928378,-0.100039361261751,-0.040287369506890755,-0.09018791941251876,-0.03886586128184378,-0.2090044108799223,-0.20674927749852723,0.16293879940139716
2679,13.08493310000631,0.0986255576808087,0.07921600252739396,-0.008781717883019343,0.07515945356909065,0.07931416371457882,-0.10022743267350027,-0.041307178890454294,-0.09119200451831198,-0.03806859899609606,-0.2081151627688126,-0.20395828870086125,0.16311916041171037
2680,13.089178499998525,0.09891481269803837,0.07949907206099736,-0.009148947051707242,0.07495495289168953,0.07886575408010371,-0.10041160287585857,-0.042322573597812545,-0.09218235609779382,-0.037270496948038676,-0.2072003750666058,-0.20113625088616824,0.1632835280621075
2681,13.093386599997755,0.0991636863697946,0.07980922527076978,-0.00952281940625755,0.07474549848566683,0.07841253632873992,-0.10059186796623809,-0.0433334291568865,-0.09315882371147073,-0.036471633157956,-0.20626019985070967,-0.1982836904600387,0.163432014584997
2682,13.097681500003093,0.09942240380252412,0.08014327527759472,-0.00992739293181756,0.07453111287928703,0.07795457877194642,-0.10076822442316337,-0.04433962185189459,-0.09412125951924956,-0.03567208508659637,-0.2052947929377934,-0.19540114038484524,0.16356473565154955
2683,13.102110599997104,0.09971382347039802,0.08048655269919561,-0.010338568328284852,0.07431181920333478,0.07749195043691941,-0.10094066910348234,-0.04534102874146447,-0.09506951831208339,-0.03487192961837321,-0.2043043138402056,-0.19248914006339213,0.16368181033051465
2684,13.1063959000021,0.1000260485727251,0.08078379035606283,-0.010753042807163892,0.07408764118725641,0.07702472105359902,-0.10110919923949462,-0.04633752767652671,-0.09600345754303588,-0.03407124304477206,-0.20328892572178536,-0.1895482352211313,0.16378336104600072
2685,13.11099749999994,0.10033458809821301,0.08112954077230577,-0.01119140252660862,0.07385860315521615,0.07655296104152652,-0.10127381243599792,-0.04732899731798777,-0.09692293735775702,-0.03327010104796881,-0.20224879535308476,-0.18657897778698126,0.1638695135342325
2686,13.115463699999964,0.1005581908187608,0.08146557246044948,-0.011617271923238763,0.07362473002206817,0.07607674149655518,-0.10143450666725413,-0.04831531715417945,-0.09782782062436363,-0.03246857868466416,-0.20118409306602056,-0.183581925772785,0.16394039679929978
2687,13.119079600000989,0.10074262374161709,0.08175781827243954,-0.012007410751984145,0.07338604728924572,0.07559613417741766,-0.10159128027387607,-0.049296367518082,-0.09871797296271835,-0.03166675037013956,-0.20009499270797373,-0.18055764315144293,0.163996143067911
2688,13.122825400001602,0.10089998509989513,0.08205157716853334,-0.012447292090353244,0.07314258104056834,0.07511121149215304,-0.10174413195963604,-0.0502720296043184,-0.09959326277310086,-0.030864689862539544,-0.1989816715953558,-0.17750669973375846,0.16403688774316652
2689,13.128748100003577,0.10111707876186599,0.08234523464859078,-0.012838545315772346,0.07289435793796781,0.07462204648439599,-0.10189306078819695,-0.05124218548591734,-0.10045356126426516,-0.03006247024738534,-0.19784431046666137,-0.17442967104403345,0.16406276935736538
2690,13.133834399995976,0.10127855215811282,0.08262030238737758,-0.013304665084010223,0.072641405217134,0.07412871281953146,-0.10203806617976666,-0.052206718130842864,-0.10129874248087752,-0.029260163922324486,-0.19668309343502566,-0.1713271381944522,0.16407392952386182
2691,13.138964400000988,0.10147109343707138,0.0832653000938337,-0.014247573498349892,0.07238375068308187,0.07363128477071786,-0.10217914790767706,-0.05316551141828829,-0.10212868333032937,-0.028457842582121112,-0.19549820794030495,-0.16819968775829194,0.16407051288798688
2692,13.143399499997033,0.10154875415783286,0.08357430453753247,-0.014740540372561672,0.07212142270564106,0.07312983720478183,-0.10231630609488912,-0.05411845015473229,-0.10294326360891996,-0.027655577203891512,-0.19428984470069893,-0.16504791164199792,0.16405266707705068
2693,13.148108699999284,0.10159829875731713,0.08389182270408525,-0.015240611267127712,0.07185445021486878,0.07262444556798768,-0.10244954121042599,-0.05506542008975511,-0.10374236602740354,-0.026853438032589706,-0.193058197663933,-0.16187240695616095,0.16402054264944094
2694,13.152059500003816,0.10170401043958786,0.08421216666051007,-0.015695263395200845,0.07158286269638672,0.07211518587168454,-0.10257885406573482,-0.056006307931612945,-0.10452587623589653,-0.026051494566747258,-0.19180346395801956,-0.15867377588543574,0.16397429304283373
2695,13.15612549999787,0.10182659833347563,0.08446976876818901,-0.01627388593914606,0.07130669018664322,0.07160213467783444,-0.10270424581097856,-0.05694100136256862,-0.10529368284813993,-0.025249815544471574,-0.1905258438416178,-0.15545262555743727,0.16391407452153375
2696,13.160413799996604,0.10194504021412672,0.08471826791033059,-0.016889983740747253,0.07102596326810175,0.07108536908442445,-0.10282571793125915,-0.05786938905397673,-0.10604567746511201,-0.02444846892970685,-0.18922554065401223,-0.15220956791065376,0.16384004612296152
2697,13.168648199993186,0.10207680582781067,0.08529450590374686,-0.018301967118857294,0.07074071306435714,0.07056496671076617,-0.10294327224277344,-0.05879136068112135,-0.10678175469798674,-0.023647521898761847,-0.18790276076472903,-0.14894521956141507,0.1637523696033042
2698,13.172945099999197,0.10222463555257365,0.08555514045659804,-0.018949160292362793,0.07045097123518033,0.0700410056826857,-0.10305691088890324,-0.05970680693780478,-0.10750181219043396,-0.022847040827108436,-0.18655771352281048,-0.14566020166995522,0.16365120938234803
2699,13.177056000000448,0.10237747052540987,0.08577590425799278,-0.01957997098155751,0.07015676997149309,0.06951356461760765,-0.10316663633624047,-0.06061561955068594,-0.10820575064025684,-0.022047091276454926,-0.18519061120576638,-0.14235513980560713,0.16353673248751163
2700,13.181199900005597,0.10250776708043642,0.08600242107800245,-0.0202248433429587,0.0698581419902742,0.06898272260953653,-0.10327245137054866,-0.06151769129336686,-0.10889347382036267,-0.021247737982098128,-0.1838016689682211,-0.1390306638111687,0.1634091084970981
2701,13.185243999992965,0.10261749493547963,0.08623641301951741,-0.020937481143939854,0.06955512052939838,0.06844855921393897,-0.10337435909266228,-0.06241291600022596,-0.10956488859906284,-0.0204490448405579,-0.1823911047902741,-0.13568740766647855,0.16326850948278507
2702,13.190173900002264,0.10271047632129936,0.08644147011243815,-0.021670939762324704,0.069247739342409,0.06791115443253008,-0.1034723629143251,-0.06330118857999666,-0.1102199049596978,-0.019651074897497955,-0.18095913942559388,-0.13232600935123953,0.16311510995137107
2703,13.195914500000072,0.1027715089612609,0.08664567022735321,-0.02246715174384107,0.06893603269322615,0.06737058869796751,-0.10356646655396912,-0.06418240502909023,-0.11085843601958403,-0.018853890335936534,-0.17950599634926379,-0.12894711070712844,0.16294908678579786
2704,13.202068300000974,0.10296694252226228,0.0870337055866039,-0.023962692619733102,0.06862003535079114,0.06682694285845608,-0.10365667403243568,-0.06505646244466158,-0.11148039804827889,-0.018057552464750586,-0.1780319017053988,-0.12555135729923092,0.16277061918546729
2705,13.206286500004351,0.10305353758669886,0.08724808333721913,-0.024722552251610713,0.06829978258364842,0.06628029816226605,-0.10374298966864089,-0.06592325903741722,-0.11208571048516015,-0.0172621217074768,-0.17653708425455358,-0.12213939827684049,0.1625798886058729
2706,13.210262099993995,0.10312537055046778,0.08743635321124327,-0.02553092081038033,0.06797531015446596,0.06573073624216857,-0.10382541807518661,-0.0667826941441646,-0.11267429595631813,-0.016467657591412797,-0.17502177532094,-0.11871188623366001,0.16237707869756504
2707,13.214586799993413,0.10316792637234042,0.08763761096173593,-0.026319924739738734,0.06764665431449528,0.06517833909979182,-0.10390396415391887,-0.0676346682401022,-0.11324608029075779,-0.015674218737021767,-0.17348620873947299,-0.11526947706744346,0.16216237524446822
2708,13.21916290000081,0.10323457830723504,0.08785117194096022,-0.02708401803993803,0.06731385179797257,0.06462318908990045,-0.10397863309143483,-0.06847908295084981,-0.11380099253590899,-0.01488186284764359,-0.171930620802663,-0.1118128298391168,0.16193596610157204
2709,13.222903200003202,0.10329224576889441,0.08805860475054923,-0.02785884584867709,0.0669769398164624,0.06406536890460228,-0.10404943035454016,-0.06931584106421898,-0.11433896497244314,-0.01409064669951547,-0.17035525020737335,-0.10834260663141622,0.1616980411320142
2710,13.226929800002836,0.10335759153794186,0.08826591207281684,-0.0286594788402915,0.06663595605314528,0.06350496155748546,-0.10411636168565806,-0.07014484654172327,-0.11485993312839414,-0.013300626132104983,-0.16876033800146212,-0.10485947240708114,0.16144879214357571
2711,13.23108169999614,0.10343099878100458,0.0884365535836856,-0.029530283876298944,0.06629093865705037,0.06294205036768977,-0.10417943309819132,-0.07096600452982788,-0.1153638357925813,-0.0125118560387584,-0.16714612753032657,-0.10136409486663955,0.16118841282460977
2712,13.235456399997927,0.10349568532403824,0.08865900096776268,-0.03033227224680201,0.0659419262372345,0.062376718943915395,-0.10423865087183859,-0.07177922137093794,-0.11585061502733342,-0.01172439035766691,-0.16551286438336832,-0.09785714430582282,0.1609170986794254
2713,13.239684999993187,0.10359934897285193,0.08882164730695093,-0.031058708413011168,0.0655889578569085,0.06180905116837292,-0.10429402154786727,-0.07258440461412566,-0.1163202161805129,-0.010938282063153367,-0.1638607963403966,-0.09433929347264733,0.1606350469631477
2714,13.243502600002104,0.10370108865086743,0.08894365072585254,-0.031756599142814305,0.06523207302751231,0.06123913118067783,-0.10434555192434436,-0.0733814630255957,-0.11677258789683848,-0.010153583157282058,-0.16219017331798696,-0.09081121742420044,0.1603424566160753
2715,13.25020520000544,0.1037957099359087,0.08906726428470974,-0.03255805029305526,0.06487131170274024,0.06066704336169287,-0.10439324905132707,-0.07417030659888876,-0.1172076821285061,-0.009370344661793968,-0.16050124731581317,-0.08727359338316763,0.16003952819755662
2716,13.255694499996023,0.1040559919646252,0.08922286282745612,-0.03409889350856242,0.06450671427251771,0.0600928723173216,-0.1044371202260147,-0.07495084656482318,-0.11762545414510707,-0.00858861661036983,-0.15879427236297,-0.08372710059413803,0.15972646381940578
2717,13.260069700001624,0.10415399255506724,0.08928572371995551,-0.03485338132989228,0.06413832155693036,0.05951670286225645,-0.10447717298786341,-0.0757229954011751,-0.11802586254284252,-0.007808448041223154,-0.15706950446430423,-0.08017242017972478,0.15940346707887895
2718,13.264399499996216,0.10426408931890463,0.08931862711426394,-0.03554537572879736,0.0637661748001073,0.05893862000368428,-0.1045134151136655,-0.07648666684209697,-0.11840886925303437,-0.0070298869900253256,-0.15532720154677152,-0.0766102349965371,0.15907074299123228
2719,13.268644399999175,0.1043752228683196,0.08937595322169753,-0.036212096287654705,0.0633903156640591,0.05835870892495278,-0.10454585461259479,-0.07724177588727482,-0.11877443954993255,-0.006252980483164652,-0.1535676234058369,-0.07304122949104042,0.15872849792188337
2720,13.27290909999283,0.10445380293476425,0.0894130427048529,-0.03691659303084836,0.06301078622247185,0.05777705496920136,-0.10457449972122,-0.07798823881082463,-0.11912254205781818,-0.005477774531341225,-0.1517910316519365,-0.0694660895553408,0.15837693951819906
2721,13.27709849999519,0.10453252262642435,0.08944311089110071,-0.037632604170877756,0.06262762895445795,0.05719374362295992,-0.10459935889848769,-0.07872597316992834,-0.11945314875740301,-0.00470431412349932,-0.1499976896570164,-0.0658855023829289,0.158016276640931
2722,13.282002299994929,0.10458226740442908,0.08949556861215402,-0.038314726255031684,0.06224088673826544,0.056608860499719305,-0.10462044082067565,-0.07945489781320954,-0.11976623499152553,-0.0039326432210989686,-0.1481878625011652,-0.06230015632441913,0.1576467192953216
2723,13.29128170000331,0.1046712424969153,0.08956943564642479,-0.03955672957239845,0.06185060284494703,0.05602249132347703,-0.10463775437631892,-0.08017493288884966,-0.12006177947014408,-0.003162804752728201,-0.14636181691935587,-0.05871074074331921,0.15726847856190157
2724,13.295458799999324,0.10473443204825221,0.08958528994087098,-0.040137056143018435,0.06145682093199028,0.05543472191226163,-0.10465130866111035,-0.0808859998524455,-0.1203397642746278,-0.0023948406090573697,-0.14451982124831314,-0.055117945871865276,0.15688176652700225
2725,13.299814500001958,0.10479599738746105,0.0896051791605531,-0.040710946742342234,0.06105958503691027,0.05484563816163923,-0.10466111297277708,-0.08158802147460885,-0.1206001748613459,-0.0016287916381368174,-0.14266214537352098,-0.05152246266695725,0.15648679621300335
2726,13.304039199996623,0.10485822003950736,0.08959535243159486,-0.041353795611653754,0.06065893957080641,0.05425532602820576,-0.1046671768059349,-0.08228092184830912,-0.12084300006455706,-0.0008646976410390789,-0.14078906067638586,-0.04792498266622841,0.1560837815083381
2727,13.308382200004417,0.10497415018590232,0.08955777645800045,-0.04195639692925346,0.06025492931188445,0.05366387151306827,-0.10466950984692173,-0.08296462639595953,-0.12106823209859931,-0.00010259736784670387,-0.13890083998157082,-0.04432619784428297,0.1556729370972788
2728,13.314891300004092,0.10517192362845434,0.08944633773361858,-0.04320407112073315,0.05984759939894526,0.053071360645319005,-0.10466812196861155,-0.08363906187624735,-0.12127586655938218,0.000657471486013355,-0.13699775750451534,-0.040726800469135294,0.1552544783895246
2729,13.320767600002,0.10525134771167313,0.089339432773292,-0.04379665201469386,0.05943699532484143,0.05247787946550554,-0.10466302322521061,-0.08430415639070958,-0.12146590242518253,0.00141547228308794,-0.13508008879915603,-0.03712748295888427,0.15482862144961337
2730,13.324831199992332,0.10532073939060692,0.08923997602055538,-0.04435799796316352,0.059023162929903054,0.051883514009100795,-0.10465422384703804,-0.08495983939005566,-0.1216383420567453,0.002171369446867735,-0.1331481107058629,-0.03352893773865567,0.15439558292617914
2731,13.330728700006148,0.10548486952048572,0.0889939242997277,-0.045411111579877955,0.05860614839533415,0.05128835028997611,-0.10464173423529276,-0.08560604168023908,-0.12179319119669077,0.0029251284644085346,-0.1312021012996059,-0.02993185709784553,0.15395557998107623
2732,13.336087399991811,0.10557532350714387,0.08886350583718913,-0.04590642932671451,0.05818599823658095,0.05069247428388097,-0.10462556495680861,-0.0862426954282792,-0.12193045896823022,0.003676715888603213,-0.12924233983836672,-0.02633693304769647,0.15350883021839234
2733,13.33980810000503,0.10565765741714006,0.08869908426175026,-0.04638137408121998,0.057762759296673065,0.0500959719119328,-0.10460572673879993,-0.0868697341678348,-0.12205015787319189,0.004426099340103984,-0.1272691067118102,-0.022744857179239065,0.15305555161337261
2734,13.344158899999456,0.10574710354413064,0.08853659790839324,-0.04684462909290766,0.05733647873953875,0.04949892902412062,-0.10458223046359953,-0.08748709280453068,-0.12215230378935898,0.005173247508894654,-0.12528268339022836,-0.01915632052162938,0.1525959624412773
2735,13.34810020000441,0.10583426572157335,0.08834818989681245,-0.04732538952567766,0.05690720404329541,0.04890143138282579,-0.10455508716339082,-0.08809470762103885,-0.12223691596712212,0.005918130155512682,-0.12328335237377111,-0.015572013400913944,0.15213028120619465
2736,13.353926600000705,0.10592792144777471,0.08816367339343427,-0.04778707033676171,0.056474982993516804,0.048303564646363185,-0.10452430801493619,-0.08869251628191586,-0.1223040170254481,0.006660718111920992,-0.12127139714197642,-0.011992625299252801,0.1516587265698316
2737,13.37009909999324,0.10650894794524164,0.08730782920981847,-0.0496166648517725,0.05603986367647817,0.04770541435254582,-0.10448990433430348,-0.0892804578381976,-0.12235363294716782,0.007400983282029524,-0.11924710210361338,-0.008418844714630997,0.15118151728030446
2738,13.376559099997394,0.10683808057181803,0.08690067963834017,-0.050404580767564475,0.055601894472380474,0.047107065902276264,-0.10445188757159181,-0.08985847273175342,-0.12238579307358544,0.008138898641866696,-0.1172107525468503,-0.0048513590210883285,0.15069887210095217
2739,13.38323209999362,0.10699466739985233,0.08668821791042643,-0.05080698512256346,0.055161124048555096,0.04650860454316831,-0.10441026930565817,-0.09042650279940082,-0.12240053009841147,0.008874438239401006,-0.11516263458975964,-0.001290854329496867,0.15021100973919424
2740,13.387496499999544,0.10713265268310579,0.08645235274207533,-0.051216634142934134,0.05471760135264969,0.045910115353201955,-0.10436506123884673,-0.0909844912767828,-0.12239788006102284,0.009607577194013166,-0.11310303513117152,0.0022619846510847663,0.14971814877545497
2741,13.396017099992603,0.1073661231985154,0.08603954679682632,-0.05192149069350872,0.0542713756057965,0.04531168322441516,-0.10431627519172249,-0.091532382802009,-0.12237788233905304,0.010338291695619218,-0.11103224180188727,0.0058064747514516915,0.1492205075921757
2742,13.400836500004516,0.10745346793285367,0.0858016320772865,-0.05226221452127182,0.05382249629576411,0.044713392846635516,-0.10426392309781093,-0.09207012341906248,-0.1223405796403157,0.011066559003445157,-0.10895054291626478,0.009341934479659425,0.1487183043029373
2743,13.40602549999312,0.10771116427595222,0.08538859666233277,-0.052884448973614995,0.05337101317009384,0.044115328691255125,-0.10420801699834498,-0.09259766058097474,-0.12228601799406488,0.011792357444453729,-0.10685822742418633,0.012867684157769092,0.14821175668171477
2744,13.410452299998724,0.1077998658837906,0.08515852536075709,-0.05321210244613914,0.0529169762292217,0.043517574995051767,-0.1041485690370211,-0.09311494315276994,-0.12221424674159607,0.012515666411424249,-0.10475558486341933,0.016383046057903847,0.14770108209228505
2745,13.41503059999377,0.10790430942732739,0.08494735452111231,-0.05351236733674326,0.052460435719587147,0.042920215744059506,-0.10408559145476702,-0.09362192141418008,-0.12212531852619013,0.0132364663606863,-0.10264290531238063,0.019887344537589592,0.14718649741780904
2746,13.418749799995568,0.107987355584942,0.08475265527304686,-0.05383042229997413,0.05200144212672948,0.042323334657491773,-0.10401909658452275,-0.09411854706213271,-0.12201928928240381,0.013954738809508234,-0.10052047934331383,0.023379906174353572,0.14666821899060753
2747,13.423324999996112,0.10805838068166101,0.08455330727367934,-0.05412369725251155,0.051540046168373224,0.041727015171720096,-0.10394909684603663,-0.09460477321301343,-0.12189621822471046,0.014670466333141556,-0.0983885979758894,0.026860059899554815,0.14614646252215213
2748,13.427666699994006,0.10812072228587825,0.08437233476073891,-0.054406691133394615,0.051076298787503596,0.04113134042431133,-0.10387560474067825,-0.09508055440470513,-0.12175616783549487,0.015383632561522408,-0.09624755263123669,0.030327137131420927,0.14562144303329216
2749,13.431864700003644,0.10821507491049052,0.08420869142424305,-0.05464748892746489,0.05061025114543306,0.04053639323812662,-0.10379863284627018,-0.09554584659840623,-0.1215992038524067,0.01609422217563143,-0.09409763508641719,0.03378047190726611,0.14509337478473885
2750,13.43617699999595,0.10830293689989512,0.08403686872456807,-0.05490891464423139,0.050141954614859825,0.03994225610548514,-0.1037181938119404,-0.09600060718022975,-0.12142539525507665,0.016802220903513493,-0.0919391374293479,0.03721940101486561,0.14456247120782842
2751,13.441843399996287,0.10840692909984476,0.0838606548998163,-0.05517288766450027,0.04967146077291934,0.039349011172395705,-0.10363430035299714,-0.09644479496258544,-0.12123481425119952,0.017507615515958853,-0.08977235201418254,0.040643264122962444,0.1440289448355844
2752,13.446850199994516,0.10848186076467552,0.0837006688416642,-0.05544891000722517,0.049198821394230145,0.038756740222859486,-0.10354696524582792,-0.09687837018534759,-0.12102753626198892,0.01821039382184724,-0.08759757141715939,0.04405140391088259,0.14349300723410033
2753,13.456610099994576,0.10884058594087793,0.08323183224249874,-0.05617497452178399,0.0487240884439352,0.038165524663246866,-0.1034562013228241,-0.09730129451681083,-0.12080363990700817,0.018910544663156493,-0.08541508839292275,0.04744316619723534,0.142954868934263
2754,13.461221100005789,0.10899923098142776,0.08309819582617484,-0.056408451841487815,0.0482473140707397,0.037575445506751425,-0.10336202146733263,-0.09771353105443643,-0.1205632069883821,0.019608057909637586,-0.08322519583132593,0.050817900067676114,0.1424147393638366
2755,13.464771600003589,0.10913988254730703,0.08295758850516492,-0.0566334390553582,0.047768550599946454,0.036986583357923715,-0.10326443860863692,-0.09811504432539109,-0.12030632247439547,0.020302924453157983,-0.08102818671472245,0.05417495800170936,0.14187282677992658
2756,13.46892719999596,0.10932121974228376,0.08282610128560733,-0.05686241430869851,0.0472878505264898,0.03639901839728789,-0.10316346571696833,-0.09850580028688032,-0.12003307448248317,0.02099513620171516,-0.0788243540757525,0.05751369599850972,0.14132933820184315
2757,13.473246800000195,0.10949960495328952,0.08271477068918902,-0.057097766978680436,0.04680526650796898,0.03581283036604403,-0.1030591157985495,-0.09888576632627942,-0.11974355426161792,0.021684686073122468,-0.07661399095563047,0.0608334737017396,0.1407844793443844
2758,13.477314399991885,0.1096944656351038,0.08260129749114196,-0.0573077932722688,0.046320851357681936,0.035228098550859,-0.10295140189067066,-0.09925491126106482,-0.11943785617410092,0.022371567988369506,-0.07439739036293931,0.06413365452334195,0.14023845455155762
2759,13.484216299999389,0.10987158861399156,0.08245409260777725,-0.05753174784641674,0.04583465803766054,0.03464490176874844,-0.10284033705680069,-0.09961320533854787,-0.1191160776767602,0.023055776864659285,-0.07217484523293718,0.0674136057662877,0.13969146673075825
2760,13.489885000002689,0.11029813690411319,0.08219696124823062,-0.05790684853449508,0.04534673965170788,0.03406331835205276,-0.10272593438173419,-0.09996062023541377,-0.11877831930156153,0.02373730860812464,-0.06994664838738139,0.07067269874625755,0.13914371728742483
2761,13.494135500004631,0.11045841371862301,0.08210493999713002,-0.05811654502238041,0.044857149438438736,0.03348342613350954,-0.10260820696677639,-0.10029712905706809,-0.11842468463563668,0.024416160106226374,-0.06771309249487448,0.07391030891223864,0.13859540606018833
2762,13.498086399995373,0.11063454138529592,0.08201694088619359,-0.05832519253350898,0.0443659407643242,0.03290530243142548,-0.10248716792496762,-0.10062270633679307,-0.1180552803007344,0.025092329219835726,-0.06547447003173712,0.07712581596601678,0.1380467312565353
2763,13.502801599999655,0.1108057425684801,0.08194324756973222,-0.05850097101063899,0.043873167116741336,0.03232902403495082,-0.1023628303763485,-0.10093732803471653,-0.11767021593209911,0.025765814775003757,-0.06323107324341157,0.08031860398054518,0.1374978893890041
2764,13.5072172999935,0.11096972493864994,0.08187941216109892,-0.05867993344530381,0.043378882097028865,0.03175466718945887,-0.10223520744326745,-0.10124097153659542,-0.11726960415678363,0.026436616554420322,-0.060983194106399324,0.08348806151717166,0.13694907521193223
2765,13.511404899996704,0.11113854305301996,0.08183705330162355,-0.058850022940534485,0.04288313941354964,0.031182307582033275,-0.1021043122457322,-0.10153361565241734,-0.11685356057140135,0.027104735288565295,-0.05873112429073687,0.08663358174170661,0.13640048165877272
2766,13.515351299996835,0.11130750854829508,0.08177995612746448,-0.05900487616141442,0.04238599287476058,0.03061202032706553,-0.10197015789680665,-0.10181524061482253,-0.11642220371932382,0.027770172646554795,-0.056475155123012995,0.08975456253931433,0.13585229977999735
2767,13.518912899991848,0.11144729481109583,0.08172980539752722,-0.059164809926739545,0.041887496382290675,0.03004387995196567,-0.10183275749805426,-0.10208582807734909,-0.11597565506732949,0.028432931226685294,-0.054215577549930644,0.09285040662821077,0.13530471868160399
2768,13.523608400006196,0.11157944481243555,0.08170962169015755,-0.05932800872529599,0.04138770392402767,0.029477960382988465,-0.10169212413502893,-0.10234536111250407,-0.11551403898170913,0.029093014546678765,-0.051952682102415694,0.09592052167215145,0.13475792546424478
2769,13.527349399999366,0.11172009101959632,0.08167312537923031,-0.05950273186292493,0.04088666956721434,0.02891433493117783,-0.10154827087281508,-0.102593824209663,-0.11503748270383388,0.029750427033632034,-0.04968675886027516,0.09896432039169306,0.13421210516299203
2770,13.531529899992163,0.11187080044060715,0.08164085407562024,-0.05966075767828841,0.04038444745155508,0.02835307627843181,-0.10140121075161909,-0.10283120327280042,-0.11454611632519186,0.030405174013673365,-0.047418097417406734,0.1019812206742136,0.13366744068775807
2771,13.535525200000848,0.11200888699535029,0.08161541730613425,-0.05983444860690304,0.039881091782333816,0.027794256463690728,-0.10125095678241337,-0.10305748561805406,-0.11404007276189997,0.03105726170132959,-0.04514698684756132,0.10497064568267594,0.13312411276438604
2772,13.539775900004315,0.1121553294574935,0.08158631313643043,-0.059999470812078896,0.039376656823543875,0.02723794686925096,-0.1010975219426346,-0.10327265997112517,-0.1135194877286971,0.03170669718860706,-0.04287371567065998,0.1079320239631205,0.13258229987642836
2773,13.544568600002094,0.11013999365688128,0.08139689001958646,-0.05871591092503484,0.038871196891030683,0.026684218207206817,-0.10094091917193691,-0.10347671646451773,-0.11298449971242536,0.032353488433789664,-0.04059857181966628,0.11086478955087258,0.13204217820762928
2774,13.55245410000498,0.11033507853085071,0.08147300794420993,-0.05888868907925964,0.038364766345647845,0.026133140506023115,-0.10078116136800165,-0.10366964663461882,-0.11243524994500456,0.0329976442499575,-0.03832184260801454,0.11376838207544994,0.13150392158512716
2775,13.556059800001094,0.11047982355358667,0.0815264851561758,-0.059083968637164794,0.03785741958642766,0.02558478309724083,-0.10061826138240454,-0.10385144341862286,-0.1118718823759066,0.03363917429322997,-0.03604381469759443,0.11664224686415703,0.13096770142339115
2776,13.56138379999902,0.11060248529125764,0.0815657844674436,-0.05921652406475767,0.037349211043767,0.02503921460231834,-0.10045223201654194,-0.10402210115130181,-0.11129454364413578,0.03427808905073722,-0.03376477406729179,0.11948583504435273,0.13043368666890706
2777,13.566254599994863,0.11072751465415374,0.08163267662023958,-0.059377989806207905,0.03684019517262915,0.0244965029196105,-0.10028308601761772,-0.10418161556162456,-0.11070338304972285,0.034914399828323686,-0.03148500598208566,0.12229860364437897,0.12990204374562708
2778,13.570674400005371,0.11086492564037471,0.08168162729626086,-0.059534445379925735,0.03633042644576208,0.023956715211487775,-0.10011083607469222,-0.1043299837692284,-0.1100985525247392,0.0355481187379876,-0.029204794962700925,0.12508001569313829,0.12937293650119852
2779,13.575563199992756,0.11096997077601715,0.08176258201303661,-0.0596912548930495,0.0358199593469336,0.023419917891597784,-0.09993549481479409,-0.104467204280745,-0.10948020660383712,0.036179258685060285,-0.026924424755815836,0.12782954031830832,0.1288465261539864
2780,13.580586099997165,0.11122825661057087,0.08192346452566393,-0.05998513548653527,0.0353088483641843,0.022886176612271342,-0.09975707479909644,-0.10459327698598342,-0.10884850239432275,0.03680783335512926,-0.02464417830482307,0.1305466528431817,0.12832297124090375
2781,13.58963259999291,0.11148323258628628,0.08207319616210397,-0.060310509241103094,0.034797147983099075,0.0223555562520753,-0.09957558851915839,-0.10470820315397317,-0.10820359954576847,0.03743385720070899,-0.022364337721142966,0.1332308348821201,0.12780242756606242
2782,13.595059200000833,0.11160417748339442,0.08217988036617363,-0.06048889034465718,0.03428491268009806,0.021828120903514246,-0.0993910483932329,-0.10481198542886994,-0.10754566021917067,0.03805734542766352,-0.020085184256087112,0.13588157443461193,0.12728504815025674
2783,13.599179700002423,0.11170508212634991,0.08228653627021586,-0.06064714616281987,0.03377219691574754,0.021303933860883258,-0.09920346676264219,-0.10490462782572658,-0.1068748490556592,0.03867831398138516,-0.01780699827327022,0.13849836597792395,0.1267709831812926
2784,13.60306579999451,0.11180636336993698,0.08240105201251958,-0.06082692314975624,0.033259055128091235,0.02078305760827392,-0.0990128558882218,-0.10498613572613182,-0.10619133314476524,0.039296779532733736,-0.015530059221568025,0.14108071055833596,0.12626037996517425
2785,13.608108899992658,0.11189613609812481,0.08252225745146147,-0.06100211705937862,0.03274554172600262,0.02026555380773578,-0.0988192279468345,-0.10505651587371974,-0.10549528199225425,0.03991275946374074,-0.01325464560861856,0.14362811588095048,0.12575338287816193
2786,13.61485569999786,0.11209638079778804,0.08275731148290776,-0.06140280660545205,0.032231711082558935,0.019751483287595337,-0.098622595027955,-0.10511577636955274,-0.10478686748753048,0.040526271853082635,-0.010981034974863866,0.14614009639806777,0.12525013331971305
2787,13.618482299993047,0.11220208816368339,0.08290430623035412,-0.061646893850186915,0.03171761752843757,0.01924090603093454,-0.09842296913032668,-0.10516392666738036,-0.10406626387062,0.04113733546132766,-0.008709503868128896,0.14861617339611818,0.12475076966632011
2788,13.622942200003308,0.11232928914315715,0.08305388483411791,-0.06184770261166857,0.031203315345335308,0.01873388116423066,-0.0982203621586906,-0.1052009775687768,-0.10333364769873923,0.04174596971596044,-0.006440327818734149,0.15105587508114382,0.12425542722625649
2789,13.626932500003022,0.11241648790450316,0.08319067610170038,-0.062118303619743465,0.030688858759410874,0.018230466946159454,-0.09801478592058836,-0.10522694121815965,-0.10258919781245616,0.04235219469618882,-0.004173781315138274,0.15345873666282078,0.12376423819524188
2790,13.63116330000048,0.11253298632068723,0.08334304483322429,-0.06236273969441431,0.03017430193475121,0.017730720756563532,-0.09780625212323983,-0.10524183109769228,-0.10183309530145097,0.04295603111753744,-0.001910137780106702,0.15582430043701512,0.12327733161303828
2791,13.63554160000058,0.11266549871284441,0.08349853053220418,-0.06261566975520481,0.02965969896686208,0.017234699085587796,-0.09759477237049724,-0.10524566202207206,-0.10106552346988315,0.043557500316232706,0.00035033045259792863,0.1581521158668657,0.12279483332098724
2792,13.639370499993674,0.1127787420838809,0.08366609067949259,-0.06287755199204711,0.029145103876183673,0.016742457522983638,-0.09738035815987672,-0.1052384501332069,-0.10028666780137217,0.044156624233383734,0.0026073521610080336,0.16044173966238834,0.12231686592049892
2793,13.643585600002552,0.11290148495614866,0.08381958994217134,-0.06313674766719699,0.028630570601631503,0.016254050747583803,-0.09716302087966773,-0.10522021289478309,-0.09949671592359831,0.04475342539896407,0.004860657257230714,0.16269273585859476,0.121843548732503
2794,13.648113200004444,0.11301328716254552,0.08400044011266641,-0.06336977153177113,0.028116152994163215,0.0157695325169498,-0.09694277180612117,-0.10519096908672679,-0.0986958575725304,0.04534792691559908,0.007109976809219721,0.16490467589211963,0.1213749977578716
2795,13.652196399998502,0.11310508558898899,0.08414634272164925,-0.06360818324923957,0.027601904810371624,0.015288955657193468,-0.0967196221007169,-0.10515073879956158,-0.0978842845562876,0.04594015244216391,0.009355043062044939,0.16707713867634935,0.12091132563882329
2796,13.657027799999923,0.113175982119941,0.08430956229364465,-0.06387041489082876,0.027087879706104438,0.014812372052974452,-0.0964935828075116,-0.1050995434286648,-0.09706219071864239,0.04653012617719677,0.011595589458664778,0.1692097106750474,0.12045264162131777
2797,13.665173300003516,0.11331640032856126,0.08467657108776265,-0.06440601003305371,0.02657413123011129,0.014339832637675307,-0.09626466485056769,-0.10503740566842497,-0.09622977190217182,0.04711787284213258,0.013831350660207098,0.1713019859744706,0.11999905151845025
2798,13.668813500000397,0.11336788276731322,0.08485463357081538,-0.06469375492077116,0.026060712817718476,0.013871387383755816,-0.09603287903146403,-0.10496434950630229,-0.09538722591106424,0.04770341766436188,0.01606206256576452,0.1733535663539715,0.11955065767485447
2799,13.673213300004136,0.11339957528323938,0.08506026644392892,-0.06498680775161449,0.025547677784531958,0.013407085293288212,-0.09579823602688925,-0.10488040021679451,-0.09453475247358825,0.048286786360120286,0.01828746233171017,0.17536406135508145,0.119107558932124
2800,13.67815759999212,0.11340958146470462,0.08525308314780836,-0.0652377529197065,0.025035079320169084,0.012946974388674938,-0.09556074638631878,-0.10478558435531014,-0.0936725532042304,0.04886800511721354,0.020507288390540054,0.1773330883490713,0.11866985059525954
2801,13.681867999999668,0.11341547476580428,0.08546482713797847,-0.06548994905697832,0.024522970482019534,0.012491101703550493,-0.09532042052977611,-0.10467992975195142,-0.09280083156550874,0.049447100577583565,0.022721280469248428,0.1792602726029857,0.11823762440014997
2802,13.686067500006176,0.11340042998695543,0.0856476883143504,-0.06572016883793677,0.02401140418903583,0.012039513273868874,-0.0950772687456796,-0.10456346550520874,-0.09191979282946952,0.05002409981972077,0.024929179607242793,0.18114524734414753,0.11781096848209531
2803,13.689700200004154,0.11339499872836736,0.08583507650053046,-0.06593534499471242,0.02350043321555382,0.011592254129178086,-0.09483130118877549,-0.10443622197556857,-0.09102964403887424,0.05059903034092769,0.02713072817380531,0.1829876538231291,0.1173899673453783
2804,13.693916699994588,0.11339761331732146,0.08601130274173885,-0.06617316037392704,0.022990110185143558,0.011149368284083236,-0.09458252787815824,-0.10429823077903715,-0.09013059396808358,0.05117192003943955,0.029325669885107788,0.18478714137518645,0.11697470183389146
2805,13.698285199992824,0.113372531582052,0.08616070514285316,-0.06640584588125756,0.022480487564490986,0.010710898729899589,-0.09433095869537865,-0.10414952478058245,-0.08922285308364572,0.05174279719640706,0.03151374982078758,0.1865433674801545,0.11656524910282684
2806,13.701898800005438,0.11336588374266164,0.0863207371994245,-0.06664667733265628,0.021971617657310878,0.010276887426497013,-0.09407660338264064,-0.10399013808749635,-0.08830663350459625,0.052311690457746834,0.033694714440091644,0.18825599782080044,0.11616168259143501
2807,13.706128199992236,0.11335737970736187,0.08647819248911182,-0.06690571988021982,0.021463552598291514,0.009847375294337149,-0.09381947154108722,-0.10382010604267904,-0.08738214896247716,0.05287862881586487,0.03586831159759623,0.18992470633963263,0.11576407199685936
2808,13.710393699991982,0.1133542861717752,0.08661678751789212,-0.06715307895584655,0.02095634434707141,0.009422402206704648,-0.0935595726291765,-0.10363946521784746,-0.08644961476108247,0.05344364159125842,0.0380342905585096,0.1915491752941625,0.11537248324905158
2809,13.71487719999277,0.11336453066756692,0.08675002250639784,-0.06740708528987913,0.020450044682248456,0.009002006982133758,-0.09329691596114842,-0.10344825340667028,-0.08550924773593761,0.054006758414001634,0.040192402013565685,0.1931290953106179,0.11498697848677351
2810,13.726754599993,0.11337190125777596,0.08716324428169299,-0.0681764101951774,0.019944705195421773,0.00858622737703148,-0.09303151070558312,-0.10324650961783101,-0.08456126621352036,0.05456800920512036,0.04234239809351655,0.19466416543610512,0.11460761603469113
2811,13.731143600001817,0.11339377447749746,0.08728116376665516,-0.06846940810396526,0.01944037728526673,0.00817510007849857,-0.09276336588405139,-0.10303427406802161,-0.08360588997023055,0.05512742415786138,0.04448403238323157,0.19615409318921817,0.11423445038156559
2812,13.73530089999258,0.11341831302903592,0.08738541469573574,-0.06873588630958673,0.018937112151643388,0.0077686606973495645,-0.0924924903698571,-0.10281158817486842,-0.08264334019111619,0.055685033718861514,0.0466170599354116,0.19759859460909332,0.1138675321595465
2813,13.739714299998012,0.11346800779985487,0.08751067410000302,-0.06897848992244529,0.018434960789738802,0.007366943761333042,-0.09221889288687202,-0.10257849454979204,-0.0816738394283637,0.05624086856922198,0.04874123728392661,0.19899739430290783,0.11350690812457238
2814,13.746264799992788,0.1134858266488653,0.08762034552520022,-0.06923467118969681,0.017933973984243394,0.00696998270855317,-0.09194258200846359,-0.10233503699080326,-0.08069761155955979,0.056794959605493266,0.05085632245678532,0.20035022549182221,0.11315262113788195
2815,13.751339199996435,0.11362125113462475,0.08784681896634505,-0.06967457795126637,0.017434202303561738,0.006577809881093702,-0.0916635661565162,-0.10208126047523704,-0.07971488174573237,0.057347337920576176,0.05296207498874529,0.2016568300553664,0.11280471014863976
2816,13.75583569999435,0.11367216949616793,0.08793444389195061,-0.0699364760207054,0.01693569609405811,0.006190456518845515,-0.09138185360054675,-0.1018172111524265,-0.07872587638917808,0.05789803478454469,0.05505825593357211,0.20291695857426975,0.1124632101776798
2817,13.760571999999229,0.1137186064416298,0.08803830530912746,-0.07020908304621953,0.01643850547433702,0.005807952753538704,-0.09109745245691467,-0.10154293633631876,-0.07773082309108348,0.058447081625395955,0.057144627875956366,0.20413037037173473,0.11212815230236987
2818,13.76448800000071,0.11378074244963614,0.0881350064537264,-0.07048197922278682,0.0159426803295592,0.005430327602980225,-0.09081037068812696,-0.1012584844980337,-0.0767299506089473,0.05899451000973313,0.05922095494309722,0.20529683355315292,0.11179956364259964
2819,13.768737099991997,0.11384775782178592,0.0882229989372445,-0.07076711315421697,0.015448270305793373,0.005057608965498031,-0.09052061610223805,-0.10096390525836801,-0.0757234888138114,0.059540351623386514,0.06128700281596176,0.20641612504426343,0.11147746734789496
2820,13.77291349999723,0.11391394131733824,0.08831079265887504,-0.07105792511376646,0.014955324804404164,0.004689823614592663,-0.09022819635234498,-0.10065924938024601,-0.07471166864730755,0.060084638251978295,0.06334253874022934,0.2074880306277533,0.1111618825856614
2821,13.77691679999407,0.11397990335928576,0.08838196261590898,-0.07134632790030712,0.014463892976476345,0.004326997193797201,-0.08993311893617774,-0.1003445687611178,-0.0736947220785279,0.06062740176143626,0.06538733153692994,0.20851234497829893,0.11085282453056022
2822,13.78142040000239,0.11404979638197507,0.08845025644678767,-0.0716704991247236,0.013974023717275713,0.003969154211746439,-0.08963539119578454,-0.10001991642530667,-0.07267288206072658,0.06116867407846164,0.06742115161278556,0.20948887169604877,0.11055030435501867
2823,13.78533790000074,0.11414573332804885,0.08849949038487982,-0.07198450202610635,0.013485765660746857,0.0036163180374561067,-0.08933502031731247,-0.0996853465163064,-0.07164638248786014,0.061708487170956915,0.06944377097026418,0.21041742333854838,0.11025432922087697
2824,13.79094819999591,0.11429520361600709,0.08852256131250211,-0.07230298176757326,0.012999167174048004,0.0032685108958129118,-0.08903201333088348,-0.09934091428902975,-0.07061545815097406,0.06224687302841942,0.07145496321735555,0.2112978214511072,0.10996490227217336
2825,13.795958699993207,0.11443175454951478,0.08854679541597309,-0.07265845133046252,0.012514276352123193,0.002925753863276173,-0.0887263771105659,-0.09898667610200888,-0.06958034469444319,0.0627838636423062,0.07345450357707796,0.21212989659560816,0.10968202262906852
2826,13.799956100003328,0.11457176032360658,0.08858686477852905,-0.07301579108582529,0.012031141012312013,0.0025880668637917716,-0.08841811837444156,-0.09862268940954913,-0.06854127857207316,0.06331949098637589,0.07544216889672507,0.21291348837776133,0.1094056853829109
2827,13.803898300000585,0.1147189909693545,0.08864529085936165,-0.07339872855838729,0.011549808688997227,0.0022554686649191268,-0.08810724368476844,-0.09824901275383736,-0.06749849700307002,0.06385378699701286,0.07741773765686251,0.2136484454728034,0.10913588159244404
2828,13.808258599994588,0.11491042659533736,0.08868051391348696,-0.07378493245813357,0.011070326628290484,0.0019279768741718483,-0.08779375944823839,-0.09786570575700604,-0.06645223792788528,0.06438678355353923,0.07938098998008404,0.21433462564964367,0.10887259828115756
2829,13.814865199994529,0.11520812998131882,0.08874472731206504,-0.07455831980907833,0.010592741782756326,0.0016056079355726792,-0.0874776719163303,-0.09747282911315355,-0.06540273996394345,0.06491851245852026,0.08133170763953661,0.2149718957934596,0.10861581843578198
