,time,x,y,z,vx,vy,vz,ax,ay,az,jx,jy,jz
0,0.0032404999947175,0.0,0.0,0.0,1.0278735032867871e-05,5.35706526534446e-05,0.0007232658457545772,0.0002765428820363757,-0.001425041401100404,0.002612430202921409,0.0035227924744264732,-0.003061712713635883,-0.035557667041946295
1,0.0087332999974023,-0.00014253035321644828,-0.00026857155508855856,0.0001339225997712828,-2.050150392592626e-05,-0.0001819917175977251,0.001342397686777133,0.0002245864464785041,-0.0029353796148788225,0.00406231887477776,0.0035699620730938663,-0.008258458088631087,-0.039912756600150145
2,0.0125026999885449,-0.00030187304484839553,-0.0004966454759790416,0.00025150780394491204,-5.101444129788524e-05,-0.0004201966730064925,0.001958710566816602,0.00017404597767579666,-0.004444879661312617,0.005470567569796429,0.003615246610876209,-0.013388481024132997,-0.044403992956875915
3,0.0158665999915683,-0.00048446071482921793,-0.0007416130949951827,0.00040223880720967754,-8.124335311692378e-05,-0.0006610022587903351,0.0025718401338457103,0.00012494338910373282,-0.005952847928883824,0.006835801022660016,0.0036584563674345377,-0.018448475718063174,-0.049030334212944615
4,0.0192315999884158,-0.00048446071482921793,-0.0007416130949951827,0.00040223880720967754,-0.00011117176553199032,-0.0009043655504363254,0.003181421898777968,7.729869886329595e-05,-0.007458590732567344,0.008156668659694688,0.003699398324087568,-0.023435181419296444,-0.053790606401797
5,0.0237170999898808,-0.0008952736122263775,-0.0011179249769230587,0.0005674288791429632,-0.0001407834729372519,-0.001150242685577068,0.0037870915093158727,3.1129984861138876e-05,-0.008961414874788843,0.009431845935178597,0.0037378762916757706,-0.02834538552479858,-0.05868350314361754
6,0.0279931999975815,-0.0010362759975131852,-0.0015842368109785202,0.0008033980114126802,-0.00017006255593500627,-0.0013985888963983122,0.004388485023670319,-1.3546658260718281e-05,-0.010460628205636303,0.010660035646840746,0.0037736910437209522,-0.03317592663423087,-0.06370758543078836
7,0.0323231999936979,-0.001095636334410714,-0.0018334634029722886,0.0008578711676910625,-0.00019899339911184488,-0.0016493585425402574,0.004985239183866493,-5.67171603831526e-05,-0.011955540181717007,0.011839969229035366,0.003806640454810758,-0.03792369755845805,-0.06886128154599075
8,0.0365113000007113,-0.0012391053573644485,-0.0021364653986691946,0.0009425930026259163,-0.0002275607086087792,-0.0019025051444541902,0.005576991688352357,-9.836951529549687e-05,-0.013445462423053754,0.01297040802209977,0.0038365196441307553,-0.0425856482784457,-0.07414288711412416
9,0.0408360000001266,-0.0013509334926180292,-0.002414336512948243,0.0010318227399005288,-0.00025574952946625686,-0.0021579814171757573,0.00616338146362709,-0.00013849381814965225,-0.014929709267416883,0.01405014451642854,0.003863121124060023,-0.04715878885108761,-0.07955056528906258
10,0.0453597000014269,-0.0014849714756364745,-0.0027321420855754845,0.0011122694625801464,-0.0002835452627252331,-0.0024157393044759046,0.006744048934608392,-0.00017708230092603163,-0.016407598321492318,0.015078003569823889,0.0038862349537394157,-0.05164019225856316,-0.08508234707611596
11,0.0495534999936353,-0.001613636289364157,-0.003037427868175266,0.0011549068804972637,-0.00031093368226572916,-0.00267573001335031,0.00731863629345953,-0.00021412936585671344,-0.017878451008290167,0.016052843596710928,0.0039056488975150075,-0.056026997197888964,-0.0907361317909099
12,0.053460900002392,-0.0017142893323817063,-0.003418497998635628,0.001163418654389467,-0.00033790095136459835,-0.002937904048807954,0.00788678776659931,-0.000249631616753371,-0.019341593110203562,0.01697355772783747,0.003921148588152533,-0.060316410807397594,-0.09650968765524005
13,0.0576124999934108,-0.0018456301141068702,-0.003781515838920546,0.0011701501237900277,-0.00036443363895453354,-0.0032022112489193556,0.008448149879620883,-0.00028358788818980997,-0.020796355307133422,0.017839074939110786,0.003932517694712038,-0.06450571132694956,-0.10240065253029841
14,0.0616709999885642,-0.0019708389316834695,-0.004113028149501967,0.0011780647752395099,-0.00039051873556668185,-0.0034686008200849345,0.00900237171984839,-0.0003159992724912884,-0.022242073709101504,0.01864836114825828,0.003939538094965448,-0.06859225068876225,-0.10840653478750831
15,0.0661508999910438,-0.002036052818743505,-0.004417334397930945,0.0011749219977526073,-0.00041614366893959523,-0.0037370213724839795,0.00954910519626379,-0.0003468691444852131,-0.023678090382781573,0.019400420278035537,0.0039419900522332935,-0.07257345703582137,-0.11452471431704228
16,0.0696705000009387,-0.002036052818743505,-0.004417334397930945,0.0011749219977526073,-0.0004412963192776239,-0.0040074209556647065,0.01008800529653999,-0.00037620318397029427,-0.025103753871386723,0.020094295284743432,0.003939652396510413,-0.07644683716492724,-0.12075244367393437
17,0.0730731999938143,-0.002036052818743505,-0.004417334397930945,0.0011749219977526073,-0.00046596503414226604,-0.0042797470942360135,0.010618730340920429,-0.0004040093958638005,-0.026518419707359745,0.02072906915085584,0.003932302709744196,-0.08020997889151833,-0.12708684936153383
18,0.0764575999928638,-0.002036052818743505,-0.004417334397930945,0.0011749219977526073,-0.0004901386429604097,-0.004553946823621701,0.011140942232689762,-0.0004302981279891783,-0.027921450917323124,0.021303865840601035,0.003919717515122691,-0.08386055333350868,-0.13352493325188203
19,0.082627899988438,-0.0023178928352637486,-0.00557233503314206,0.0011098114563982827,-0.0005138064711338472,-0.004829966725838102,0.011654306704984926,-0.00045508208646897943,-0.029312218518755793,0.021817851217383076,0.003901672470223831,-0.08739631711147429,-0.14006357414242837
20,0.0862736999988555,-0.0023178928352637486,-0.00557233503314206,0.0011098114563982827,-0.000536958353734904,-0.005107752965256357,0.012158493563701097,-0.00047837634869077924,-0.030690102007874812,0.02227023392197402,0.003877942563871064,-0.09081511446262552,-0.1466995294483357
21,0.090572200002498,-0.0025225843371430253,-0.005880700536086838,0.0010305576917102692,-0.0005595846487735126,-0.005387251324310833,0.012653176926252292,-0.0005001983738165621,-0.032054489838211776,0.022660266210453937,0.003848302316534804,-0.09411487926610834,-0.15342943702945908
22,0.0951932999887503,-0.0024801092039822828,-0.0064047132630286625,0.0009464451438271887,-0.000581676250021558,-0.005668407239115584,0.01313803545595204,-0.0005205680108088882,-0.033404779889386095,0.02298724475092333,0.0038125259841134316,-0.09729363697728549,-0.1602498171509162
23,0.0991307999938726,-0.002502428546315696,-0.006657874372083674,0.0008845622303151159,-0.000603224599380844,-0.005951165834951092,0.013612752591785453,-0.0005395075039500444,-0.03474037992559035,0.02325051137806113,0.0037703877649219917,-0.10034950646876112,-0.16715707457600223
24,0.1033561999938683,-0.0025507308360457797,-0.006963306296030891,0.0008501309945168493,-0.0006242216987815591,-0.006235471961584017,0.014077016773350277,-0.0005570414958333149,-0.036060708043316576,0.02344945380465162,0.0037216620097113174,-0.10328070177602638,-0.17414750079003594
25,0.1086600999988149,-0.0026049639681247606,-0.007208466439719319,0.0008270730871829492,-0.0006446601215986753,-0.006521270228383166,0.014530521660750965,-0.0005731970278084709,-0.037365193107866713,0.023583506289254916,0.0036661234345350354,-0.10608553374572166,-0.18121727635355955
26,0.113977100001648,-0.0026749087372162582,-0.007482873693754755,0.0007866955889196301,-0.0006645330235742791,-0.0068085050391954284,0.014972966349236665,-0.0005880035378665729,-0.03865327517820531,0.023652150259247898,0.0036035473362768375,-0.1087624115846319,-0.18836247338315085
27,0.1174909999972442,-0.0026749087372162582,-0.007482873693754755,0.0007866955889196301,-0.0006838341532344161,-0.007097120626945991,0.01540405557838092,-0.0006014928559522051,-0.03992440591972764,0.023654914888516107,0.003533709810645494,-0.11130984430765473,-0.19557905815794469
28,0.1210348999884445,-0.0028647338489518116,-0.0077969497529450935,0.0007870707868697594,-0.0007025578617896219,-0.00738706108792783,0.015823499935608172,-0.0006136991966943109,-0.04117804900453188,0.023591377629131143,0.0034563879724403695,-0.11372644208310584,-0.20286289384980033
29,0.124379000000772,-0.0028521231238644727,-0.008271032042275465,0.0008102104591054485,-0.0007206991125089181,-0.007678270415746118,0.016231016053879464,-0.0006246591495498748,-0.04241368049880066,0.02346116469640348,0.0033713601778856688,-0.1160109174738539,-0.21020974337489293
30,0.1290428999927826,-0.0028904918066401473,-0.00857250488931442,0.0008072500439953903,-0.0007382534895576709,-0.00797069253488384,0.01662632680335757,-0.0006344116663577737,-0.04363078923691376,0.023263951506756513,0.003278406248827339,-0.11816208657290624,-0.21761527236434974
31,0.1326088999921921,-0.0028904918066401473,-0.00857250488931442,0.0008072500439953903,-0.0007552172062903364,-0.008264271333855759,0.017009161476879555,-0.0006429980463032209,-0.044828877181931286,0.022999463067924452,0.00317730769858243,-0.12017887003219725,-0.22507505225139682
32,0.1367640999960713,-0.002978224736178236,-0.008834732499339346,0.0008179120759827855,-0.000771587112989752,-0.008558950697918608,0.0173792559690728,-0.0006504619182963292,-0.046007459772103854,0.022667474321033925,0.0030678479592268094,-0.1220602939834656,-0.23258456347232997
33,0.1406439999991562,-0.003040438123329687,-0.009343278704507251,0.0009418728176585976,-0.0007873607040452761,-0.008854674541306251,0.017736352948958756,-0.0006568492207714281,-0.04716606625308478,0.022267810434187057,0.0029498126101034665,-0.12380549085023904,-0.24013919877847353
34,0.1450679999979911,-0.0030878341513750616,-0.009583648524516068,0.0010034075119987112,-0.0008025361245627288,-0.009151386838959389,0.01808020202589712,-0.00066220817891687,-0.048304239995537186,0.02180034704722204,0.002822989607330182,-0.12541370005008065,-0.24773426665614484
35,0.1495681999949738,-0.0031698652895855023,-0.009837659105126436,0.0010879982357629285,-0.0008171121763997518,-0.009449031657720219,0.0184105599087315,-0.0006665892793481664,-0.0494215387978479,0.02126501046738602,0.0026871695140821255,-0.12688426858638668,-0.2553649948515005
36,0.1535004999896045,-0.003259579559500474,-0.010127451868009448,0.001196699594650247,-0.0008310883236208723,-0.009747553186963484,0.018727190558006247,-0.0006700452422403728,-0.05051753517367914,0.020661777815714072,0.002542145731421982,-0.12821665152916317,-0.26302653399699755
37,0.1582263000018429,-0.0033181050607263424,-0.010347092786060013,0.0012836707280314624,-0.0008444646973672177,-0.010046895768636273,0.019029865331133218,-0.0006726309909387125,-0.05159181662410802,0.0199906771239672,0.002387714729447496,-0.12941041238434683,-0.2707139613360666
38,0.1626963000016985,-0.0033949916408418566,-0.010577798978665108,0.0013918352884451394,-0.0008572421001365109,-0.010347003926679914,0.019318363120395955,-0.0006744036190694828,-0.05264398589412331,0.01925178738204162,0.0022236762785238597,-0.13046522335137228,-0.27842228454246326
39,0.1660240999917732,-0.0033949916408418566,-0.010577798978665108,0.0013918352884451394,-0.0008694220094696443,-0.010647822395808299,0.019592470483687837,-0.0006754223551763158,-0.05367366121326854,0.018445238535820873,0.0020498336803661684,-0.13138086546882616,-0.2861464456306341
40,0.1702574999944772,-0.0035344471871105584,-0.010813229181328751,0.001516665175515049,-0.0008810065810408135,-0.01094929614961802,0.019851981767889687,-0.0006757485249098671,-0.054680476520240655,0.01757121143550149,0.0018659939987352367,-0.132157228648166,-0.293881324953309
41,0.1741006999945966,-0.003563650586016295,-0.011315236942670422,0.0017845352167877933,-0.0008919986511488697,-0.01125137042800678,0.020096699224801565,-0.0006754455108019666,-0.05566408167127341,0.01662993773448233,0.0016719682895084088,-0.13279431159562108,-0.3016217452824093
42,0.1786060000013094,-0.003634128608017645,-0.011598940741599768,0.0019031324680029585,-0.00090240173860823,-0.011553990763877533,0.020326433119552813,-0.0006745787096582023,-0.05662414263215483,0.015621699738966493,0.001467571829885595,-0.1332922216225289,-0.30936247596924804
43,0.1823764000000665,-0.00367157897751828,-0.011849759809562628,0.001989575686068254,-0.0009122200460383645,-0.01185710300910699,0.02054100183142353,-0.0006732154876057995,-0.05756034165374799,0.014546830208483257,0.0012526243464896472,-0.133651174344499,-0.31709823717988267
44,0.1864627999893855,-0.003711069323595933,-0.01207133908483752,0.002121123398026034,-0.0009214584605515584,-0.012160653359758154,0.02074023194701977,-0.0006714251328364959,-0.05847237743090465,0.013405712107595863,0.0010269502421193495,-0.13387149326993011,-0.3248237042013786
45,0.19114830000035,-0.003775755749395977,-0.012346544673778995,0.0021925632846344343,-0.0009301225538393148,-0.012464588380517777,0.02092395834575411,-0.0006692788060869158,-0.05935996524468202,0.012198778309118726,0.000790378820912738,-0.13395360927854313,-0.33253351181463603
46,0.1951314999896567,-0.0038044744795251014,-0.012563595871980195,0.0022614575365566183,-0.0009382185816584354,-0.01276885502834081,0.02109202427759258,-0.0006668494889016809,-0.06022283708779288,0.010926511249224929,0.0005427445116782097,-0.1338980599907246,-0.3402222587293363
47,0.2006797999929404,-0.003827806309797795,-0.01277573039534322,0.002315334228410522,-0.0009457534827184783,-0.013073400675285079,0.02124428143303823,-0.0006642119297271896,-0.0610607417732401,0.009589442534881582,0.0002838870891508825,-0.13370548902860713,-0.34788451207647414
48,0.2053770999918924,-0.0038505141561041498,-0.013021176879324702,0.002397754848318459,-0.0009527348769729477,-0.013378173130520593,0.021380590005330817,-0.0006614425878866219,-0.061873445026106706,0.008188152504106514,1.3651892931980505e-05,-0.1333766451699446,-0.3555148119538547
49,0.209334699989995,-0.0038709623737503192,-0.013223489891421207,0.002444370541820194,-0.0009591710633172174,-0.013683120661498955,0.021500818744851158,-0.0006586195754892942,-0.06266072955849253,0.006723269739594993,-0.0002681099561303765,-0.13291238139596845,-0.3631076760198578
50,0.2134221000014804,-0.0038609994749515516,-0.013447379426172336,0.0024678247557735292,-0.0009650710166968398,-0.01398819201426965,0.021604845005727995,-0.0006558225973299867,-0.06342239512760889,0.005195470536319451,-0.0005615413423597183,-0.13231365383453866,-0.37065760413069315
51,0.2168889999884413,-0.0038609994749515516,-0.013447379426172336,0.0024678247557735292,-0.0009704443846305277,-0.014293336432931129,0.021692554784654258,-0.0006531328888362905,-0.06415825857706262,0.0036054783237585964,-0.0008667789447086525,-0.13158152060002762,-0.378159083016307
52,0.2211493999930098,-0.00393135220852321,-0.013684411269036191,0.002464309869747858,-0.0009753014831527219,-0.014598503678205874,0.021763842751928726,-0.0006506331521243718,-0.0648681538613803,0.0019540630434647134,-0.0011839530294932498,-0.13071714053149766,-0.385606590990035
53,0.2251065999880666,-0.003820279835996236,-0.014017775112829131,0.0024736969984734437,-0.0009796532921812738,-0.014903644045129727,0.02181861227474787,-0.0006484074902258311,-0.0655519320538435,0.00024204048272930397,-0.0015131872466406882,-0.12972177183085337,-0.39299460268703995
54,0.2285502000013366,-0.003817901978600203,-0.014203336032460627,0.0024526824751005976,-0.0009835114503163817,-0.015208708379847077,0.021856775432781562,-0.0006465413395505329,-0.06620946133772523,-0.0015297284348425291,-0.001854598429684393,-0.12859677060276728,-0.4003175938265223
55,0.2336842999939108,-0.0037857967740606365,-0.014357118914086708,0.0024308903396337267,-0.0009868882490775164,-0.015513648095504675,0.021878253026075125,-0.0006451214006523908,-0.06684062698103711,-0.003360338400989523,-0.0022082963997385636,-0.1273435892982937,-0.40757004599264857
56,0.2377807000011671,-0.0037394743182012974,-0.014508490848376063,0.00240390351589254,-0.0009897966265856517,-0.01581841518723812,0.021882974575328715,-0.0006442355673671277,-0.06744533129491587,-0.005248840515776268,-0.0025743837736813308,-0.1259637750641954,-0.41474645142910266
57,0.2419733999995514,-0.003712123232945427,-0.014685168294358309,0.002356382841216769,-0.0009922501606986923,-0.016122962246246233,0.02187087831461357,-0.0006439728543929717,-0.0680234935757955,-0.007194243120946048,-0.002952955776772852,-0.12445896800011683,-0.42184131784213774
58,0.2458991000021342,-0.0036410509197345804,-0.014830419665337198,0.002306663988977721,-0.0009942630616085418,-0.016427242472949802,0.02184191117659309,-0.0006444233233870995,-0.06857505003153068,-0.009195512672645616,-0.0033441000599314457,-0.12283089932584469,-0.4288491732069774
59,0.2493010999896796,-0.0035499331536660013,-0.015039838107663824,0.002210446137418609,-0.000995850163908793,-0.01673120968923211,0.02179602877032476,-0.0006456780076523971,-0.0690999536916546,-0.011251574652479383,-0.0037478965218873624,-0.12108138946099878,-0.4357645705723987
60,0.252829599994584,-0.0035499331536660013,-0.015039838107663824,0.002210446137418609,-0.00099702691814256,-0.017034818349759957,0.021733195351727005,-0.00064782883549077,-0.06959817430197222,-0.013361314515808216,-0.004164417136430005,-0.11921234601959453,-0.44258209285831135
61,0.2570457999972859,-0.0033310237768762988,-0.015361113234129491,0.001976622871934191,-0.0009978093818404797,-0.017338023552385215,0.021653383786802885,-0.0006509685523008046,-0.07006969820370694,-0.015523578676167469,-0.004593725784960368,-0.11722576172201454,-0.4492963576411481
62,0.2627669999928912,-0.003246816600664453,-0.01549568348033526,0.0018667957228176697,-0.0009982142100594031,-0.017640781047627948,0.02155657550772032,-0.0006551906414990461,-0.07051452819743614,-0.0177371755246397,-0.005035878094556153,-0.11512371222701799,-0.4559020219218817
63,0.2666360000002896,-0.00315955195769293,-0.01568012591023111,0.001769075644216858,-0.0009982586454327874,-0.017943047247243334,0.021442760461855892,-0.0006605892443455324,-0.0709326833920675,-0.020000876482980073,-0.005490921281752437,-0.11290835388650484,-0.46239378687148674
64,0.2703247999888845,-0.0030688908872987717,-0.015839180130422893,0.0016379462510307326,-0.000997960507744252,-0.018244779231875705,0.021311937053916614,-0.0006672590787554828,-0.07132419903912306,-0.022313417089256642,-0.005958894002235893,-0.11058192142583549,-0.46876640254868207
65,0.2743219999974826,-0.002970070822291045,-0.015968591630383982,0.0014680436143115444,-0.0009973381830362161,-0.018545934757804153,0.02116411208126109,-0.0006752953571802088,-0.0716891263526145,-0.024673498114733638,-0.006439826206645471,-0.10814672555258692,-0.47501467258480784
66,0.2782714999921154,-0.002827651667534222,-0.016121371056315538,0.0013277059460774622,-0.0009964106122659611,-0.018846472262785186,0.02099930066254838,-0.0006847937036413682,-0.07202753231480817,-0.02707978671069342,-0.006933739002667034,-0.10560515049670235,-0.4811334588307197
67,0.2828101999912178,-0.002706313110517584,-0.016210841117577885,0.0011976714597142111,-0.0009951972795218713,-0.01914635087099914,0.020817526159849623,-0.0006958500700036387,-0.07233949946819287,-0.029530917583862212,-0.007440644523603867,-0.10295965148506395,-0.4871176859606157
68,0.2866323999915039,-0.002573084435344786,-0.016306445462165,0.0010619113902277132,-0.0009937181998130027,-0.019445530397107943,0.020618820094363888,-0.0007085606515717282,-0.07262512569397774,-0.03202549419907609,-0.007960545803599088,-0.10021275215358605,-0.4929623460277516
69,0.2907637999887811,-0.0024466703232147815,-0.016428057839022216,0.0009477255826260204,-0.000991993906445502,-0.0197439713494328,0.02040322205588566,-0.0007230218020983799,-0.0728845239774607,-0.034562090007796656,-0.008493436659679937,-0.09736704189998945,-0.4986625029670417
70,0.2954762000008486,-0.002315019422508018,-0.016515546123192625,0.0008127471908830194,-0.0009900454379997555,-0.020041634932261604,0.02017077960617745,-0.0007393299482906546,-0.07311782216062207,-0.037139249701060716,-0.009039301580787583,-0.09442517318047595,-0.5042132970396005
71,0.2990959000017028,-0.002195551935259284,-0.0165974143996952,0.00067658429540897,-0.0009878943249224757,-0.020338483047296865,0.01992154817640676,-0.0007575815039022979,-0.07332516268231004,-0.03975549048542529,-0.009598115623949468,-0.09138985875357748,-0.5096099492143346
72,0.3034942999947816,-0.0020465238436080256,-0.016677291511289386,0.0005272726727818695,-0.0009855625757482478,-0.02063447829425587,0.019655590958812263,-0.0007778727835004085,-0.07350670230639718,-0.04240930338044786,-0.01016984431774457,-0.0882638688745042,-0.5148477654817621
73,0.308719699998619,-0.001934359562419887,-0.016751678940677413,0.0004217429154804523,-0.0009830726629653525,-0.020929583970635733,0.01937297879276905,-0.0008002999159949245,-0.07366261183829796,-0.04509915453622282,-0.010754443573204913,-0.08505002844336139,-0.5199221410953078
74,0.3137802999990526,-0.0018191414563717148,-0.016863414873026287,0.0002890231437138864,-0.0009804475085409491,-0.02122376407065694,0.019073790045427984,-0.0008249587580196422,-0.0737930758302487,-0.04782348656947729,-0.011351859602289642,-0.08175121411064647,-0.5248285647353967
75,0.3176235999999335,-0.0017170772001430608,-0.01694482465284214,0.00015479974780772612,-0.0009777104691209679,-0.021516983283399908,0.01875811048710853,-0.0008519448072535613,-0.07389829227576099,-0.05058071991671435,-0.011962028844060564,-0.07837035134347428,-0.5295626225917591
76,0.3224298999994062,-0.0015983426843583348,-0.017007817956863184,5.13624338194354e-05,-0.00097488532092029,-0.021809206990149817,0.018426033161628993,-0.0008813531157713317,-0.07397847229366947,-0.053369254202878066,-0.0125848778986805,-0.07491041145601048,-0.534120002359442
77,0.3268861999968067,-0.0014991072946711887,-0.017037641490667062,-5.319711138769256e-05,-0.0009719962443190104,-0.02210040126096587,0.01807765825176224,-0.00091327820351143,-0.07403383980220397,-0.056187469624003485,-0.013220323469348141,-0.07137440860761994,-0.5384964971441194
78,0.3313599999964935,-0.0013975936207508341,-0.017054738724553157,-0.00014991129037950014,-0.0009690678081807603,-0.0223905328504919,0.01771309294000887,-0.0009478139719504647,-0.07406463118352415,-0.059033728342304984,-0.013868272312275191,-0.06776539677225944,-0.5426880092723899
79,0.3363612999964971,-0.0012215640408085415,-0.017112975335663187,-0.00035741092192420024,-0.0009661249539092457,-0.022679569193026168,0.017332451264883586,-0.0009850536180716575,-0.07407109493916295,-0.06190637589214896,-0.014528621194803545,-0.06408646668266195,-0.5466905540028635
80,0.3407064999919384,-0.0011382238863951867,-0.01713560357457615,-0.00045031781686970474,-0.0009631929792593091,-0.02296747839686875,0.016935853972913577,-0.0010250895487150945,-0.07405349133683296,-0.06480374259535175,-0.01520125686175218,-0.06034074275287353,-0.5505002631339488
81,0.3450061999901663,-0.001042081151858815,-0.017140390036774273,-0.0005859913524319116,-0.0009602975219189457,-0.023254229237965773,0.01652342836655087,-0.0010680132953967741,-0.07401209204905608,-0.0677241449842396,-0.015886056010075165,-0.056531379982712945,-0.5541133885043665
82,0.3493670000025304,-0.0009270450197187949,-0.017136319070774446,-0.0006979460380360209,-0.0009574645428788147,-0.02353979115287036,0.016095308148203417,-0.001113915429682818,-0.07394717978408298,-0.07066588723090625,-0.016582885271903703,-0.052661560847727856,-0.5575263053825297
83,0.3542488999955822,-0.0008511741022593308,-0.017143286694342875,-0.0008403852213821873,-0.0009547203096058746,-0.023824134231040794,0.015651633260592,-0.0011628854792044448,-0.07385904790957447,-0.07362726258110402,-0.01729160120603662,-0.048734492178221504,-0.5607355157410635
84,0.3576948999980232,-0.0006354244435246723,-0.017088666367727236,-0.0010103135352364213,-0.0009520913790378379,-0.024107229206497105,0.015192549723642167,-0.0012150118443984388,-0.07374800006952062,-0.07660655479120677,-0.018012050297935088,-0.044753402030918515,-0.5637376514128661
85,0.3618547999940347,-0.0005343185022362446,-0.01708053464605596,-0.0012204695600203427,-0.0009496045804151845,-0.024389047448857674,0.014718209468122514,-0.0012703817160568725,-0.07361434979487895,-0.07960203956668695,-0.018744068968268652,-0.040721536556829134,-0.566529477125247
86,0.3662303000019165,-0.0004309587208826454,-0.017076504392331854,-0.0013639054077454176,-0.0009472869979674995,-0.024669560953777987,0.014228770166242336,-0.0013290809937687804,-0.07345842010841591,-0.08261198600055568,-0.019487483590050786,-0.0366421568688572,-0.5691078934088202
87,0.369940199991106,-0.0002834558123977101,-0.017048223385892767,-0.0014621502737909287,-0.000945165953470902,-0.024948742332814144,0.0137243950594229,-0.0013911942053353153,-0.07328054312423811,-0.08563465801022264,-0.020242110514393355,-0.032518535912678864,-0.5714699393779693
88,0.375538599997526,-0.00016485091015080555,-0.01701493071265665,-0.0015796100326378,-0.0009432689886933254,-0.025226564802734403,0.01320525278345766,-0.0014568044272386688,-0.07308105964250239,-0.08866831577124232,-0.0210077561049006,-0.02835395534439645,-0.5736127953798512
89,0.3803235999948811,-3.3279871730945774e-05,-0.01697015456146811,-0.001682475042729318,-0.0009416238477443686,-0.0255030021743024,0.012671517191277489,-0.0015259932062436819,-0.07286031873979519,-0.09171121714642508,-0.021784216780714193,-0.024151702418444738,-0.5755337855090537
90,0.3846753999969223,5.9733578646834515e-05,-0.01693247439265581,-0.001789969710749944,-0.0009402584593463899,-0.025778028840555998,0.012123367173537507,-0.0015988404822096386,-0.07261867735567333,-0.09476161910880561,-0.02257127906821179,-0.019915066889196118,-0.5772303799851788
91,0.3908154999953694,0.00023822620988096479,-0.0168265380144686,-0.0019820549440215073,-0.0009392009190434333,-0.026051619764606085,0.011560986477242411,-0.0016754245121882165,-0.0723564998758579,-0.0978177791569764,-0.023368719661352573,-0.015647337929674886,-0.5787001973907817
92,0.395030300001963,0.000318074511254273,-0.01677343637901955,-0.002065856935503959,-0.000938479471364495,-0.026323750466980097,0.010984563522627121,-0.0017558217958819396,-0.07207415771257332,-0.10087795672131104,-0.024176305490654103,-0.011351801070751797,-0.5799410067672544
93,0.3992940000025555,0.00039940351116187845,-0.016705019549596543,-0.0021618570310193465,-0.0009381224919575285,-0.026594397012535336,0.010394291218509351,-0.0018401070025357961,-0.07177202888252292,-0.10394041455962175,-0.024993793800775804,-0.007031735164146314,-0.5809507295664138
94,0.4035311999905389,0.000499501605582978,-0.016629614859512806,-0.0022637188242534793,-0.0009381584697104597,-0.02686353599696725,0.009790366776330132,-0.001928352899332904,-0.07145049758299024,-0.10700342014081572,-0.025820932236675306,-0.002690409372516598,-0.5817274414557179
95,0.4076015999889932,0.0006096342336947686,-0.01655105758344356,-0.0023638385175571907,-0.0009386159888753312,-0.027131144532938117,0.009172991523097506,-0.0020206302813632533,-0.07110995376655267,-0.11006524701513756,-0.0266574589382947,0.001668919810134208,-0.5822693739751966
96,0.4115501999913249,0.0007056278246555109,-0.016448246435780307,-0.0024614710582616193,-0.0009395237112115343,-0.02739720023585185,0.00854237071344749,-0.00211700790323262,-0.07075079271489235,-0.11312417616960832,-0.02750310264372474,0.006043011504561986,-0.5825749160443617
97,0.415659099991899,0.0007977491478052598,-0.016323890688454377,-0.002569720594129662,-0.0009409103581639007,-0.02766168120930067,0.007898713341035096,-0.0022175524123767528,-0.07037341461218576,-0.11617849736729748,-0.028357582800786197,0.010428643355781366,-0.5826426153175305
98,0.4208402999938698,0.0007977491478052598,-0.016323890688454377,-0.002569720594129662,-0.0009428046930912319,-0.027924566030209607,0.007242231949466616,-0.002322328284143862,-0.06997822411854966,-0.11922651046909089,-0.02922060968695856,0.014822614402908944,-0.5824711793861755
99,0.4242305999941891,0.0007557385024313805,-0.016253792023341703,-0.002680428753737858,-0.0009452355035606288,-0.0281858337337049,0.006573142442982586,-0.0024313977587062966,-0.06956562994401648,-0.12226652673664624,-0.030091884537577523,0.019221747906363593,-0.5820594768270877
100,0.4284647999884328,0.0010720539327597606,-0.016001065932906282,-0.002811957213701438,-0.0009482315837227598,-0.028445463797732412,0.005891663897098771,-0.0025448207798600877,-0.06913604442350722,-0.12529687011525775,-0.03097109968221361,0.0236228941295066,-0.581406538095314
101,0.4332334999926388,0.0011698707488350286,-0.015880802569350053,-0.002886507823450906,-0.0009518217167829462,-0.028703436127452044,0.005198018369410247,-0.002662654935768786,-0.06868988309326544,-0.12831587849538256,-0.03185793868913581,0.028022933071876737,-0.5805115562610155
102,0.436877000000095,0.0012777432357828106,-0.015762093898270175,-0.002987283694508732,-0.0009560346575826996,-0.02895973103943416,0.004492430710761153,-0.0027849554017057077,-0.06822756426920934,-0.1313219049516138,-0.0327520765177553,0.03241877715125095,-0.5793738875895721
103,0.4403197999927215,0.0012777432357828106,-0.015762093898270175,-0.002987283694508732,-0.000960899115306063,-0.02921432924568417,0.0037751283769799225,-0.002911774884846329,-0.06774950862765236,-0.13431331895791962,-0.033653179678935934,0.03680737383183976,-0.5779930519644406
104,0.444554399990011,0.0012484583983546236,-0.015688957540559715,-0.0030725407497558654,-0.0009664437363248163,-0.02946721183752126,0.0030463412413768427,-0.003043163571160157,-0.0672561387888362,-0.13728850757800218,-0.03456090640304989,0.041185708196007795,-0.5763687331524501
105,0.4480257999966852,0.0012484583983546236,-0.015688957540559715,-0.0030725407497558654,-0.000972697087196311,-0.02971836026933705,0.002306301408197642,-0.003179169074448952,-0.06674787890371248,-0.14024587662966864,-0.035474906815648424,0.04555080545699413,-0.5745007789114037
106,0.4513747000019066,0.0012484583983546236,-0.015688957540559715,-0.0030725407497558654,-0.000979687637827379,-0.02996775634225987,0.0015552430272234416,-0.0033198363875756383,-0.06622515424440151,-0.14318385182214186,-0.03639482312060969,0.0498997334101935,-0.5723892009400372
107,0.4553804000024684,0.001481131119302493,-0.01544271098140495,-0.003196302122602851,-0.0009874437448174416,-0.030215382187750196,0.0007934021097038402,-0.0034652078359257077,-0.0656883907987479,-0.14610087986527787,-0.0373202897906173,0.054229604820648904,-0.57003417467056
108,0.4593200999952387,0.0018484297866786688,-0.015195494412144019,-0.003318076059692161,-0.0009959936349935993,-0.030461220251152568,2.101634580612587e-05,-0.00361532303314034,-0.06513801486938435,-0.14899542954969702,-0.0382509337648157,0.058537579744497546,-0.56743603890419
109,0.4634107999881962,0.0019458284766153617,-0.015101006415169599,-0.0034423569292227362,-0.0010053653891501381,-0.030705253275229157,-0.0007616750762403274,-0.003770218839157824,-0.06457445267770609,-0.1518659927968756,-0.039186374653480426,0.06282086778220561,-0.56459529529027
110,0.4699283999943873,0.002252147082268392,-0.01487049461118803,-0.003721577771828685,-0.0010155869260045256,-0.030947464283699634,-0.0015544316491295244,-0.003929929320597224,-0.06399812997314892,-0.15471108567828593,-0.04012622494953393,0.06707673026152348,-0.5615126076497327
111,0.4734287999890512,0.002252147082268392,-0.01487049461118803,-0.003721577771828685,-0.001026685986381599,-0.031187836564811798,-0.0023570117234235056,-0.004094485713515544,-0.06340947164815365,-0.1575292494027151,-0.04107009024673041,0.07130248234819027,-0.5581888011438642
112,0.4769452999898931,0.002252147082268392,-0.01487049461118803,-0.003721577771828685,-0.0010386901176372724,-0.03142635365496713,-0.0031691726822899676,-0.004263916388566944,-0.06280890135918879,-0.16031905127093457,-0.042017569464326096,0.07549549508251607,-0.5546248612894893
113,0.4811667999892961,0.002252147082268392,-0.01487049461118803,-0.003721577771828685,-0.0010516266583326917,-0.03166299932242502,-0.003990671113871225,-0.004438246818589849,-0.06219684115419304,-0.16307908559693798,-0.042968255078044595,0.07965319734007215,-0.5508219328218797
114,0.4893813999951817,0.002753125960983517,-0.014464207833195556,-0.004079445470206114,-0.0010655227231693796,-0.0318977575511092,-0.0048212629811276286,-0.004617499548645057,-0.06157371110678814,-0.16580797459500793,-0.043921733357140155,0.08377307771482059,-0.5467813184068542
115,0.4928122999990592,0.002753125960983517,-0.014464207833195556,-0.004079445470206114,-0.0010804051881955117,-0.03213061252453967,-0.005660703789003429,-0.004801694168525213,-0.06093992895760093,-0.16850436923191836,-0.04487758460735537,0.08785268632311978,-0.5425044772037143
116,0.4960789999895496,0.002753125960983517,-0.014464207833195556,-0.004079445470206114,-0.0010963006762930545,-0.03236154860991278,-0.00650874874876809,-0.004990847287753293,-0.06029590976302242,-0.17116695004362362,-0.04583538341956332,0.09188963652714695,-0.5379930232808274
117,0.5005635999987135,0.00270229679803485,-0.014414626809187136,-0.004163730831274703,-0.0011132355429550708,-0.03259055034235186,-0.0073651529393911905,-0.005184972513084898,-0.059642065551718436,-0.1737944279158317,-0.046794698923878074,0.09588160657638616,-0.533248723885833
118,0.5051657000003615,0.0033170910041953024,-0.014002890701872522,-0.00439880128674716,-0.001131235862362079,-0.032817602409350215,-0.008229671465814289,-0.005384080428526425,-0.05897880498919559,-0.17638554482790672,-0.04775509504901181,0.09982634116593611,-0.5282734975726131
119,0.5094871999899624,0.00352677835202315,-0.013866359291613997,-0.004489149789214582,-0.001150327413765923,-0.03304268963542721,-0.009102059613988502,-0.0055881785778784014,-0.05830653305071299,-0.1789390745595916,-0.04871613078665101,0.10372165291050038,-0.5230694121873306
120,0.5135917000006884,0.0037509030625918907,-0.013777520698148043,-0.004568781525636658,-0.0011705356681891825,-0.033265796967018105,-0.009982073002552013,-0.005797271449810536,-0.057625650702818096,-0.18145382336008856,-0.04967736046061899,0.10756542373303143,-0.5176386827159911
121,0.5201832000020659,0.00419881901225699,-0.0135541123210644,-0.004710922342021874,-0.0011918857754477145,-0.033486909457617724,-0.010869467731027226,-0.006011360465472282,-0.056936554593771595,-0.18392863057908304,-0.05063833400058729,0.11135560616710931,-0.5119836689961396
122,0.5245821999997133,0.004375511080792446,-0.013468414698737484,-0.004765746349962258,-0.001214402551503473,-0.0337060122531978,-0.011764000524422868,-0.006230443968639981,-0.056239636753113366,-0.18636236925934377,-0.05159859722009331,0.11509022457224447,-0.5061068732954508
123,0.5286354999989271,0.004375511080792446,-0.013468414698737484,-0.004765746349962258,-0.0012381104661543065,-0.03392309057791698,-0.012665428874132148,-0.0064545172183989325,-0.055535284300608154,-0.18875394669057738,-0.05255769209861737,0.11876737626140453,-0.500010937760125
124,0.5326671999937389,0.0044880983192486556,-0.013387748615443045,-0.004873085155984896,-0.00126303363106699,-0.03413812972014214,-0.013573511175023803,-0.006683572384356045,-0.054823879164795974,-0.19110230492426464,-0.05351515706746775,0.12238523254017372,-0.4936986417361384
125,0.5365257999947062,0.004957459447295861,-0.01324154607175439,-0.004932588277446765,-0.0012891957881593064,-0.03435111501879877,-0.014488006858628786,-0.006917598544376037,-0.05410579781135885,-0.1934064212492522,-0.054470527299218356,0.12594203965706335,-0.4871728989665407
126,0.5407640999910655,0.005150766876009128,-0.013175865133213836,-0.004952359876117102,-0.0013166202983365429,-0.034562031850067926,-0.015408676522331128,-0.007156581684831499,-0.05338141098150174,-0.19566530862792092,-0.055423335000440305,0.12943611966460056,-0.4804367546681248
127,0.5451064999942901,0.005362402511528604,-0.013109232319758198,-0.00494736737221748,-0.0013453301305873177,-0.03477086561444607,-0.016335282054477478,-0.007400504703354472,-0.052651083440531585,-0.1978780160928002,-0.056373109707465126,0.13286587119093232,-0.4734933824909246
128,0.5493618999898899,0.005628886972545713,-0.013010725110116654,-0.0049018424684730885,-0.0013753478514431994,-0.03497760172418395,-0.017267586755325765,-0.007649347414074667,-0.05191517373680447,-0.20004362910354442,-0.05731937858491442,0.13622977012179074,-0.4663460813641232
129,0.553652599992347,0.0058828636187573035,-0.012945844110051815,-0.004861257504619661,-0.0014066956148061356,-0.035182225591119894,-0.018205355453759474,-0.007903086555326887,-0.051174033971197,-0.2021612698642347,-0.05826166672672781,0.1395263701927735,-0.45899827223207595
130,0.557707300002221,0.006101251247301949,-0.0129120402759005,-0.0048108739800990005,-0.001439395152147261,-0.03538472261492187,-0.019148354619700034,-0.008161695799807661,-0.0504280095772439,-0.20423009760101493,-0.05919949745941872,0.14275430349199972,-0.4514534946842676
131,0.56532189999416,0.006101251247301949,-0.0129120402759005,-0.0048108739800990005,-0.0014734677630802156,-0.03558507817175246,-0.020096352472155746,-0.0084251457671586,-0.0496774391120699,-0.20624930880011855,-0.060132392647285135,0.14591228087330788,-0.4437154034831347
132,0.5702077000023564,0.006192815100547257,-0.012885980702820278,-0.004790396298949437,-0.0015089343063116596,-0.035783277603369974,-0.021049119082851748,-0.008693404038951576,-0.04892265405823012,-0.20821813740638573,-0.061059872999300796,0.1489990922802677,-0.43578776499379307
133,0.5744725999975344,0.0069631385216765715,-0.012819051799497692,-0.004544782218397192,-0.0015458151909712304,-0.03597930620667856,-0.022006426475391545,-0.008966435176048388,-0.04816397863655879,-0.21013585498241877,-0.06198145837741083,0.1520136069813818,-0.42767445351980965
134,0.5782930999994278,0.0071933179907136,-0.012796374528984043,-0.004441940247507755,-0.0015841303683227467,-0.03617314922373893,-0.02296804871990664,-0.009244200738305251,-0.0474017296301121,-0.21200177082856556,-0.06289666810595385,0.15495477371695673,-0.41937944754925843
135,0.5825227999885101,0.007449688921583741,-0.012808195133402641,-0.0043387668176304225,-0.0016238993238580342,-0.03636479183225085,-0.02393376202315668,-0.00952665930659019,-0.04663621621927738,-0.21381523206396602,-0.06380502128193193,0.15782162075822315,-0.41090682591538663
136,0.5860556999978144,0.007449688921583741,-0.012808195133402641,-0.0043387668176304225,-0.001665141069774324,-0.036554219136517484,-0.024903344814048607,-0.009813766507079122,-0.045867739828106865,-0.2155756236689401,-0.0647060370858495,0.16061325587938519,-0.4022607638763024
137,0.5910788999899523,0.0075669993989835194,-0.01284867276201987,-0.004263001377486231,-0.0017078741378357487,-0.036741416158901384,-0.025876577824549135,-0.010105475037794211,-0.04509659398191987,-0.21728236848903887,-0.06559923509284132,0.16332886624337783,-0.3934455291181781
138,0.5955568999925163,0.008076128965220565,-0.012888046150185536,-0.004012836378228321,-0.00175211657261904,-0.036926367831780986,-0.026853244165970756,-0.010401734697345972,-0.04432306417620382,-0.2189349272011222,-0.06648413558381032,0.1659677182022073,-0.38446547768653544
139,0.599086799993529,0.008290296352729605,-0.012922815213908131,-0.0038716914204087174,-0.0017978859251431174,-0.0371090589900159,-0.027833129400617346,-0.01070249241583854,-0.04354742775683084,-0.22053279824186836,-0.06736025985629589,0.16852915701284432,-0.3753250498502457
140,0.6035176000004867,0.008535469336854597,-0.012960492529510221,-0.0037339892044485658,-0.0018451992468818616,-0.03728947436392844,-0.028816021608781144,-0.011007692287895596,-0.04276995381159312,-0.22207551769915992,-0.06822713053479365,0.17101260646973332,-0.3660287659029424
141,0.607866299993475,0.008781218516885595,-0.012980768051605689,-0.0035968736235092768,-0.0018940730841589617,-0.037467598572807966,-0.02980171145108862,-0.011317275607762382,-0.04199090307304673,-0.22356265916683096,-0.06908427188024903,0.17341756845507028,-0.3565812219066029
142,0.6116567999997642,0.009036274061754512,-0.01299588193831947,-0.0034895723040236333,-0.0019445234729233167,-0.037643416118944104,-0.030789992226198486,-0.011631180906437413,-0.04121052783264093,-0.224993833563299,-0.06993121009844816,0.17574362240809013,-0.34698708538210354
143,0.615918999988935,0.009290988218864286,-0.013061886301667118,-0.0033012566848188984,-0.001996565933903091,-0.03781691138219395,-0.03178065992386077,-0.011949343990785644,-0.040429071866096414,-0.22636868891464199,-0.07076747364703061,0.17799042471469126,-0.33725109095160033
144,0.6198712999903364,0.009520076947930748,-0.01310705191524964,-0.003222565815490169,-0.002050215468136174,-0.037988068615087946,-0.03277351327335127,-0.012271697984583156,-0.039646770369983146,-0.22768691010271858,-0.07159259354085017,0.18015770801880898,-0.3273780359376255
145,0.6239397999888752,0.009771645592305152,-0.013111142247478353,-0.0031320718649774063,-0.0021054865528744057,-0.03815687193847791,-0.03376835378730109,-0.012598173371441677,-0.03886384990943601,-0.2289482185789639,-0.07240610365541225,0.18224528045703112,-0.3173727759238269
146,0.62773659999948,0.009771645592305152,-0.013111142247478353,-0.0031320718649774063,-0.002162393137858568,-0.0383233053377303,-0.034764985800946446,-0.012928698039559679,-0.038080528376933924,-0.23015237204452813,-0.07320754102811863,0.1842530248180274,-0.3072402202823017
147,0.6313014999905135,0.009771645592305152,-0.013111142247478353,-0.0031320718649774063,-0.00222094864196078,-0.03848735265946689,-0.035763216506829225,-0.01326319732824528,-0.0372970149620556,-0.23129916409745788,-0.07399644615705338,0.18618089762844076,-0.2969853276724988
148,0.6365097999951104,0.010538359016199685,-0.013139400737019542,-0.0028225847536861065,-0.0022811659501906,-0.03864899760885477,-0.036762855984983904,-0.013601594076154752,-0.036513510132113174,-0.2323884238476551,-0.07477236329704674,0.18802892816696218,-0.28661310151668057
149,0.6405350999993971,0.010764897205224142,-0.01318343721610602,-0.0027648011924612578,-0.0023430574110608186,-0.038808223747446656,-0.03776371722865109,-0.013943808671189042,-0.035730205623553286,-0.23342001550037814,-0.07553484075275746,0.18979721740838373,-0.27612858545694163
150,0.6440375999954995,0.010764897205224142,-0.01318343721610602,-0.0027648011924612578,-0.0024066348343085805,-0.03896501449157187,-0.03876561616556314,-0.014289759101989348,-0.03494728444400349,-0.23439383790907964,-0.07628343116851716,0.19148593689949048,-0.2655368587987877
151,0.6472036999912234,0.010764897205224142,-0.01318343721610602,-0.0027648011924612578,-0.002471909488967188,-0.039119353111277184,-0.039768371674852115,-0.014639361010971668,-0.03416492088483089,-0.2353098240984039,-0.07701769181468437,0.1930953275687178,-0.254843031946271
152,0.6520462999906158,0.010861583335196616,-0.013259695745904672,-0.0026936796080836854,-0.002538892101783609,-0.039271222729816195,-0.04077180559963503,-0.014992527748839099,-0.03338328054406893,-0.2361679407581938,-0.07773718487025966,0.19462569847156247,-0.2440522418336737
153,0.6553702999954112,0.010861583335196616,-0.013259695745904672,-0.0026936796080836854,-0.0026075928559764396,-0.03942060632368545,-0.04177574275533592,-0.015349170430509637,-0.03260252035955718,-0.2369681877093842,-0.0784414777015176,0.1960774254737952,-0.23316964735871254
154,0.6594819000019925,0.01134821173944431,-0.013304433658822298,-0.002532810172911295,-0.002678021390328761,-0.03956748672320458,-0.042780010933808586,-0.015709197992396142,-0.03182278865212895,-0.23771059734268313,-0.07913014313641648,0.1974509498745801,-0.22220042482222171
155,0.663615999990725,0.012041209393432244,-0.01322289889905075,-0.0024028959951285325,-0.0027501867986100695,-0.039711846613637254,-0.043784440903328205,-0.016072517250974323,-0.031044225178671395,-0.23839523403096727,-0.07980275973455064,0.1987467769716595,-0.21114976337924338
156,0.6702853999886429,0.012469063185987039,-0.013201337822596389,-0.002311206998647051,-0.0028240976293211957,-0.039853668536849,-0.044788866404524334,-0.016439032962573718,-0.030266961194873213,-0.23902219351633902,-0.08045891205241584,0.19996547457081312,-0.2000228605064232
157,0.6740742999973008,0.012740697636878616,-0.013184944767855186,-0.0022491579385817027,-0.002899761885755896,-0.03999293489349734,-0.04579312414233162,-0.01680864788432603,-0.02949111952746533,-0.23959160227281323,-0.08109819090376265,0.20110767144184782,-0.18882491749056982
158,0.678454499997315,0.012952912626098401,-0.013176041371828534,-0.002231195971918799,-0.0029771870263725422,-0.040129627945749285,-0.04679705377403851,-0.017181262836204355,-0.02871681465575087,-0.24010361684562356,-0.08172019361481898,0.20217405572341818,-0.17756113494319423
159,0.6831115999957547,0.013159800758747793,-0.01315316741736608,-0.002195233176003227,-0.0030563799654691167,-0.04026372982052048,-0.04780049789351804,-0.017556776764086554,-0.027944152802212387,-0.2405584231681556,-0.08232452427416845,0.20316537327901887,-0.16623670834579596
160,0.6866652999888174,0.013367497340378018,-0.013120011975891164,-0.002135392610220648,-0.003137347074154509,-0.04039522251322983,-0.048803302011728264,-0.017935086803775223,-0.027173232031975875,-0.24095623585753026,-0.08291079397707737,0.20408242600652693,-0.15485682363060657
161,0.6908744999964256,0.013596391902649508,-0.01307106596639644,-0.002039239033418243,-0.0032200941816088887,-0.04052408789206274,-0.049805314533573085,-0.018316088345906447,-0.02640414236090296,-0.2412972974898788,-0.08347862106406993,0.2049260701037068,-0.14342665280144162
162,0.6949732999928528,0.013792949725448532,-0.01305891980738128,-0.001956500769028824,-0.003304626576625757,-0.040650307702735755,-0.05080638673121751,-0.018699675101679233,-0.025636965872075028,-0.24158187785636237,-0.08402763135355673,0.2056972142921234,-0.13195134959924845
163,0.7019338999962201,0.013960695479411115,-0.013034042446975634,-0.001899662026117477,-0.0033909490094281027,-0.04077386357375438,-0.05180637271395432,-0.019085739169337302,-0.02487177684042581,-0.2418102732010023,-0.08455745836832941,0.20639681800193532,-0.120436045216867
164,0.707290299993474,0.014357688424903595,-0.012967241211282446,-0.001787958450036414,-0.003479065693750929,-0.040894737022155576,-0.05280512939472258,-0.019474171101334817,-0.024108641865271896,-0.24198280544139955,-0.08506774355574034,0.20702588952006504,-0.10888584406744468
165,0.7117629999993369,0.014536982525538167,-0.012939933174644471,-0.0017333970721575191,-0.003568980309182238,-0.041012909459725785,-0.05380251645338117,-0.019864859972117573,-0.023347620010484276,-0.24209982137343133,-0.08555813650139331,0.2075854841042637,-0.09730581961086546
166,0.7157331999915186,0.014705847921281328,-0.012903977727802673,-0.0016972024269039916,-0.003660696003754442,-0.04112836219968512,-0.05479839629684323,-0.02025769344645107,-0.022588762952037888,-0.24216169186102007,-0.08602829513617821,0.20807670206560666,-0.08570101024246804
167,0.7201097999932244,0.014909194180311863,-0.012865997892338237,-0.0016587605614036183,-0.0037542153967780167,-0.04124107646382754,-0.05579263401617989,-0.02065255784822696,-0.021832115132670304,-0.24216881101207874,-0.08647788593649078,0.20850068682196965,-0.07407641524823819
168,0.724060799999279,0.015099686787027392,-0.012809389845960324,-0.0015881924813249911,-0.0038495405819091444,-0.041351033390106456,-0.05678509734080362,-0.02104933822967951,-0.02107771392337536,-0.24212159534174127,-0.08690658411748507,0.20885862292504653,-0.062436990830565
169,0.728523400000995,0.015284530823888982,-0.012767150326306147,-0.0015473569349692446,-0.003946673130442923,-0.04145821404065473,-0.0577756565898441,-0.02144791844094405,-0.020325589791452412,-0.242020482923991,-0.0873140738192147,0.209151734063479,-0.050787646208552736
170,0.733425400001579,0.015443869353891304,-0.012742074249769867,-0.0015180809082985546,-0.004045614094823673,-0.041562599410227816,-0.05876418462083116,-0.021848181199889634,-0.01957576647482746,-0.24186593253280314,-0.08770004828552573,0.2093812810446734,-0.03913323979677596
171,0.7376488000008976,0.015620224433933504,-0.012700370221971052,-0.001484526046165103,-0.00414636401236375,-0.04166417043505837,-0.059750556775801184,-0.0222500081621585,-0.01882826116235811,-0.24165842277391855,-0.0880642100355722,0.20954855975788178,-0.027478575466258346
172,0.7443622999999207,0.01590747195462349,-0.012670609959573621,-0.0014149050627441408,-0.00424892290916225,-0.04176290800211019,-0.06073465082494513,-0.022653279991345338,-0.01808308467983062,-0.24139845120836667,-0.08840627102783315,0.2096548991211238,-0.015828398891343177
173,0.7490814999910071,0.01606450172967566,-0.012641043121346866,-0.0014045588290784025,-0.004353290304214892,-0.041858792958718874,-0.06171634690791783,-0.02305787642924997,-0.017340241681353848,-0.24108653346885456,-0.08872595281651859,0.20970165901452223,-0.0041873939860081885
174,0.75291599999764,0.01606450172967566,-0.012641043121346866,-0.0014045588290784025,-0.004459465213706376,-0.04195180612260654,-0.06269552747292984,-0.023463676366137658,-0.016599730845851843,-0.24072320237013733,-0.08902298670026015,0.20969022820261637,0.007439820566941473
175,0.7574334999953862,0.01608133795984311,-0.012666089594170609,-0.001380788153625646,-0.004567446155476441,-0.04204192829225717,-0.06367207721374418,-0.02387055791094188,-0.01586154507835447,-0.24030900701448202,-0.08929711386299004,0.20962202224820747,0.019048694690491703
176,0.7618264999910025,0.016482343503759454,-0.012609046037880978,-0.0012644606611905158,-0.004677231153650819,-0.0421291402576391,-0.06464588300470177,-0.02427839846134523,-0.015125671715782904,-0.23984451189333222,-0.08954808550692019,0.20949848142027716,0.030634750188665065
177,0.7657397000002675,0.016637964242055017,-0.012542828603287955,-0.0011972530926913946,-0.004788817743428278,-0.04221342281126066,-0.06561683383389968,-0.02468707477367483,-0.014392092736925096,-0.23933029598627398,-0.0897756629775416,0.20932106859850258,0.042193583919338695
178,0.7741658000013558,0.016667808142308883,-0.01256319539772972,-0.001176889327389788,-0.004902202976014944,-0.04229475675954503,-0.06658482073464778,-0.0250964630325497,-0.01366078497629471,-0.2387669518583945,-0.08997961788057207,0.2090912671768734,0.053720870861712205
179,0.778697399990051,0.017082356889410427,-0.012483036829712284,-0.001077228603424523,-0.005017383423697105,-0.042373122934509885,-0.06754973671532863,-0.025506438920218415,-0.012931720341566005,-0.238155084757118,-0.09015973219078942,0.20881057896889382,0.06521236707563872
180,0.7852146999939578,0.017209233075710775,-0.012469236049218839,-0.0010387663637440201,-0.005134355185043738,-0.0424485022057375,-0.06851147668778647,-0.025916877685526373,-0.012204866034276462,-0.23749531170959337,-0.09031579835269586,0.2084805221168269,0.07666391255017005
181,0.7905938999901991,0.01720542492939395,-0.012480183541577513,-0.001025216140979156,-0.005253113890230042,-0.04252087549261999,-0.06946993739437085,-0.02632765421245312,-0.011480184773488696,-0.2367882606216977,-0.09044761937296796,0.208102629007411,0.08807143393880769
182,0.7947933999967063,0.01720542492939395,-0.012480183541577513,-0.001025216140979156,-0.005373654706473272,-0.04259022377686463,-0.07042501733376105,-0.026738643088161394,-0.010757635022103218,-0.2360345693797048,-0.09055500890465483,0.20767844419644785,0.09943094717909426
183,0.7989309999975376,0.017432734276134485,-0.012495400686162018,-0.0009207659321876214,-0.005495972343572269,-0.04265652811524406,-0.07137661668569739,-0.02714971867050071,-0.010037171215514024,-0.23523488495565614,-0.09063779132309656,0.20720952234462825,0.11073855999432493
184,0.8036599999904865,0.017717544619947394,-0.012458941949346191,-0.0007685929530420591,-0.005620061059542117,-0.04271976965257605,-0.07232463723474493,-0.027560755154909328,-0.009318743992299743,-0.2343898625174559,-0.09069580179354185,0.20669742616692474,0.12199047427530588
185,0.8087037999939639,0.01780134209454132,-0.01243708647595648,-0.000704084361851238,-0.005745914666335458,-0.04277992963491708,-0.07326898229321464,-0.02797162664065993,-0.008602300426644142,-0.2335001645446961,-0.09072888633045284,0.20614372439784323,0.13318298834023537
186,0.8125189999991562,0.01787605944865845,-0.012404606187410792,-0.0006294879147281766,-0.00587352653564205,-0.04283698942295417,-0.07420955662336638,-0.028382207196395594,-0.007887784262181265,-0.23256645995120048,-0.09073690184849427,0.205549989774786,0.14431249907093313
187,0.8161175999994157,0.01795091478310372,-0.012404347567629663,-0.0005671418106858528,-0.006002889604758263,-0.042890930505579225,-0.07514626635901783,-0.028792370924903936,-0.0071751361469623385,-0.23158942321525933,-0.0907197162052126,0.20491779704173316,0.15537550392379568
188,0.8199579999927664,0.018036359738694243,-0.012386982154630211,-0.0004944291437090436,-0.006133996382518278,-0.04294173451362995,-0.07607901892668306,-0.029201992027078804,-0.0064642938692437936,-0.2305697335185087,-0.09067720823541907,0.20424872097540347,0.16636860281400734
189,0.8243498999945587,0.01810559016432285,-0.012358712845745173,-0.00041601652998635164,-0.006266838955278923,-0.04298938323378166,-0.07700772296636238,-0.029610944865020413,-0.005755192593798256,-0.2295080738943877,-0.09060926777729868,0.20354433443600997,0.17728849987169196
190,0.8285554999893066,0.018180357492813774,-0.012335109978006067,-0.00034090080996825294,-0.006401408992950157,-0.0430338586225738,-0.07793228825210426,-0.030019104024226206,-0.005047765098453203,-0.2284051303870861,-0.09051579569027622,0.20280620644467431,0.1881320050688446
191,0.8325228999892715,0.01824808112307761,-0.01232704190661024,-0.0002513731567346288,-0.006537697755063367,-0.04307514282055516,-0.07885262561245912,-0.03042634437482658,-0.0043419420105651405,-0.22726159122187256,-0.09039670386467814,0.20203590028951365,0.1988960357160375
192,0.8368915999890305,0.01831487789169078,-0.012317339384521536,-0.00016099049824845266,-0.00667569609686979,-0.04311321816653142,-0.07976864685094343,-0.030832541131821253,-0.0036376520431406537,-0.22607814598767068,-0.09025191522323711,0.20123497166235982,0.20957761782805015
193,0.840723799992702,0.01835874546506188,-0.012316383241236779,-8.536015694271884e-05,-0.0068153944754614955,-0.04314806721189906,-0.08068026466663085,-0.0312375699142737,-0.002934822230319439,-0.22485548483272652,-0.09008136371449424,0.2004049668280148,0.22017388735772955
194,0.8452902999997605,0.01838921514837365,-0.012317964573719965,-5.6982434457108e-06,-0.006956782955907544,-0.043179672735049496,-0.08158739257498596,-0.031641306803422656,-0.0022333781619384907,-0.22359429767418884,-0.08988499429816156,0.19954742082788945,0.23068209129754313
195,0.8490996999898925,0.018422575243317814,-0.012314187179399165,7.356310460435254e-05,-0.007099851217398061,-0.04320801775582751,-0.08248994482905367,-0.03204362839967142,-0.001533244216900994,-0.22229527342239644,-0.08966276292251524,0.19866385571981243,0.24109958864844272
196,0.853393799989135,0.01844777224034658,-0.012328964999522109,0.00018366613574062086,-0.0072445885593891805,-0.04323308555002813,-0.08338783634111656,-0.03244441187841741,-0.0008343437950781067,-0.2209590992206424,-0.08941463649389825,0.19775577885573722,0.25142385125581357
197,0.8577638999995543,0.01847024938925211,-0.012331788638033248,0.00025701999748105244,-0.007390983907741942,-0.04325485966391637,-0.08428098260493,-0.03284353504468595,-0.0001365995474767125,-0.21958645970115928,-0.08914059283841841,0.19682468119901084,0.2616524645124371
198,0.8615432999940822,0.01849152122634336,-0.01233395242263702,0.00032845880627742005,-0.00753902582084842,-0.04327332392875428,-0.08516929961864286,-0.0332408763865344,0.0005600663955886065,-0.21817803625804041,-0.08884062065593479,0.1958720356828047,0.2717831279285508
199,0.8653260999999475,0.01849152122634336,-0.01233395242263702,0.00032845880627742005,-0.007688702495738569,-0.04328846247531974,-0.08605270380850945,-0.03363631512719436,0.0012557321985757017,-0.21673450633778643,-0.08851471946643347,0.1948992956112432,0.2818136555692421
200,0.8695537000021432,0.01839471526405279,-0.012380037545895128,0.00039861251977521897,-0.00784000177416142,-0.043300259748402035,-0.08693111195349623,-0.03402973127592157,0.0019504760972977582,-0.21525654274813713,-0.08816289954890101,0.19390789310470036,0.2917419763595663
201,0.8733327999943867,0.01839471526405279,-0.012380037545895128,0.00039861251977521897,-0.007992911148634459,-0.043308700521258625,-0.08780444111088509,-0.03442100567752494,0.002644376178253725,-0.21374481298582015,-0.08778518187281045,0.19289923759066807,0.30156613425792733
202,0.8768400999979349,0.01839471526405279,-0.012380037545895128,0.00039861251977521897,-0.00814741776845524,-0.04331376991001821,-0.08867260854297167,-0.034810020060548175,0.0033375101609449307,-0.21219997858382011,-0.08738159802234206,0.19187471434152864,0.31128428829841426
203,0.8811254999891389,0.01841534452096278,-0.012382164913119874,0.0005398335896628012,-0.008303508445669495,-0.043315453388014916,-0.08953553164495517,-0.035196657084078944,0.004029955183410205,-0.21062269447874218,-0.08695219011346757,0.19083568306049697,0.32089471250293167
204,0.8865178999985801,0.018581097799355607,-0.012364503087129995,0.0008357985263685074,-0.008461169660990257,-0.043313736800038964,-0.09039312787411297,-0.03558080038316263,0.004721787591205292,-0.2090136083988139,-0.08649701070403258,0.1897834765169258,0.33039579566411054
205,0.8906495999981416,0.018583076977365026,-0.012376180386344278,0.0009127917159087113,-0.00862038756966267,-0.04330860637648928,-0.09124531468035095,-0.03596233461279955,0.005413082730045604,-0.20737336027303763,-0.08601612269697885,0.18871939923209624,0.33978604100012966
206,0.8940975000004983,0.018583076977365026,-0.012376180386344278,0.0009127917159087113,-0.008781148007269403,-0.04330004874741372,-0.0920920094382183,-0.03634114549050673,0.006103914742324497,-0.2057025816619764,-0.08550959923685364,0.18764472621654552,0.34906406568272275
207,0.8977521999913733,0.018583076977365026,-0.012376180386344278,0.0009127917159087113,-0.008943436495471734,-0.04328805095642288,-0.09293312938047207,-0.03671711983742668,0.006794356367712121,-0.20400189521062423,-0.0849775235997595,0.18656070175991002,0.3582286002397835
208,0.9029990999988512,0.018570425547931965,-0.01239790568362838,0.0012122414951249057,-0.00910723824768166,-0.04327260047446352,-0.09376859153327426,-0.03709014561796788,0.0074844787480327045,-0.20227191412378176,-0.08441998907690337,0.18546853827419058,0.36727848783411954
209,0.9086153999960516,0.018594942125525073,-0.012387554877177168,0.001340784811422753,-0.0092725381746606,-0.04325368521343829,-0.09459831265310077,-0.03746011197796321,0.008174351236610693,-0.20051324166432694,-0.08383709885190972,0.1843694151912731,0.3762126834200419
210,0.91268759999366,0.01859361075750304,-0.01237211329294372,0.0014384388963071138,-0.009439320890040445,-0.043231293539658606,-0.09542220916543885,-0.03782690928133461,0.008864041212268635,-0.19872647067473728,-0.0832289658720677,0.1832644779154641,0.38503025277960706
211,0.9163427000021328,0.018579177113187816,-0.012344760809538995,0.001542220913055392,-0.009607570715762995,-0.04320541428711764,-0.09624019710534605,-0.0381904291452542,0.009553613898152097,-0.19691218312219058,-0.08259571271368707,0.1821548368317269,0.39373037144046025
212,0.9202029000007316,0.018532903772895567,-0.012264794343331331,0.0016799653341104557,-0.009777271687434048,-0.043176036770570865,-0.09705219205994171,-0.03855056447379395,0.010243132185549073,-0.19507094966753716,-0.08193747144174304,0.18104156637023008,0.4023123234773552
213,0.9244694999943022,0.018516417837739423,-0.012270538746348906,0.0018070291825409467,-0.0099484075595886,-0.043143150798411835,-0.09785810911289795,-0.03890720949005778,0.010932656462863557,-0.1932033292584057,-0.08125438346399476,0.17992570412774686,0.41077550019955017
214,0.928555199992843,0.018488754385051886,-0.012250206773421484,0.0019033409525842423,-0.010120961810863935,-0.04310674668533132,-0.09865786279099384,-0.039260259766792115,0.011622244449894877,-0.19130986874667325,-0.08054659937976606,0.17880825004636877,0.4191193987263991
215,0.932838199994876,0.018488754385051886,-0.012250206773421484,0.0019033409525842423,-0.010294917649077513,-0.043066815264747954,-0.09945136701279293,-0.03960961225547237,0.01231195103756637,-0.1893911025304969,-0.07981427882358158,0.17769016564992482,0.4273436204535725
216,0.9384970999963116,0.018342231528230096,-0.012233902969086803,0.0019590135972423787,-0.01047025801620688,-0.04302334790099898,-0.10023853503950121,-0.03995516531386442,0.013001828133238873,-0.18744755222107357,-0.07905759030385512,0.1765723733384227,0.4354478694124576
217,0.9428656999953092,0.018374387249668174,-0.012197886108135474,0.002209709422164448,-0.010646965593269005,-0.04297633650128043,-0.10101927942805944,-0.04029681873206225,0.013691924511736248,-0.1854797263342631,-0.07827671103683097,0.17545575574075709,0.44343195052539464
218,0.949663799998234,0.018298043853842094,-0.012124609189799383,0.0024043466011520317,-0.010825022805096722,-0.04292577352732617,-0.10179351198652074,-0.04063447375700444,0.014382285672201948,-0.1834881200071786,-0.07747182677598254,0.17434115512585632,0.4512957677595126
219,0.9531636999890908,0.018298043853842094,-0.012124609189799383,0.0024043466011520317,-0.01100441182501013,-0.04287165200681554,-0.10256114373176083,-0.04096803311547406,0.015072953700897349,-0.18147321473981634,-0.07664313163707509,0.17322937287236764,0.4590393221820298
220,0.9576744999940274,0.018140900976627405,-0.012120324872895657,0.002493024453827322,-0.011185114579381131,-0.042813965544499705,-0.10332208484956507,-0.041297401035588314,0.01576396714004427,-0.17943547816176741,-0.07579082791910263,0.17212116899690866,0.4666627099199828
221,0.9629009999916888,0.018153117068261743,-0.01206797256798743,0.002707004445814767,-0.011367112752089412,-0.04275270833303715,-0.10407624465713307,-0.041622483266785845,0.016455360862805694,-0.177375363824021,-0.0749151259213111,0.17101726174084325,0.4741661200274409
222,0.9662798999925144,0.018103380936252796,-0.012049057820942023,0.0027990468157011936,-0.011550387788868476,-0.04268787516352916,-0.10482353156803774,-0.041943187098321184,0.017147165954490333,-0.17529331101583986,-0.07401624375652255,0.16991832721546887,0.4815498322633548
223,0.970272099992144,0.018035297554125945,-0.0120291575698795,0.002897649575914314,-0.011734920901540557,-0.04261946143574677,-0.10556385305967238,-0.042259421376277674,0.017839409600058462,-0.17318974460665854,-0.07309440716097726,0.16882499910543353,0.4888142147832736
224,0.9748822999972616,0.018035297554125945,-0.0120291575698795,0.002897649575914314,-0.011920693072139481,-0.04254746316804075,-0.10629711564321653,-0.04257109651911162,0.018532114977998036,-0.17106507491292436,-0.07214984930091319,0.16773786843013172,0.4959597217482452
225,0.981103099999018,0.0178734310525046,-0.012014440006225275,0.0029863979696685286,-0.012107685056920763,-0.042471877006926874,-0.10702322483614762,-0.04287812453174203,0.019225301160631612,-0.16891969758977313,-0.07118281057610351,0.16665748336276154,0.502986890854296
226,0.9861461999971652,0.01768094645501445,-0.011899183159627034,0.003431730929020166,-0.012295877390258432,-0.04239270023633895,-0.10774208513732209,-0.04318041901820191,0.019918983020906497,-0.16675399354740175,-0.07019353842057445,0.165584349106658,0.509896340785954
227,0.9906780999881448,0.017566466714899653,-0.011849946102326394,0.0035273074859507474,-0.012485250388428319,-0.042309930786542584,-0.1084536000046465,-0.04347789519286824,0.020613171145712164,-0.16456832889197165,-0.06918228710072634,0.1645189278284528,0.5166887685973485
228,0.994726199991419,0.017471276766972445,-0.01176441368580844,0.003631380453024728,-0.012675784153277761,-0.042223567242703285,-0.1091576718353559,-0.04377046989028943,0.021307871755760713,-0.16236305489084743,-0.06814931751108193,0.16346163864754745,0.5233649470244819
229,0.9989263999887044,0.017379850475014315,-0.011692113344594494,0.0037244155831565335,-0.012867458575781948,-0.04213360885310242,-0.10985420194891328,-0.04405806157363043,0.022003086632057998,-0.1601385079619485,-0.0670948969678862,0.1624128576813244,0.5299257217323293
230,1.0037523999926634,0.017308625680291862,-0.011602958019931841,0.0038662275950727154,-0.013060253339487295,-0.04204005553699512,-0.11054309057254129,-0.044340590341756865,0.022698813048984957,-0.15789500968696396,-0.06601929900078242,0.16137291814545723,0.5363720085004763
231,1.007635899994057,0.017234451725914455,-0.011549996632755266,0.003959613780795105,-0.013254147923842415,-0.04194290789210425,-0.11122423682939217,-0.04461797793498122,0.023395043714000738,-0.15563286684815514,-0.06492280314278936,0.16034211050862304,0.5427047903510549
232,1.0118441999948118,0.017146602178495125,-0.011482365079722803,0.004016192107275289,-0.013449121607417448,-0.04184216720174539,-0.11189753872935945,-0.0448901477394952,0.024091766713971337,-0.15335237148844544,-0.06380569471880464,0.1593206827008611,0.5489251146227863
233,1.0168131999962498,0.017073516598571974,-0.011419214811168215,0.004077314540947388,-0.013645153471012672,-0.04173783544157818,-0.11256289316253262,-0.0451570247905137,0.0247889654681195,-0.1510538009944702,-0.06266826463285828,0.15830884037476517,0.55503408999498
234,1.0242418999987422,0.016900831551958245,-0.011330697799097239,0.004159776934573471,-0.013842222400657571,-0.04162991528597986,-0.11322019589529263,-0.045418535774156873,0.025486618687583888,-0.1487374182022356,-0.06151080915434019,0.15730674721864077,0.5610328834653733
235,1.0283280000003288,0.016879358591147576,-0.011138825666802979,0.004299916339468348,-0.01404030709050177,-0.041518410114037396,-0.11386934156904294,-0.045674609028097855,0.02618470034156787,-0.146403471525012,-0.060333629703423645,0.15631452532070414,0.5669227172857189
236,1.0326179999974556,0.016824303619164607,-0.01105110744610091,0.004405344928211418,-0.01423938604559932,-0.041403324015154654,-0.11451022370156795,-0.045925174541005094,0.026883179630050748,-0.144052195103063,-0.05913703263590592,0.1553322555833464,0.5727048658590642
237,1.036913399992045,0.016729958787845875,-0.010960253823899604,0.004474043036928517,-0.01443943758458807,-0.04128466179427168,-0.11514273469100715,-0.046170163950809306,0.027582020963026938,-0.14168380897478844,-0.05792132902768567,0.15435997818643796,0.5783806526026789
238,1.040817999994033,0.016644593608380883,-0.010839921394816734,0.004535057046366729,-0.014640439842266095,-0.04116242897669349,-0.11576676582243081,-0.04640951054182589,0.028281183946231116,-0.13929851926883843,-0.056686834459095316,0.1533976930985976,0.5839514467806064
239,1.0451867999945534,0.01655792129065657,-0.010671774962492182,0.00462469835787936,-0.014842370772067227,-0.04103663181252616,-0.11638220727700056,-0.046643149240764716,0.02898062337330019,-0.13689651841673364,-0.05543386879930473,0.15244536063530564,0.5894186603098283
240,1.0491526999976486,0.016453170119386382,-0.010570373849392571,0.00471391879753459,-0.01504520814843798,-0.040907277280718315,-0.1169889481436945,-0.04687101661165985,0.029680289224316196,-0.13447798538550798,-0.054162755991010086,0.1515029020626951,0.5947837445440315
241,1.0529429000016537,0.016453170119386382,-0.010570373849392571,0.00471391879753459,-0.015248929569118325,-0.040774373092706026,-0.11758687643357403,-0.047093050849752814,0.030380126670667126,-0.1320430859298699,-0.05287382383561956,0.15057020024581247,0.6000481870389729
242,1.0562411999999313,0.016453170119386382,-0.010570373849392571,0.00471391879753459,-0.015453512457328856,-0.040637927695660145,-0.11817587909656664,-0.04730919177436362,0.03108007608615625,-0.12959197286335972,-0.05156740377914485,0.1496471003400971,0.6052135083034327
243,1.0598163999966346,0.016453170119386382,-0.010570373849392571,0.00471391879753459,-0.015658934063867067,-0.04049795027533533,-0.11875584204073666,-0.04751938082078446,0.031780073064283904,-0.12712478634796143,-0.05024383069900469,0.14873341052478775,0.6102812585397464
244,1.063354599988088,0.016248430139202904,-0.010491239532501636,0.004749809255833619,-0.01586517146911564,-0.04035445075852071,-0.11932665015401299,-0.047723561031231786,0.03248004844161936,-0.12464165420161137,-0.04890344269194352,0.14782890277692876,0.6152530143778892
245,1.068084699989413,0.01600565711547162,-0.010209696481954215,0.0050163951525899995,-0.01607220158496572,-0.040207439815092255,-0.1198881873283398,-0.047921677044892995,0.03317992832717425,-0.12214269222302918,-0.047546580863265395,0.146933313684612,0.6201303756070686
246,1.072170699990238,0.015929684534429816,-0.010101506757019726,0.0050874974784760295,-0.01628000115665818,-0.04005692885966747,-0.12044033648621448,-0.048113675087104596,0.03387963413768316,-0.1196280045332817,-0.04617358911757972,0.1460463452980572,0.624914961908765
247,1.0761648999905449,0.015812276095384107,-0.01000998658137289,0.005140832890547231,-0.016488546764546065,-0.03990293005286357,-0.12098297960957484,-0.048299502957699116,0.034579082638691236,-0.11709768393347643,-0.04478481395125142,0.14516766601710301,0.6296084095951315
248,1.080154199997196,0.015678399707176008,-0.009883676109768579,0.00517615773101486,-0.016697814825781587,-0.03974545630216026,-0.12151599777099453,-0.04847911001855864,0.03527818599134303,-0.11455181227796632,-0.04338060424674461,0.1442969115136517,0.6342123683566389
249,1.084374799989746,0.015581710798150421,-0.009754172769440218,0.005240518961966401,-0.016907781595931086,-0.03958452126236864,-0.12203927116714373,-0.04865244718041329,0.03597685180476133,-0.11199046086243626,-0.041961311069044625,0.143433685687584,0.6387284980228152
250,1.0884906999999655,0.015435640649037578,-0.009638239455189069,0.0052876132556710365,-0.01711842317052156,-0.03942013933570817,-0.12255267915446998,-0.04881946688892321,0.036674983193899495,-0.10941369082622898,-0.04052728746433892,0.14257756165463217,0.643158465339892
251,1.0921325999952387,0.015435640649037578,-0.009638239455189069,0.0052876132556710365,-0.017329715486522436,-0.039252325671493844,-0.12305610028705269,-0.04898012311008291,0.037372478842745895,-0.10682155356825725,-0.039078888261132955,0.1417280827646788,0.6475039407691223
252,1.0965527999942424,0.015239865032071155,-0.009580138465100243,0.005357919085679609,-0.017541634323766347,-0.039081096165436056,-0.12354941235658187,-0.049134371314987046,0.038069233072754144,-0.10421409117583816,-0.03761646987397286,0.14088476364892574,0.6517665953094941
253,1.1000970999884885,0.015053863584399188,-0.009393261464940073,0.005481027942259862,-0.017754155306312712,-0.038906467458556145,-0.1240324924344096,-0.04928216846399704,0.03876513591636793,-0.10159133686577711,-0.0361403901099414,0.14004709129436022,0.6559480973485072
254,1.1036438000010094,0.014910362490066451,-0.009346047590835922,0.005580469255468944,-0.017967253903758,-0.03872845693572085,-0.12450521691562198,-0.04942347299034826,0.03946007319550515,-0.09895331543702,-0.03465100797808929,0.1392145261439267,0.6600501095446321
255,1.1076870999968378,0.014738338310533764,-0.009256095942484392,0.005646812379705069,-0.018180905432496657,-0.03854708272379912,-0.12496746156507677,-0.049558244783237684,0.0401539266048619,-0.09630004373418542,-0.03314868350195863,0.1383865032207989,0.6640742857450013
256,1.1118014999956358,0.014538457989656112,-0.009089549323170552,0.005766323746482617,-0.018395085056936746,-0.038362363689445164,-0.12541910156535022,-0.04968644517043179,0.040846573799892844,-0.0936315311212813,-0.03163377753535023,0.13756243327513354,0.6680222679418253
257,1.116162999998778,0.014347134400509703,-0.009027553372136775,0.005816910449426182,-0.01860976779067453,-0.03817431943651181,-0.12586001156653587,-0.04980803690043424,0.04153788848932049,-0.09094777996490573,-0.030106651581481052,0.1367417039516779,0.6718956832709557
258,1.1198812999937218,0.014148540594164488,-0.008943724732752198,0.005872061328240448,-0.01882492849763208,-0.03798297030309886,-0.12629006573783602,-0.04992298412425294,0.04222774053202273,-0.08824878612622601,-0.02856766761567275,0.1359236809765932,0.6756961410559531
259,1.1239550999889616,0.013964601135266218,-0.008879219919419371,0.005944270089028633,-0.0190405418931622,-0.03778833735824107,-0.12670913782088553,-0.050031252376805585,0.04291599603814479,-0.0855345394610258,-0.027017187911706667,0.13510770936185015,0.6794252299009368
260,1.128419299988309,0.013775752152654511,-0.00879319771116798,0.00596088908000768,-0.019256582545124808,-0.03759044239824066,-0.12711710118474587,-0.05013280855800335,0.04360251747427825,-0.08280502432710753,-0.025455574871975008,0.13429311462554813,0.6830845148354203
261,1.1327292999922065,0.0135675753433333,-0.008701728806881607,0.005984877795657366,-0.019473024874938967,-0.03738930794264955,-0.12751382888250712,-0.050227620913551874,0.044287163772547065,-0.08006022009833469,-0.02388319086155213,0.13347920402650726,0.6866755345142574
262,1.1368137999961618,0.013348866702902806,-0.008633499507532354,0.006010808626503369,-0.01968984315861504,-0.037184957229906446,-0.12789919370943323,-0.05031565901550843,0.044969790443437935,-0.07730010168459758,-0.022300398046303793,0.13266526781148255,0.6901997984757453
263,1.14077109999198,0.013150681799810817,-0.00857480589546297,0.006048068354826567,-0.019907011527771277,-0.0369774142126346,-0.12827306826258533,-0.0503968937426337,0.04565024969220992,-0.07452464005698609,-0.0207075582351463,0.13185058047335,0.6936587844608401
264,1.1450655999942685,0.012970099616615003,-0.0085597371364273,0.006114856639819847,-0.020124503970639283,-0.03676670355260606,-0.12863532500185676,-0.05047129726057661,0.046328390538716124,-0.0717338027774524,-0.019105032726561316,0.1310344020186184,0.6970539357963543
265,1.1484588000021176,0.012970099616615003,-0.0085597371364273,0.006114856639819847,-0.020342294333062554,-0.036552850615378364,-0.1289858363123527,-0.050538843001929915,0.04700405894046834,-0.06892755453224847,-0.017493182159466037,0.13021597924262654,0.7003866588449111
266,1.153024599989294,0.012689739939039442,-0.008488945888326077,0.006128337301715496,-0.020560356319492525,-0.03633588146461012,-0.129324474568047,-0.05059950564619427,0.047677097918773816,-0.06610585766842517,-0.015872366368531947,0.1293945470107924,0.7036583205243373
267,1.1576370999973733,0.012306337760447855,-0.00839756044401053,0.006193993844176031,-0.02077866349398656,-0.036115822856062164,-0.12965111219664613,-0.0506532610996875,0.0483473476877716,-0.06326867273268275,-0.014242944244039267,0.12856932954429062,0.7068702458990769
268,1.1617222999921069,0.01211544616089046,-0.008328727239023734,0.006219228414808589,-0.020997189281212247,-0.03589270223129068,-0.1299656217455916,-0.05070008647543563,0.0490146457861946,-0.06041595901186637,-0.012605273596347881,0.12773954170854532,0.710023715846103
269,1.1658023999916622,0.011894986473281735,-0.00830378925141413,0.00622550316525158,-0.021215906967462315,-0.035666547711039415,-0.13026787594913009,-0.05073996007308137,0.04967882721168208,-0.05754767507440479,-0.010959711025059039,0.1269043903029389,0.7131199647977065
270,1.1700855999952182,0.011670681574604064,-0.008266262925960924,0.0062152083935183774,-0.021434789701684602,-0.03543738808833801,-0.13055774779638152,-0.05077286135884554,0.05033972455746695,-0.054663779311995536,-0.009306611792935706,0.12606307535015263,0.7161601785634347
271,1.1741017000022111,0.011452196804596639,-0.008229975769412637,0.006208106856537311,-0.021653810496531575,-0.0352052528213138,-0.13083511060033398,-0.05079877094557581,0.05099716815126113,-0.051764230480845635,-0.0076463297046430205,0.12521479138357144,0.7191454922333532
272,1.1784724999888567,0.011219521501735802,-0.008226873219587878,0.006219541485781258,-0.021872942229433732,-0.034970172025724396,-0.1310998380676942,-0.05081767057291647,0.05165098619616255,-0.0488489882417839,-0.005979216990363849,0.12435872873120407,0.7220769881646897
273,1.1825739999912912,0.010997947232856629,-0.008199749498498235,0.00622489313591602,-0.022092157643701146,-0.03473217646721888,-0.13135180436952282,-0.05082954308763211,0.052301004913406474,-0.045918013698568384,-0.004305624194337914,0.12349407479458872,0.7249556940538177
274,1.1866346999886446,0.010793838284147412,-0.0081742458183674,0.006247934609645768,-0.022311429349657342,-0.03449129755333543,-0.13159088421258347,-0.05083437242411756,0.052947048686784404,-0.04297126993372063,-0.0026259000683664943,0.12262001532117749,0.7277825810954217
275,1.191746399999829,0.010487377442145278,-0.008156222668265095,0.006173918148410338,-0.02253072982580963,-0.03424756732524307,-0.1318169529113345,-0.05083214358512549,0.05358894020855379,-0.04000872254122728,-0.0009403914703182163,0.12173573566871504,0.7305585622305747
276,1.195176099994569,0.010272321901465153,-0.008153091855785995,0.006157964293234576,-0.022750031420059998,-0.034001018449235615,-0.1320298864604913,-0.05082284262274235,0.05422650062666228,-0.0370303401554595,0.0007505567323350653,0.12084042206015183,0.7332844904853444
277,1.1992337999981828,0.009996451366833619,-0.008120364487998126,0.00616920790139217,-0.022969306350960565,-0.03375168420798581,-0.13222956160808802,-0.050806456619642316,0.05485954969311059,-0.03403609497567108,0.002446601753929765,0.11993326282765772,0.7359611574014295
278,1.2035172999894712,0.009776033011346622,-0.00812044310925483,0.006142038219409519,-0.023188526709017526,-0.033499598491567806,-0.13241585592896768,-0.05078297367064822,0.05548790591327889,-0.03102596328544728,0.0041474029769533495,0.11901344964433028,0.7385892915602092
279,1.2086765999993077,0.009601369302544497,-0.008095561942191352,0.006084458127073703,-0.023407664458047563,-0.03324479578825622,-0.1325886478986293,-0.05075238286462761,0.05611138669604266,-0.02799992596648762,0.005852622033308737,0.11808017874222197,0.7411695572014705
280,1.2134581999998773,0.009414455059919537,-0.008068797260761948,0.006028921876606393,-0.023626691436590404,-0.03298731117511013,-0.13274781696736196,-0.050714674266750706,0.05672980850450557,-0.024957969006118286,0.007561922880497024,0.1171326521153403,0.7437025529379662
281,1.2177462999970885,0.009217060561089866,-0.008047821726645489,0.0059747371218770474,-0.023845579359381273,-0.03272718030835043,-0.13289324363459562,-0.05066983890113618,0.05734298700717781,-0.0219000839979424,0.009274971872721572,0.1161700787063062,0.7461888105668352
282,1.2221570999972755,0.009013475754371727,-0.008042922444936429,0.005874042022106408,-0.02406429981888674,-0.03246443941353887,-0.13302480952339837,-0.050617868733910026,0.05795073722943007,-0.01882626863504972,0.010991437826922754,0.1151916755753892,0.7486287939787954
283,1.2261986999947112,0.008784189072398892,-0.008056367146124514,0.005770967180591369,-0.02428282428690742,-0.03219912527556736,-0.13314239745505094,-0.05055875665670146,0.058552873705054985,-0.01573652719522118,0.012710992083758898,0.11419666905067231,0.7510228981659045
284,1.2301307000016095,0.008607349951939904,-0.008034570628161987,0.005643797618781131,-0.02450112411625102,-0.03193127522846567,-0.13324589152362956,-0.05049249647059905,0.05914921062776988,-0.012630871017578054,0.014433308563555063,0.11318429585813489,0.7533714483285605
285,1.234317499998724,0.00837349663695348,-0.008044737698431137,0.005521780488173594,-0.024719170542479046,-0.031660927145035885,-0.1333351771705291,-0.050419082870589084,0.05973956200249624,-0.009509318970140552,0.016158063817247326,0.1121538042304784,0.7556746990823048
286,1.238672499996028,0.008155859378668416,-0.00804486970200709,0.005397961768641014,-0.024936934685730303,-0.03138811942632204,-0.13341014125885856,-0.05033851143049714,0.06032374179625416,-0.006371897907775932,0.017884937072356246,0.11110445499355684,0.7579328337648643
287,1.2428542999987258,0.00798928183016556,-0.00804895921251287,0.005280983799554394,-0.02515438755262426,-0.031112890990923504,-0.13347067214764194,-0.05025077858845291,0.060901564088511724,-0.003218643120032139,0.019613610274029022,0.1100355226293129,0.7601459638437528
288,1.2467345999903046,0.00780893882905539,-0.008078097230411318,0.005144148647542871,-0.025371500038247268,-0.03083528126416065,-0.13351665976575947,-0.05015588163289692,0.061472843220832525,-4.959876836911307e-05,0.021343768121195754,0.10894629631416052,0.7623141284246325
289,1.2534424999903422,0.007482749314609978,-0.00809713819863494,0.00484840389615326,-0.025588242928224498,-0.030555330167101317,-0.13354799568556394,-0.05005381868914672,0.06203739394566666,0.0031351816876834682,0.02307509809789101,0.10783608093179424,0.764437293860521
290,1.2574555999890435,0.0073146692081690985,-0.008132314286708662,0.004716268956593312,-0.025804586900880357,-0.030273078105456673,-0.13356457319610796,-0.04994458870653895,0.06259503157413372,0.0063356350758962034,0.02480729049979749,0.1067041980594478,0.766515353461806
291,1.261730300000636,0.007043490547621376,-0.008222827676259635,0.004521580365250516,-0.026020502529489984,-0.029988565958354828,-0.13356628737591877,-0.049828191446162906,0.0631455721226496,0.00955168810867454,0.026540038456073983,0.10554998692666494,0.7685481273069195
292,1.2652639000007184,0.007043490547621376,-0.008222827676259635,0.004521580365250516,-0.026235960284624313,-0.029701835067000408,-0.13355303516525954,-0.04970462746919968,0.06368883245825102,0.012783256992777037,0.028273037946535105,0.1043728053456887,0.7705353621534022
293,1.2698086999880616,0.006764322650542732,-0.008301055771625187,0.004336896251582333,-0.026450930536591193,-0.02941292722322857,-0.1335247154378165,-0.04957389812587992,0.06422463044247594,0.01603024705181841,0.030005987814255564,0.10317203061261786,0.7724767314489821
294,1.2734416000021156,0.006764322650542732,-0.008301055771625187,0.004336896251582333,-0.02666538355797474,-0.02912188465796185,-0.13348122907175264,-0.04943600554507233,0.06475278507366103,0.019292552361940205,0.031738589773676724,0.10194706037852345,0.7743718354421729
295,1.2768216999975266,0.006764322650542732,-0.008301055771625187,0.004336896251582333,-0.02687928952627518,-0.028828750029578167,-0.13342247902007093,-0.049290952624513676,0.06527311662752101,0.0225700554010133,0.03347054841429841,0.10069731348976171,0.7762202013917906
296,1.2802639000001363,0.006764322650542732,-0.008301055771625187,0.004336896251582333,-0.027092618526651208,-0.028533566412198147,-0.13334837038023029,-0.0491387430216901,0.06578544679587832,0.02586262671171777,0.035201571200043455,0.09942223079676513,0.7780212838746726
297,1.2843295999919064,0.006438946583177058,-0.008386339283995091,0.003980693413117987,-0.02730534055476673,-0.028236377283899765,-0.13325881046295887,-0.04897938114537817,0.06628959882341552,0.029170124578826614,0.036931368464387423,0.09812127593063803,0.7797744651907846
298,1.2877174999885028,0.006438946583177058,-0.008386339283995091,0.003980693413117987,-0.02751742551974362,-0.027937226514868223,-0.13315370886021047,-0.04881287214785317,0.06678539764232709,0.03249239472100077,0.03865965340135063,0.09679393604692833,0.7814790558647805
299,1.2923579999915091,0.005959243939090655,-0.008462938984670086,0.0033598076577835406,-0.027728843247221982,-0.02763615835548905,-0.13303297751221022,-0.048639221917770925,0.06727267000475008,0.03582926999738346,0.04038614205245384,0.09543972253599282,0.783134295242979
300,1.2967578999960097,0.0056802101327042415,-0.008451598935419262,0.002930228232229076,-0.027939563482529493,-0.027333217424392115,-0.13289653077353783,-0.0484584370737285,0.06775124461285817,0.039180570129262536,0.04211055328974326,0.09405817169941905,0.7847393521846175
301,1.301117199996952,0.005536591436495333,-0.008406655684407556,0.0027011235135324767,-0.028149555893961137,-0.027028448696454214,-0.1327442854781988,-0.04827052495850728,0.06822095224650748,0.04254610143704975,0.04383260879499424,0.0926488453920129,0.7862933258461461
302,1.3051205999945523,0.005360392774960472,-0.008394103496629309,0.0024780615550349266,-0.02835879007617057,-0.02672189749076777,-0.13257616100363512,-0.04807549363400115,0.06868162588832627,0.04592565659280622,0.04555203303520716,0.09121133162890727,0.7877952465572208
303,1.309271699996316,0.005158464690173075,-0.008404511004078696,0.0020921088496153365,-0.028567235553674186,-0.026413609458583124,-0.13239207933362865,-0.04787335187683107,0.06913310084614484,0.049319014388523826,0.047268553234512616,0.0897452451573933,0.7892440767869616
304,1.313356400001794,0.00501934135952511,-0.008350772621730599,0.0018328803770853587,-0.028774861784468687,-0.02610363057123162,-0.13219196512005155,-0.047664109174646724,0.06957521487266662,0.052725939520352365,0.04898189934260666,0.08825022799312195,0.7906387121989464
305,1.3178304999892134,0.004842760592302792,-0.008300322304650031,0.0015840129640275484,-0.028981638163762907,-0.025792007108036776,-0.1319757457434206,-0.047447775723114254,0.07000780828228555,0.056146182388942444,0.05069180399984009,0.08672594992036972,0.7919779827933208
306,1.3211134000011953,0.004842760592302792,-0.008300322304650031,0.0015840129640275484,-0.02918753402782454,-0.025478785644220465,-0.13174335137221316,-0.04722436242358814,0.0704307240649595,0.05957947891605444,0.05239800249908886,0.0851721089561087,0.7932606541343132
307,1.3246185000025434,0.004663178144532097,-0.008249167619370158,0.0012917274108670998,-0.029392518657942263,-0.025164013038811064,-0.13149471502090473,-0.0469938808814642,0.07084380799705382,0.0630255503775643,0.05410023274453603,0.08358843177766657,0.7944854286613564
308,1.3304022999946028,0.004364751603026244,-0.008139540290585287,0.0007454474099324933,-0.02959656128450349,-0.02484773642256021,-0.13122977260668936,-0.04675634340520957,0.07124690874907336,0.066484103252977,0.055798235207498555,0.08197467411380775,0.7956509470819344
309,1.3342808000015791,0.00424841151817127,-0.008092180177740924,0.0003902151703353354,-0.029799631091188012,-0.024530003185874723,-0.1309484630048447,-0.04651176300606483,0.07163987799020559,0.06995482909153927,0.057491752879434754,0.08033062109911168,0.7967557898441952
310,1.33863269998983,0.0041455088585453555,-0.008023715915145762,4.663777434221728e-05,-0.030001697219277243,-0.024210860966770057,-0.13065072810270623,-0.04626015339841205,0.0720225704896029,0.0734374043950233,0.05918053122227075,0.07865608759156985,0.7977984786872828
311,1.3431511999951908,0.0041455088585453555,-0.008023715915145762,4.663777434221728e-05,-0.03020272877207901,-0.023890357638851504,-0.13033651285221745,-0.04600152900080164,0.07239484421433584,0.07693149051723411,0.06086431811618646,0.07695091845336706,0.7987774782672714
312,1.3469543999963207,0.004011616279760154,-0.00791923490727626,-0.0003560298398925175,-0.03040269481946754,-0.023568541299329344,-0.1300057653210239,-0.04573590493762957,0.07275656042395426,0.08043673358027437,0.06254286380500408,0.07521498879485675,0.7996911978565058
313,1.3530546999973012,0.0037094550752532897,-0.007593026149538105,-0.0014728186594437083,-0.030601564402538178,-0.02324546025707392,-0.12965843674208075,-0.04546329704145576,0.07310758376159782,0.08395276440758104,0.06421592083932376,0.07344820418178394,0.8005379931140911
314,1.3578007999894908,0.003651088007832249,-0.007449861112323013,-0.0018573720476540686,-0.030799306538376325,-0.02292116302071632,-0.12929448156174525,-0.045183721855953256,0.07344778234160272,0.0874791984737293,0.0658832440175524,0.07165050080585204,0.8013161679251996
315,1.3618337999942014,0.00359484406208582,-0.007299616848258793,-0.0022652060071167482,-0.03099589022493994,-0.02259569828680028,-0.1289138574863263,-0.044897196639476854,0.07377702783355543,0.09101563587098083,0.06754459032497356,0.06982184561877246,0.8020239763068007
316,1.3659590000024764,0.0035177337881707447,-0.007116152963802958,-0.00269438084149678,-0.03119128444605483,-0.022269114927990608,-0.1285165255270668,-0.04460373936923922,0.0740951955427484,0.09456166129253434,0.06919971887100769,0.06796223642997729,0.802659624377366
317,1.3699631999916164,0.003451731597012676,-0.006923471684078857,-0.0030251545307304183,-0.031385458176521906,-0.021941461981343387,-0.12810245004353402,-0.04430336874608145,0.07440216448699767,0.09811684403241894,0.07084839082481303,0.0660717019682168,0.8032212723880338
318,1.3742018999910215,0.0033549663943463455,-0.006703758694735831,-0.0033793555763307545,-0.03157838038733548,-0.021612788636643013,-0.12767159878539655,-0.04399610419982419,0.07469781746978645,0.10168073800195286,0.07249036934937851,0.06415030190730432,0.8037070368126653
319,1.3787897000001976,0.0032145917564403966,-0.006502497209651656,-0.0037359741573850715,-0.031770020051011455,-0.021283144224810906,-0.12722394293256828,-0.04368196589518472,0.07498204114970398,0.10525288176267268,0.07412541953426015,0.06219812685631118,0.8041149924941816
320,1.3824852999969153,0.003112307686529716,-0.006295489667263489,-0.004075183781068646,-0.031960346147024095,-0.020952578206390612,-0.12675945713370101,-0.04336097473824446,0.07525472610615326,0.10883279857562039,0.07575330832711391,0.06021529831455302,0.804443174844509
321,1.3889830999978583,0.003112307686529716,-0.006295489667263489,-0.004075183781068646,-0.032149327667350194,-0.020621140160113755,-0.12627811954300908,-0.04303315238345068,0.07551576690130508,0.11241999646685864,0.07737380446417776,0.05820196859174747,0.8046895820954272
322,1.3930658999888692,0.0030092013824803685,-0.006144008134275426,-0.004518345970384553,-0.032336933622119195,-0.020288879771551326,-0.12577991185541015,-0.042698521241134886,0.07576506213828132,0.11601396830906763,0.07898667839985568,0.056158320693759714,0.8048521775975703
323,1.3969308999949137,0.0029155372678976864,-0.005763792711628632,-0.0052476982537078935,-0.03252313304536758,-0.019955846821854355,-0.1252648193399687,-0.042357104485530074,0.07600251451555473,0.11961419191906077,0.08059170223555656,0.054084568174389,0.8049288921647926
324,1.4010412999923574,0.002819304044570684,-0.005576158197838836,-0.005520039704266684,-0.03270789500089572,-0.019622091176587926,-0.12473283087162908,-0.04200892606326804,0.0762280308775568,0.12322013017104066,0.08218864964794048,0.051980954953684,0.8049176264610759
325,1.407717499998398,0.0026211821195743414,-0.005177719711276735,-0.0061012937149686995,-0.03289118858822523,-0.0192876627746622,-0.12418393896122852,-0.04165401070233752,0.07644152226148905,0.12683123112540098,0.08377729581672473,0.04984775510330985,0.8048162534271309
326,1.4113233999960355,0.0026211821195743414,-0.005177719711276735,-0.0061012937149686995,-0.033072982948654635,-0.018952611617363963,-0.12361813978378168,-0.041292383921483024,0.07664290394033774,0.13044692817286485,0.08535741735220148,0.04768527259952316,0.8046226207438114
327,1.4155174999905284,0.002420392962823474,-0.00501530504454608,-0.0064352983928429724,-0.0332532472714112,-0.018616987757491932,-0.12303543320503038,-0.04092407204002383,0.07683209546209599,0.13406664019373515,0.08692879222261811,0.045493841044343605,0.8043345533294417
328,1.4199205999902915,0.0023723644925166118,-0.0045088572595996055,-0.007231329564322382,-0.03343195079989644,-0.018280841288599074,-0.12243582280625324,-0.04054910218807221,0.07700902068520217,0.13768977173201805,0.08849119968157003,0.04327382335554156,0.8039498558681346
329,1.4235265999886906,0.0023723644925166118,-0.0045088572595996055,-0.007231329564322382,-0.033609062838023104,-0.017944222334344992,-0.12181931590733197,-0.04016750231712916,0.0771736078102068,0.14131571318416655,0.09004442019555453,0.04102561142609214,0.8034663153661623
330,1.428618899997673,0.0022731824972630653,-0.004320852904154459,-0.007603796395933099,-0.03378455275664105,-0.01760718103796117,-0.12118592358807219,-0.03977930121103538,0.07732578940768486,0.14494384100217786,0.09158823537183272,0.03874962575377501,0.80288170373343
331,1.432922299994971,0.002112842551644065,-0.0037863659384749985,-0.008172662084345006,-0.03395839000004962,-0.01726976755183168,-0.12053566070777767,-0.03938452849725472,0.07746550244241393,0.1485735179107656,0.09312242788674485,0.03644631504162722,0.8021937803870942
332,1.4369426999910502,0.001972932417965337,-0.0036186493758095808,-0.008411154402405599,-0.03413054409259397,-0.016932032027191787,-0.11986854592307868,-0.03898321465846685,0.07759268829384207,0.15220409313831587,0.09464678141462268,0.034116155769983246,0.8014002948743608
333,1.4428501999936998,0.0019367641708675956,-0.0033333261716307,-0.008687462572569525,-0.03430098464534275,-0.01659402460394653,-0.11918460170401636,-0.03857539104444557,0.07770729277287386,0.15583490266132322,0.09616108055744123,0.03175965174086232,0.8004989895114984
334,1.44688839999435,0.0018046633611928417,-0.003129053221778999,-0.008965347515523813,-0.034469681362844125,-0.01625579540061145,-0.11848385434838733,-0.03816108988419866,0.07780926613500662,0.15946526946199,0.09766511077534994,0.0293773335954877,0.7994876020360994
335,1.4512718999903882,0.0016983409987916605,-0.0028609891771827125,-0.009252294122331198,-0.03463660404995714,-0.015917394504377288,-0.11776633399435332,-0.03774034429834507,0.07789856308985224,0.1630945037986631,0.09915865831822131,0.026969758305745457,0.7983638682696282
336,1.456259400001727,0.0016983409987916605,-0.0028609891771827125,-0.009252294122331198,-0.03480172261875535,-0.015578871961300415,-0.11703207463132265,-0.037313188311704784,0.07797514280708338,0.1667219034887707,0.10064151015835278,0.024537508640412414,0.7971255247873025
337,1.4627247999887911,0.0012382025882161519,-0.002125347214720233,-0.009946361364552375,-0.03496500709549978,-0.015240277766620434,-0.11628111410911156,-0.036879656866076284,0.07803896891884642,0.17034675420391054,0.10211345392445467,0.022081192607003676,0.7957703115923563
338,1.4701789999962784,0.0011345228951081003,-0.0015521248350367964,-0.010283987507872006,-0.0351264276276779,-0.014901661855206385,-0.11551349414539515,-0.036439785833176495,0.07809000951868711,0.17396832977673193,0.10357427783705501,0.01960144287011004,0.7942959747917584
339,1.4743327999894973,0.0010435244703156173,-0.0012378386641830864,-0.010449538748465038,-0.03528595449110547,-0.01456307409213273,-0.11472926033145908,-0.03599361202771757,0.07812823715703815,0.1775858925192442,0.1050237706454488,0.01709891614711383,0.7927002692704681
340,1.4783700999978464,0.0009607581319465604,-0.0008343913200692044,-0.010575797170355594,-0.03544355809708804,-0.014224564263386232,-0.11392846213626426,-0.03554117322059494,0.07815362883332072,0.18119869355217583,0.10646172156631663,0.01457429258218875,0.7909809613613418
341,1.4832764000020688,0.0008753471739545117,-0.0005320929834759313,-0.010720267114475067,-0.03559920899963885,-0.013886182066704496,-0.11311115290883722,-0.035082508152160644,0.07816616598471571,0.18480597314500016,0.10788792022413465,0.012028275099505213,0.7891358315078143
342,1.4867448000004515,0.0006634963811438487,-0.0002698977178811914,-0.01085637206479195,-0.03575287790274973,-0.013547977102546944,-0.11227738987900063,-0.0346176565455559,0.07816583447166292,0.18840696106623675,0.10930215659349411,0.009461588736577166,0.7871626769165122
343,1.4909951000008732,0.0005354611224426373,-2.768477138214085e-05,-0.010933081151735474,-0.03590453566771124,-0.013209998865198606,-0.11142723415645922,-0.0341466591200769,0.0781526245601492,0.19200087694362972,0.11070422094344652,0.00687497995869966,0.7850593141969873
344,1.494995499990182,0.0004504497469967144,0.0003747218937645805,-0.01101634646252072,-0.036054153320478566,-0.012872296734007095,-0.11056075072825762,-0.03366955760454782,0.07812653090084924,0.19558693063379856,0.11209390378398633,0.00426921595543837,0.7828235819857879
345,1.4984510999929626,0.0004504497469967144,0.0003747218937645805,-0.01101634646252072,-0.03620170205907958,-0.012534919964752889,-0.10967800845462758,-0.033186394750674926,0.0780875525051856,0.19916432260094946,0.11347099581477856,0.0016450839201429205,0.7804533435521236
346,1.5034564999950817,0.00029152940676892714,0.0006276543794732274,-0.011202714853529286,-0.03634715326106136,-0.012197917681152904,-0.10877908006324342,-0.03269721434635563,0.07803569271837632,0.20273224430423084,0.11483528787623623,-0.0009966096865346374,0.7779464893824101
347,1.5074928999965778,9.414192914070042e-05,0.0012655841004432873,-0.011440739239634736,-0.03649047849097136,-0.011861338866497177,-0.10786404214190547,-0.0322020612289163,0.07797095918954168,0.20628987859331283,0.11618657090304829,-0.003655039888126787,0.7753009397410279
348,1.5114154999901075,9.414192914070042e-05,0.0012655841004432873,-0.011440739239634736,-0.03663164950786956,-0.01152523235541846,-0.10693297512967213,-0.03170098129825321,0.07789336383894348,0.209836400111764,0.11752463588025507,-0.006329363957846642,0.7725146472046681
349,1.5147424999886423,9.414192914070042e-05,0.0012655841004432873,-0.011440739239634736,-0.036770638272867966,-0.01118964682579433,-0.10598596330646214,-0.031194021529850426,0.07780292282243229,0.21337097570779526,0.11884927380196518,-0.009018722197091291,0.7695855991676894
350,1.5179922999959672,9.414192914070042e-05,0.0012655841004432873,-0.011440739239634736,-0.036907416956693556,-0.010854630790781352,-0.10502309478114923,-0.030681229987649074,0.07769965649318021,0.21689276485193767,0.12016027563280263,-0.011722238725946191,0.7665118203159565
351,1.5215460999897914,9.414192914070042e-05,0.0012655841004432873,-0.011440739239634736,-0.03704195794727075,-0.010520232590980665,-0.10404446147817302,-0.030162655836742096,0.07758358936077844,0.22040092006121947,0.12145743227216868,-0.014439022284681339,0.763291375066681
352,1.5252941999933682,9.414192914070042e-05,0.0012655841004432873,-0.011440739239634736,-0.03717423385731955,-0.010186500386734203,-0.10305015912268964,-0.029638349355869027,0.07745475004778037,0.2238945873294049,0.1227405345213994,-0.017168167045228066,0.7599223699718353
353,1.5286284999892814,-2.8752440204202027e-05,0.0015953662481623832,-0.01151378707293747,-0.037304217531965334,-0.009853482150550631,-0.10204028722428644,-0.029108361949685396,0.0773131712437728,0.22737290656285475,0.12400937305389549,-0.01990875343162473,0.7564029560827691
354,1.5328090999973938,-0.0005725936871964835,0.0029587108406380507,-0.011897274204609547,-0.03743188205635637,-0.009521225659659984,-0.10101494905928649,-0.028572746160781676,0.07715888965705929,0.2308350120215667,0.1252637383882966,-0.02265984894842009,0.7527313312737175
355,1.5377246999996714,-0.0006810486190340765,0.0031917985024822824,-0.011950217293637048,-0.03755720076328515,-0.009189778488695911,-0.09997425165166887,-0.02803155568142703,0.0769919459640411,0.23428003276495263,0.12650342086476765,-0.02542050901602505,0.7489057425219506
356,1.541114599996945,-0.0008218536898571848,0.0034220753227107753,-0.01198635353752293,-0.03768014724080927,-0.008859188002504202,-0.09891830575263172,-0.027484845365013447,0.07681238475638237,0.23770709310190957,0.12772821062446063,-0.028189777812006444,0.7449244881423772
357,1.545992400002433,-0.0009414993497583171,0.0036227793290412075,-0.012037049644534366,-0.03780069533986812,-0.008529501349076263,-0.09784722581882474,-0.026932671237176367,0.07662025448604748,0.24111531304474307,0.12893789759221053,-0.030966689117320544,0.7407859199744762
358,1.5493792999914149,-0.0010404932859734424,0.0037842975491479787,-0.01207932120625259,-0.037918819181891265,-0.008200765452606038,-0.09676112998927971,-0.026375090506568107,0.07641560740829999,0.24450380876650102,0.1301322714625195,-0.03375026716648946,0.7364884455194951
359,1.5529905000003057,-0.0010404932859734424,0.0037842975491479787,-0.01207932120625259,-0.038034493166394595,-0.007873027006668795,-0.09566014006106718,-0.025812161575260954,0.07619849952275345,0.24787169306127713,0.1313111216888785,-0.03653952750072985,0.7320305300259259
360,1.556446099988534,-0.0010404932859734424,0.0037842975491479787,-0.01207932120625259,-0.03814769197856031,-0.007546332467520096,-0.09454438146370824,-0.025243944048756857,0.0759689905125654,0.2512180758070431,0.13247423747647108,-0.03933347782305084,0.7274106985213364
361,1.5628240999940315,-0.0012486306653514603,0.004480021832450867,-0.012290048375011792,-0.03825839059679696,-0.007220728047513198,-0.09341398323237043,-0.024670498745581287,0.075727143681866,0.25454206443057403,0.13362140777829953,-0.042131118854346866,0.7226275377887077
362,1.566760699992301,-0.001306459492354917,0.004691566129059084,-0.01237457296238389,-0.03836656430027557,-0.006896259708633049,-0.09226907797987771,-0.024091887706439257,0.07547302589151388,0.25784276437403325,0.1347524212947703,-0.04493144518952081,0.717679698285497
363,1.5717145999951754,-0.001370911895348517,0.004895869932067897,-0.012438725819793644,-0.03847218867643781,-0.0065729731561449635,-0.09110980186756452,-0.023508174202912048,0.07520670749327166,0.2611192795627858,0.13586706647676958,-0.047733446152683795,0.7125658960037237
364,1.5753236999880755,-0.001453972805508325,0.005149130577953713,-0.012476961524304206,-0.038575239628472494,-0.006250913832356012,-0.08993629457500453,-0.022919422745673768,0.07492826226249434,0.264370712874013,0.13696513153225703,-0.05053610665048951,0.70728491426945
365,1.5810034000023734,-0.0014892848827333877,0.005308960146924147,-0.01251564606050455,-0.03867569338275619,-0.005930126910487052,-0.08874869926864455,-0.022325699092207347,0.07463776732942334,0.2675961666057056,0.1380464044363993,-0.05333840802267357,0.7018356054801091
366,1.5865264000021853,-0.0015648531395222702,0.005580017633877601,-0.01261733322733971,-0.03877352649625443,-0.00561065728865329,-0.08754716256937456,-0.021727070254000287,0.07433530310917973,0.27079474294561673,0.1391106729452595,-0.05613932888888248,0.6962168927782058
367,1.5913283999980194,-0.0015767949592250027,0.005709056212028394,-0.012643243600185832,-0.03886871586387931,-0.00529254958395119,-0.0863318345190644,-0.02112360450320088,0.07402095323054944,0.27396554443976057,0.14015772461305567,-0.05893784599089107,0.6904277716599977
368,1.6014995000005,-0.001656770585640259,0.005965042280097298,-0.012723399759066657,-0.038961238725799645,-0.004975848126649497,-0.0851028685460982,-0.02051537137871622,0.07369480446365335,0.2771076744600508,0.14118734681299586,-0.06173293502932342,0.6844673115178451
369,1.6055767999932868,-0.0016843724343222422,0.006036227630139518,-0.012830945709690152,-0.03905107267469952,-0.0046605969544821,-0.08386042142993785,-0.01990244169173398,0.07335694664659514,0.28022023767067467,0.1421993267616937,-0.06452357149400761,0.6783346571149921
370,1.611901399999624,-0.0017389314660110557,0.006282891845491134,-0.012931769514948848,-0.039138195662981726,-0.004346839807040396,-0.08260465326474686,-0.019284887530650635,0.0730074726111795,0.2833023404928055,0.14319345154716184,-0.06730873148711256,0.6720290299916262
371,1.6159197999950266,-0.0017548678075717757,0.006395199853056989,-0.013008849035422137,-0.03922258600991213,-0.004034620120262788,-0.08133572742210557,-0.018662782265389245,0.07264647810779276,0.28635309156726385,0.1441695081603772,-0.07008739253823326,0.6655497298011425
372,1.6199894999881508,-0.0017676224347593218,0.006495825387579296,-0.013088004775364486,-0.039304222408701336,-0.0037239810210188914,-0.08005381051284849,-0.018036200551090856,0.07227406172953774,0.28937160221474145,0.14512728353040666,-0.07285853441060958,0.6588961355756251
373,1.6241238999937195,-0.0017716222507618536,0.006604971270114782,-0.013173318014444475,-0.03938308393351999,-0.003414965321786083,-0.07875907234805549,-0.017405218331164093,0.0718903248357133,0.2923569868932103,0.1460665645630771,-0.07562113989768297,0.6520677069196381
374,1.6287080999900354,-0.0017716222507618536,0.006604971270114782,-0.013173318014444475,-0.039459150046444076,-0.0031076155154159154,-0.07745168589922778,-0.016769912839678176,0.07149537147472856,0.29530836365214735,0.1469871381831705,-0.07837419560921634,0.645063985131501
375,1.633353099998203,-0.0017716222507618536,0.006604971270114782,-0.013173318014444475,-0.039532400604326605,-0.002801973769987966,-0.07613182725767953,-0.016130362603085348,0.07108930830654114,0.2982248545832102,0.14788879138011893,-0.08111669274622353,0.6378845942513098
376,1.6369628999964334,-0.0018270469151262926,0.006696350626673397,-0.013286044695150764,-0.039602815865592174,-0.002498081923748626,-0.0747996755931762,-0.015486647441259487,0.07067224452470804,0.30110558626700995,0.14877131125717047,-0.08384762786397672,0.6305292420350466
377,1.6402802999946289,-0.0018270469151262926,0.006696350626673397,-0.013286044695150764,-0.03967037649695115,-0.002195981480132328,-0.07345541311185036,-0.014838848467838273,0.07024429177813672,0.30394969021563567,0.14963448508399246,-0.08656600362238208,0.6229977208542039
378,1.6449087999935728,-0.0018580646275650338,0.007068364306957588,-0.013754066815390186,-0.039735063580030046,-0.0018957136028627064,-0.07209922501342522,-0.01418704808985714,0.06980556409262303,0.30675630331059234,0.15047810035267362,-0.08927082952303728,0.6152899085204355
379,1.648256799991941,-0.0018580646275650338,0.007068364306957588,-0.013754066815390186,-0.03979685861791476,-0.0015973191111311772,-0.07073129944777654,-0.013531330006663874,0.06935617779226103,0.3095245682358242,0.15130194483708237,-0.09196112263230782,0.6074057690348253
380,1.6516008999897167,-0.0018580646275650338,0.007068364306957588,-0.013754066815390186,-0.0398557435416031,-0.001300838474850428,-0.06935182747086295,-0.01287177920810362,0.06889625142080805,0.312253633905501,0.15210580665553497,-0.09463590828978322,0.5993453532614551
381,1.6561782999924617,-0.00185962264746879,0.007343365482720493,-0.01405604928053086,-0.03991170071636354,-0.0010063118099802957,-0.06796100300005482,-0.01220848197196471,0.06842590566308733,0.31494265588625703,0.15288947433672243,-0.09729422080149834,0.591108799525025
382,1.6613212999945972,-0.0019227200851972535,0.007641037571443029,-0.01445556826996096,-0.039964712947997034,-0.0007137788739235464,-0.06655902276889092,-0.011541525860676603,0.06794526326650847,0.3175907968135817,0.1536527368888408,-0.09993510411733057,0.5826963341323692
383,1.6657322999963071,-0.0019427225136136558,0.007739917656920639,-0.014565766310921217,-0.040014763488998815,-0.0004232790609890677,-0.0651460862812919,-0.010870999717251943,0.06745444896278503,0.3201972268020704,0.1543953838718657,-0.1025576124920087,0.5741082718177876
384,1.6697807999880752,-0.0019733482269071803,0.00784220485646769,-0.014691475131157478,-0.04006183604461714,-0.00013485139792001268,-0.06372239576525925,-0.010196993660465503,0.0669535893899272,0.32276112384925565,0.15511720547290833,-0.1051608111291954,0.5653450161121986
385,1.6739655999990646,-0.001995760696565787,0.00794716355466265,-0.014826897065563067,-0.04010591477880626,0.00015146546051554517,-0.06228815612608749,-0.009519599079263611,0.06644281301458556,0.32528167423274695,0.15581799258458504,-0.10774377680813113,0.5564070596361929
386,1.6782633999973768,-0.0020252374523963856,0.008059028166631213,-0.014958630137448723,-0.04014698432007037,0.0004356332358738595,-0.06084357489911769,-0.008838908626398453,0.06592225005482046,0.32775807290041975,0.1564975368863303,-0.11030559849235354,0.5472949843171477
387,1.6830085999972653,-0.0020686919257657446,0.008118929425152648,-0.015165153822134693,-0.04018502976719571,0.0007176140303270475,-0.059388862202059384,-0.00815501621128245,0.0653920324033694,0.3301895238534019,0.15715563092857932,-0.11284537792003281,0.5380094615306429
388,1.688594599996577,-0.002098518775663626,0.008253724291140203,-0.015309724353518973,-0.04022003669486805,0.000997370330899272,-0.057924230686908204,-0.007468016992058665,0.06485229355148321,0.3325752405216185,0.1577920682197424,-0.11536223017549053,0.5285512521664965
389,1.6997792999900412,-0.0021192691443354065,0.008737758442920442,-0.015821585260933066,-0.040251991159172947,0.0012748650136498866,-0.056449895491485706,-0.006778007366884038,0.06430316851339975,0.33491444613166804,0.1584066433158913,-0.11785528424149651,0.5189212066198121
390,1.7041475000005448,-0.0021192691443354065,0.008737758442920442,-0.015821585260933066,-0.04028087970297633,0.001550061347805824,-0.054966074190627656,-0.006085084964423001,0.0637447937515221,0.3372063740668088,0.15899915191307326,-0.12032368353196597,0.5091202647075067
391,1.709622499998659,-0.0020919904655113046,0.009039111105383545,-0.016269655081730023,-0.04030668936118327,0.0018229229998454658,-0.05347298674704648,-0.005389348633549883,0.06317730710236603,0.3394502682188492,0.15956939094216693,-0.12276658640470733,0.49914945551086215
392,1.7155493999889586,-0.0021491761102500973,0.009042328401589616,-0.016528530320193104,-0.040329407665872424,0.00209341403753618,-0.05197085546189284,-0.004690898432259221,0.06260084770333871,0.34164538333174327,0.16011715866619114,-0.12518316665389728,0.4890098971447209
393,1.7200149999989662,-0.00221359367711403,0.009109897315239578,-0.016794829763196965,-0.04034902265130401,0.002361498933927675,-0.05045990492504037,-0.0039898356157839375,0.06201555592040928,0.34379098533670566,0.1606422547799737,-0.12757261398198744,0.478702796454015
394,1.724132199989981,-0.0022859291955239025,0.00912649077670726,-0.01721996002902685,-0.04036552285879889,0.00262714257130327,-0.04894036196511723,-0.00328626262392206,0.06142157327672962,0.34588635167867193,0.16114448051208383,-0.12993413445077515,0.46822944863838656
395,1.728778999997303,-0.002377049273328013,0.009093833090280067,-0.017451678341616077,-0.04037889734148658,0.0028903102450911263,-0.047412455599307804,-0.002580283067573443,0.060819042382261525,0.34793077163394,0.16162363872892926,-0.1322669509113986,0.45759123680572306
396,1.7330823999946006,-0.002431331945281542,0.00903199114963316,-0.01767847809238606,-0.040389135668920176,0.0031509676677374033,-0.04587641698294747,-0.0018720017144887116,0.06020810686446458,0.34992354661884023,0.16207953404091824,-0.13457030341304552,0.44678963145549944
397,1.7369069999986095,-0.002488818477926871,0.00900464727329534,-0.017837558303182472,-0.04039622793155612,0.003409080972543267,-0.04433247935893272,-0.0011615244742334294,0.05958891130009646,0.3518639904892929,0.16251197291058297,-0.13684344959019107,0.43582618989288635
398,1.7419541999988724,-0.002560843159776627,0.00897635055411303,-0.017959818563881142,-0.040400164745096855,0.003664616717467602,-0.042780878006968386,-0.00044895838237123576,0.05896160114817522,0.35375142983112245,0.1629207637625593,-0.13908566502820632,0.42470255557464787
399,1.7460167999961411,-0.0026517287290034075,0.008965654543436856,-0.01804729156565628,-0.04040093725469449,0.003917541888897239,-0.041221850192673,0.0002655884161295603,0.058326322684150556,0.35558520424101153,0.16330571709531555,-0.14129624360720794,0.413420457387912
400,1.7515526999923168,-0.002737448670940724,0.008960108463785295,-0.01810513465096049,-0.040398537139013785,0.004167823905386434,-0.039655635116562414,0.0009820066842607116,0.05768322293532902,0.35736466659798866,0.16366664559452168,-0.14347449782404537,0.40198170886295503
401,1.7569144000008237,-0.002957065892050319,0.008988819300892476,-0.01815711566539052,-0.04039295661415292,0.004415430621367242,-0.03808247386293115,0.0017001861111041537,0.05703244961759514,0.35908918332535383,0.16400336424794618,-0.14561975909234992,0.3903882073212022
402,1.7618696999998065,-0.0030601412929120086,0.0090039302762067,-0.018162478415199374,-0.040384188437420344,0.004660330330832356,-0.03650260934865047,0.0024200153307208628,0.05637415107346851,0.3607581346429563,0.1643156904617668,-0.14773137802059647,0.37864193295970344
403,1.7657733999949414,-0.003129576928340824,0.009020613352953812,-0.018144647327161537,-0.040372225910966224,0.004902491770991954,-0.03491628627190135,0.003141381941791095,0.05570847621153465,0.36237091480975164,0.1646034441781806,-0.14980872466815448,0.36674494787339795
404,1.769803299990599,-0.0031896137298406376,0.009035057430590514,-0.018116014597281547,-0.040357062885266984,0.005141884125905996,-0.03332375106086013,0.00386417252799798,0.05503557444728466,0.3639269323565733,0.16486644799419684,-0.15185118877933174,0.35469939501653647
405,1.7739776999951573,-0.0032465117957654853,0.009037827092825785,-0.018098733382118936,-0.0403386937624618,0.005378477030093346,-0.031725251822353785,0.004588272679145749,0.054355595645396694,0.365425610309065,0.16510452728149547,-0.15385817999543946,0.34250749710467865
406,1.7773737999959849,-0.0032465117957654853,0.009037827092825785,-0.018098733382118936,-0.04031711349953967,0.00561224057211897,-0.030121038290501462,0.005313567013003218,0.05366869006348994,0.36686638640073077,0.16531751030723232,-0.15582912804493373,0.3301715554587325
407,1.780759199988097,-0.0032465117957654853,0.009037827092825785,-0.018098733382118936,-0.04029231761137609,0.005843145298160475,-0.028511361775357815,0.006039939197862477,0.05297500829737882,0.36824871327607134,0.16550522835567122,-0.15776348291171344,0.3176939487925479
408,1.7842367999983253,-0.0032465117957654853,0.009037827092825785,-0.018098733382118936,-0.04026430217361823,0.006071162215555101,-0.02689647511157344,0.006767271975802123,0.052274701227853375,0.36957205868378595,0.16566751585052197,-0.15966071498168072,0.3050771319456215
409,1.7875475999899209,-0.0033214625848592017,0.009034091952007123,-0.018079404472787136,-0.0402330638254179,0.006296262796328229,-0.02527663260708686,0.007495447186643767,0.05156791996900894,0.3708359056600291,0.16580421047786228,-0.1615203151676934,0.29232363456251065
410,1.7918057999922894,-0.0034784948123022267,0.008813173575445032,-0.018034497386344505,-0.04019859977201152,0.006518418980704306,-0.023652089991861747,0.008224345792589939,0.050854815818145487,0.3720397527017213,0.16591515330952136,-0.16334179501306267,0.27943605972059427
411,1.7968016999948304,-0.0035187852867123465,0.00867770677438644,-0.018021389541636908,-0.04016090778714659,0.006737603180601111,-0.022023104366682516,0.008953847903530984,0.05013554020725497,0.37318311392992237,0.16600018892680288,-0.16512468677377196,0.26641708250785556
412,1.800862599993707,-0.0035527744173510837,0.008543402818195723,-0.01797215459737611,-0.04011998621535391,0.006953788283108117,-0.020389934152020617,0.009683832803007903,0.049410244656112434,0.3742655192432868,0.1660591655444245,-0.16686854347961713,0.2532694485523947
413,1.8071132999903057,-0.0036295103699433935,0.0080708177955377,-0.01806001009023712,-0.040075833974065306,0.007166947653949642,-0.01875283903698317,0.010414178974817624,0.04867908072698456,0.37528651446162836,0.16609193513455,-0.16857293897448974,0.23999597250541627
414,1.8118241999909517,-0.003637675226162436,0.007832513237462395,-0.01807718781913683,-0.04002845055557623,0.007377055140933427,-0.017112079928355093,0.011144764130246584,0.047942199980966764,0.3762456614596319,0.16609835355079067,-0.17023746793604716,0.22659953647946618
415,1.815860499991686,-0.003706570102504787,0.007629721384704717,-0.01811787556927994,-0.03997783602885297,0.0075840850773851234,-0.015467918899745097,0.011875465235918094,0.04719975393595787,0.37714253829075917,0.1660782806520522,-0.17186174587503578,0.2130830884437226
416,1.820057699995232,-0.0037329949742959216,0.007439854141688107,-0.01815711718956778,-0.03992399104118396,0.0077880122855691625,-0.013820619140845225,0.012606158542238387,0.046451894026279125,0.377976739301404,0.16603158042610397,-0.17344540911455325,0.19944964057817088
417,1.8242371999949685,-0.0036945345032936526,0.007271692160329575,-0.018192262103885803,-0.0398669168196752,0.007988812080096367,-0.012170444906813061,0.013336719612425874,0.04569877156394179,0.3787478752353635,0.16595812111274713,-0.1749881147495561,0.18570226758851716
418,1.8282075999886729,-0.0037148641722473622,0.007062147332349682,-0.01820277005841809,-0.03980661517258957,0.008186460271318554,-0.01051766146778514,0.014067023352107546,0.04494053770156539,0.3794555733287003,0.16585777532645973,-0.17648954058693794,0.17184410498371674
419,1.8325999999942724,-0.0037242231087796333,0.006868594968232869,-0.01827461471298828,-0.039743088490529724,0.008380933168710268,-0.008862535058529535,0.014796944039465958,0.04417734339694642,0.38009947739507866,0.16573042017839573,-0.17794938506652302,0.15787834731801323
420,1.8367096000001768,-0.003730880791893966,0.006729111449724981,-0.01829268338505366,-0.03967633974746479,0.00857220758423775,-0.007205332828244914,0.015526355355919862,0.04340933937927511,0.38067924790166624,0.16557593739761603,-0.17936736716333918,0.14380824639940015
421,1.84076659999846,-0.0037704847583530693,0.006528870258655157,-0.018312605268315817,-0.039606372501600914,0.00876026083571516,-0.005546322790512761,0.016255130417321222,0.042636676116995946,0.38119456203570024,0.16539421345143054,-0.18074322627154993,0.1296371094664329
422,1.8449846000003165,-0.003775241977517642,0.006351302007612369,-0.018420297593964154,-0.03953319089609548,0.008945070750147988,-0.003885773773408909,0.01698314180565089,0.0418595037873055,0.38164511376182625,0.16518513966473106,-0.18207672207044284,0.11536829733533051
423,1.8490080999908969,-0.0037546829795480027,0.006206527680541901,-0.018475714674318588,-0.03945679965961515,0.009126615667063572,-0.0022239553697799646,0.01771026160119493,0.04107797224727876,0.38203061387032583,0.16494861233819635,-0.18336763437288808,0.10100522251931843
424,1.8535282999946503,-0.0037579228407276805,0.006070323863670241,-0.018508032321897308,-0.039377204106738346,0.009304874441828459,-0.0005611378876896371,0.0184363614151833,0.04029223100661341,0.3823507900163551,0.16468453286525325,-0.1846157629566961,0.08655134732216997
425,1.8575809999892956,-0.003769779712417882,0.00591981592891112,-0.018524825809216817,-0.03929441013820258,0.009479826448952367,0.0011024076989606002,0.019161312422872168,0.03950242920197938,0.38260538675032313,0.1643928078476771,-0.18582092737931982,0.0720101819079111
426,1.861938899994129,-0.0038122352932919387,0.005763124412775401,-0.018563153597533754,-0.03920842424099703,0.009651451585378284,0.0027664097996325725,0.019884985397050824,0.03870871557295936,0.3827941655395466,0.16407334920971758,-0.18698296677636095,0.057385282348655586
427,1.8661053999967407,-0.003839831840631432,0.00558791749757848,-0.018587749375590747,-0.039119253488300774,0.009819730273758247,0.004430596256170804,0.020607250741953884,0.037911238439563684,0.3829169047813231,0.1637260743106367,-0.18810173964435237,0.04268024865253963
428,1.869889699999476,-0.0038515889697603783,0.005470353948089945,-0.01859843767587938,-0.039026905539267305,0.009984643465714243,0.006094694391637362,0.021327978527559188,0.037110145681301276,0.3829733998075719,0.16335090605554733,-0.18917712360830194,0.027898722773723267
429,1.874189900001511,-0.003871235372515704,0.005367735386555878,-0.018601282201010587,-0.03893138863865563,0.010146172645083624,0.007758431058959731,0.022047038524251664,0.0363055847177865,0.38296346288119554,0.162947773004443,-0.1902090151744958,0.013044386606423153
430,1.8782243999885395,-0.003873465442451345,0.0052737075580428115,-0.018605129590080198,-0.03883271161630878,0.010304299831148386,0.009421532689389842,0.022764300237833168,0.03549770249086028,0.382886923184324,0.16251660947931112,-0.19119732946906914,-0.0018790400350642612
431,1.882371499988949,-0.0038839767942137325,0.005171934663546331,-0.018605961760555026,-0.038730883886480064,0.010459007581847484,0.011083725340772788,0.023479632944858043,0.03468664544820214,0.3827436267986059,0.16205735566922413,-0.1921419999628629,-0.016867801448397644
432,1.8866872999933548,-0.0038865982778903485,0.005073789952643906,-0.018604806706957792,-0.03862591544700805,0.010610278996971286,0.012744734745624209,0.024192905728274098,0.033872559528408,0.3825334366777158,0.16156995773330504,-0.1930429781830944,-0.031918108085341665
433,1.8929173999931663,-0.0038821483095172133,0.004984620854028843,-0.01859109729875275,-0.03851781687834087,0.010758097721337128,0.014404286359015769,0.0249039875133484,0.03305559014750703,0.38225623261224906,0.16105436790146602,-0.19390023341238014,-0.04702613860210345
