,time,x,y,z,vx,vy,vz,ax,ay,az,jx,jy,jz
1631,6.854214799997862,0.013115908558739208,-0.07191898606875902,0.024346747668896065,0.03949716836519264,-0.004420094946159143,0.02400674017727494,-0.05646861754443089,-0.07931958103102571,0.028481761648100425,-0.02459913521508869,-0.00890767097364329,-0.18066477656085303
1632,6.858194399974309,0.013345929548075808,-0.07179223610490604,0.024688163802260618,0.039258828211554464,-0.004754686194285774,0.0241252303907884,-0.056568477652642474,-0.07935185608470592,0.02771964627455144,-0.022774450571341084,-0.006357031176720237,-0.18074892647324547
1633,6.862255599990021,0.013412370607526635,-0.07167951499570442,0.024923553391898504,0.03902008319428625,-0.005089391198675175,0.02424050553185392,-0.05666065509147406,-0.07937334912227531,0.026957206314707723,-0.02095530348322542,-0.0037964452947021016,-0.1808195127400883
1634,6.866371599957347,0.013475505562740775,-0.0715649050943794,0.025186632608753055,0.0387809656543335,-0.005424164385347102,0.02435256435804823,-0.05674517346991601,-0.07938401856549336,0.02619449882680615,-0.019141802500035755,-0.0012260886424481931,-0.1808766177475834
1635,6.869936699979007,0.013475505562740775,-0.0715649050943794,0.025186632608753055,0.03854150783217117,-0.005758960006385631,0.02446140586730351,-0.056822056849888454,-0.07938382358331514,0.02543158051793229,-0.017334054463453926,0.0013538615685591841,-0.1809203251511227
1636,6.874788599961903,0.013635198984896369,-0.0713007403665834,0.02579412048291243,0.038301741865912016,-0.006093732143123922,0.024567029296409262,-0.05689132973906377,-0.07937272409989334,0.02466850773872362,-0.015532164540586077,0.003943226213437077,-0.18095071984866573
1637,6.878298499970697,0.013635198984896369,-0.0713007403665834,0.02579412048291243,0.03806169978944492,-0.006428434709362803,0.02466943411949145,-0.05695301708383227,-0.07935068080264826,0.023905336478185775,-0.013736236257431998,0.006541824237492969,-0.18096788795377702
1638,6.883306999981869,0.013718432845206801,-0.07107058140528902,0.026498238648409438,0.037821413530602546,-0.006763021454623469,0.02476862004646942,-0.057007144262412844,-0.07931765515040438,0.02314212235862301,-0.011946371532766566,0.009149472640195475,-0.18097191676833027
1639,6.887141499959398,0.013757623732611694,-0.07100796797213907,0.026882956233306388,0.037580914909357735,-0.007097445967434524,0.02486458702149118,-0.0570537370781105,-0.07927360938159161,0.022378920630684446,-0.010162670712412503,0.011765986459535395,-0.1809628947548868
1640,6.891421999956947,0.013804956080883894,-0.07092734140999601,0.02723039332619543,0.03734023563604781,-0.007431661678653674,0.024957335221347566,-0.05709282175272201,-0.07921850652250985,0.02161578616852754,-0.008385232603883597,0.014391178756787672,-0.18094091150875552
1641,6.895570900000166,0.01376562365932878,-0.07080473211760262,0.02763473862597266,0.037099407309626194,-0.0077656218648243245,0.025046865053865875,-0.0571244249200913,-0.07915231039565493,0.02085277346510026,-0.006614154511377495,0.017024860601684722,-0.1809060577297421
1642,6.899966399942059,0.013913819830286138,-0.07079202835801982,0.028105501825250193,0.036858461415940624,-0.008099279651567325,0.025133177156283538,-0.05714857361981615,-0.07907498562810436,0.02008993662754319,-0.0048495322710970495,0.019666841058011333,-0.18085842519359624
1643,6.903999799978919,0.013952431189690626,-0.07080237283485116,0.028461349162809454,0.03661742932603767,-0.008432588017008101,0.02521627239360226,-0.05716529529110746,-0.07898649765996056,0.01932732937271293,-0.003091460286879171,0.022316927169631226,-0.18079810672316463
1644,6.908125299960375,0.013984729722283902,-0.07076646733009628,0.02886581296576238,0.03637634229449298,-0.008765499795239403,0.025296151856923063,-0.05717461776680254,-0.0788868127528493,0.01856500502282792,-0.0013400315661100679,0.02497492394695532,-0.18072519615925844
1645,6.912764499953482,0.014040155357327803,-0.07077521325095687,0.02931042061005372,0.03613523145776687,-0.009097967679819905,0.02537281686176286,-0.05717656926753367,-0.07877589799847179,0.017803016501237893,0.00040466224409426506,0.027640634353861604,-0.1806397883312429
1646,6.916237999976147,0.014040155357327803,-0.07077521325095687,0.02931042061005372,0.03589412783258435,-0.009429944227308836,0.025446268946353025,-0.057171178396052964,-0.0786537213272086,0.01704141632831807,0.0021425308204635245,0.03031385929507629,-0.18054197902735736
1647,6.920245299988892,0.01423852124116649,-0.07079708787425854,0.030329551423165187,0.035653062314339096,-0.009761381860836858,0.025516509869920715,-0.05715847413171438,-0.07852025151677335,0.016280256617489147,0.003873485126925775,0.03299439760402581,-0.18043186496477473
1648,6.923790599976201,0.01423852124116649,-0.07079708787425854,0.030329551423165187,0.03541206567552076,-0.010092232873713452,0.025583541610953386,-0.05713848582511372,-0.07837545820091442,0.01551958907136429,0.005597437377758601,0.03568204603116916,-0.18030954375940947
1649,6.929102499969304,0.014323949722188502,-0.07087165461036538,0.0309984594003564,0.03517116856416471,-0.010422449433070986,0.0256473663654472,-0.05711124319288708,-0.07821931187816301,0.01475946497802415,0.00731430100056003,0.038376599232819844,-0.18017511389548418
1650,6.933203499997035,0.01443031261572919,-0.07086585934337164,0.03131827154174539,0.03493040150232371,-0.010751983583545654,0.025707986545139828,-0.05707677631266894,-0.0780517839206253,0.013999935207420905,0.009023990599060526,0.04107784976046668,-0.18002867469486467
1651,6.937415999942459,0.014505200769667312,-0.07090988056330003,0.03161724047968794,0.03468979488456079,-0.011080787250995476,0.025765404775728234,-0.0570351156182105,-0.0778728465828167,0.013241050207912186,0.010726421915797334,0.043785588050602266,-0.1798703262861737
1652,6.941660099953879,0.014493484332330286,-0.07097170837409876,0.03196746179980192,0.03444937897646264,-0.011408812246255505,0.025819623895071978,-0.05698629189465879,-0.07768247301053628,0.012482860002925797,0.012421511794672494,0.046499602415067766,-0.17970016957369303
1653,6.945302799984347,0.014493484332330286,-0.07097170837409876,0.03196746179980192,0.034209183913172965,-0.011736010268930388,0.02587064695138255,-0.056930336273997094,-0.07748063724977933,0.011725414187756094,0.014109178143415842,0.049219679031922696,-0.1795183062060642
1654,6.950053299951833,0.01466345245965099,-0.07104410392928354,0.03263560508968937,0.033969239697944915,-0.012062332911224424,0.025918477201399243,-0.05686728023064686,-0.07726731425568611,0.01096876192649287,0.015789339895974287,0.05194560193684823,-0.17932483854479958
1655,6.95424659998389,0.014806214373581426,-0.07113526465404209,0.032937621069740755,0.03372957620071191,-0.012387731661809268,0.025963118108552126,-0.056797155577231355,-0.07704247990152517,0.01021295194908359,0.017461916974848724,0.05467715301509223,-0.17911986963261578
1656,6.958626699983142,0.014903158505720384,-0.0712338015535494,0.0332270134117174,0.033490223156676026,-0.012712157909729425,0.026004573341112697,-0.05671999446050105,-0.07680611098770883,0.00945803254852973,0.019126830253399788,0.057414111993964324,-0.178903503161601
1657,6.962282399996184,0.014903158505720384,-0.0712338015535494,0.0332270134117174,0.03325121016491331,-0.013035562948345616,0.026042846770332907,-0.056635829357421286,-0.07655818525083888,0.008704051578217888,0.020784001518143694,0.06015625643588904,-0.1786758434412279
1658,6.96751139999833,0.01510212852506393,-0.07144834306518542,0.03386684159230227,0.033012566686995225,-0.013357897979316184,0.026077942468572955,-0.056544693071421764,-0.07629868137278002,0.00795105644938627,0.022433353431059337,0.0629033617320247,-0.17843699536622423
1659,6.971032699977513,0.015168987719901187,-0.07153737140170867,0.03415797601713864,0.032774322045625505,-0.013679114116616634,0.026109864707418405,-0.05644661872880763,-0.07602757898975859,0.007199094128727147,0.024074809491927803,0.06565520109645606,-0.17818706438431303
1660,6.974989499954972,0.015231205981120516,-0.07164403308457933,0.034527324049367925,0.03253650542329173,-0.013999162390597395,0.026138617955787098,-0.056341639775331714,-0.07574485870148388,0.006448211136125791,0.02570829400072536,0.06841154556096848,-0.17792615646383303
1661,6.979084699996747,0.015443827320047452,-0.07172301151901928,0.03492333680825596,0.03229914586093073,-0.014317993752079945,0.026164206878026473,-0.05622978997292737,-0.07545050208028972,0.005698453542536426,0.027333732020090866,0.07117216397041087,-0.17765437806125192
1662,6.983029499999248,0.015443827320047452,-0.07172301151901928,0.03492333680825596,0.032062272256607266,-0.01463555907649133,0.026186636332002,-0.05611110339660142,-0.07514449168029387,0.004949866967995608,0.02895104933788849,0.07393682297865461,-0.17737183608858467
1663,6.988284399965778,0.015603901989410852,-0.07189362454255631,0.03556293096929969,0.03182591336420508,-0.014951809168037155,0.02620591136717728,-0.05598561443148683,-0.07482681104657256,0.004202496579773408,0.030560172429886588,0.07670528704515539,-0.17707863788073006
1664,6.992188099946361,0.015672370681428197,-0.0719587964092676,0.03581239101884665,0.03159009779212992,-0.015266694763913043,0.026222037222686404,-0.055853357770054825,-0.0744974447243474,0.003456387090662766,0.03216102842257341,0.07947731843212519,-0.17677489116273826
1665,6.996609699970577,0.015777706716836606,-0.07205498634934533,0.03599827349758092,0.031354854002023896,-0.015580166538554652,0.026235019325399303,-0.0557143684094855,-0.07415637826818205,0.0027115827574072607,0.033753545056130374,0.08225267720232107,-0.17646070401702124
1666,7.000520099943969,0.015889041789882565,-0.07213554492485517,0.03620357828308879,0.031120210307490327,-0.015892175107926246,0.026244863287980643,-0.055568681649196365,-0.07380359825118563,0.0019681273792675103,0.0353376506475834,0.08503112121745765,-0.17613618485051905
1667,7.004151899949648,0.016032662386479678,-0.07222122550806583,0.036384004057104465,0.030886194872828523,-0.01620267103384776,0.02625157490694286,-0.055416333088527836,-0.07343909227422024,0.0012260642967263776,0.03691327405415252,0.08781240613725015,-0.17580144236183493
1668,7.008218399947509,0.016215832225866637,-0.0723565697771047,0.036588982125720385,0.030652835711777838,-0.01651160482836027,0.02625516016069397,-0.055257358624584973,-0.07306284897511037,0.0004854363903331072,0.03848034463681984,0.09059628541909495,-0.17545658550835244
1669,7.012695299985353,0.01640736041411203,-0.07247703062790058,0.03671914350502786,0.03042016068627056,-0.016818926958129872,0.02625562520758076,-0.055091794450234925,-0.07267485803785133,-0.00025371392031355293,0.0400387922241359,0.09338251031839405,-0.175101723473348
1670,7.016391199955251,0.01658944208717554,-0.07262805380591181,0.036874261924152885,0.03018819750519296,-0.01712458784888995,0.02625297638392796,-0.054919677052258795,-0.07227511020181428,-0.0009913446774432253,0.041588547076284184,0.0961708298895299,-0.17473696563311186
1671,7.020507899986114,0.016765360863685862,-0.07275840489935519,0.03699319781279078,0.029956973723153885,-0.017428537889921856,0.02624722020207402,-0.05474104320965665,-0.07186359727094457,-0.0017274143858528285,0.04312953984942368,0.09896099098749712,-0.17436242152409126
1672,7.024779099971056,0.01695442002790122,-0.07294087084983787,0.0371139693591066,0.02972651673926012,-0.017730727438573884,0.026238363348404,-0.054555929992104256,-0.07144031212295114,-0.0024618820135066557,0.04466170156032903,0.10175273827019692,-0.17397820081006804
1673,7.029182599973865,0.017089259819721887,-0.07306853670987422,0.037207725982638516,0.02949685379589801,-0.018031106824818545,0.026226412681380224,-0.05436437475855994,-0.07100524871848424,-0.0031947069919977733,0.046184963551347734,0.1045458142013996,-0.17358441324938392
1674,7.033069399942178,0.017195554508924592,-0.0732150589388541,0.037281662300617566,0.029268011977520606,-0.018329626355847953,0.026211375229571277,-0.05416641515601993,-0.07055840211029869,-0.003925849216870965,0.04769925745569349,0.10733995905438129,-0.17318116866222769
1675,7.037263099977281,0.017298198181402123,-0.07333624647753596,0.0373500472248697,0.029040018209439793,-0.018626236320707316,0.026193258189679984,-0.05396208911842095,-0.07009976845239993,-0.004655269047807514,0.04920451516309472,0.11013491091623992,-0.17276857689799752
1676,7.041376099979971,0.01738662010493095,-0.07347308693039174,0.03740461695964515,0.028812899256622768,-0.01892088699496643,0.02617206892457096,-0.05375143486568811,-0.06962934500916954,-0.005382927308672167,0.050700668785817166,0.11293040569289646,-0.17234674780275258
1677,7.045624099962879,0.017435636166258973,-0.07362147595037172,0.03746697726798701,0.02858668172249229,-0.019213528645429086,0.02614781496129836,-0.05353449090292652,-0.06914713016446743,-0.006108785287422667,0.052187650625079116,0.1157261771147864,-0.17191579118676864
1678,7.050690899952315,0.017542149916859425,-0.0737728319297229,0.037501036013790456,0.028361392047730017,-0.019504111534880304,0.026120503989134285,-0.0533112960197548,-0.06865312343070783,-0.006832804735882334,0.05366539313787789,0.11852195674324732,-0.17147581679221224
1679,7.054464099986944,0.017685918471064863,-0.07388785215895484,0.037519474536891376,0.028137056509082273,-0.01979258592687136,0.026090143857598547,-0.053081889289778424,-0.06814732545790618,-0.007554947869376209,0.055133828904245924,0.12131747397760814,-0.17102693426094712
1680,7.0584206999628805,0.017881237770416666,-0.07405457730517533,0.03749457677058704,0.027913701218167483,-0.020078902090542475,0.026056742574490296,-0.05284631007020104,-0.06762973804269472,-0.008275177366231368,0.0565928905949546,0.12411245606298552,-0.1705692531024866
1681,7.062283199978992,0.0181205917800909,-0.07419661320206214,0.037483019961807085,0.0276913521202847,-0.020363010305483136,0.02602030830392214,-0.05260459800157167,-0.06710036413730328,-0.00899345636714206,0.058042510939683586,0.12690662809879247,-0.17010288266210688
1682,7.065898799977731,0.0181205917800909,-0.07419661320206214,0.037483019961807085,0.027470034993222738,-0.020644860866629873,0.02598084936435733,-0.05235679300766554,-0.06655920785850264,-0.009709748474400395,0.05948262269567364,0.12969971304796363,-0.16962793208913374
1683,7.069507299980614,0.01829170439010089,-0.07428760959621777,0.03745996806422595,0.02724977544606934,-0.020924404089201366,0.0259383742266506,-0.052102935295496304,-0.0660062744965071,-0.010424017750993294,0.06091315861688003,0.13249143174690226,-0.16914451030541758
1684,7.074022299959324,0.01847216154797012,-0.07438478323662184,0.0374358823529069,0.027030598918019892,-0.021201590313670693,0.025892891512093334,-0.051843065355457296,-0.06544157052383309,-0.011136228719566594,0.06233405142364413,0.13528150291615335,-0.16865272597401032
1685,7.078690099995583,0.01885326434529494,-0.07450463106846321,0.037386922644264436,0.026812530677185004,-0.02147636991077441,0.025844409990463595,-0.05157722396158948,-0.06486510360411073,-0.011846346361257186,0.06374523377290027,0.1380696431718069,-0.16815268746805875
1686,7.083209199947305,0.019003920389189684,-0.07455235345402701,0.03733499091239619,0.02659559581939647,-0.021748693286558318,0.02579293857808149,-0.051305452171973735,-0.0642768826008452,-0.012554336114394157,0.06514663822893442,0.14085556703763621,-0.16764450283992768
1687,7.08735849999357,0.01917467874435195,-0.07461857610000787,0.03730595544449353,0.026379819267010975,-0.022018510887459916,0.0257384863358703,-0.05102779132924522,-0.06367691758612509,-0.013260163873069893,0.06653819723471134,0.1436389869579757,-0.167128279790567
1688,7.091519999958109,0.019287838919945066,-0.0746411472979911,0.03729132537497514,0.02616522576771097,-0.022285773205427326,0.025681062467424083,-0.050744283061227496,-0.06306521984927452,-0.013963795985582235,0.06791984308378654,0.14641961331134176,-0.16660412563913662
1689,7.095925199973863,0.01944722792115169,-0.07465238957297808,0.03732547788804416,0.02595183989330211,-0.022550430783074497,0.025620676317082144,-0.05045496928168376,-0.06244180190544596,-0.014665199252748723,0.06929150789281878,0.14919715442480108,-0.16607214729290254
1690,7.1001839999808,0.019592923656075453,-0.07468731855084701,0.03734277797183638,0.025739686038506716,-0.02281243421887237,0.02555733736801095,-0.050159892191182213,-0.06180667750415045,-0.01536434092609408,0.07065312357469868,0.15197131658908927,-0.16553245121741808
1691,7.103983199980576,0.019830940239612762,-0.07468893733210429,0.03743454820471656,0.0255287884197529,-0.02307173417237566,0.025491055240294096,-0.04985909427807292,-0.061159861637722295,-0.016061188705912187,0.07200462181230936,0.1547418040744835,-0.16498514340700496
1692,7.108035899989773,0.019978629517173923,-0.07470161122946739,0.037470217861689005,0.02531917107395881,-0.023328281369484977,0.025421839689030896,-0.04955261831957347,-0.06050137054971501,-0.0167557107392039,0.07334593403293423,0.15750831914743213,-0.16443032935554674
1693,7.112296199949924,0.020104798880719633,-0.07474697415403651,0.037459114678772006,0.025110857857311507,-0.023582026607743993,0.025349700602444142,-0.04924050738296057,-0.05983122174322544,-0.017447875617492125,0.07467699138332688,0.16027056208794405,-0.16386811402760781
1694,7.116334099962842,0.020295808013757015,-0.07479508850359977,0.03745927143335366,0.02490387244404009,-0.023832920761671195,0.02527464799999748,-0.0489228048268645,-0.05914943398914278,-0.01813765237451549,0.07599772470545842,0.1630282312077409,-0.1632986018298914
1695,7.1205709999776445,0.020485338034420975,-0.07487760694615038,0.03747285746180544,0.024698238325182732,-0.02408091478812598,0.025196692030523025,-0.04859955430266345,-0.058456027334319316,-0.01882501048380207,0.07730806451295591,0.16578102286917468,-0.16272189658304928
1696,7.12474729999667,0.02069673394095003,-0.07496480626781775,0.0374596304254636,0.024493978807347296,-0.024325959731708688,0.025115842970359747,-0.048270799755974675,-0.057751023109659634,-0.01950991985612466,0.07860794096824646,0.1685286315049145,-0.16213810149385585
1697,7.128872599976603,0.021040539050568748,-0.07505448151053692,0.037488093155139075,0.024291117011465038,-0.024568006730194228,0.025032111221503246,-0.04793658542823924,-0.05703444393812486,-0.020192350836839186,0.07989728386042047,0.17127074963840516,-0.16154731912775913
1698,7.133141999947839,0.021430926628874258,-0.0751506056718697,0.03751447728556691,0.024089675871536903,-0.024807007019998818,0.024945507309767377,-0.047596955858397065,-0.05630631374264884,-0.02087227420310803,0.08117602258382753,0.1740070679050999,-0.16094965138182268
1699,7.137132299947552,0.021706781296739145,-0.07523237356110098,0.0374601265263226,0.023889678133372134,-0.025042911941679475,0.024856041882958393,-0.04725195588464919,-0.055566657753962974,-0.021549661161009856,0.08244408611741756,0.17673727507447,-0.16034519945807135
1700,7.1405992999789305,0.021706781296739145,-0.07523237356110098,0.0374601265263226,0.023691146353318846,-0.025275672945465812,0.02476372570906213,-0.04690163064630442,-0.05481550251832646,-0.02222448334253765,0.08370140300483982,0.179461058072793,-0.15973406383725366
1701,7.146340299979784,0.022478640693388563,-0.07551086916878245,0.03726073940520609,0.023494102896986183,-0.02550524159682374,0.02466856967444464,-0.04654602558570713,-0.054052875905158775,-0.022896712802486795,0.08494790133531206,0.18217810200672147,-0.1591163442530335
1702,7.152351499942597,0.02278633914528502,-0.07557139567011217,0.03711882839845681,0.02329856993795759,-0.025731569582050702,0.024570584782066807,-0.04618518645024293,-0.05327880711457137,-0.023566322015235064,0.08618350872527249,0.18488809018763477,-0.15849213966662365
1703,7.158424599969294,0.023420409474126623,-0.0758411996332748,0.036937660449458454,0.023104569456495062,-0.025954608713902053,0.024469782149713376,-0.045819159294418516,-0.05249332668479569,-0.024233283871416367,0.08740815230082656,0.18759070415677573,-0.15786154824187323
1704,7.16234269994311,0.023678695476019952,-0.07591178374130864,0.03686793036692034,0.02291212323823415,-0.026174310937248195,0.0243661730082369,-0.04544799048201266,-0.05169646649950438,-0.024897571674490256,0.08862175868100011,0.19028562371117494,-0.15722466732082216
1705,7.166975599946454,0.02391530698564704,-0.07599424706263389,0.03679516505154849,0.022721252872869493,-0.026390628334761832,0.024259768699816962,-0.04507172668829478,-0.05088825979502252,-0.025559159137209245,0.08982425396180985,0.19297252693036515,-0.15658159339973418
1706,7.170545499946456,0.02391530698564704,-0.07599424706263389,0.03679516505154849,0.02253197975283056,-0.02660351313263477,0.024150580676235087,-0.04469041490230777,-0.05006874116742578,-0.026218020377986092,0.0910155637011623,0.1956510902038871,-0.15593242210562025
1707,7.1759797999984585,0.024419183887137676,-0.07612144186185556,0.03665386495442953,0.02234432507194743,-0.026812917706323738,0.024038620497165687,-0.0443041024292114,-0.049237946579521887,-0.02687412991716303,0.09219561290459172,0.19832098825958888,-0.15527724817326397
1708,7.179879199946299,0.024675606667420323,-0.07619864888351585,0.03657102579389923,0.022158309824106368,-0.027018794586324786,0.023923899828483502,-0.0439128368926828,-0.04839591336771216,-0.02752746267318503,0.09336432601184692,0.2009818941927199,-0.15461616542276024
1709,7.183779499959201,0.024941309869544962,-0.07627980645676755,0.03642860243853385,0.02197395480189495,-0.027221096463975712,0.023806430440587906,-0.04351666623737021,-0.047542680248729895,-0.028177993958679395,0.09452162688433705,0.20363347949582114,-0.1539492667375781
1710,7.187471899960656,0.025232353637821323,-0.07632317665405894,0.03636405685923584,0.021791280595236516,-0.02741977619728584,0.023686224206744495,-0.04311563873139647,-0.04667828732625227,-0.028825699476443836,0.09566743879344551,0.20627541408941374,-0.15327664404315927
1711,7.191806699964218,0.02550179978039374,-0.07637132751284928,0.03629842943750254,0.02161030759001378,-0.027614786816792716,0.023563293101444362,-0.04270980296890836,-0.04580277609738231,-0.029470555315345454,0.09680168440972148,0.20890736635348647,-0.15259838828606287
1712,7.195361799967941,0.02550179978039374,-0.07637132751284928,0.03629842943750254,0.021431055966681264,-0.027806081531445186,0.023437649198781368,-0.0422992078726682,-0.04491618945899756,-0.030112537946132924,0.09792428579295699,0.2115290031597839,-0.15191458941366726
1713,7.20019649999449,0.026223396261209866,-0.07645236755110046,0.036210414621679565,0.021253545698866474,-0.0279936137345122,0.02330930467084785,-0.04188390269668403,-0.04401857171396179,-0.030751624217164167,0.09903516438315767,0.2141399899048953,-0.15122533635443888
1714,7.204039099975489,0.02664847388221025,-0.07641889694127726,0.03616811296496776,0.02107779655195968,-0.02817733700951674,0.023178271786149042,-0.041463937028874645,-0.04310996857719627,-0.03138779135005168,0.1001342409924148,0.21673999054414522,-0.15053071699877776
1715,7.207490199944004,0.02664847388221025,-0.07641889694127726,0.03616811296496776,0.020903828081692256,-0.028357205136194368,0.023044562908036515,-0.04103936079376548,-0.04219042718160702,-0.032021016935228054,0.10122143579768614,0.21932866762628717,-0.14983081818044935
1716,7.211778399941977,0.027311883146620895,-0.0764348288011,0.03603778413075285,0.02073165963270349,-0.028533172096475826,0.022908190493161007,-0.040610224255211665,-0.041259996083864964,-0.032651278927434184,0.1022966683344928,0.22190568232900051,-0.14912572565861312
1717,7.215339499991387,0.027311883146620895,-0.0764348288011,0.03603778413075285,0.020561310337095767,-0.02870519208049307,0.022769167089945065,-0.04017657801914423,-0.04031872527003584,-0.03327855564113278,0.10335985749153954,0.22447069449519205,-0.14841552410045644
1718,7.218949399946723,0.027311883146620895,-0.0764348288011,0.03603778413075285,0.020392799112978043,-0.028873219492608227,0.022627505337075735,-0.03973847303633539,-0.039366666161056635,-0.03390282574584982,0.10441092150626467,0.2270233626701027,-0.147700297064442
1719,7.223195599974133,0.02761249809138153,-0.0764179665423631,0.035991992532656586,0.02022614466299744,-0.029037208957464797,0.022483217962017514,-0.039295960605178815,-0.03840387161805523,-0.03452406826144642,0.10544977796132533,0.22956334413921925,-0.1469801269841774
1720,7.227216199971735,0.02818361502700121,-0.07635754211382934,0.035857192779685826,0.020061365472859066,-0.02919711532606049,0.02233631777954589,-0.038849092374480844,-0.03743039594750998,-0.03514226255332395,0.10647634378202374,0.23209029496698982,-0.14625509515291502
1721,7.231839799962472,0.028525866530784785,-0.07626257382032756,0.03580917598884972,0.019898479809834047,-0.029352893681841165,0.02218681769030173,-0.038397920346258475,-0.03644629490624583,-0.035757388327565,0.10749053523467988,0.2346038700363429,-0.14552528170868972
1722,7.236181499960367,0.028778467319367666,-0.0762093705702794,0.03569479904344472,0.019737505721255637,-0.02950449934681521,0.0220347306793669,-0.03794249687854002,-0.03545162570626391,-0.0363694256260126,0.10849226792595548,0.23710372308900993,-0.14479076562010337
1723,7.241315399995074,0.02934056975132795,-0.07615771842760696,0.03546560174978803,0.019578461033003466,-0.029651887887687772,0.021880069814861458,-0.03748287468816442,-0.034446447019401145,-0.03697835482129062,0.10948145680313331,0.23958950676665106,-0.14405162467276406
1724,7.245515399961732,0.029685056387833312,-0.07612531569393083,0.03536427362591035,0.019421363347975857,-0.02979501512201424,0.02172284824656256,-0.0370191068535752,-0.03343081898181674,-0.037584156611767894,0.1104580161553563,0.24206087265278287,-0.14330793545638812
1725,7.249754399992526,0.029961402188535876,-0.0761211271344825,0.03528619115000608,0.019266230044550144,-0.029933837124372226,0.02156307920454535,-0.036551246817604785,-0.032404803198301926,-0.038186812016469035,0.11142185961582995,0.2445174713155068,-0.14255977335257128
1726,7.253986999974586,0.03022378039349022,-0.07608560705693113,0.03520457074799779,0.019113078275031056,-0.030068310232551243,0.021400775997845945,-0.03607934839024537,-0.031368462746409885,-0.03878630236993488,0.11237290016499148,0.24695895235103776,-0.14180721252323486
1727,7.258231899992097,0.03057013385941242,-0.07605302405180721,0.03506119377397983,0.01896192496408727,-0.03019839105375927,0.02123595201314668,-0.035603465751402275,-0.030321862180402667,-0.03938260931703549,0.11331105013464864,0.2493849644280313,-0.1410503258997542
1728,7.262174499977846,0.03105526534109298,-0.07601440732733433,0.03510773352348324,0.018812786807176296,-0.030324036470845504,0.021068620713483567,-0.035123653453625676,-0.029265067535012037,-0.03997571480773853,0.11423622121309047,0.25179515533270724,-0.1402891851727747
1729,7.266553499968722,0.03136770591604581,-0.07596902153006138,0.0349637240163094,0.018665680268957763,-0.03044520364853851,0.020898795636976258,-0.03463996642481646,-0.028198146329010708,-0.04056560109183621,0.11514832445117217,0.2541891720147673,-0.1395238607827218
1730,7.270640199945774,0.03170455954781133,-0.0759667923638119,0.034833810345605114,0.018520621581695235,-0.030561850039698923,0.020726490395580707,-0.03415245997090197,-0.02712116756859069,-0.04115225071363346,0.11604727026937556,0.25656666063410405,-0.13875442191101006
1731,7.275222999975085,0.03205354748983117,-0.07589034490756819,0.03473027750468303,0.018377626743646718,-0.030673933391585875,0.0205517186738647,-0.033661189778477485,-0.026034201750545664,-0.041735646506600506,0.11693296846584691,0.25892726660829735,-0.13798093647195644
1732,7.279429299989715,0.032314252695174094,-0.07582361410799748,0.034622536096828055,0.01823671151744406,-0.030781411752136296,0.020374494227806312,-0.03316621191740941,-0.024937320865254145,-0.04231577158799258,0.11780532822541262,0.2612706346608957,-0.13720347110540326
1733,7.283247699961066,0.03255009717820429,-0.07578321895852845,0.03451298600847031,0.018097891428461375,-0.030884243476256453,0.02019483088361543,-0.032667582843395854,-0.02383059839946016,-0.04289260935343962,0.11866425812957289,0.26359640887047947,-0.13642209117005552
1734,7.28686159994686,0.03255009717820429,-0.07578321895852845,0.03451298600847031,0.01796118176317277,-0.03098238723212488,0.02001274253657848,-0.032165359400480244,-0.02271410933884818,-0.043466143471509115,0.11950966616747358,0.26590423272050273,-0.13563686073753642
1735,7.290375599986874,0.03279080937008384,-0.07571222126241889,0.034396184199574055,0.01782659756749949,-0.031075802007505742,0.019828243149926483,-0.03165959882351403,-0.021587930170409022,-0.044036357878245114,0.12034145974785593,0.2681937491499088,-0.1348478425871644
1736,7.294415099953767,0.03279080937008384,-0.07571222126241889,0.034396184199574055,0.01769415364514684,-0.03116444711607182,0.019641346753726537,-0.03115035874056414,-0.020452138884593577,-0.044603236771686434,0.12115954571198308,0.270464600604516,-0.13405509820145473
1737,7.298583699972369,0.03301269564012324,-0.07565305149532846,0.03425368192170842,0.017563864555930918,-0.03124828220373607,0.01945206744379671,-0.030637697175261363,-0.019306814977251032,-0.04516676460636717,0.12196383034754135,0.27271642908916943,-0.133258687762348
1738,7.303790499980096,0.033585345790425866,-0.07541245770620307,0.03376536727890036,0.017435744614095472,-0.03132726725499097,0.019260419380644357,-0.030121672549085658,-0.018152039451348446,-0.04572692608780263,0.12275421940351476,0.27494887622065367,-0.13245867014816817
1739,7.308231999981217,0.03389403119934672,-0.07536754026024121,0.03361234018485182,0.017309807886619143,-0.03140136259925484,0.01906641678842795,-0.02960234368358413,-0.01698789481846855,-0.04628370616696369,0.12353061810603044,0.27716158328136237,-0.13165510293131166
1740,7.312306199979503,0.03418876680476655,-0.07536264138613509,0.0334445694251302,0.017186068191513373,-0.031470528917224176,0.018870073953942666,-0.029079769802517648,-0.015814465100082713,-0.04683709003474262,0.12429293117517222,0.27935419127372035,-0.13084804237666955
1741,7.316447099961806,0.03443086635978893,-0.07527470766675493,0.03329904221943947,0.017064539096111254,-0.031534727247231255,0.01867140522562966,-0.028554010533932046,-0.014631835828595946,-0.04738706311641356,0.12504106284275915,0.2815263409753528,-0.13003754344078436
1742,7.3209317999426275,0.03464548746114713,-0.07523566076752665,0.033198839476188416,0.01694523391534776,-0.03159391899160589,0.018470425012609013,-0.028025125912149836,-0.013440094048160784,-0.04793361106609081,0.12577491687108586,0.2836776729949981,-0.12922365977174285
1743,7.325032099965028,0.03495780808235297,-0.07521967736595676,0.03324078945992519,0.016828165710031685,-0.031648065923040175,0.018267147783736327,-0.027493176379678488,-0.012239328315257017,-0.04847671976118804,0.12649439657262063,0.28580782782915665,-0.1284064437098054
1744,7.328458799980581,0.03495780808235297,-0.07521967736595676,0.03324078945992519,0.01671334728510976,-0.03169713019095519,0.0180615880666829,-0.026958222789031146,-0.0110296286990342,-0.049016375296881576,0.12719940483065673,0.2879164459194702,-0.12758594628877204
1745,7.332846999983303,0.03536450933539072,-0.07516948443293923,0.033106224079190234,0.016600791187923295,-0.031741074327868844,0.0178537604470394,-0.026420326404455872,-0.009811086781413857,-0.049552563980581124,0.12788984412091198,0.29000316771082646,-0.12676221723808637
1746,7.337049799971282,0.0355643994171725,-0.07516973492942326,0.033043457344125476,0.01649050970645772,-0.03177986125576393,0.017643679567443026,-0.025879548903569537,-0.008583795656948378,-0.05008527232641122,0.12856561653407195,0.2920676337101814,-0.12593530498567668
1747,7.341919099970255,0.03581926726949358,-0.07510357620060067,0.03303451317648519,0.01638251486758539,-0.03181345429245587,0.017431360126728065,-0.02533595237889252,-0.007347849932433581,-0.05061448704970677,0.1292266237992714,0.2941094845460926,-0.12510525666153346
1748,7.345493999950122,0.0360174998017928,-0.07508812102666922,0.03295668994649271,0.01627681843530213,-0.03184181715795878,0.017216816879099765,-0.02478959933928019,-0.006103345726272002,-0.05114019506152601,0.12987276730850894,0.2961283610289563,-0.12427211810202175
1749,7.349598999950103,0.036195217445350356,-0.07512413407780126,0.03288740227466965,0.01617343190895796,-0.031864913980848716,0.017000064633331403,-0.02424055271124727,-0.004850380667583996,-0.05166238346318394,0.13050394814198785,0.2981239042119426,-0.1234359338549268
1750,7.354004299966618,0.036398312062832325,-0.07508079102789189,0.03272309118572492,0.01607236652148255,-0.03188270930462281,0.016781118251984427,-0.023688875840181305,-0.0035890538950636964,-0.05218103954080976,0.13112006709437718,0.3000957554526217,-0.12259674718523139
1751,7.358203699986916,0.03653625088250592,-0.07506517017758753,0.03260835393698815,0.01597363323760592,-0.03189516809405314,0.016559992650651358,-0.023134632491441452,-0.0023194660555769455,-0.05269615075993151,0.13172102470198488,0.30204355647527314,-0.12175460008162242
1752,7.361969799967483,0.03653625088250592,-0.07506517017758753,0.03260835393698815,0.015877242752074888,-0.0319022557415341,0.01633670279722139,-0.022577886851338897,-0.0010417193024983456,-0.053207704760090985,0.1323067212708355,0.3039669494338727,-0.12090953326372322
1753,7.366607499949168,0.03692050358386157,-0.07512189021299495,0.03248896955321273,0.01578320548786584,-0.03190393807342194,0.016111263711168593,-0.02201870352799506,0.00024408270621540932,-0.05371568934949166,0.1328770569056443,0.3058655769757494,-0.12006158619004946
1754,7.370250099978875,0.03692050358386157,-0.07512189021299495,0.03248896955321273,0.015691531594394254,-0.03190018135636563,0.01588369046286265,-0.021457147552073837,0.0015378348102187294,-0.05422009249968286,0.13343193153967897,0.3077390823059067,-0.11921079706668465
1755,7.376023299992084,0.03716341916123252,-0.07520184612341974,0.032410459248686636,0.015602230945721569,-0.031890952303627915,0.015653998172902,-0.020893284377384146,0.002839430349239643,-0.0547209023402834,0.13397124496550067,0.30958710925199817,-0.11835720285667188
1756,7.379757099959534,0.037280406057512566,-0.07527432328487577,0.032392275389021424,0.015515313138759887,-0.0318762180813954,0.015422202011469191,-0.02032717988134928,0.004148761165814383,-0.05521810715374797,0.13449489686657504,0.3114093023299491,-0.11750083929011791
1757,7.383283199975267,0.03743533956450324,-0.07537051004977795,0.032396195662696935,0.015430787491475131,-0.03185594631507645,0.01518831719770822,-0.019758900365339505,0.005465717608296773,-0.05571169537017925,0.13500278684974354,0.3132053068102146,-0.11664174087500476
1758,7.38777749997098,0.037554579008376235,-0.07551197224032,0.03236744832575389,0.01534866304108922,-0.03183010509558565,0.014952358999123663,-0.019188512554864437,0.0067901885341450936,-0.056201655562188965,0.13549481447854492,0.31497476878466435,-0.11577994090870374
1759,7.391468499961775,0.037669117796326826,-0.0756140827591548,0.0323536427837087,0.015268948542281842,-0.031798662985614,0.014714342731001384,-0.018616083599621663,0.008122061313489085,-0.05668797643981056,0.13597087930737578,0.31671733523408346,-0.11491547149018609
1760,7.39570139994612,0.03779319443565954,-0.07571440893760326,0.03236412030201064,0.015191652465392468,-0.031761589025883635,0.014474283755850522,-0.01804168107339823,0.009461221832979707,-0.05717064684546588,0.13643088091647917,0.3184326540962801,-0.1140483635329245
1761,7.399732299963944,0.03790871289186677,-0.07580507660811522,0.03237741089844015,0.015116782994623316,-0.031718852741385854,0.014232197482866579,-0.017465372973821516,0.010807554499924224,-0.057649655748988664,0.13687471894775027,0.3201203743347912,-0.11317864677847975
1762,7.404320299974643,0.03803282357352502,-0.07588808339902929,0.03235685863960549,0.015044348026243957,-0.03167042414760105,0.013988099367415375,-0.016887227721956097,0.012160942246709123,-0.05812499224270752,0.13730229314134798,0.32178014600817695,-0.11230634981076582
1763,7.408214899944141,0.03815768543527759,-0.07599352910742142,0.032355240795220425,0.014974355166798214,-0.03161627375669931,0.013742004910537611,-0.016307314161743313,0.013521266535513218,-0.05859664553659154,0.13771350337310023,0.3234116203398931,-0.11143150007098628
1764,7.412450699950568,0.038292519881850735,-0.07612359435423402,0.03237363424447212,0.014906811731313951,-0.03155637258372022,0.013493929658473696,-0.015725701559280374,0.014888407363313464,-0.05906460495346089,0.13810824969269087,0.32501444978873223,-0.11055412387323511
1765,7.416509499948006,0.03843061504733769,-0.07625655369876508,0.03237359118619181,0.014841724741516396,-0.03149069215273075,0.013243889202208545,-0.01514245960193569,0.016262243267185908,-0.059528859924265626,0.1384864323626149,0.32658828811982243,-0.10967424642075504
1766,7.420029799977783,0.03843061504733769,-0.07625655369876508,0.03237359118619181,0.01477910092404575,-0.03141920450296,0.012991899177036,-0.014557658397297375,0.017642651329904176,-0.059989399983435436,0.13884795189788904,0.3281327904761697,-0.10879189182284542
1767,7.424463999981526,0.038707600837479955,-0.07649036387295778,0.03239369298244356,0.01471894670867985,-0.031341882194909604,0.01273797526214255,-0.013971368471951956,0.019029507185837867,-0.06044621476430342,0.13919270910650447,0.32964761345073074,-0.10790708311241114
1768,7.428021999949124,0.038707600837479955,-0.07649036387295778,0.03239369298244356,0.014661268226562581,-0.031258698316438696,0.012482133180210058,-0.01338366077009025,0.020422685027153244,-0.060899293994606404,0.1395206051306083,0.33113241515900466,-0.10701984226414428
1769,7.43284299998777,0.038968546228934586,-0.07663580161309454,0.032455294026825815,0.014606071308438814,-0.031169626488822183,0.012224388697037193,-0.012794606651937455,0.021822057610318545,-0.061348627492064385,0.1398315414883988,0.3325868553121321,-0.10613019021332969
1770,7.437354899942875,0.03906276576912285,-0.07679792360303496,0.03248461965898901,0.014553361482896666,-0.03107464087278132,0.011964757621179168,-0.012204277892004617,0.02322749626291606,-0.061794205160041665,0.14012542011672016,0.3340105952904881,-0.10523814687526487
1771,7.441674999950919,0.03914616485966054,-0.07682371265588867,0.03253659116912369,0.014503143974617867,-0.030973716174485275,0.011703255803605426,-0.011612746677158675,0.024638870890763193,-0.062236016983292175,0.14040214341434196,0.3354032982177555,-0.1043437311652848
1772,7.4452340999851,0.03914616485966054,-0.07682371265588867,0.03253659116912369,0.01445542370263701,-0.030866827651522617,0.011439899137374929,-0.011020085604508248,0.026056049985344568,-0.06267405302379143,0.14066161428590906,0.33676462903546545,-0.10344696101938182
1773,7.449507199984509,0.039255389127641385,-0.07709159233293264,0.0325950740182105,0.014410205278610528,-0.030753951118841497,0.011174703557328696,-0.010426367679102499,0.027478900631557224,-0.06310830341665767,0.1409037361865461,0.3380942545779895,-0.10254785341541008
1774,7.453134299954399,0.039255389127641385,-0.07709159233293264,0.0325950740182105,0.014367493005096203,-0.030635062954657333,0.010907685039799164,-0.009831666311440493,0.02890728851577087,-0.0635387583661642,0.14112841316710065,0.3393918436479709,-0.1016464243948638
1775,7.457576599961612,0.03933123697921999,-0.07716717001347075,0.03265811893502803,0.014327290873843995,-0.030510140106326664,0.01063885960233591,-0.009236055314788482,0.030341077934205145,-0.06396540814184523,0.14133554992000785,0.34065706709218,-0.10074268908521881
1776,7.46226519998163,0.039522982131456316,-0.07736563987135765,0.03277851640630846,0.014289602564099007,-0.03037916009618576,0.010368243303447369,-0.00863960890230266,0.031780131801625644,-0.06438824307469743,0.1415250518257604,0.3418895978777778,-0.09983666172282557
1777,7.467292799963616,0.039632158132484635,-0.07745205848404982,0.032804272756357916,0.014254431440917373,-0.030242101027352395,0.010095852242358096,-0.008042401683954967,0.03322431166036039,-0.06480725355347967,0.141696824999967,0.34308911116897406,-0.098928355676342
1778,7.470910099975299,0.03971204087642521,-0.07749638808276622,0.03286448750427062,0.014221780553495865,-0.03009894158948938,0.009821702558781103,-0.0074445086632595695,0.03467347768963854,-0.06522243002111293,0.14185077634098206,0.34425528440406333,-0.0980177834706949
1779,7.474639599968214,0.03971204087642521,-0.07749638808276622,0.03286448750427062,0.014191652633516183,-0.029949661064528458,0.009545810432704796,-0.006846005233797803,0.03612748871525308,-0.0656337629711824,0.14198681357808873,0.34538779737282327,-0.0971049568115571
1780,7.478893499996047,0.03988552912996596,-0.07755143459738642,0.03292939841069787,0.014164050093504785,-0.02979423933235316,0.009268192084194066,-0.0062469671755393886,0.0375862022195491,-0.0660412429445438,0.1421048453202173,0.3464863322942586,-0.09618988661032865
1781,7.483083099999931,0.03995329092159929,-0.07757490176640812,0.032959209327831446,0.014138975025209192,-0.02963265687643915,0.008988863773205106,-0.0056474706509578336,0.03904947435173904,-0.0664448605260358,0.14220478110518,0.3475505738946719,-0.09527258300960918
1782,7.487234999949578,0.0400452116479828,-0.07761462571281733,0.032982477574280106,0.014116429197991633,-0.029464894789450535,0.008707841799413465,-0.005047592200938014,0.040517159938546286,-0.06684460634130031,0.1422865314494032,0.348580209486042,-0.09435305540914878
1783,7.491605199989863,0.04012965616448209,-0.07762966933108287,0.03299403935049908,0.01409641405724089,-0.029290934778790627,0.008425142502054873,-0.004447408740473987,0.04198911249517829,-0.06724047105371297,0.1423500078981375,0.3495749290446923,-0.09343131249226372
1784,7.496113099972717,0.04021963828953795,-0.07762362674748811,0.03302634331184068,0.014078930722803302,-0.029110759172105823,0.008140782259778365,-0.0038469975541551545,0.04346518423663054,-0.06763244536142615,0.14239512307612562,0.35053442529023104,-0.09250736225270348
1785,7.499725799949374,0.040383969472358144,-0.07766807403707734,0.03304403989208263,0.014063979987433842,-0.02892435092274111,0.007854777490511241,-0.003246436291439001,0.044945226089322714,-0.06802051999452603,0.14242179073870814,0.35145839376474686,-0.091581212021955
1786,7.503498399979435,0.040383969472358144,-0.07766807403707734,0.03304403989208263,0.014051562315268171,-0.02873169361514591,0.0075671446513353065,-0.0026458029617086876,0.04642908770306802,-0.06840468571230617,0.14242992582334715,0.35234653291224055,-0.09065286849696984
1787,7.5080812999513,0.04051804973861917,-0.07768309244614387,0.03317575049566553,0.01404167784031648,-0.02853277147022871,0.0072779002383739,-0.002045175929113875,0.047916617463376554,-0.06878493330065921,0.14241944450154667,0.3531985441582749,-0.08972233776830006
1788,7.512564999982715,0.040577271615520175,-0.0777618025336213,0.033231930518062266,0.014034326364980096,-0.028327569350659016,0.006987060786689238,-0.001444633907193266,0.04940766250409352,-0.06916125356958831,0.14239026423114912,0.3540141319898229,-0.08878962534862832
1789,7.520588699961081,0.040702228267104804,-0.07780780563451184,0.03347420605394443,0.01402950735859187,-0.028116072766115215,0.00669464287018956,-0.0008442559532774155,0.050902068720373374,-0.06953363735083931,0.14234230380898727,0.3547930040352942,-0.08785473620167691
1790,7.526581799960695,0.0407389346968945,-0.07781920904979595,0.03357733866292925,0.01402721995598138,-0.02789826787847694,0.006400663101545563,-0.0002441214626704358,0.05239968078199053,-0.06990207549565552,0.14227548342387117,0.35553487114472027,-0.08691767477148145
1791,7.530871799972374,0.040806992895107995,-0.07798976760484415,0.03364928882549909,0.014027462956065865,-0.027674141506960445,0.006105138132115616,0.0003556898373906841,0.05390034214698755,-0.07026655887265644,0.14218972470988805,0.3562394474700777,-0.08597844501201407
1792,7.535355599946342,0.04087457124184172,-0.07804243340146269,0.03372158714856245,0.014030234820467776,-0.02744368113319553,0.005808084651879289,0.0009550978940003339,0.05540389507566124,-0.07062707836584195,0.14208495079999475,0.356906450545728,-0.08503705041714074
1793,7.539047699945513,0.04095238282957549,-0.07813223988053836,0.03381567108037974,0.014035533672159883,-0.02720687490624263,0.005509519389378664,0.0015540223350732115,0.056910180644887384,-0.07098362487272351,0.14196108637988103,0.35753560136895385,-0.08409349405089717
1794,7.543280499987304,0.04105931898827095,-0.07824056606195935,0.03386437799313673,0.014043357294138843,-0.026963711647548714,0.005209459111666903,0.0021523824760589414,0.05841903876278424,-0.07133618930258345,0.14181805774208162,0.35812662448057087,-0.08314777857806757
1795,7.547484299982898,0.04116374448573367,-0.07830828273697397,0.03391727459367222,0.014053703128128259,-0.026714180855840385,0.004907920624263532,0.0027500973268832977,0.0599303081837155,-0.07168476257486335,0.14165579284031374,0.3586792480455956,-0.08219990629505002
1796,7.551757199980784,0.04126746541440312,-0.07838533084823636,0.033976163656574354,0.014066568273312168,-0.026458272711952793,0.004604920771115863,0.0033470855991168578,0.06144382652363292,-0.0720293356176829,0.14147422134401685,0.3591932039339469,-0.08124987916099186
1797,7.555924399988726,0.0413877271648946,-0.0784949409323451,0.034004521699629725,0.014081949485099905,-0.026195978083592853,0.004300476434566011,0.003943265713371817,0.06295943027575865,-0.07236989936648978,0.14127327469307152,0.35966822780115926,-0.08029769882917887
1798,7.560167999996338,0.0415197148362493,-0.07856018517743096,0.03403281866651123,0.014099843173923286,-0.025927288530035307,0.003994604535322936,0.004538555806927597,0.06447695482660769,-0.07270644476284144,0.14105288615267395,0.36010405916908433,-0.07934336667866121
1799,7.564417399989907,0.04166666983056845,-0.07863600332293244,0.03409178196544868,0.014120245404067056,-0.025652196306750332,0.003687322032438941,0.005132873741585789,0.0659962344723502,-0.0730389627533199,0.14081299086834245,0.3605004415065578,-0.07838688384609915
1800,7.568328799970914,0.041795965897395294,-0.07872025605829278,0.03412391987322751,0.014143151892533566,-0.025370694369961363,0.003378645923290026,0.0057261371117548615,0.06751710243551386,-0.07336744428858029,0.14055352592103185,0.36085712231001005,-0.07742825125781182
1801,7.572351099981461,0.041892266714941645,-0.07878163599803861,0.03417709840815058,0.014168558007942743,-0.02508277638113168,0.0030685932435595264,0.0063182632527650105,0.0690393908820257,-0.07369188032253368,0.140274430382332,0.3611738531839978,-0.07646746966201198
1802,7.576972999959253,0.0421125380080859,-0.07879744613393948,0.03433405781024441,0.014196458769468269,-0.02478843671137831,0.002757181067224473,0.006909169249413373,0.07056293093859359,-0.07401226181166536,0.13997564536972656,0.36145038992163203,-0.07550453966120986
1803,7.580878999957349,0.042193814086493274,-0.07884145289775316,0.03440384942295431,0.01422684884581089,-0.024487670445811818,0.0024444265065441066,0.007498771944739784,0.07208755271042683,-0.0743285797144889,0.1396571141018876,0.3616864925848771,-0.0745394617447685
1804,7.59090109996032,0.04249253224248215,-0.07892478616635787,0.03469083701472769,0.014259722554209918,-0.024180473387800515,0.0021303467120499906,0.00808698794903315,0.07361308529929532,-0.07464082499113689,0.13931878195398173,0.3618819255846977,-0.07357223632159324
1805,7.5952849999885075,0.04262173100340179,-0.07897891872979255,0.03484305025885119,0.014295073859493794,-0.02386684206315783,0.0018149588725371569,0.008673733649068401,0.07513935682192717,-0.07494898860308824,0.13896059651296325,0.36203645776102794,-0.07260286375293766
1806,7.598997199966107,0.04262173100340179,-0.07897891872979255,0.03484305025885119,0.014332896373170657,-0.023546773724251333,0.0014982802150557025,0.009258925217573903,0.07666619442874421,-0.0752530615130328,0.13858250763282937,0.3621498624625409,-0.07163134438530884
1807,7.604285699955653,0.04302634369508756,-0.07896721213137395,0.03509032271177771,0.014373183352559816,-0.02322026635403197,0.0011803280049022572,0.009842478622929083,0.07819342432293479,-0.07555303468487341,0.1381844674898129,0.36222191762619255,-0.07065767858345404
1808,7.608334699994884,0.04313885373809044,-0.07899643949975191,0.03516739401444923,0.014415927699965147,-0.022887318669982063,0.0008611195456107457,0.01042430963909201,0.0797208717798628,-0.07584889908386556,0.13776643063748725,0.36225240585651775,-0.06968186676341125
1809,7.612458099960349,0.04322898924699995,-0.07901862936325307,0.03524635417081914,0.014461121961891355,-0.02254793012798056,0.0005406721789418727,0.011004333855756485,0.08124836116681228,-0.07614064567689534,0.13732835406175867,0.36224111450465174,-0.0687039094256061
1810,7.616702199971769,0.043306615323840995,-0.07900784856206944,0.035309414612655854,0.01450875832830403,-0.0222021009260842,0.0002190032848707537,0.011582466688738123,0.08277571596306635,-0.07642826543289569,0.13687019723571978,0.3621878357470517,-0.06772380718797677
1811,7.620428099995479,0.043306615323840995,-0.07900784856206944,0.035309414612655854,0.014558828631934395,-0.021849832008223165,-0.00010386971842788176,0.012158623390588699,0.0843027587803194,-0.07671174932340105,0.13639192217433946,0.36209236666389405,-0.0667415608191092
1812,7.624607099976856,0.04350349608840072,-0.07904759071196718,0.03548611897904706,0.014611324347629682,-0.02149112506780995,-0.00042792937459749155,0.012732719061437981,0.0858293113834214,-0.0769910883232405,0.13589349348896348,0.3619545093171217,-0.0657571712713647
1813,7.628813299990725,0.04358734699561036,-0.07905377451789426,0.03554448146567626,0.014666236591750032,-0.021125982551260095,-0.0007531581891210959,0.013304668660062267,0.08735519471145292,-0.07726627341136968,0.13537487844159918,0.36177407082811625,-0.06477063971398171
1814,7.632982299954165,0.04367205688277036,-0.07906948636765898,0.03560203376065246,0.01472355612161293,-0.020754407661423464,-0.0010795386293467966,0.013874387015178643,0.08888022889912976,-0.07753729557184111,0.1348360469989584,0.3615508634549677,-0.06378196756613394
1815,7.637465799984056,0.04377602681290323,-0.07911105627531254,0.0356702137389835,0.014783273334986163,-0.020376404360924767,-0.00140705312451801,0.014441788836963919,0.09040423329853552,-0.07780414579491259,0.13427697188623258,0.3612847046693169,-0.06279115652992656
1816,7.640917799959425,0.04377602681290323,-0.07911105627531254,0.0356702137389835,0.014845378269630252,-0.01999197737541192,-0.0017356840658089812,0.015006788728797012,0.09192702650118048,-0.07806681507829367,0.13369762864057477,0.3609754172327426,-0.06179820862331291
1817,7.645479299942963,0.04391962351147753,-0.07920688732233527,0.03584931851592263,0.014909860602891241,-0.019601132196710825,-0.0020654138063661434,0.015569301199223538,0.09344842636038517,-0.07832529442852994,0.13309799566426292,0.36062282927266825,-0.06080312621291352
1818,7.650209899991751,0.04401013971937829,-0.07927099492484065,0.035910837261923775,0.01497670965134475,-0.01920387508588524,-0.002396224661355883,0.01612924067414119,0.09496825001398672,-0.07857957486252498,0.13247805427751919,0.36022677435776285,-0.05980591204671985
1819,7.65429369994672,0.04407758434498749,-0.0793373337514614,0.03599080196654893,0.015045914370492188,-0.01880021307620044,-0.0027280989080192613,0.01668652150920445,0.09648631390736617,-0.0788296474091999,0.13183778877095864,0.35978709157280925,-0.05880656928666506
1820,7.658394399972167,0.044113420799227476,-0.07938734799996622,0.03605217997603096,0.01511746335450999,-0.018390153975989258,-0.0030610187857342454,0.017241058002447015,0.09800243381679437,-0.0790755031112894,0.1311771864576413,0.35930362559301354,-0.057805101541044096
1821,7.661888899980113,0.044113420799227476,-0.07938734799996622,0.03605217997603096,0.015191344836052861,-0.017973706371419148,-0.003394966496085997,0.0177927644071203,0.09951642487309413,-0.0793171330272736,0.13049623772470156,0.35877622675772963,-0.05680151289676548
1822,7.666687099961564,0.044219788644612144,-0.07955956048687317,0.03619800258619898,0.015267546686111827,-0.017550879629158914,-0.0037299242029457716,0.018341554944746048,0.10102810158561638,-0.0795545282334447,0.12979493608452972,0.35820475114357186,-0.05579580795141709
1823,7.670554599957541,0.04425659525760706,-0.07961375666236582,0.03630520822036874,0.015346056413928071,-0.01712168389894376,-0.004065874032558961,0.01888734381838114,0.10253727786652754,-0.07978767982610792,0.1290732782254789,0.35758906063688944,-0.0547879918451284
1824,7.674091599998064,0.04425659525760706,-0.07961375666236582,0.03630520822036874,0.015426861166963445,-0.016686130116037437,-0.004402798073642806,0.01943004522609243,0.10404376705540527,-0.0800165789239155,0.12833126406207135,0.3569290230055768,-0.05377807029221167
1825,7.679008699953556,0.04424079506841302,-0.0797525035075909,0.03648470113691363,0.015509947730928512,-0.016244230003590307,-0.0047406783774943066,0.019969573374639574,0.10554738194413955,-0.0802412166703325,0.12756889678467787,0.35622451197019445,-0.052766049612564606
1826,7.683238699974026,0.04426665995670298,-0.07979900569380807,0.03657156997597319,0.015595302529868967,-0.015795996074891974,-0.005079496958108879,0.02050584249336357,0.10704793480213588,-0.08046158423623342,0.12678618290864543,0.3554754072743753,-0.05175193676281721
1827,7.687515199999325,0.0442836884947264,-0.07986700301699512,0.03664354459183414,0.01568291162631134,-0.015341441635517192,-0.005419235792310286,0.02103876684827859,0.10854523740181828,-0.08067767282262857,0.1259831323228479,0.35468159475448807,-0.0507357393672055
1828,7.692038599983789,0.044320090396072806,-0.07993214683238731,0.0367083263106442,0.01577276072146877,-0.014880580785363777,-0.0057598768198923915,0.02156826075636463,0.11003910104442878,-0.0808894736635189,0.12515975833763468,0.353842966408531,-0.04971746574815499
1829,7.695869799994398,0.04432425627100655,-0.07996326899294831,0.03675979243359449,0.01586483515550759,-0.014413428420581348,-0.006101401943773272,0.022094238600058304,0.11152933658612038,-0.0810969780288783,0.12431607773215113,0.35295942046422835,-0.048697124956556856
1830,7.700020999996923,0.04432976615560423,-0.08002707753143756,0.03678996326740731,0.0159591199078756,-0.013940000235389721,-0.006443793030162196,0.022616614841939116,0.11301575446434019,-0.08130017722776157,0.12345211080100595,0.35203086144630025,-0.04767472680171972
1831,7.703569199948106,0.04432976615560423,-0.08002707753143756,0.03678996326740731,0.01605559959769276,-0.013460312723785754,-0.006787031908739976,0.023135304039608375,0.11449816472449903,-0.08149906261153682,0.12256788140025922,0.3510572002428814,-0.04665028188098053
1832,7.707936499966308,0.04438002809468195,-0.0801326176090414,0.036830445397529145,0.01615425848420509,-0.012974383181137434,-0.007131100372853184,0.02365022086075781,0.11597637704692379,-0.08169362557724127,0.12166341699270625,0.35003835417106094,-0.04562380160895789
1833,7.71220699994592,0.04439159346292495,-0.08016010103976047,0.03684072897651382,0.016255080467302396,-0.01248222970566402,-0.007475980179722691,0.024161280098424956,0.11745020077408802,-0.08188385757105937,0.12073874869243154,0.3489742470415161,-0.04459529824643134
1834,7.716649399953894,0.044394058218813794,-0.08022717768209126,0.03685603617075626,0.01635804908810048,-0.011983871199801084,-0.007821653050667048,0.02466839668643233,0.11891944493811656,-0.0820697500919215,0.11979391130860774,0.3478648092222116,-0.04356478492883044
1835,7.720696299977135,0.04438607933360847,-0.08026339791306977,0.03687913134888547,0.016463147529588457,-0.011479327371449355,-0.008168100671341152,0.02517148571500719,0.12038391828856002,-0.0822512946952217,0.11882894338851435,0.34670997770113765,-0.04253227569431754
1836,7.724257399968337,0.04438607933360847,-0.08026339791306977,0.03687913134888547,0.016570358617341754,-0.010968618735106244,-0.008515304691990704,0.02567046244657877,0.12184342932043431,-0.0824284829966526,0.11784388725975124,0.34550969614805993,-0.04149778551144848
1837,7.728674099955242,0.04435217363101271,-0.08039120875644185,0.036912941562948484,0.01667966482030153,-0.010451766612878968,-0.00886324672772288,0.026165242331749664,0.12329778630252021,-0.08260130667615546,0.11683878907162212,0.34426391497525344,-0.04046133030639526
1838,7.732966599985957,0.04433042661492799,-0.0804090456065515,0.03694046904431553,0.016791048251621192,-0.009928793135378172,-0.009211908358793713,0.026655741025437763,0.12474679730591805,-0.08276975748198381,0.115813698835663,0.3429725913971932,-0.039422926989715154
1839,7.737208499980625,0.04430247925704594,-0.08048017112641785,0.03695296681136637,0.016904490669580795,-0.009399721242491043,-0.009561271130912588,0.02714187440318509,0.1261902702328528,-0.08293382723487897,0.11476867046529017,0.3416356894891753,-0.038382593482650856
1840,7.741766699997242,0.04429266028560435,-0.08054607273053978,0.03696529325713882,0.01701997347856982,-0.008864574684032771,-0.009911316555564327,0.027623558577630023,0.1276280128457252,-0.08309350783235545,0.11370376181454377,0.3402531802448418,-0.0373403487429466
1841,7.745614799961913,0.044259419652234865,-0.08058620605799945,0.03696738957077962,0.017137477730139076,-0.008323378020275366,-0.010262026110349261,0.028100709915138994,0.1290598327964037,-0.08324879125309424,0.11261903471590322,0.3388250416325829,-0.03629621279016539
1842,7.749128299998119,0.044259419652234865,-0.08058620605799945,0.03696738957077962,0.01725698412412237,-0.007776156622352785,-0.010613381239341774,0.02857324505259373,0.13048553765575313,-0.08339966956144203,0.11151455501715057,0.33735125865078774,-0.0352502067304927
1843,7.753364299947862,0.044204831110835306,-0.0806913433032814,0.03692310087216066,0.01737847300982862,-0.0072229366725414315,-0.010965363353467724,0.02904108091432994,0.13190493494339414,-0.08354613491201399,0.11039039261725841,0.3358318233819173,-0.034202352781012246
1844,7.758275799977127,0.04417512180077506,-0.08073162147647998,0.036887606070063805,0.017501924387304975,-0.006663745164415036,-0.011317953830901199,0.029504134729223166,0.13331783215768897,-0.08368817955439843,0.10924662150127895,0.3342667350453728,-0.033152674293439655
1845,7.762481499987189,0.04415766790459222,-0.08078298554757285,0.03683004065179893,0.017627317908671638,-0.006098609902872946,-0.011671134017480968,0.029962324047917377,0.1347240368059483,-0.08382579583796114,0.10808331977421086,0.3326560000491322,-0.03210119577729989
1846,7.765990099986084,0.04415766790459222,-0.08078298554757285,0.03683004065179893,0.017754632879528914,-0.005527559504040868,-0.012024885227146983,0.030415566760192116,0.13612335643485432,-0.08395897621674717,0.10690056969382053,0.33099963204012806,-0.031047942922534676
1847,7.770503399951849,0.04398885798620907,-0.08087593506658879,0.03663734450250166,0.017883848260437017,-0.00495062339504318,-0.012379188742397294,0.03086378111246367,0.13751559866109467,-0.08408771325447792,0.10569845770239517,0.32929765195333977,-0.029992942621526367
1848,7.775122399965767,0.04394935509495032,-0.08091929602828726,0.03656328083571978,0.018014942668469185,-0.004367831813645955,-0.012734025814765746,0.031306885725415845,0.13890057120220148,-0.08421199962964103,0.1044770744574052,0.3275500880595751,-0.028936222990525066
1849,7.779153499985114,0.043879360598339384,-0.0809611137245668,0.03648004818012161,0.018147894378838764,-0.003779215807769824,-0.013089377665320779,0.03174479961175573,0.14027808190759042,-0.08433182814067008,0.10323651486105351,0.3257569760119171,-0.027877813390466126
1850,7.783073599974159,0.043827852082586674,-0.08101869015121162,0.03640807092457411,0.018282681326600752,-0.003184807234871864,-0.013445225485185725,0.03217744219408979,0.14164793878979445,-0.08444719171121169,0.10197687808868956,0.3239183588908105,-0.026817744447165316
1851,7.786526799958665,0.043827852082586674,-0.08101869015121162,0.03640807092457411,0.018419281108428307,-0.0025846387611957325,-0.0138015504360809,0.032604733322915705,0.14300995005588685,-0.08455808339547723,0.10069826761606679,0.3220342872477624,-0.025756048070879573
1852,7.790258899971377,0.043758397524018555,-0.08108800996043787,0.03634084184860176,0.01855767098446467,-0.001978743860889284,-0.014158333650887726,0.033026593294724904,0.14436392413908866,-0.08466449638367649,0.09940079124542164,0.32010481914763256,-0.024692757475221396
1853,7.795394199958537,0.04344283122738476,-0.08124843875865845,0.03608085837615417,0.01869782788025106,-0.0013671568149889377,-0.014515556234235257,0.033442942870211094,0.1457096697305553,-0.08476642400753073,0.09808456113035321,0.31813002020948683,-0.02362790719541519
1854,7.79890129994601,0.04344283122738476,-0.08124843875865845,0.03608085837615417,0.0188397283887308,-0.0007499127102700548,-0.01487319926310942,0.03385370329257979,0.14704699581133618,-0.08486385974586227,0.09674969379948224,0.3161099636459877,-0.022561533105884168
1855,7.804158699989784,0.04326273489458799,-0.08146630153049797,0.03595136781344978,0.018983348772330145,-0.00012704743796264624,-0.01523124378748533,0.034258796305953666,0.1483757116845015,-0.08495679723025792,0.09539631017886947,0.3140447303012957,-0.021493672437156757
1856,7.808235199947376,0.043190208057674116,-0.08160758683742118,0.03594090032853153,0.019128664965116157,0.0005014023076682659,-0.015589670830983051,0.0346581441738684,0.14969562700742906,-0.08504523025080377,0.0940245356131733,0.3119344086874574,-0.02042436379208179
1857,7.812291999987792,0.043110216360134915,-0.08174253832163722,0.035857260063099354,0.019275652575032012,0.0011353990308782716,-0.015948461391546986,0.03505166969785387,0.15100655182424402,-0.08512915276188818,0.09263449988552698,0.3097790950192561,-0.019353647161342174
1858,7.816424499964341,0.0429191715784803,-0.08198723890582983,0.03573206736577067,0.019424286886209924,0.001774904436135791,-0.0163075964421491,0.03543929623609516,0.15230829659840542,-0.08520855888807025,0.09122633723611594,0.3075788932474986,-0.018281563938257063
1859,7.821009999956004,0.04287629519946069,-0.0822053815287454,0.035638068453917066,0.019574542861362166,0.002419879429951474,-0.01666705693151637,0.03582094772216791,0.15360067224543225,-0.08528344293001064,0.08980018637943604,0.30533391509071556,-0.01720815693286283
1860,7.824839499953669,0.04281282116256464,-0.08237054786397649,0.03554022564315666,0.019726395144250525,0.0030702841228453306,-0.017026823784882784,0.036196548683842575,0.15488349016576267,-0.08535379937046185,0.0883561905202145,0.30304428006525175,-0.016133470385263575
1861,7.828933599987067,0.04273322493297321,-0.08248410011983905,0.03545021198350286,0.019879818062234537,0.0037260778314521254,-0.01738687790476604,0.03656602426195193,0.1561565622777394,-0.08541962288031486,0.08689449736797497,0.30071011551372373,-0.015057549978242336
1862,7.833519299980253,0.04265216491133066,-0.08259909520822627,0.035353864348594964,0.02003478562889875,0.004387219080765529,-0.017747200171769176,0.03692930022931634,0.1574197010507157,-0.0854809083246994,0.08541525915022949,0.29833155663182137,-0.013980442849124504
1863,7.837236799998209,0.04257585551985098,-0.08272439977428706,0.03524734840980649,0.020191271546759263,0.005053665606521503,-0.018107771445407293,0.03728630300972106,0.15867271953827342,-0.08553765076913465,0.08391863262428002,0.2959087464934317,-0.01290219760088518
1864,7.845769399951678,0.04239569501488643,-0.08297492187970348,0.035085343861964574,0.02034924921004978,0.00572537435772138,-0.018468572564959547,0.03763695969693972,0.1599154314115459,-0.08558984548572793,0.08240477908761273,0.2934418360740639,-0.011822864312492633
1865,7.849876199965365,0.04227758245907307,-0.0831098937326015,0.034965078924447945,0.020508691707587224,0.0064023014992950576,-0.01882958435034669,0.037981198073798524,0.1611476509926382,-0.0856374879594178,0.08087386438686849,0.29093098427255293,-0.010742494548480473
1866,7.854466999997385,0.04219991562585985,-0.08322977890901899,0.034864954245556384,0.020669571825717128,0.007084402414904695,-0.01919078760303439,0.03831894663127502,0.162369193288137,-0.08568057389425843,0.07932605892537421,0.28837635793101934,-0.009661141367741495
1867,7.858129399945028,0.04222504088841686,-0.08342299862595226,0.03475960242504991,0.020831862051338877,0.007771631709889317,-0.019552163106962582,0.03865013458762546,0.16357987402270308,-0.08571909921974179,0.07776153766921982,0.2857781318530624,-0.008578859331536468
1868,7.862371699942741,0.04216203477205909,-0.08355943527233575,0.03467464166149088,0.020995534575010997,0.008463943214350666,-0.019913691629501046,0.03897469190753463,0.16477950967273863,-0.08575306009715418,0.07618048015186485,0.28313648882016634,-0.0074957045107116255
1869,7.865764299989678,0.04216203477205909,-0.08355943527233575,0.03467464166149088,0.021160561294136557,0.00916128998638065,-0.020275353922431346,0.03929254932128197,0.165967917500123,-0.08578245292596387,0.07458307047726033,0.28045161960630055,-0.006411734492118971
1870,7.870024699950591,0.04192836791805109,-0.08381321240734678,0.034427573660527774,0.021326913816228796,0.009863624315430648,-0.020637130722955272,0.039603638343917814,0.1671449155860084,-0.08580727435023652,0.07296949732147147,0.27772372299069387,-0.005327008384233886
1871,7.874398699961603,0.041865625937183626,-0.08393994343909214,0.034305723111906494,0.021494563462256987,0.010570897725822849,-0.020999002754729892,0.03990789129444358,0.16831032286466818,-0.0858275212650755,0.07133995393278765,0.2749530057687653,-0.004241586821964945
1872,7.878540299949236,0.041764557387623545,-0.08405171443147802,0.03421892145701102,0.02166348127007249,0.01128306098040382,-0.021360950728929292,0.04020524131498964,0.1694639591573882,-0.08584319082308377,0.06969463813030681,0.27213968276119277,-0.003155531970651205
1873,7.883414699987043,0.04160690724735216,-0.0841769664025084,0.03405400852548994,0.021833637997915004,0.012000064084340524,-0.02172295534533304,0.04049562238998454,0.17060564520639376,-0.08585428044084432,0.06803375230098135,0.26928397682110283,-0.002068907529242662
1874,7.887476599949878,0.04152955944764247,-0.0842973783595325,0.0339451763026737,0.022005004127998957,0.012721856289058938,-0.022084997293441513,0.04077896936530907,0.17173520270880338,-0.08586078780541499,0.0663575033951139,0.2663861188393642,-0.0009817787326599655
1875,7.891542099998333,0.04141687969182187,-0.08441516396671422,0.033806368446532,0.022177549870179968,0.013448386096325357,-0.0224470572536181,0.04105521796742874,0.1728524543506016,-0.08586271088083391,0.06466610292029157,0.26344634774796954,0.00010578764667012939
1876,7.895793199946638,0.0413438969093512,-0.084512625435717,0.033701007120007426,0.022351245165701274,0.01417960126247043,-0.0228091158982584,0.04132430482249798,0.1739572238406221,-0.08586004791463162,0.06295976693374797,0.26046491052148996,0.0011937232981066844
1877,7.899839099962264,0.04117813994078807,-0.08464460524584694,0.03350306803602122,0.02252605969102001,0.014915448802756064,-0.023171153892986393,0.04158616747542991,0.1750493359445329,-0.08585279744434604,0.06123871603314238,0.25744206217658583,0.002281958372916581
1878,7.903804299945477,0.04117813994078807,-0.08464460524584694,0.03350306803602122,0.022701962861713092,0.01565587499588518,-0.023533151897877778,0.04184074440892512,0.17612861651881423,-0.08584095830403683,0.059503175345746104,0.25437806576955874,0.0033704214852289032
1879,7.908559299947228,0.041024191902867456,-0.08490163287939428,0.03323949358990401,0.02287892383646255,0.016400825388654342,-0.023895090568710524,0.04208797506245312,0.17719489254472115,-0.08582452963079537,0.0577533745160264,0.25127319239192764,0.004459039713823588
1880,7.912416899984237,0.04098337239605453,-0.08504775176027045,0.033100778104818616,0.023056911521120018,0.017150244800749167,-0.02425695055824266,0.04232779985117985,0.17824799216222284,-0.0858035108712471,0.05598954769161949,0.24812772116401458,0.005547738604755801
1881,7.9168046999839135,0.040995389571385675,-0.08515541610710461,0.03296643900745064,0.023235894572850226,0.017904077329682362,-0.024618712517517273,0.04256016018483453,0.1792877447039104,-0.08577790178804263,0.054211933507684294,0.24494193922652735,0.0066364421748171
1882,7.9209320999798365,0.04100057644121951,-0.08530500428654729,0.03284926184287053,0.023415841404353255,0.01866226635587426,-0.02498035709719465,0.042784998486509254,0.18031398072886523,-0.08574770246633431,0.05242077506962928,0.24171614173012462,0.007725072915834023
1883,7.9256707999738865,0.041001775571129405,-0.08538457497010632,0.03271835194309201,0.02359672018816528,0.019424754547875737,-0.025341864948911573,0.043002258211384585,0.18132653205647917,-0.08571291332023477,0.050616319934205484,0.23845063182295115,0.008813551799804342
1884,7.929310699983034,0.0410201721191553,-0.08551792151711135,0.03259709634040677,0.02377849886103749,0.020191483867733236,-0.02570321672666769,0.04321188386537442,0.18232523180021698,-0.08567353509925389,0.048798820088959576,0.2351457206361316,0.009901798284870825
1885,7.933375199965667,0.04100328926837487,-0.08562193972572928,0.03247990417242927,0.023961145128392845,0.02096239557649561,-0.026064393088238866,0.043413821023683144,0.18330991440131222,-0.08562956889471107,0.04696853193004131,0.23180172726720966,0.010989730322131913
1886,7.937949399987701,0.04098765336454695,-0.08564854354990863,0.03230924412543055,0.024144626468860415,0.021737430239862403,-0.026425374696617498,0.04360801634926841,0.18428041566238784,-0.0855810161461193,0.04512571623836055,0.2284189787615215,0.0120772643632884
1887,7.941506999952253,0.04095027032059845,-0.08568790128050126,0.03219208919402764,0.024328910138887057,0.022516527733973227,-0.026786142221479552,0.043794417611202764,0.18523657278099254,-0.08552787864753748,0.04327063815408909,0.22499781009149292,0.013164315369124715
1888,7.945002999971621,0.04095027032059845,-0.08568790128050126,0.03219208919402764,0.024513963177426098,0.023299627251337846,-0.027146676340678143,0.043972973702927264,0.186178224383044,-0.08547015855388719,0.041403567149503225,0.22153856413385004,0.014250796818823002
1889,7.950011899985839,0.04084212012518739,-0.08573463411295915,0.03195317103621553,0.02469975241070245,0.02408666730690651,-0.027506957741763382,0.044143634660389904,0.18710521055616974,-0.08540785838722965,0.03952477700016382,0.21804159164473633,0.015336620720107835
1890,7.95385189994704,0.04079434950535499,-0.08572329624985284,0.031866553209386486,0.024886244457053654,0.02487758574428017,-0.027866967123528357,0.04430635168006202,0.1880173728829373,-0.08534098104299988,0.03763454575443125,0.21450725123272837,0.016421697620218903
1891,7.958537599944975,0.040748242821919314,-0.08578097759808166,0.031786669057766836,0.025073405731846243,0.025672319742060207,-0.028226685197581078,0.04446107713682566,0.18891455447396405,-0.08526952979619402,0.03573315570131332,0.21093590932974368,0.017505936617708658
1892,7.962491099955514,0.04070355629766829,-0.08580887549693995,0.031714221940277426,0.02526120245246685,0.026470805820337187,-0.028586092689942295,0.04460776460172486,0.1897966000008985,-0.08519350830750683,0.0338208933366448,0.2073279401598344,0.01858924537506144
1893,7.966039099963382,0.04070355629766829,-0.08580887549693995,0.031714221940277426,0.025449600643387405,0.027272979847318145,-0.02894517034266899,0.04474636885957396,0.1906633557292635,-0.08511292062941517,0.03189804932759801,0.20368372570586124,0.01967153013213013
1894,7.970153599977493,0.04060157548305021,-0.08583375734766552,0.03160072487457534,0.025638566141303873,0.028078777046091807,-0.0293038989155035,0.04487684592641584,0.19151466955115232,-0.08502777121220416,0.029964918475524155,0.20000365567404196,0.020752695720386013
1895,7.974354699952528,0.04059651652559723,-0.0859034955624277,0.03156781851102152,0.025828064600347936,0.028888132001531133,-0.029662259187548005,0.04499915306682317,0.1923503910177702,-0.08493806490993187,0.028021799677126143,0.19628812745636937,0.02183264557797737
1896,7.978789199958555,0.04054036156514363,-0.08590390618410525,0.0315066807726129,0.02601806149737094,0.02970097866733256,-0.030020231958964205,0.04511324881103572,0.19317037137181267,-0.08484380698632923,0.02606899588396404,0.1925375460908933,0.02291128176559168
1897,7.982907399942633,0.040563792705408795,-0.085940411413632,0.03146441447144343,0.026208522137299305,0.03051725037319131,-0.030377798052698017,0.045219092971926646,0.19397446357967157,-0.0847450031206314,0.024106814060294933,0.1887523242198636,0.023988504983116225
1898,7.986679399968125,0.04056142082474325,-0.08599884062847339,0.03142180744604035,0.026399411658560704,0.0313368798321121,-0.030734938316229005,0.045316646661791166,0.19476252236345987,-0.08464165941333723,0.02213556513924999,0.1849328820457303,0.0250642145870913
1899,7.991417199955322,0.04054972573795161,-0.08599974707921293,0.03139170560383255,0.026590695038580317,0.03215979914785441,-0.031091633623344255,0.045405872308950344,0.19553440423284565,-0.08453378239189378,0.020155563977351885,0.1810796472849989,0.026138308608949983
1900,7.995977999991737,0.04054041152759427,-0.0860016163513641,0.031356606286284824,0.026782337099346288,0.032985939822511544,-0.031447864875936364,0.045486733674163185,0.19628996751668615,-0.08442137901630256,0.018167129307376757,0.17719305511993982,0.027210683774037837
1901,7.999828699976206,0.040542852757694245,-0.0860443067768877,0.03132868144494513,0.026974302513043606,0.033815232764222505,-0.03180361300582516,0.04555919586684033,0.19702907239445264,-0.08430445668464437,0.016170583689565206,0.17327354814815224,0.02828123552140557
1902,8.00399059994379,0.040523126926975156,-0.08604634927599569,0.03129614151312844,0.027166555807755538,0.03464760829501599,-0.03215885897660299,0.04562322536105257,0.1977515809274387,-0.08418302323851927,0.01416625346118761,0.16932157632998154,0.029349858024367268
1903,8.010398899961729,0.04049031144374866,-0.08602666576298157,0.03128875958149699,0.02735906137323161,0.03548299615878551,-0.03251358378550323,0.04567879001132691,0.1984573570897426,-0.08405708696839899,0.012154468684469729,0.16533759693379205,0.030416444211816482
1904,8.014201699988917,0.040468358202139953,-0.08603167287927255,0.03126007243098425,0.027551783466721283,0.03632132552939477,-0.032867768465291616,0.04572585906822346,0.19914626679901543,-0.0839266566188888,0.01013556309288529,0.1613220744790968,0.031480885790292006
1905,8.0183472999488,0.040444291489304285,-0.08603421161994837,0.031230773449496325,0.027744686218872407,0.03716252501891213,-0.033221394086179995,0.04576440319368618,0.1998181779469657,-0.08379174139389546,0.008109874035823009,0.157275480677547,0.0325430732667848
1906,8.023095099953935,0.04041577595469401,-0.08601552390631452,0.03121687368046552,0.027937733639693603,0.03800652268597311,-0.033574441757762155,0.04579439447616029,0.2004729604296121,-0.08365235096169742,0.006077742421636133,0.15319829437178353,0.0336028959722773
1907,8.026762299996335,0.04042059268339992,-0.08601458169018536,0.031183426137491553,0.028130889624579592,0.03885324604427003,-0.033926892630971435,0.045815806445469884,0.2011104861772744,-0.08350849545991441,0.00403951265908338,0.14909100147215465,0.034660242086005884
1908,8.030813999997918,0.04043353134076126,-0.08602916876913197,0.031167433798632606,0.028324117960398496,0.03970262207116763,-0.034278727900059806,0.045828614087449024,0.2017306291842938,-0.08336018550037354,0.001995532597170794,0.1449540948913051,0.03571499866043713
1909,8.03814949997468,0.04044870593498722,-0.08601641251248072,0.031189060599121174,0.028517382331640268,0.0405545772164437,-0.03462992880459799,0.045832793858319655,0.20233326553847292,-0.08320743217386872,-5.384653659531058e-05,0.1407880744766411,0.03676705164694783
1910,8.043474199948832,0.04045203169445785,-0.08600749489442386,0.0312301909502378,0.028710646326625042,0.04140903741115388,-0.03498047663149609,0.045828323698809716,0.20291827345022734,-0.08305024705481047,-0.002108270199533398,0.1365934469406777,0.037816285922198455
1911,8.05033659999026,0.04050530542939154,-0.08600470423255296,0.031258343617794795,0.028903873443770288,0.04226592807661922,-0.0353303527170444,0.04581518304800473,0.20348553328144076,-0.08288864220576257,-0.004167380598678202,0.13237072578927464,0.03886258531518958
1912,8.055271299963351,0.0405166205497707,-0.08598352563787792,0.031309578523552914,0.02909702709791546,0.04312517413353531,-0.035679538448973994,0.04579335285692629,0.2040349275740148,-0.0827226301818631,-0.006230816757226377,0.12812043124776873,0.03990583263499042
1913,8.059494899993297,0.04053010136637216,-0.08597819798918499,0.031323522646947335,0.02929007062670294,0.04398670001120147,-0.03602801526853667,0.045762815601831125,0.20456634107810454,-0.08255222403512698,-0.008298214582523345,0.1238430901850115,0.040945909699128355
1914,8.064112599997316,0.04053982407154884,-0.08595061279168488,0.031345029453898714,0.029482967297014266,0.04485042965686867,-0.03637576467260356,0.04572355529722441,0.20507966078003123,-0.08237743731862732,-0.010369206935577675,0.11953923603532168,0.04198269736262803
1915,8.068245899979956,0.04049534554635714,-0.08590837588359516,0.031404829495651536,0.029675680311460492,0.04571628654520504,-0.03672276821578193,0.04567555750858107,0.2055747759298635,-0.08219828409055299,-0.012443423702088655,0.11520940871836347,0.04301607554768807
1916,8.072493799962103,0.04047307090166131,-0.08586196107466412,0.03142578933983983,0.029868172814925494,0.04658419368787745,-0.037069007512549705,0.045618809364768774,0.20605157806865748,-0.08201477891813967,-0.014520491864972033,0.11085415455696139,0.04404592327398345
1917,8.07656869996572,0.04043850485048903,-0.08581616942479425,0.031504287060579284,0.030060407901161133,0.04745407364324768,-0.03741446423940738,0.045553299570166204,0.20650996105534727,-0.08182693688147119,-0.01660003557836825,0.10647402619286371,0.045072118689580894
1918,8.080725499952678,0.04041484483899674,-0.0857882974940472,0.031544922400351325,0.03025234861943299,0.04832584852618177,-0.037759120137046645,0.04547901841647047,0.20694982109327648,-0.08163477357714882,-0.01868167624311676,0.10206958250046629,0.04609453910245454
1919,8.084993899974506,0.04043797835731561,-0.08577291885604174,0.0315758675049978,0.03044395798121532,0.049199440017971316,-0.038102957012535056,0.04539595779418744,0.2073710567563622,-0.08143830512182654,-0.020765032583679347,0.09764138849850994,0.04711306101258894
1920,8.088976899976842,0.04042893921268902,-0.08575806792454281,0.03158933173184937,0.03063519896693381,0.05007476937636516,-0.03844595674151611,0.04530411120379858,0.2077735690148825,-0.08123754815560985,-0.02284972072649473,0.09319001525976449,0.048127560144656016
1921,8.093517599976622,0.04043514988523579,-0.08573303534045723,0.03162294549346703,0.0308260345327547,0.05095175744571004,-0.03878810127042424,0.04520347376659829,0.2081572612608782,-0.08103251984531518,-0.024935354279746056,0.08871603981871365,0.04913791148125251
1922,8.09760609996738,0.040448571334921635,-0.08572714317529695,0.03166334782732239,0.031016427617419098,0.05183032466719847,-0.039129372618714166,0.04509404223519548,0.20852203933315974,-0.08082323788758716,-0.027021544414522206,0.08422004507725582,0.050143989296684274
1923,8.102020299993455,0.040460110752567544,-0.08572882346365002,0.031721255560903494,0.03120634114912096,0.052710391089222285,-0.03946975288110403,0.044975815003673654,0.2088678115419103,-0.0806097205118716,-0.029107899947353116,0.079702619708437,0.05114566719128365
1924,8.10667949996423,0.04046787544965022,-0.08571300775847675,0.03176414272104824,0.03139573805242729,0.05359187637783039,-0.03980922422983175,0.044848792117403447,0.2091944886928768,-0.0803919864832414,-0.031194027424098738,0.075164358058233,0.0521428181262457
1925,8.111040999996476,0.04049001937447346,-0.08570778560734175,0.03183963742415581,0.0315845812552392,0.05447469982728895,-0.04014776891692418,0.04471297528250184,0.20950198411114063,-0.08017005510507351,-0.033279531205170625,0.07060586004539877,0.05313531445896878
1926,8.116039999993518,0.04050953639074695,-0.08568312858083885,0.031966501213325255,0.031772833695792355,0.05535878037074264,-0.04048536927647843,0.04456836787493267,0.20979021366445952,-0.07994394622157439,-0.035364013552064366,0.06602773105940377,0.05412302797888456
1927,8.120581699942704,0.040524671313689295,-0.08567023044802108,0.0320812493898236,0.0319604583296954,0.056244036590974704,-0.04082200772695478,0.04441497494924284,0.2100590957861725,-0.07971368022015253,-0.0374470747151804,0.06143058185647228,0.055105829943762605
1928,8.124816399998963,0.040514526811942356,-0.08565456874783751,0.032141156809517055,0.032147418137004835,0.05713038673126387,-0.04115766677348059,0.04425280324692897,0.21030855149765945,-0.07947927803363569,-0.039528313022910135,0.05681502845374919,0.05608359111647447
1929,8.129266599949915,0.04051178256366684,-0.0856441543967802,0.03221748478889924,0.032333676129334805,0.058017748706336275,-0.04149232901016405,0.044081861204429064,0.21053850443034716,-0.07924076114233118,-0.04160732497196386,0.052181692021611825,0.05705618180220178
1930,8.133231999992859,0.04049334145224259,-0.08561404859869548,0.03227734545721363,0.03251919535700023,0.05890604011341059,-0.041825977122417285,0.043902158960733996,0.21074888084725465,-0.07899815157592768,-0.04368370531891616,0.04753119877414943,0.0580234718860727
1931,8.13664429995697,0.04049334145224259,-0.08561404859869548,0.03227734545721363,0.03270393891619186,0.05979517824333398,-0.042158593889288005,0.04371370836461355,0.21093960966407063,-0.07875147191523674,-0.04575704717294398,0.04286417985783256,0.058985330871210995
1932,8.141663199989125,0.0404609886521692,-0.08557156175560779,0.03235300239454891,0.032887869956181884,0.06068508009180699,-0.04249016218579911,0.04351652298145211,0.2111106224697562,-0.07850074529377248,-0.04782694208973167,0.038181271238395445,0.05994162791718166
1933,8.149636499991175,0.040449897773917,-0.08555529934881811,0.032479000987384765,0.033070951686558325,0.06157566237069557,-0.04282066498529535,0.043310618099689294,0.21126185354666518,-0.07824599539916773,-0.049892980166517,0.033483113585955106,0.06089223187881682
1934,8.153318399970885,0.040449897773917,-0.08555529934881811,0.032479000987384765,0.033253147384486745,0.06246684151942809,-0.04315008536179646,0.043096010736860764,0.21139323989017517,-0.07798724647442444,-0.051954750138251175,0.02877035215839145,0.06183701134540544
1935,8.158637699962128,0.04041441371106271,-0.08553269485317246,0.03258913831512006,0.03343442040199763,0.06335853371647578,-0.043478406492355855,0.04287271964523453,0.21150472122782268,-0.07772452331899711,-0.05401183947484583,0.024043636683013746,0.06277583468023037
1936,8.16417259996524,0.04039305072998044,-0.08553583503541785,0.03263813369181734,0.03361473417329774,0.06425065489091436,-0.04380561165942419,0.042640765317038185,0.21159624003793479,-0.07745785128970743,-0.05606383447947933,0.019303621236539312,0.06370857006043643
1937,8.168010099965613,0.04039305072998044,-0.08553583503541785,0.03263813369181734,0.0337940522221037,0.06514312073406513,-0.04413168425321698,0.04240016998927255,0.21166774156774998,-0.07718725630148916,-0.058110320387934095,0.014550964123411052,0.06463508551721252
1938,8.172922299942002,0.04034938632785952,-0.08554966724380127,0.03276871164936081,0.033972338168996086,0.06603584671121313,-0.04445660777408556,0.0421509576481073,0.21171917385102232,-0.07691276482796192,-0.0601508814689361,0.009786327752481339,0.0655552489762719
1939,8.177270999993198,0.040294611002675895,-0.08557083143730965,0.03285120221236444,0.03414955573879221,0.06692874807340046,-0.04478036583489069,0.0418931540328543,0.21175048772510188,-0.0766344039018323,-0.06218510112546736,0.005010378512090369,0.06646892829861328
1940,8.182058799953666,0.04028391562237019,-0.08556364375978742,0.03289535091575389,0.03432566876793596,0.06782173986929253,-0.04510294216337815,0.041626786639514295,0.2117616368474839,-0.07635220111512121,-0.06421256199702133,0.00022378664356781933,0.06737599132154583
1941,8.18735399999423,0.04027606336607177,-0.08556250036778246,0.03293202223027201,0.03450064121190262,0.06871473695711479,-0.04542432060455566,0.04135188472389326,0.21175257771181918,-0.07606618461921637,-0.06623284606277116,-0.004572773886812631,0.06827630589996034
1942,8.19159679999575,0.040266207275975664,-0.08554048968864124,0.03291508761044797,0.03467443715261693,0.06960765401665737,-0.04574448512306983,0.04106847930428433,0.21172326966337907,-0.07577638312474916,-0.06824553474561953,-0.00937862551739567,0.06916973994782948
1943,8.196202599967364,0.04026212555241925,-0.08549233107353965,0.03288151147233144,0.034847020805882346,0.07050040556134514,-0.0460634198055823,0.04077660316371163,0.2116736749139681,-0.0754828259012952,-0.0702502090170981,-0.01419308722219269,0.07005616147991994
1944,8.201062699954491,0.04029818711308258,-0.08545109789689415,0.032838625810407085,0.03501835652881936,0.07139290595037047,-0.04638110886314408,0.040476290851732176,0.21160375855627964,-0.07518554277689761,-0.07224644950308463,-0.019015474643384482,0.07093543865369902
1945,8.205010999983642,0.040306092843304914,-0.08543432020338038,0.032804822501791425,0.035188408827310926,0.07228506940088655,-0.04669753663356747,0.04016757868579218,0.21151348857768804,-0.0748845641374121,-0.07423383659030552,-0.02384510022524606,0.07180743981141782
1946,8.209216699993704,0.040296686741947585,-0.08537086877809408,0.032765171683321756,0.03535714236345303,0.07317681000025904,-0.047012687583794614,0.039850504752134426,0.21140283587347178,-0.07457992092567299,-0.07621195053359024,-0.0286812733494607,0.07267203352235384
1947,8.213134899968281,0.04028551925368062,-0.08530496114638839,0.0327212941874855,0.03552452196300846,0.07406804171837328,-0.047326546312262054,0.03952510890625343,0.2112717742594618,-0.07427164464047946,-0.07818037156384448,-0.033523300471789676,0.07352908862519492
1948,8.216545599978417,0.04028551925368062,-0.08530496114638839,0.0327212941874855,0.03569051262286189,0.07495867841999522,-0.04763909755126008,0.03919143277289544,0.21112028048410858,-0.07395976733540137,-0.08013867999670742,-0.03837048526006342,0.07437847427054735
1949,8.22074659995269,0.04030637491293774,-0.08525909589556761,0.032683832353634056,0.03585507951847432,0.07584863387718314,-0.04795032616928641,0.038849519745600386,0.21094833423996187,-0.07364432161740424,-0.0820864563418589,-0.04322212873345935,0.0752200599635505
1950,8.224759899952915,0.04029276801655962,-0.08510121662723759,0.03260234445854683,0.03601818801133496,0.07673782178174776,-0.04826021717339335,0.03849941498578311,0.21075591817455736,-0.07332534064529271,-0.08402328141294166,-0.048077529403030866,0.07605371560658059
1951,8.229013299976941,0.04031413039594628,-0.0850638915051274,0.03253827616009209,0.03617980365640849,0.07762615575775825,-0.04856875571152751,0.03814116542135133,0.2105430179007047,-0.07300285812797212,-0.08594873643806251,-0.05293598341345145,0.07687931154202661
1952,8.233225699979812,0.04033048859185299,-0.08498750597471204,0.03246465483388586,0.03633989220957562,0.07851354937409222,-0.048875927074861415,0.03777481974485787,0.2103096220061721,-0.07267690832252736,-0.08786240317083699,-0.05779678468593711,0.07769671859512016
1953,8.23736479994841,0.04034183177455203,-0.08490652230673208,0.032394124693939624,0.036498419635065074,0.07939991615702761,-0.04918171670011592,0.03740042841118503,0.2100557220627616,-0.07234752603211872,-0.08976386400194108,-0.06265922506231007,0.07850580811680169
1954,8.241594199964311,0.04037328540140543,-0.08485714371134291,0.032317978041535404,0.036655352112874955,0.08028516960287348,-0.049486110171872835,0.03701804363475862,0.20978131263477068,-0.07201474660369447,-0.09165270207113357,-0.06752259445016628,0.07930645202660594
1955,8.245533799985424,0.04037328540140543,-0.08485714371134291,0.032317978041535404,0.03681065604618172,0.08116922319063702,-0.049789093224877345,0.03662771938628968,0.20948639128683474,-0.07167860592551996,-0.09352850137971187,-0.07238618096910832,0.0800985228555489
1956,8.24977699998999,0.04040698656674572,-0.08482231355021033,0.032224112959020806,0.036964298068734844,0.08205199039472487,-0.05009065174632948,0.03622951138904191,0.2091709585911465,-0.07133914042452327,-0.09539084690336451,-0.07724927109800495,0.08088189378899881
1957,8.253857299976517,0.04046452813515478,-0.08465238867053392,0.031958681281509464,0.037116245052235264,0.08293338469767556,-0.050390771778163854,0.035823477114623414,0.2088350181340477,-0.07099638706345766,-0.09723932470538267,-0.08211114982323783,0.08165643870951365
1958,8.258130299975164,0.04049461739206625,-0.08456562795536797,0.03182778389502401,0.03726646411369565,0.08381331960292056,-0.050689439519317064,0.035409675778301,0.20847857652199034,-0.07065038333788051,-0.09907352205019254,-0.08697110078789541,0.08242203223962796
1959,8.262337299995124,0.04054432395329887,-0.08452079421151928,0.0316899495729506,0.03741492262278023,0.08469170864757104,-0.05098664132798172,0.03498816833383562,0.20810164338686282,-0.07030116727294967,-0.10089302751717033,-0.09182840644187328,0.08317854978457148
1960,8.26644519995898,0.04054435162312455,-0.08443684206746575,0.031559480376981267,0.03756158820912216,0.08556846541522713,-0.05128236372384655,0.03455901746783749,0.20770423139067745,-0.06994877742003745,-0.10269743111470159,-0.09668234819283969,0.08392586757490311
1961,8.270733499957714,0.04056224659954434,-0.08437933541040563,0.03142115523384141,0.03770642876961644,0.0864435035488066,-0.05157659339032184,0.03412228759363971,0.20728635622961664,-0.06959325285316251,-0.1044863243944464,-0.10153220655802461,0.084663862709043
1962,8.276567499968223,0.04055165159439662,-0.08428839533205884,0.031234027135205143,0.03784941247568665,0.08731673676339026,-0.05186931717674925,0.033678044844689364,0.2068480366374353,-0.06923463316523987,-0.1062593005657718,-0.10637726131679036,0.0853924131956853
1963,8.281064299982972,0.040544343467564484,-0.08416270697652241,0.031032713956789325,0.03799050778052327,0.08818807885908099,-0.05216052210059501,0.03322635706745543,0.2063892943882174,-0.06887295846414973,-0.10801595461031228,-0.11121679166394119,0.0861113979960749
1964,8.285160699975677,0.040560205935430325,-0.08409125765082531,0.030884918502363627,0.038129683426291694,0.08905744373387395,-0.052450195349625514,0.0327672938138527,0.20591015429848414,-0.06850826936862547,-0.10975588339661863,-0.11605007636372842,0.08682069706613116
1965,8.288577799976338,0.040560205935430325,-0.08409125765082531,0.030884918502363627,0.03826690845130772,0.0899247453965343,-0.05273832428406431,0.0323009263331813,0.20541064422865218,-0.06814060700396204,-0.11147868579485613,-0.12087639390450784,0.08752019139840209
1966,8.29336869996041,0.04058212934951155,-0.08404536913614508,0.030517230664262575,0.03840215219717848,0.09078989797947971,-0.05302489643872985,0.031827327563581406,0.2048907950838389,-0.06777001299754563,-0.1131839627915126,-0.1256950226540055,0.08820976306383216
1967,8.29775059997337,0.040739320673790304,-0.08385846848452126,0.030348949500240044,0.03853538431590673,0.09165281575166458,-0.05330989952515344,0.03134657212300325,0.20435064081401177,-0.06739652947420567,-0.11487131760407616,-0.1305052410151478,0.08888929525332764
1968,8.301677399955224,0.040779527006090735,-0.08381818810845186,0.030110467973667947,0.03866657477695685,0.0925134131314633,-0.053593321433676865,0.03085873629969218,0.20379021841347933,-0.06702019905138981,-0.11654035579564267,-0.13530632758241146,0.08955867231910321
1969,8.305208399950061,0.040779527006090735,-0.08381818810845186,0.030110467973667947,0.03879569387428014,0.09337160469954964,-0.05387515023552888,0.030363898042189107,0.20320956791972022,-0.0666410648341631,-0.11819068538941235,-0.1400975612986493,0.09021777981579375
1970,8.309133999980986,0.04082389587153625,-0.08376781500799113,0.029919927341555023,0.03892271223329766,0.09422730521176939,-0.05415537418487977,0.029862136948846835,0.2026087324115492,-0.06625917041003244,-0.11982191698303517,-0.1448782216123461,0.09086650454131524
1971,8.312683299998753,0.04085304991353825,-0.08356566350141757,0.029422230161314924,0.039047600817838334,0.09508042961200397,-0.054433981720872944,0.02935353425686298,0.2019877580066184,-0.06587455984359744,-0.12143366386276397,-0.14964758863525995,0.09150473457745922
1972,8.316462399961893,0.04087762409622227,-0.08349969453236993,0.029105768235145362,0.039170330937030394,0.09593089304502186,-0.054710961469632675,0.028838172830830216,0.20134669385825318,-0.06548727767102856,-0.12302554211737551,-0.15440494330040355,0.09213235933020505
1973,8.319946999952663,0.04087762409622227,-0.08349969453236993,0.029105768235145362,0.039290874252144135,0.09677861086931527,-0.05498630224624723,0.028316137150804586,0.20068559215162093,-0.06509736889437388,-0.1245971707518184,-0.15914956752031909,0.09274926956973469
1974,8.324994499969762,0.040889468977875335,-0.08328174318666431,0.028632286915479498,0.03940920278338408,0.09762349866991941,-0.05525999305672685,0.027787513299892812,0.20000450809923082,-0.06470487897569571,-0.12614817180054722,-0.16388074434560027,0.09335535747013456
1975,8.32896209997125,0.04090746051739917,-0.0831832675427511,0.02839034280672968,0.03952528891662854,0.09846547227121158,-0.055532023099936045,0.027252388951359906,0.1993034999357635,-0.06430985383103843,-0.1276781704405018,-0.16859775812361524,0.09395051664876966
1976,8.333211299963295,0.04092144284261787,-0.08304625781648846,0.02811187402916116,0.0396391054101147,0.09930444774968751,-0.05580238176949969,0.02671085335525841,0.19858262891222947,-0.06391233982422906,-0.12918679510369094,-0.17329989465738382,0.09453464220531477
1977,8.337032799958251,0.04092144284261787,-0.08304625781648846,0.02811187402916116,0.03975062540106689,0.10014034144671174,-0.05607105865568251,0.026162997324580807,0.1978419592894558,-0.06351238376051138,-0.13067367758933968,-0.1779864413645632,0.09510763076042782
1978,8.341329299961217,0.040999197881941694,-0.08271770932737091,0.02735622246293504,0.039859822412266245,0.1009730699812391,-0.05633804354724108,0.025608913220936936,0.19708155833090088,-0.06311003288001504,-0.13213845317555895,-0.1826566874364948,0.0956693804940513
1979,8.34579669998493,0.04108180559663063,-0.08248478435509128,0.026991156846513945,0.03996667035855954,0.10180255026250433,-0.05660332643324743,0.02504869493975833,0.19630149629479746,-0.06270533485106122,-0.13358076073049596,-0.18730992399726418,0.09621979118332742
1980,8.349386699963361,0.04108180559663063,-0.08248478435509128,0.026991156846513945,0.040071143553305426,0.10262869950267671,-0.05686689750488337,0.02448243789503174,0.1955018464256234,-0.0622983377633064,-0.1350002428229248,-0.1919454442627261,0.09675876424011264
1981,8.35376719996566,0.04121375448463792,-0.0820595033372041,0.026348982380204358,0.040173216714756155,0.103451435229477,-0.05712874715720499,0.023910239003564066,0.19468268494490068,-0.061889090120726124,-0.1363965458322371,-0.19656254369944592,0.09728620274807734
1982,8.357423399982508,0.04121375448463792,-0.0820595033372041,0.026348982380204358,0.04027286497237282,0.10427067529875365,-0.05738886599087671,0.02333219666878117,0.19384409104132397,-0.06147764083444072,-0.13776932005779272,-0.2011605201835099,0.09780201149937735
1983,8.362393799994607,0.041377604522231194,-0.08149960544157556,0.02547127708220303,0.04037006387307203,0.10508633790701587,-0.057647244813874274,0.022748410764063306,0.19298614686021917,-0.061064039215385085,-0.1391182198275901,-0.20573867415915548,0.09830609703088355
1984,8.366480099968612,0.04142776524432178,-0.08120890624039909,0.025014329631817364,0.040464789387402056,0.1058983416039202,-0.05790387464315625,0.022158982615620125,0.1921089374923323,-0.06064833496682483,-0.14044290360621486,-0.2102963087971729,0.09879836765995635
1985,8.370181599981152,0.04142776524432178,-0.08120890624039909,0.025014329631817364,0.040557017915646455,0.10670660530470771,-0.0581587467063032,0.021564014984908255,0.19121255096195008,-0.060230578176720784,-0.1417430341020266,-0.2148327301530297,0.09927873351975222
1986,8.373691499989945,0.041600312222735025,-0.0808905132391083,0.02457005588427018,0.04064672629385326,0.10751104830258874,-0.058411852443124225,0.020963612050594688,0.19029707821435363,-0.0598108193099439,-0.14301827837354358,-0.21934724732466943,0.09974710659404974
1987,8.377212499966845,0.041600312222735025,-0.0808905132391083,0.02457005588427018,0.040733891799788036,0.1083115902810726,-0.05866318350723047,0.02035787939006929,0.1893626131026069,-0.05938910920034254,-0.14426830793498616,-0.2238391726099355,0.10020340075158246
1988,8.381021299981512,0.041687600222334927,-0.08059465313076573,0.024193513858210156,0.04081849215880877,0.10910815132623967,-0.058912731767575034,0.019746923960509977,0.18840925237368147,-0.058965499042664515,-0.1454927988609377,-0.22830782166357058,0.10064753177986617
1989,8.385401999985334,0.04198214830313787,-0.07968756830010665,0.02337588276481696,0.04090050554966085,0.10990065193895339,-0.05916048930995869,0.019130854079504277,0.18743709565391892,-0.05854004038433594,-0.14669143189008402,-0.232752513653744,0.10107941741850815
1990,8.389338499982841,0.04206437408996674,-0.07915758505781041,0.02285796805026029,0.040979910610190226,0.11068901304700961,-0.059406448438500604,0.01850977940523134,0.186446245433834,-0.05811278511709873,-0.147863892527991,-0.23717257141805892,0.10149897739198707
1991,8.39329319994431,0.042215563158696075,-0.07866504848307292,0.02237600457152179,0.041056686442973056,0.11147315601722058,-0.05965060167707379,0.017883810916208363,0.18543680705226018,-0.05768378546850942,-0.1490098711488805,-0.2415673216189907,0.10190613344189238
1992,8.397537199954968,0.04232884912795397,-0.07816084752830957,0.021859613060577876,0.04113081262085995,0.1122530026674309,-0.05989294177070457,0.01725306089060575,0.18440888867983943,-0.05725309399330136,-0.15012906309636562,-0.24593609489870752,0.1023008093586118
1993,8.401608299987856,0.04240722372151828,-0.07769995379055156,0.021346006491146204,0.04120226919243301,0.11302847527846284,-0.060133461686935875,0.01661764288513547,0.18336260130185916,-0.056820763564612714,-0.1512211687831063,-0.2502782260332246,0.10268293101245594
1994,8.405325699946843,0.04238966843488851,-0.07706458378178932,0.020802300259300587,0.04127103668737377,0.11379949660598775,-0.060372154617153985,0.015977671713517314,0.1822980587004389,-0.05638684736508242,-0.15228589378934643,-0.2545930540858437,0.10305242638420901
1995,8.409803399990778,0.04248560306026937,-0.07643493781988905,0.02019679461422602,0.0413370961217404,0.1145659898923211,-0.060609013977878025,0.015333263424527737,0.18121537743607005,-0.0559513988778166,-0.15332294896029378,-0.2588799225598298,0.1034092255950951
1996,8.41400779999094,0.04276519740203537,-0.07591003854776383,0.019788470752094896,0.0414004290031523,0.11532787887813739,-0.060844033412011875,0.01468453527963632,0.18011467682851298,-0.05551447187722805,-0.15433205050230475,-0.26313817955027663,0.10375326093615035
1997,8.418332999979611,0.04325296229458669,-0.0752457293472426,0.01931201804329143,0.041461017335880666,0.1160850878141018,-0.06107720679005789,0.014031605730234757,0.17899607893705413,-0.0550761204197514,-0.15531292007783667,-0.2673671778951128,0.10408446689699154
1998,8.42259859998012,0.04347850088223397,-0.07451835998178419,0.018725401203036132,0.04151884362584314,0.11683754147241579,-0.06130852821129178,0.013374594394463637,0.17785970854012886,-0.05463639883443656,-0.15626528489912897,-0.27156627532519867,0.10440278019397142
1999,8.426592199946754,0.04371141679702443,-0.07384498248018781,0.018202081304319755,0.041573890885500904,0.11758516515827368,-0.06153799200489822,0.012713622033642303,0.17670569311431492,-0.0541953617134235,-0.15718887782057742,-0.27573483461346887,0.10470813979771149
2000,8.430363499966916,0.04388642888486224,-0.07324722135125543,0.017646151289492793,0.041626142638656466,0.11832788472122768,-0.06176559273106662,0.01204881052830745,0.17553416281270057,-0.05375306390230131,-0.15808343742976474,-0.2798722237230721,0.10500048696000329
2001,8.433943399984855,0.044040221630960455,-0.072630102682562,0.017007471145756452,0.04167558292515069,0.11906562656645792,-0.06199132518204635,0.011380282853866169,0.17434525044263122,-0.05330956049035405,-0.15894870813711215,-0.2839778159544633,0.1052797652400697
2002,8.437431899947114,0.04427833753290373,-0.07186231171233157,0.016367787251338833,0.04172219630545719,0.1197983176659444,-0.06221518438316108,0.010708163055869224,0.17313909144283904,-0.05286490680069632,-0.1597844402641165,-0.2880509900914012,0.10554592053017794
2003,8.441395799978636,0.04460961460307315,-0.07105291052460566,0.01580414438115165,0.04176596786517229,0.12052588556953824,-0.06243716559378147,0.010032576224910564,0.17191582385996096,-0.05241915838030135,-0.16059039013013748,-0.29209113054580177,0.10579890108059643
2004,8.445794899947941,0.04485278092061014,-0.07021801905456769,0.015049750300672694,0.04180688321939868,0.12124825841592911,-0.06265726430825573,0.009353648471159284,0.17067558832444904,-0.05197237098992456,-0.1613663201376994,-0.29609762750139973,0.10603865752388793
2005,8.449211499944795,0.04485278092061014,-0.07021801905456769,0.015049750300672694,0.04184492851702126,0.12196536494350663,-0.06287547625679706,0.00867150689853038,0.16941852802587823,-0.05152460059392526,-0.16211199885627325,-0.30006987705617155,0.10626514289853106
2006,8.453979399986565,0.04544952710182413,-0.06869716890568091,0.014050964138273035,0.04188009044487353,0.1226771345011134,-0.06309179740632746,0.007986279578500692,0.16814478868765712,-0.051075903349989446,-0.16282720110450655,-0.30400728136347355,0.10647831267186286
2007,8.458400699950289,0.045844643979422665,-0.0679741331986852,0.013471711431864054,0.04191235623179312,0.12338349705868745,-0.0633062239612775,0.0072980955235766925,0.16685451854114702,-0.05062633559875666,-0.1635117080308668,-0.3079092487718491,0.10667812476233574
2008,8.462258299987298,0.04621233373647875,-0.06716450670686534,0.012937104956894884,0.04194171365256495,0.12408438321779104,-0.06351875236434129,0.0066070846604208274,0.16554786829919574,-0.0501759538533538,-0.16416530719266664,-0.3117751939634593,0.10686453956108281
2009,8.46699929999886,0.04657282144138927,-0.06633194797495179,0.012379076558560659,0.041968151031750514,0.12477972422202269,-0.06372937929718692,0.005913377802643365,0.16422499112909175,-0.04972481478883874,-0.16478779263343804,-0.3156045380910916,0.10703751995278575
2010,8.470719799981453,0.046976927463056053,-0.06551142115434652,0.011828811799433358,0.041991657247401795,0.12546945196730977,-0.0639381016811219,0.00521710662326676,0.1628860426249454,-0.04927297523155678,-0.16537896495862286,-0.3193967089136998,0.1071970313358395
2011,8.47481099999277,0.0473463223571828,-0.06481611160649,0.011335702274111206,0.042012221734658475,0.12615349901207923,-0.06414491667771405,0.00451840362686973,0.16153118077950257,-0.04882049214841299,-0.16593863140954843,-0.3231511409304308,0.10734304164180872
2012,8.479728999955114,0.04766489363443238,-0.06410682343834435,0.010706467270182972,0.04202983448922679,0.1268317985873038,-0.06434982168936743,0.0038174021214183703,0.160160565955397,-0.04836742263606345,-0.16646660593565732,-0.32686727551309425,0.10747552135417061
2013,8.483285199967213,0.047952152408981236,-0.06317507574907351,0.01013555775416465,0.04204448607073872,0.12750428460642158,-0.06455281435985327,0.003114236189791751,0.15877436085584812,-0.0479138239100282,-0.16696270926496107,-0.33054456103703167,0.10759444352633925
2014,8.487353199976496,0.04827779441474096,-0.06245205079290055,0.009637561591806584,0.04205616760599019,0.1281708916751262,-0.06475389257479547,0.002409040661009603,0.15737273049481199,-0.04745975329372937,-0.16742676897268846,-0.33418245301034033,0.10769978379896661
2015,8.491501799959224,0.04864008322110268,-0.06169421343339209,0.009049659463615568,0.042064870792057014,0.12883155510102587,-0.06495305446211053,0.0017019510811697677,0.15595584216659272,-0.04700526820745757,-0.1678586195480998,-0.3377804142014102,0.10779152041651635
2016,8.49590789998183,0.04911394774048058,-0.06071491232984103,0.008655333993143432,0.042070587899287484,0.12948621090316764,-0.0651502983924015,0.0009931036841032612,0.15452386541492144,-0.04655042615726968,-0.16825810245943926,-0.34133791476473035,0.10786963424310646
2017,8.49983779998729,0.049455265318053304,-0.05990439668251788,0.008069570217401595,0.042073311774170244,0.13013479582142548,-0.0653456229793053,0.00028263536175488537,0.15307697200151002,-0.046095284723821274,-0.16862506621699694,-0.344854432364922,0.10793410877761771
2018,8.503765799978282,0.049455265318053304,-0.05990439668251788,0.008069570217401595,0.04207303584207604,0.13077724732575158,-0.06553902707979298,-0.00042931636570251635,0.15161533587408677,-0.04563990155113679,-0.16895936643425388,-0.3483294522989557,0.10798493016806496
2019,8.507660899951588,0.049881320584382896,-0.05916330457095838,0.007635695693751807,0.04206975410987231,0.1314135036252884,-0.06573050979442246,-0.0011426133800119757,0.1501391331339223,-0.0451843343353208,-0.1692608658870835,-0.35176246761651186,0.10802208722522834
2020,8.512503799982369,0.05070311689362783,-0.057401587850603106,0.00661899092374766,0.04206346116840972,0.13204350367734002,-0.06592007046754406,-0.0018571169952261832,0.14864854200285363,-0.04472864081321348,-0.16952943457098427,-0.35515297923844674,0.10804557143554168
2021,8.516623699979391,0.05114823267783599,-0.05658610109983079,0.006157006756462285,0.042054152194879894,0.13266718719620116,-0.06610770868745808,-0.0025726879883427255,0.1471437427898148,-0.04427287875099347,-0.16976494975631895,-0.35850049607332307,0.10805537697323608
2022,8.521189199993387,0.051343741372516336,-0.05554420475946847,0.005584966703563432,0.042041822955042905,0.1332844946618419,-0.06629342428652474,-0.0032891866301722555,0.14562491785688175,-0.043817105932731235,-0.16996729604153735,-0.3618045351319654,0.10805150071173701
2023,8.525034099991899,0.051343741372516336,-0.05554420475946847,0.005584966703563432,0.04202646980532365,0.1338953673284467,-0.06647721734122614,-0.004006472716430962,0.14409225158484087,-0.04336138014889635,-0.17013636540435922,-0.3650646216400021,0.10803394223431294
2024,8.529646699957084,0.052021406617687366,-0.053757056410493234,0.0046849843637682765,0.04200808969477621,0.1344997472328063,-0.06665908817218036,-0.004724405599048619,0.1425459303382892,-0.04290575918482172,-0.17027205725089373,-0.36828028914835415,0.10800270384397428
2025,8.533221999998204,0.05240123023381258,-0.05282730695371802,0.004101265226353117,0.041986680166914904,0.13509757720256088,-0.06683903734410684,-0.00544284421768338,0.14098614243027577,-0.042450300809127935,-0.17037427846267342,-0.3714510796416341,0.10795779057262152
2026,8.537347299978137,0.05284246569487989,-0.05194561925574854,0.00364889326697382,0.04196223936141134,0.13568880086429275,-0.06701706566574245,-0.006161647131434397,0.1394130780864938,-0.041995062762111166,-0.17044294344158176,-0.3745765436444154,0.10789921018944149
2027,8.542618999956176,0.05344945631115728,-0.05098496609494419,0.0032426734379520546,0.04193476601565656,0.13627336265146714,-0.06719317418970816,-0.0068806725507432375,0.13782692940903296,-0.04154010274409789,-0.170477974152654,-0.37765624032533546,0.10782697320855211
2028,8.54635129997041,0.053867277277563456,-0.049917428116209465,0.002766660144859814,0.041904259466187636,0.13685120781221874,-0.06736736421232659,-0.007599778369474965,0.13622789033970065,-0.04108547840376984,-0.1704793001647326,-0.3806897375989949,0.10774109289589538
2029,8.550424899964128,0.054286610890729406,-0.049138473189404695,0.0022962983495420416,0.041870719649978204,0.13742228241698182,-0.06753963727339024,-0.008318822197169699,0.13461615662292176,-0.04063124732646265,-0.17044685868895876,-0.3836766122256179,0.10764158527537884
2030,8.554138799954671,0.05478110135283418,-0.04823358366914407,0.001850739428386798,0.0418341471055923,0.13798653336596203,-0.0677099951558807,-0.009037661391455343,0.13299192576822555,-0.040177467022441474,-0.17038059461508265,-0.3866164499084397,0.10752846913426657
2031,8.558277099975385,0.055313490309913775,-0.047072256467365806,0.001381561544169664,0.04179454297420097,0.13854390839644765,-0.06787843988563856,-0.009756153090612075,0.13135539701232865,-0.03972419491515704,-0.17028046054557508,-0.3895088453887879,0.1074017660278207
2032,8.562926599988714,0.05571665385585467,-0.046151242112791556,0.0009135544056744988,0.04175190900046092,0.1390943560899588,-0.06804497373098438,-0.010474154246279158,0.1297067712808235,-0.039271488329485474,-0.17014641682752515,-0.39235340253882517,0.10726150028319462
2033,8.567222099984065,0.056222585513485676,-0.04516267732099317,0.0005614013560692847,0.04170624753325476,0.13963782587923307,-0.06820959920229029,-0.011191521656294496,0.1280462511494823,-0.03881940447995528,-0.1699784315823083,-0.3951497344519218,0.1071076990025795
2034,8.571758499951102,0.05674019660245558,-0.0440349803629177,6.619601300412222e-05,0.041657561526292124,0.1401742680550453,-0.06837231905150208,-0.01190811199765737,0.12637404080518683,-0.038368000458964636,-0.16977648073301002,-0.39789746353062666,0.10694039206560557
2035,8.575621299969498,0.05725683689358459,-0.042935712172690724,-0.0006114911475131749,0.041605854538571074,0.14070363377285972,-0.06853313627161176,-0.012623781859604699,0.12469034600649491,-0.03791733322499216,-0.169540548029592,-0.40059622157220653,0.10675961213099976
2036,8.57913779997034,0.05765713868159333,-0.04190249373214087,-0.0010664630137719525,0.041551130734699154,0.1412258750593136,-0.0686920540960804,-0.013338387776791154,0.12299537404385297,-0.03746745959080443,-0.16927062507178725,-0.40324564985172284,0.10656539463750221
2037,8.583157799963374,0.05809280718898086,-0.040867375781857805,-0.0013592399121065395,0.04149339488507373,0.141740944818531,-0.06884907599821108,-0.014051786262563471,0.12128933369946435,-0.03701843621166346,-0.16896671132971244,-0.4058453992026172,0.10635777780404365
2038,8.58730909996666,0.05875936128697881,-0.03979094008885372,-0.0016235320638737453,0.04143265236592138,0.14224879683826497,-0.06900420569047186,-0.014763833842319172,0.11957243520682384,-0.036570319573537284,-0.16862881416218695,-0.4083951300947758,0.1061368026291866
2039,8.59163029998308,0.05927945775784085,-0.03866185972177915,-0.0021071716703467986,0.04136890915919599,0.142749385795868,-0.06915744712376866,-0.015474387086939868,0.11784489020992925,-0.03612316598131693,-0.16825694883274767,-0.41089451271004584,0.10590251288983317
2040,8.595758499985095,0.05975572397080013,-0.03771383310258754,-0.0025725961884174916,0.041302171852335146,0.143242667264089,-0.06930880448666817,-0.016183302646289203,0.11610691172218071,-0.03567703154704287,-0.16785113852335046,-0.4133432270151764,0.1056549551392023
2041,8.59977189998608,0.06029796660649866,-0.03656634017220455,-0.002907347001082908,0.04123244763787434,0.14372859771669586,-0.06945828220457108,-0.01689043728276555,0.11435871408497907,-0.035231972178143965,-0.16741141434574844,-0.41574096283215917,0.10539417870407954
2042,8.6045367999468,0.060764313020949576,-0.03535323707005082,-0.003375311894941984,0.04115974431291911,0.14420713453392311,-0.0696058849388353,-0.017595647904899495,0.11260051292603411,-0.03478804356569193,-0.16693781535053878,-0.4180874199059441,0.10512023568134314
2043,8.60798489995068,0.060764313020949576,-0.03535323707005082,-0.003375311894941984,0.04108407027847495,0.14467823600774352,-0.06975161758584913,-0.018298791600986155,0.11083252511739429,-0.03434530117267407,-0.1664303885338719,-0.4203823079695066,0.10483318093376999
2044,8.613357399997767,0.06158103884901586,-0.03327271494634159,-0.003971253385264301,0.041005434538634915,0.14514186134696266,-0.06989548527605416,-0.018999725672742242,0.10905496873320977,-0.0339038002222874,-0.16588918884181703,-0.4226253468062446,0.10453307208512573
2045,8.617454299994279,0.06224732040576182,-0.03211380025063501,-0.004243299948602884,0.040923846699624844,0.14559797068213542,-0.07003749337291724,-0.019698307668977916,0.10726806300724005,-0.033463595686257015,-0.16531427917237923,-0.42481626630968145,0.10421996951454328
2046,8.621251399978064,0.06224732040576182,-0.03211380025063501,-0.004243299948602884,0.04083931696870627,0.14604652507030388,-0.07017764747185228,-0.020394395419273233,0.10547202829011752,-0.033024742273181674,-0.16470573037516423,-0.42695480654045465,0.10389393635019432
2047,8.624799399985932,0.06224732040576182,-0.03211380025063501,-0.004243299948602884,0.040751856152937145,0.14648748649955637,-0.070315953399092,-0.021087847067649126,0.10366708600637856,-0.032587294416909496,-0.16406362124868795,-0.42904071778056724,0.10355503846225916
2048,8.628829499997664,0.06352549260927386,-0.028765266440213547,-0.0051101479608927775,0.04066147565779042,0.14692081789340705,-0.0704524172105098,-0.02177852110622283,0.10185345861127394,-0.032151306264946666,-0.16338803853532913,-0.4310737605848835,0.10320334445519971
2049,8.63233869994292,0.06352549260927386,-0.028765266440213547,-0.0051101479608927775,0.04056818748563034,0.1473464831149957,-0.07058704519039156,-0.022466276408837756,0.10003136954737,-0.03171683166690228,-0.1626790769139231,-0.4330537058298478,0.10283892565934104
2050,8.636845099972561,0.06453152079730334,-0.026751079124860567,-0.0056590943903123934,0.040472004234046476,0.14776444697110672,-0.07071984385015724,-0.02315097226465775,0.09820104320095187,-0.03128392416297222,-0.16193683898999614,-0.43498033475940945,0.10246185612176661
2051,8.6406857999973,0.06453152079730334,-0.026751079124860567,-0.0056590943903123934,0.04037293909404549,0.1481746752160071,-0.07085081992703168,-0.023832468411715605,0.09636270485824053,-0.030852636972465066,-0.1611614352836401,-0.43685343902813606,0.10207221259653311
2052,8.644970199966338,0.06536362808561973,-0.0244788907690514,-0.006513816998446721,0.040271005848100644,0.14857713455510319,-0.07097998038266522,-0.02451062507040552,0.09451658066143528,-0.030423022982373076,-0.16035298421502955,-0.4386728207414997,0.10167007453421065
2053,8.649457999970764,0.06607959290105951,-0.023394497378834426,-0.006737012547946551,0.04016621886805933,0.1489717926484153,-0.07110733240170435,-0.0251853029769094,0.09266289756459359,-0.029995134735991132,-0.15951161208758377,-0.44043829249331923,0.10125552407075471
2054,8.654166299966164,0.06668076146186093,-0.0225117275162872,-0.007122265335136088,0.040058593112908866,0.1493586181138706,-0.07123288339031278,-0.025856363416547002,0.09080188328936008,-0.02956902442158655,-0.1586374530687758,-0.4421496774003451,0.10082864601571556
2055,8.658138599945232,0.0670595002825328,-0.02136086109357276,-0.0075722289134677045,0.03994814412640087,0.1497375805304137,-0.07135664097464318,-0.02652366825703977,0.08893376628055714,-0.029144743861122497,-0.15773064916859159,-0.44380680913397413,0.10038952783979133
2056,8.662423099973239,0.06769578171578493,-0.020363498213101714,-0.007927480122241756,0.039834888034534215,0.1501086504409349,-0.07147861299925985,-0.027187079981678408,0.08705877566164884,-0.028722344499037957,-0.1567913502156441,-0.4454095319490832,0.0999382596617307
2057,8.666687899967656,0.06856694141527181,-0.019444425630952885,-0.00817693153749565,0.039718841542897114,0.15047179935501506,-0.07159880752551234,-0.0278464617223841,0.08517714119009026,-0.02830187739108697,-0.15581971383094895,-0.4469577007099707,0.09947493423459193
2058,8.670527799986303,0.06903799275979035,-0.018362200207733527,-0.008575050261514333,0.03960002193386866,0.15082699975148522,-0.07171723282986041,-0.02850167729265357,0.08328909321257463,-0.027883393193239767,-0.15481590539936746,-0.44845118091339514,0.09899964693136494
2059,8.674858499958646,0.06969758386926837,-0.017326724738414765,-0.008951171162705909,0.039478447063680366,0.15117422508080094,-0.0718338974021506,-0.02915259122037791,0.08139486262019005,-0.02746694215064863,-0.15378009803872628,-0.44988984870870324,0.09851249572996308
2060,8.679055099957623,0.07012928738321489,-0.016273814426494875,-0.009505128833793085,0.03935413535933813,0.15151344976723133,-0.07194880994384485,-0.029799068780525337,0.07949468080349777,-0.02705257408668108,-0.15271247256662185,-0.4512735909150392,0.09801358119759146
2061,8.683208799979184,0.07073618288341087,-0.01532466099931405,-0.009824265215361182,0.039227105815405235,0.15184464921086344,-0.07206197936620135,-0.030440976027677938,0.07758877960754396,-0.026640338392023094,-0.15161321746492032,-0.45260230503562937,0.09750300647449911
2062,8.68723289994523,0.07140372130301335,-0.014245757384209176,-0.010233029992998521,0.03909737799064698,0.15216779978942177,-0.07217341478840787,-0.03107817982841245,0.07567739128681697,-0.02623028401385513,-0.15048252884196298,-0.45387589926913513,0.09698087725712272
2063,8.692006299970672,0.072079257802059,-0.013178464199591707,-0.010615518241272898,0.0389649720045375,0.15248287885990197,-0.07228312553566804,-0.03171054789351535,0.07376074846016238,-0.025822459445103408,-0.14932061039248892,-0.4550942925180686,0.09644730178062914
2064,8.696127399976831,0.07268655149244167,-0.012204547439213273,-0.010917393362272156,0.03882990853362959,0.15278986476001807,-0.07239112113724018,-0.03233794881002248,0.07183908406566869,-0.025416912713768957,-0.1481276733552867,-0.45625741439426926,0.09590239080086396
2065,8.700814799987711,0.07326377210208602,-0.011083713631770777,-0.011240553505588825,0.03869220880778799,0.15308873680946392,-0.0724974113244291,-0.03296025207307371,0.06991263131553638,-0.025013691372336888,-0.14690393646858813,-0.4573652052214376,0.09534625757571347
2066,8.704786899965256,0.07380377527393857,-0.010054558407482251,-0.01160798534301494,0.0385518946062872,0.15337947531098817,-0.0726020060285311,-0.033577328117573094,0.06798162365094261,-0.024612842487268406,-0.14564962592321845,-0.4584176160347246,0.0947790178458877
2067,8.708820099942386,0.07440183972641892,-0.009012656524923926,-0.01196199297861882,0.03840898825377446,0.15366206155128245,-0.07270491537873289,-0.03418904834964491,0.06604629469691405,-0.024214412628578017,-0.1443649753135171,-0.45941460857737637,0.094200789815132
2068,8.712679099990055,0.07511873611999881,-0.007804588005913365,-0.012245710562909672,0.03826351261609901,0.1539364778016818,-0.07280614969996503,-0.034795285177876126,0.06410687821722032,-0.023818447859498344,-0.14305022558604455,-0.4603561552944329,0.09361169412987486
2069,8.716921299987007,0.07575171022088956,-0.006738181239260609,-0.012502524123650613,0.0381154910960086,0.15420270731867727,-0.07290571951071056,-0.03539591204433608,0.062163608069300165,-0.0234249937262348,-0.14170562498609138,-0.4612422393234828,0.09301185385832025
2070,8.720681199978571,0.07630214153917321,-0.005802457544699937,-0.01283306202689201,0.03796494762871436,0.15446073434424024,-0.0730036355207688,-0.03599080345536395,0.06021671815923248,-0.023034095247812532,-0.14033142900200724,-0.4620728544824786,0.09240139446899243
2071,8.72472919995198,0.07695011469965145,-0.004755946063198892,-0.013086839761804869,0.0378119066773252,0.15471054410595894,-0.0730999086289746,-0.03657983501211485,0.058266442396764886,-0.02264579690601791,-0.1389279003073687,-0.4628480052546178,0.09178044380874135
2072,8.729204899980687,0.0774856508229809,-0.003740294320577457,-0.013462730397797803,0.037656393228152785,0.1549521228169868,-0.07319454992087371,-0.037162883440855464,0.056313014650412614,-0.0222601426354369,-0.13749530870100488,-0.46356770677029413,0.09114913208021684
2073,8.732993399957195,0.0774856508229809,-0.003740294320577457,-0.013462730397797803,0.037498432785888124,0.15518545767580227,-0.07328757066635502,-0.03773982662300017,0.054356668702639874,-0.021877175813592522,-0.13603393104490025,-0.4642319847861214,0.09050759181881951
