,time,x,y,z,vx,vy,vz,ax,ay,az,jx,jy,jz
0,0.0038646000029984,0.0,0.0,0.0,-4.201205788635368e-05,0.0005393380393522151,-2.875062722549284e-05,-0.0003972861754539032,0.004471568437047643,0.0013450691660400352,0.0018410128842298366,-0.02308680077939087,0.0005646172214488439
1,0.0084407000103965,-2.8053091897333016e-05,1.53062606718655e-05,-2.202174720140849e-05,-0.00012221903587242926,0.00142928223257062,0.00022949183063677837,-0.0007324097369309526,0.007987796827830497,0.002833270806116313,0.0013169110967551645,-0.018813410991413072,0.005196637642912063
2,0.0135279000096488,-6.176644070895123e-05,2.8898886000654242e-05,-4.4801897331937224e-05,-0.00020266438609486728,0.002321081591570466,0.0004901105409407002,-0.0010646506099459125,0.011468484405028338,0.004318887984919062,0.0008118014989041896,-0.014751804517744799,0.009763642604015564
3,0.0189217000006465,-0.0001510773181764384,3.7496049380157435e-05,-9.235622247489348e-05,-0.00028331661302249614,0.003214364358899401,0.0007530474679079636,-0.0013938084736314974,0.014911423413027584,0.0058012153886398115,0.00032612333195378374,-0.01090616222264014,0.0142626859443072
4,0.0230249000014737,-0.00017806706314027517,4.7468895406504645e-05,-0.0001062707868036567,-0.000364144055960026,0.004108757037752303,0.0010182437155894315,-0.0017196846522610713,0.018314425921192486,0.007279549055775545,-0.0001396997591632562,-0.007280490728564512,0.018690868213641645
5,0.0270339000126114,-0.00017806706314027517,4.7468895406504645e-05,-0.0001062707868036567,-0.00044511491289955026,0.0050038846699112976,0.0012856395737217668,-0.0020420822929876825,0.02167532578740406,0.008753186964043784,-0.0005852602273398059,-0.0038786174334204406,0.02304533949085523
6,0.031174200004898,-0.0003675825079326954,-5.111055604981778e-06,-9.597548717731162e-05,-0.0005261972644530155,0.0058993711144795695,0.0015551745640422592,-0.0023608065420870324,0.024991980603730375,0.010221429615352091,-0.0010101671096616517,-0.0007041856967966366,0.027323302157388388
7,0.0357932000042637,-0.0002884503451030646,8.382607013150598e-05,-0.00014372153582011186,-0.000607359097840184,0.006794839327112776,0.001826787487009331,-0.002675664719507518,0.0282622736220497,0.011683580618178853,-0.0014140464980227617,0.0022393497983041635,0.03152201362255712
8,0.0396099000063259,-0.00031503077990978974,8.98225124454413e-05,-0.00016865453438551947,-0.0006885683309066031,0.007689911639451892,0.002100416468875917,-0.002986466491532295,0.03148411565746959,0.013138947266725291,-0.0017965419933681616,0.004948727501995183,0.03563878899722757
9,0.0453343000117456,-0.0003435145113506429,0.00010665405216190956,-0.00019201068771787586,-0.0007697928361461238,0.008584210038461774,0.0023759990090626995,-0.003293024041360404,0.034655446967409194,0.014586841116202743,-0.002157315142962091,0.007420883266231504,0.03967100371270489
10,0.0490775000071153,-0.0003806171147889694,0.00012860715889256413,-0.00021171986388484235,-0.0008510004647025684,0.009477356445380548,0.002653472027778031,-0.0035951522374163382,0.03777423910423936,0.01602657855362416,-0.002496045860098136,0.009652954419880757,0.0436160960817092
11,0.0524160000059055,-0.00044646105024727655,0.00015415283014077091,-0.00024872794646854884,-0.0009321590703252389,0.010368972993986206,0.002932771913831335,-0.0038926687992000353,0.040838496739405296,0.017457481363474567,-0.0028124328256879335,0.011642283644507307,0.04747156979837748
12,0.0585320000100182,-0.0005095800177208485,0.0001660068430951043,-0.00029648215485897806,-0.0010132365332530902,0.011258682307888321,0.0032138345725867554,-0.004185394460492133,0.043846259456989424,0.018878877287641718,-0.003106193871185785,0.01338642264546718,0.05123499637430058
13,0.0625935000134632,-0.0005504717248624122,0.00019564395490199397,-0.00031880979192460557,-0.001094200784002548,0.012146107776554773,0.003496595474003908,-0.004473153129732445,0.0467956035147075,0.020290100578995524,-0.0033770663423281374,0.014883135613147956,0.05490401750767916
14,0.0664658000023337,-0.0005992288528057498,0.00023990765254268873,-0.00033569216346492124,-0.00117501982703415,0.013030873829785827,0.0037809897007127337,-0.0047557720473929465,0.049684643570369315,0.021690492548013085,-0.0036248074431892443,0.016130402469432894,0.05847634738276132
15,0.0729764999996405,-0.000669327355951406,0.00035389054880417294,-0.00039626700193686365,-0.0012556617642734138,0.013912606210350639,0.004066951996069661,-0.005033081940170201,0.052511534371876535,0.02307940210185519,-0.003849194560077489,0.017126421894721335,0.06194977489680715
16,0.0792052000033436,-0.0006973279137679114,0.00039993746050094017,-0.00042441105316385757,-0.0013360948184615985,0.01479093224450447,0.004354416812142569,-0.005304917171825915,0.05527447240887388,0.02445618627530996,-0.004050025564820727,0.01786961413109775,0.06532216581191226
17,0.0856468999991193,-0.0007335816450426221,0.00048494985577445996,-0.0004795368054805192,-0.0014162873563123154,0.01566548111010838,0.004643318357572414,-0.005571115890508385,0.057971697524216416,0.025820210753029815,-0.0042271190970136,0.018358623557509054,0.0685914648291129
18,0.0898109000117983,-0.0007483950209388115,0.0005242422326305883,-0.0004979568242215918,-0.0014962079114502586,0.016535884102076962,0.004933590645259818,-0.005831520172391886,0.06060149448346417,0.027170850382499334,-0.004380314824824995,0.018592321033083687,0.07175569758228913
19,0.0939777000021422,-0.0007657545525252432,0.0005645430115563062,-0.0005198231364659979,-0.0015758252071086736,0.017401774894883905,0.005225167539825415,-0.006085976161475514,0.06316219450066615,0.02850748967718361,-0.004509473683989766,0.018569806005006274,0.07481297254947988
20,0.0984615000052144,-0.0007786902875272771,0.0006270230972248858,-0.0005581151691829443,-0.0016551081785625649,0.018262789801859712,0.005517982804793304,-0.0063343342053877325,0.06565217671874898,0.029829523309319428,-0.004614478094635274,0.018290408377647616,0.0777614828793246
21,0.102353000009316,-0.0007870102678333601,0.000666694348162142,-0.0005708893993908921,-0.0017340259952750554,0.01911856803102082,0.005811970149447612,-0.006576448987047783,0.06806986964288089,0.031136356591825037,-0.0046952321556203895,0.017753690139941204,0.08059950813045114
22,0.1064833999989787,-0.0008097770588434856,0.0007220410185276325,-0.0006056601775078236,-0.0018125480827347507,0.01996875193717452,0.006107063275312829,-0.00681217965204023,0.07041375252523938,0.03242740594881874,-0.0047516618160920975,0.01695944674829402,0.08332541592173603
23,0.1108502000133739,-0.0008287505484421584,0.0007787389113277771,-0.0006138334747798778,-0.0018906441439624174,0.02081298727004962,0.006403195922209329,-0.007041389931564183,0.07268235669967063,0.03370209937425106,-0.004783715023992926,0.015907708262620484,0.0859376634914738
24,0.114683400010108,-0.0008397152683884014,0.0008276184028402244,-0.0006289933833715077,-0.001968284180665789,0.02165092341820859,0.006700301913836289,-0.007263948260824203,0.07487426686479062,0.034959876878170704,-0.004791361851280829,0.01459874023339372,0.08843479916360408
25,0.1190456000040285,-0.0008397152683884014,0.0008276184028402244,-0.0006289933833715077,-0.0020454385140218135,0.02248221364850308,0.006998315202835128,-0.007479727892735503,0.07698812231414112,0.036200190920160615,-0.004774594595652038,0.013033044337917259,0.09081546371926097
26,0.1230543999990914,-0.001005238890462038,0.000814239101796728,-0.0005989736614974134,-0.0021220778050662103,0.023306515340841157,0.007297169915287477,-0.007688607006821912,0.0790226181120792,0.037422506829496834,-0.004733427858586581,0.011211358764332479,0.09307839167202714
27,0.1272726000024704,-0.0008943137150908213,0.001008736099557974,-0.0006034550764952935,-0.00219817307467077,0.024123490218041218,0.007596800394602726,-0.00789046881319098,0.08097650621414608,0.03862630321159994,-0.004667898599565656,0.00913465834219219,0.09522241244539487
28,0.1315158000070369,-0.0008996507280104483,0.0010546022755754663,-0.0006006095098874669,-0.002273695723089415,0.02493280457055466,0.007897141244751181,-0.008085201651476694,0.08284859653072994,0.039811072340366606,-0.0045780661663398095,0.0068041544187479866,0.09724645145105792
29,0.1380789000104414,-0.0009083413383515204,0.0010996830289065045,-0.0005877099483272288,-0.0023486175490546575,0.025734129475846496,0.00819812737279998,-0.008272699084646515,0.08463775793290744,0.04097632053598708,-0.004464012301156877,0.004221294480418255,0.09914953106678215
30,0.1425172000017482,-0.0009062688410765332,0.00114354547123062,-0.0005771724538398547,-0.0024229107684067305,0.02652714101223061,0.00849969403071007,-0.008452859987575738,0.08634291919942032,0.04212156852787295,-0.0043258411228887395,0.0013877615192242384,0.10093077151272789
31,0.1467925000033574,-0.0009118583540691664,0.001165186843704697,-0.0005630191100819286,-0.002496548032238298,0.027311520466963838,0.008801776856353739,-0.008625588630298756,0.08796306990381535,0.04324635180233859,-0.004163679085026303,-0.001694526855696936,0.10258939162522475
32,0.1522394000057829,-0.0009134905121270625,0.0012081303810974233,-0.0005089280712161899,-0.0025695024445383237,0.028086954538410983,0.009104311913713404,-0.00879079475585334,0.08949726124084961,0.04435022093469892,-0.00397767490954247,-0.005023419561071479,0.10412470952712706
33,0.1563849000085611,-0.0009134905121270625,0.0012081303810974233,-0.0005089280712161899,-0.0026417475793193614,0.02885313553210126,0.009407235732223653,-0.008948393652640784,0.0909446067913377,0.04543274190546625,-0.003767999496653292,-0.008596533436207763,0.10553614319400807
34,0.1610254000115674,-0.0010726333776536557,0.0011622091482664367,-0.00044758156009967336,-0.0027132574972132343,0.029609761550504692,0.009710485345219793,-0.009098306221231476,0.09230428322469338,0.04649349640034872,-0.003534845810537912,-0.01241125489238074,0.10682321091558103
35,0.1648615000012796,-0.0009122037557141007,0.0012729085631829748,-0.00039153555395724985,-0.002784006761520795,0.030356536676365356,0.010013998327457495,-0.009240459035552295,0.0935755309384952,0.04753208209377375,-0.0032784287411082463,-0.016464741813487588,0.10798553165186678
36,0.169019400011166,-0.0008915411899404205,0.0012822477737274328,-0.0003828289002665303,-0.002853970453702194,0.031093171149437066,0.010317712831669518,-0.009374784398399179,0.0947576546344828,0.048548112915680626,-0.0029989849419496226,-0.020753925706261344,0.1090228252837581
37,0.1769882000080542,-0.0008923324846922422,0.0013405752628342673,-0.00031984058345269295,-0.0029231241882948333,0.031819381536475726,0.010621567624126972,-0.009501220391225154,0.09585002383046824,0.04954121930134765,-0.0026967726445836977,-0.02527551409801239,0.10993491275776363
38,0.1816470000048866,-0.0008995576888509136,0.0013745104064070877,-0.0002788321388995957,-0.002991444127246938,0.03253489089435163,0.010925502119174039,-0.00961971091816108,0.09685207330772516,0.05051104842404027,-0.002372071449234916,-0.030025993179552946,0.11072171612484547
39,0.1854738000110956,-0.0009096064183950897,0.001431058698757959,-0.0002274744216883628,-0.0030589069936554363,0.03323942892615389,0.011229456412706581,-0.009730205744233434,0.09776330349349684,0.05145726441028817,-0.002025182092311489,-0.03500163069064817,0.11138325847339701
40,0.1898282000038307,-0.0009260784991246356,0.0014652555310256984,-0.000187523070964954,-0.003125490084897661,0.03393273213016835,0.011533371314566575,-0.009832660527750494,0.0985832807783437,0.05237954853762082,-0.001656426190841329,-0.040198479045029135,0.11191966375653863
41,0.1931066000106511,-0.0009260784991246356,0.0014652555310256984,-0.000187523070964954,-0.0031911712851471464,0.034614543941619794,0.011837188379825803,-0.009927036846835347,0.09931163776812962,0.05327759941461279,-0.0012661459641324737,-0.045612378691698346,0.11233115651404006
42,0.1967863000027137,-0.0009260784991246356,0.0014652555310256984,-0.000187523070964954,-0.003255929077264587,0.03528461486707853,0.012140849938933855,-0.010013302220091284,0.099948073470526,0.054151133143111825,-0.0008547039329563208,-0.05123896170895793,0.11261806148930938
43,0.2016919000016059,-0.0009611124193804599,0.0015951554756667094,4.725083814557562e-06,-0.0033197425540558287,0.03594270261144067,0.012444299126707095,-0.010091430121392256,0.10049235341599105,0.05499988346254466,-0.0004224825965803534,-0.05707365562729526,0.1127808031420171
44,0.207224000012502,-0.0009395992626813785,0.0016474148782479358,1.8343803425007276e-05,-0.0033825914288895843,0.03658857219740084,0.012747479910136836,-0.010161399988798088,0.10094430971326078,0.05582360187621747,3.011591199501666e-05,-0.06311168747697,0.11281990505705379
45,0.2108977000025333,-0.000994177600805121,0.0016541983473129125,8.792213257563179e-05,-0.0034444560456683712,0.03722199607734549,0.013050337114996582,-0.010223197227601224,0.10130384103946706,0.05662205775954981,0.0005026701922134131,-0.06934808805586148,0.11273598925064618
46,0.2148630000010598,-0.0009975482284981818,0.001676957581836209,0.00010977969335509176,-0.003505317388146972,0.03784275423760455,0.013352816451229843,-0.010276813207518758,0.10157091256507611,0.057395038450202954,0.0009947399631442476,-0.0757776964128558,0.11252977537458267
47,0.218184100012877,-0.0009975482284981818,0.001676957581836209,0.00010977969335509176,-0.0035651570885935307,0.03845063429500874,0.013654864537101656,-0.010322245254050448,0.10174555581391814,0.05814234932008542,0.0015058664712338601,-0.08239516454177867,0.11220207981962446
48,0.2218359000107739,-0.0009975482284981818,0.001676957581836209,0.00010977969335509176,-0.003623957435789225,0.039045431585709306,0.013956428922098559,-0.010359496634030336,0.1018278684586562,0.05886381382924011,0.0020355729181648612,-0.08919496228061415,0.11175381471930228
49,0.2267085000057704,-0.0009831064248668957,0.0018222717946873353,0.00023746711068280347,-0.0036817013823632633,0.0396269492462266,0.014257458108563485,-0.01038857653540647,0.10181801405211814,0.05955927356163967,0.0025833649083373328,-0.09617138241048973,0.11118598685541882
50,0.2302848000108497,-0.0009831064248668957,0.0018222717946873353,0.00023746711068280347,-0.003738372551460759,0.04019499828670303,0.014557901572053635,-0.010409500041289928,0.1017162216949915,0.0602285882429378,0.003148730915461038,-0.10331854594865787,0.11049969646669631
51,0.2335393000103067,-0.0009831064248668957,0.0018222717946873353,0.00023746711068280347,-0.003793955242741861,0.040749397656345845,0.01485770978041115,-0.010422288098321077,0.10152278564045465,0.06087163574024592,0.0037311427677240126,-0.11063040762945954,0.1096961359621261
52,0.2374255000031553,-0.0010998468008842472,0.0017973985983294962,0.0002373009534281079,-0.00384843443771133,0.04128997430105436,0.015156834211537996,-0.010426967479407575,0.10123806483639124,0.06148831204402554,0.0043300561509798455,-0.11810076156701921,0.1087765885406897
53,0.2420372000051429,-0.0009954310078414935,0.002019712113827139,0.00026728005480762583,-0.00390179580437853,0.041816563213235486,0.015455227369868124,-0.010423570740895251,0.10086248240590769,0.06207853123220794,0.004944911129373655,-0.12572324709319335,0.10774242671923326
54,0.245887600001879,-0.0009925278470264468,0.002126977732526154,0.0002525522727743782,-0.003954025701248597,0.04232900747382084,0.015752842801531712,-0.010412136174239276,0.10039652506694406,0.06264222541667298,0.005575132682805251,-0.13349135476407584,0.10659511077038573
55,0.2535748000082094,-0.0009925278470264468,0.002126977732526154,0.0002525522727743782,-0.004005111180646342,0.042827158286507586,0.016049635108207946,-0.010392707752249432,0.09984074249183793,0.0631793446722394,0.006220131260607302,-0.14139843252815484,0.10533618707251892
56,0.257186200004071,-0.0011720275016347203,0.0021692250717628625,0.00029310219099018504,-0.004055039991375225,0.043310875004254276,0.016345559959664392,-0.010365335069989426,0.09919574660776961,0.06368985694833894,0.006879303350796476,-0.149437692049014,0.10396728637385083
57,0.2605634000065038,-0.0010179130706777803,0.0025790321532408273,0.0003924134231841017,-0.004103800580714515,0.043780025148071895,0.01664057410498257,-0.010330073280416187,0.09846221083908512,0.06417374796356631,0.007552032064236589,-0.15760221517528125,0.10249012197289355
58,0.2653853000083472,-0.001014301449290586,0.002666119653202442,0.0004188045599958069,-0.004151382095758502,0.04423448441815956,0.01693463538247094,-0.010286983024851017,0.09764086929255744,0.06463102108331634,0.008237687733034732,-0.16588496055034757,0.10090648781754394
59,0.2688539000082528,-0.0010266807861322572,0.0027470399441603278,0.00043870232585252244,-0.004197774384102401,0.044674136697442926,0.017227702728268252,-0.010236130358380141,0.09673251588671042,0.06506169718073854,0.008935628522474238,-0.1742787703542065,0.09921825652521005
60,0.2731432000000495,-0.0010465048432664577,0.0028169551285912786,0.0004838398635528696,-0.0042429679938803125,0.045098874047581554,0.017519736183641593,-0.010177586670287848,0.09573800342639079,0.06546581448125857,0.009645201055772152,-0.1827763771696052,0.09742737732645605
61,0.2773091000126442,-0.0010518183792332545,0.0029105740811455403,0.00047440514927682116,-0.004286954173161297,0.045508596697519804,0.017810696900985183,-0.01011142859963081,0.09465824262383428,0.06584342839093363,0.010365741050933667,-0.19137041096454904,0.09553587393473545
62,0.2814881000085734,-0.0010635728754353451,0.002976035667767525,0.0004933182492584895,-0.004329724868710343,0.045903213024664165,0.018100547148527466,-0.010037737946067497,0.09349420106753001,0.06619461130892677,0.011096573968961783,-0.20005340618306125,0.09354584234486538
63,0.2855064000032143,-0.0010635728754353451,0.002976035667767525,0.0004933182492584895,-0.0043712727241217,0.04628263952877781,0.018389250313755642,-0.009956601576061694,0.09224690214024316,0.06651945242440255,0.011837015672667204,-0.208817808935973,0.09145944856297397
64,0.2900313999998616,-0.0010635728754353451,0.002976035667767525,0.0004933182492584895,-0.004411591077332717,0.04664680079869097,0.018676770905568185,-0.009868111324584058,0.09091742388761073,0.06681805749816247,0.012586373095311349,-0.21765598428340127,0.08927892627072796
65,0.2942705000023125,-0.0012244563817768264,0.002988158751501605,0.0005471968384107936,-0.004450673957526996,0.04699562947193367,0.018963074555167405,-0.009772363892440376,0.08950689783877654,0.06709054862935593,0.013343944918304153,-0.2265602236004672,0.08700657442671957
66,0.2981758000096306,-0.001176841717984096,0.003323151512826365,0.0006132898345042738,-0.0044885160814362715,0.04732906618740442,0.019248128015705464,-0.009669460739359757,0.08801650778058148,0.0673370640076176,0.014109022257168249,-0.23552275201771214,0.08464475480795931
67,0.3023917000100482,-0.001199647067172794,0.003417777095608358,0.0006662101812177329,-0.004525112849051091,0.047647059531196044,0.01953189916069879,-0.009559507972980262,0.08644748848687328,0.06755775765099754,0.014880889354972037,-0.24453573592758676,0.08219588949448457
68,0.3066934000089532,-0.0012243652597533506,0.0035025217988296983,0.0007210087844397838,-0.004560460338750962,0.04794956597570667,0.019814356981227188,-0.009442616233873683,0.0848011244045455,0.06775279913006477,0.015658824282426126,-0.2535912905483156,0.07966245830015276
69,0.3107464000058826,-0.0012590663432202073,0.0036109773188530074,0.0007925825501403188,-0.004594555301865217,0.0482365498121707,0.02009547158193524,-0.009318900576755103,0.08307874829795873,0.06792237327857908,0.01644209964383069,-0.26268148753637954,0.07704699615274323
70,0.3151214000099571,-0.001292147876008275,0.003690055250437432,0.000859961234953111,-0.004627395156676451,0.04850798307675111,0.020375214175854656,-0.009188480348026575,0.08128173985343734,0.06806667989113885,0.017229983288055476,-0.2717983626388102,0.07435209042654292
71,0.3200484000117285,-0.001357280945492432,0.0037614056298323688,0.0008973559142781708,-0.004658977981878907,0.04876384547034094,0.02065355707806759,-0.009051479059807783,0.07941152424557406,0.06818593340822532,0.018021739023729486,-0.2809339233764528,0.07158037823063655
72,0.323546500003431,-0.0013966517358018691,0.0038035591647705325,0.0009351345774452814,-0.004689302509504695,0.04900412427222777,0.02093047369823224,-0.008908024260609876,0.07746957066711112,0.06828036258907628,0.01881662733781369,-0.2900801567493305,0.06873454365616458
73,0.3274080000119284,-0.0014238071703158049,0.003833940452403991,0.0009764074204905218,-0.004718368117331232,0.04922881424778054,0.021205938531993308,-0.008758247402811779,0.0754573908241995,0.06835021017283341,0.019613906116727607,-0.2992290369552278,0.06581731498584968
74,0.3312624000100186,-0.0014463921499527333,0.0038593595989315317,0.0010787345554913086,-0.0047461748207838425,0.04943791755032404,0.021479927151300798,-0.008602283707101211,0.07337653739886928,0.06839573252841924,0.020412831369198886,-0.3083725331126109,0.06283146186912583
75,0.3354144000040833,-0.0014623091290768082,0.00390759420668472,0.0011586065531244364,-0.00477272326434788,0.049631443617371325,0.021752416193661868,-0.008440272024045329,0.0712286024805726,0.06841719929360988,0.02121265795000477,-0.3175026169790144,0.059779792466232315
76,0.3396975000068778,-0.0014869626302819975,0.0039061038453699257,0.0011961822438308495,-0.0047980147125051805,0.049809409061389844,0.022023383350351394,-0.008272354692958282,0.06901521596868694,0.06841489300377832,0.02201264028377505,-0.3266112706560405,0.05666515056466012
77,0.3438323000009404,-0.0014793363037136661,0.003887652666007304,0.0012438316914730459,-0.004822051040210053,0.04997183755528174,0.02229280735360822,-0.00809867739823519,0.06673804394788962,0.06838910871079293,0.022812033088027785,-0.3356904942721541,0.053490412671356735
78,0.3482480000093346,-0.001499568961050742,0.0038835182343761074,0.0012957768704368001,-0.004844834722920455,0.05011875971276302,0.022560667962844803,-0.007919389023324,0.06439878703833586,0.06834015359256398,0.02361009209461209,-0.3447323136344962,0.05025848508411085
79,0.3522449000010965,-0.0015178638546437164,0.0038859617840465853,0.001353000180362818,-0.004866368826200363,0.0502502129638309,0.022826945949899057,-0.0077346415025083895,0.06199917872259146,0.06826834655373828,0.02440607476873618,-0.3537287878409987,0.04697230094554936
80,0.3561220000119647,-0.0015178638546437164,0.0038859617840465853,0.001353000180362818,-0.004886656994909665,0.050366241425512465,0.023091623083358014,-0.007544589670676475,0.059540983651286614,0.0681740178180485,0.02519924102476385,-0.36267201684414635,0.043634817283185294
81,0.3603051000100095,-0.0016809904649540503,0.0038067963876019474,0.001460860669824306,-0.004905703441998237,0.05046689576809113,0.023354682111983792,-0.007349391111251303,0.05702599592947134,0.06805750851282968,0.025988853937968674,-0.3715541489578125,0.04024901203895688
82,0.3689927000086754,-0.0015764429124223837,0.0039056465864217346,0.0015878834258479344,-0.004923512936921159,0.050552233077010816,0.023616106747273016,-0.007149206002460171,0.05445603738566341,0.06791917024622202,0.026774180451442142,-0.38036738829868233,0.036817881091695384
83,0.3738502000051085,-0.0015890477423613444,0.0038961838574541525,0.001636852879890667,-0.0049400907936923,0.050622316710661176,0.023875881645181587,-0.00694419696212066,0.05183295582558742,0.06775936467758326,0.027554492077360132,-0.3891040021538768,0.03334443527595212
84,0.3774902000004658,-0.0016213636521108762,0.0038696512355965527,0.0016989344412553756,-0.004955442858593735,0.05067721615424979,0.024133992387047335,-0.0067345288911218465,0.04915862327260974,0.06757846308163895,0.02832906559182096,-0.3977563282665022,0.029831697400603943
85,0.3816614000097615,-0.0016402712206036564,0.003841337532857962,0.001745463101399259,-0.0049695754975587455,0.05071700686997,0.024390425459743802,-0.006520368815779598,0.04643493419687725,0.06737684590690096,0.0290971837224785,-0.40631678203096905,0.02628269927064071
86,0.3851744000130566,-0.0016402712206036564,0.003841337532857962,0.001745463101399259,-0.004982495583246279,0.05074177014367506,0.024645168235098925,-0.006301885729245006,0.04366380373516822,0.06715490232888834,0.02985813582820497,-0.4147778635900564,0.02270047871551832
87,0.3898331000091275,-0.0017931400186724893,0.0037455249081390736,0.0018474223636543237,-0.004994210481824972,0.050751592928271305,0.024898208948612967,-0.0060792504321448846,0.04084716590346187,0.06691302979868628,0.030611218570029866,-0.4231321648258393,0.01908807662743641
88,0.394606300003943,-0.0016997260833289942,0.0037721249844531366,0.001930636934614649,-0.005004728039484928,0.05074656768404448,0.02514953667751047,-0.005852635372632979,0.03798697180422869,0.06665163358738077,0.03135573657261435,-0.43137237623674624,0.015448534012871398
89,0.3980876999994507,-0.0017310845439680905,0.0037102493530495654,0.0019499070925106132,-0.005014056568695603,0.05072679221613509,0.02539914131816167,-0.005622214486030004,0.03508518783043675,0.06637112632690685,0.032091003075534245,-0.4394912936931745,0.011784889060662903
90,0.4025828000012552,-0.0017425485904032562,0.0036688111965082395,0.0019965896257755395,-0.005022204834228257,0.05069236950937922,0.025647013562909136,-0.005388163034229902,0.03214379386825968,0.06607192754784916,0.032816340573659404,-0.4474818250642607,0.008100174229914972
91,0.4066540000058012,-0.0017524933242814118,0.003616723295630089,0.002067894916834178,-0.0050291820389615416,0.05064340756073237,0.02589314487633578,-0.005150657445048755,0.02916478150046034,0.06575446321473191,0.03353108144593273,-0.4553369967085813,0.004397413360932965
92,0.4123854000063147,-0.0017776548130689282,0.003583965859284238,0.0021246704505771693,-0.005034997809488798,0.05058001920949428,0.026137527471010703,-0.004909875151691629,0.026150152212410245,0.06541916525933472,0.034234568571868906,-0.4630499598217474,0.0006796188123724786
93,0.4165756000002147,-0.0018073585216711184,0.003589543741456452,0.002219622712486048,-0.005039662181545742,0.05050232196555332,0.02638015428274959,-0.00466599443251131,0.023101915602688164,0.06506647111256822,0.034926155935109636,-0.4706139966340501,-0.003050211372271479
94,0.4208473000035155,-0.0018303922898550923,0.0035865291043682126,0.0023044758518391594,-0.0050431855852771205,0.05041043783586892,0.026621018945426445,-0.004419194251231245,0.020022087600182505,0.06469682323544103,0.035605209213390526,-0.4780225264515187,-0.006789096265758779
95,0.4248463000112679,-0.0018450215376084847,0.0035738953724900433,0.002357627894375129,-0.005045578830360962,0.05030449314941007,0.026860115765373487,-0.00416965409780323,0.01691268868960099,0.06431066864964637,0.03627110635429329,-0.48526911153396246,-0.010534074822761245
96,0.4292423000006238,-0.0018450215376084847,0.0035738953724900433,0.002357627894375129,-0.005046853091008991,0.05018461838076743,0.02709743969540638,-0.003917553830068393,0.01377574214726786,0.06390845846829288,0.03692323813617642,-0.49234746280378944,-0.014282208607120959
97,0.4337424000113969,-0.002063461638358222,0.003444420496247165,0.0024096221142901144,-0.005047019890861696,0.050050947972655274,0.02733298630851189,-0.003663073516387851,0.010613272289063433,0.06349064742729925,0.037561008713697844,-0.49925144537962196,-0.018030584477810765
98,0.4390019000129541,-0.002063461638358222,0.003444420496247165,0.0024096221142901144,-0.005046091087796466,0.049903620157518654,0.027566751771235104,-0.0034063932794070233,0.007427302732333154,0.06305769341796716,0.03818383614736364,-0.5059750839289606,-0.021776317230763852
99,0.4463263000070583,-0.0019117797604065812,0.003460590917871012,0.0027357257513950495,-0.005044078858667097,0.04974277677845967,0.027798732816803257,-0.003147693141115038,0.004219854673563834,0.06261005702124174,0.038791152916558845,-0.5125125678343858,-0.025516552193808294
100,0.4531527000071946,-0.001908069072570536,0.003464449753044793,0.002813054073208039,-0.005040995683992819,0.04956856310969564,0.02802892671802332,-0.0028871528693579507,0.0009929451835930141,0.06214820104416242,0.03938240641553797,-0.5188582561680295,-0.02924846777201472
101,0.4572600000101374,-0.0020981710630888053,0.0033974513317300945,0.002887085323470203,-0.005036854332614878,0.04938112767675976,0.028257331259990283,-0.002624951825961573,-0.002251414477916214,0.061672590059000734,0.03995705943187567,-0.5250066824693035,-0.0329692779408402
102,0.4617718000081368,-0.0019182111414452127,0.0034082712599822758,0.0030475573110237066,-0.005031667846338535,0.04918062207665279,0.0284839447126428,-0.0023612688166166325,-0.0055112205270380615,0.061183689945574306,0.04051459060690126,-0.5309525593211308,-0.03667623468452962
103,0.4671974000084447,-0.0019182111414452127,0.0034082712599822758,0.0030475573110237066,-0.005025449524578133,0.04896720079815209,0.028708765803202824,-0.0020962819426757298,-0.008784478297524998,0.060681967437217606,0.041054494877664376,-0.5366907827201852,-0.040366630377316415
104,0.471506900008535,-0.0020606134089245346,0.0033238502081549856,0.003134579954705268,-0.005018212909022633,0.04874102104248203,0.02893179368853549,-0.00183016845500815,-0.012069203858506369,0.06016788967088182,0.04157628390000336,-0.5422164362369131,-0.044037800105047736
105,0.4768010000116192,-0.001880097261218195,0.0032974712428137944,0.003318074468018943,-0.005009971768338855,0.0485022425445467,0.029153027927465196,-0.0015631046100550415,-0.015363425606365014,0.059641923741827134,0.042079486452312694,-0.5475247949613834,-0.04768712392494496
106,0.481130000000121,-0.001880097261218195,0.0032974712428137944,0.003318074468018943,-0.00500074008292939,0.048251027394923054,0.029372468453083382,-0.0012952655282237574,-0.018665185829254635,0.05910453626336126,0.0425636488196307,-0.5526113292312808,-0.05131202906129879
107,0.4866237000096589,-0.00201840468273198,0.0031828957833290876,0.0034563462307844635,-0.0049905320297618785,0.04798753986280895,0.029590115545082903,-0.0010268250547563007,-0.02197254224276466,0.05855619293206833,0.04302833515769397,-0.5574717081386367,-0.05490999203498866
108,0.4903427000099327,-0.0018551581506704756,0.0031600754001434037,0.003737244720954563,-0.004979361967286091,0.04771194622011741,0.029805969802153717,-0.0007579556232028422,-0.025283569495284864,0.05799735809896172,0.043473127836630654,-0.5621018028121797,-0.05847854072480845
109,0.4946902000083355,-0.0018551581506704756,0.0031600754001434037,0.003737244720954563,-0.004967244420454932,0.04742441456690474,0.03002003211447417,-0.0004888281216271546,-0.028596360641669066,0.05742849434698408,0.043897627763990886,-0.5664976894724674,-0.06201525635867537
110,0.4986799000034807,-0.0020059470030821726,0.0030388544988350606,0.003938254722551267,-0.004954194065865165,0.047125114658316564,0.030232303636331507,-0.00021961176166657804,-0.03190902858384549,0.05685006207526613,0.04430145468683892,-0.5706556522572471,-0.06551777543289516
111,0.5022440000029746,-0.0020059470030821726,0.0030388544988350606,0.003938254722551267,-0.004940225717033328,0.046814217733231724,0.030442785758904935,4.952604943522126e-05,-0.035219707477070955,0.056262519090544395,0.04468424747265836,-0.5745721858147869,-0.06898379155775433
112,0.5062922000070103,-0.001982862905213281,0.003016416392115931,0.00417111247787976,-0.004925354309821937,0.04649189634478017,0.030651480083243914,0.00031841983370890943,-0.03852655410057686,0.0556663202061256,0.04504566436884827,-0.5782439976632031,-0.07241105722781006
113,0.5100210000091465,-0.001982862905213281,0.003016416392115931,0.00417111247787976,-0.0049095948880306835,0.046158324192906004,0.03085838839347387,0.000586906164144334,-0.04182774919140697,0.05506191684877334,0.04538538324061481,-0.5816680103141059,-0.07579738551534962
114,0.5146563000016613,-0.0019707824064482218,0.00297168371302571,0.004391915214104244,-0.004892962589167,0.045813675959142625,0.031063512630260876,0.000854823783075002,-0.0451214987403,0.05444975667387997,0.04570310178708992,-0.5848413631591682,-0.07914065168559259
115,0.5188045000104466,-0.0017292584983790915,0.0029540796529806818,0.0047095565371727075,-0.0048754726304099825,0.04545812714376208,0.03126685486456606,0.0011220137171623781,-0.04840603524852396,0.053830283189273846,0.04599853773553569,-0.587761414118523,-0.08243879473231258
116,0.5225006000109715,-0.0017292584983790915,0.0029540796529806818,0.0047095565371727075,-0.004857140294781212,0.045091853905455934,0.03146841727171986,0.0013883193888850304,-0.0516796189446243,0.05320393538799833,0.04627142901351986,-0.5904257410501822,-0.08568981883265961
117,0.5273198000068078,-0.0018961188991843579,0.002874634523977846,0.004866809721232506,-0.004837980917535605,0.04471503290370041,0.03166820210584523,0.001653586724442562,-0.054940538960103036,0.05257114739038538,0.04652153389897531,-0.5928321429199644,-0.08889179472006888
118,0.5314407000114443,-0.0016601347155601226,0.0028672829115874293,0.005245584662394102,-0.004818009872785021,0.04432784114395324,0.031866211674658564,0.001917664257989243,-0.058187114463102804,0.051932348095732855,0.04674863114808292,-0.594978640731705,-0.09204286097424794
119,0.5352308000001358,-0.0016601347155601226,0.0028672829115874293,0.005245584662394102,-0.004797242560366847,0.0439304558258244,0.0320624483146761,0.002180403232117306,-0.06141769574922685,0.05128796084388005,0.04695252010094472,-0.596863478217819,-0.09514122522734077
120,0.5396455000009155,-0.0018014111335504165,0.0027422044513661474,0.005438184962206676,-0.004775694392969375,0.04352305419435767,0.032256914366852844,0.002441657694514965,-0.06463066528868344,0.0506384030869622,0.04713302076504039,-0.5984851222905748,-0.09818516528547408
121,0.5432662000093842,-0.0018014111335504165,0.0027422044513661474,0.005438184962206676,-0.004753380783525342,0.04310581339455452,0.03244961215268031,0.002701284590729356,-0.06782443872900161,0.04998408607160935,0.04728997387648723,-0.5998422632547233,-0.10117303016499819
122,0.547020900005009,-0.0018014111335504165,0.0027422044513661474,0.005438184962206676,-0.004730317132884505,0.042678910329266365,0.03264054395076823,0.0029591438529697925,-0.07099746585262395,0.049325414531840514,0.047423240939150395,-0.6009338147824138,-0.10410324104284194
123,0.5510301000031177,-0.0017119493115600455,0.0026598949064929674,0.005854947776041603,-0.004706518817775693,0.042242521520575484,0.03282971197393484,0.003215098484891943,-0.074148231488741,0.04866278639288934,0.047532704241676674,-0.6017589136516096,-0.10697429212050799
124,0.5556328000093345,-0.0015750648645581873,0.0026511290878419493,0.00614650443005428,-0.004682001179068241,0.041796822974779435,0.03301711834682927,0.0034690146423088032,-0.07727525637879105,0.047996592486181947,0.04761826685255131,-0.6023169192494948,-0.10978475140134153
125,0.5602205000031972,-0.0016853613038156,0.0025307469036287933,0.006399979754924198,-0.0046567795103422795,0.041341990051087935,0.03320276508410851,0.0037207617097795944,-0.08037709799510867,0.04732721627567264,0.04767985259330287,-0.6026074128426392,-0.11253326138081166
126,0.5637310000020079,-0.0016853613038156,0.0025307469036287933,0.006399979754924198,-0.0046308690467768135,0.040878197334135176,0.03338665406919029,0.003970212373032992,-0.08345235131226487,0.046655033595727834,0.04771740599000708,-0.6026301966159623,-0.11521853964965116
127,0.5675484000094002,-0.0016853613038156,0.0025307469036287933,0.006399979754924198,-0.00460428495436401,0.040405618510404494,0.03356878703360253,0.004217242687186381,-0.08649964953070194,0.04598041240073281,0.047730892203265346,-0.6023852924828083,-0.11783937940980622
128,0.5711942000052659,-0.0017094870928743462,0.0025006315534993225,0.006784144522784619,-0.0045770423194576,0.039924426248656615,0.03374916553694901,0.004461732140728114,-0.08951766475232496,0.04530371252658105,0.047720296936858905,-0.6018729406687104,-0.12039464990325252
129,0.577563500002725,-0.0014408244449365998,0.002512771539076768,0.007375384931832687,-0.004549156138662809,0.03943479208444639,0.03392779094750964,0.004703563715235043,-0.09250510860777195,0.04462528546418993,0.04768562632530399,-0.6010935980716778,-0.12288329675383865
130,0.5812884000042686,-0.0014280086194452175,0.0024902271633209993,0.007568415380936055,-0.004520641309074699,0.03893688630880704,0.03410466442349325,0.004942623940802845,-0.09546073283514385,0.04394547414517137,0.04762690680055749,-0.6000479364020904,-0.12530434222242098
131,0.5854911000060383,-0.0013937165049884238,0.0024449328971973706,0.007829813702972534,-0.004491512618871302,0.038430877861174856,0.03427978689495939,0.005178802947171959,-0.09838332981003485,0.04326461273977006,0.0475441849381463,-0.5987368401055438,-0.12765688537565592
132,0.5903551000083098,-0.0013703800199018953,0.0024234936689125556,0.00805951453482659,-0.004461784738267411,0.0379169342266213,0.0344531590464251,0.005411994510537123,-0.10127173302676158,0.042583026467166316,0.04743752728301624,-0.597161404072224,-0.1299401021689165
133,0.5942899000074249,-0.0013437315743572782,0.0024003356173351474,0.008251271218172646,-0.0044314722108343444,0.03739522133745336,0.03462478130017108,0.005642096096033698,-0.10412481753074843,0.04190103141822547,0.04730702015541938,-0.5953229311366327,-0.1321532454439009
134,0.5982187000045087,-0.0013501975297646762,0.0023531527612101672,0.00840060444848841,-0.004400589445190514,0.03686590347923702,0.03479465380026121,0.005869008895899119,-0.10694150030208409,0.041218934390759736,0.047152769437180296,-0.5932229293717148,-0.13429564484159784
135,0.6021910000126809,-0.0013674861554405404,0.002319854605737386,0.008637731292262951,-0.004369150707067087,0.036329143201292366,0.03496277639728795,0.006092637863312926,-0.10972074059032207,0.040537032737353734,0.04697490033870364,-0.5908631091816628,-0.1363667066313705
136,0.6075743000110378,-0.0013989112975724043,0.0022945162848762514,0.008838741246094026,-0.004337170111752541,0.03578510123170304,0.03512914863385522,0.0063128917419238645,-0.11246154020065478,0.03985561422578963,0.046773557147106015,-0.5882453801978974,-0.13836591345701513
137,0.6118867000041064,-0.0014020434992917793,0.002250478872745365,0.009012494154520694,-0.004304661616919386,0.0352339363968763,0.035293769730809124,0.006529683091077593,-0.11516294373164628,0.039174956912092135,0.04654890295587552,-0.5853718479829338,-0.14029282400074458
138,0.6153289000067161,-0.001407688875046268,0.002211810586188496,0.00917022743789617,-0.004271639015835795,0.03467580554568461,0.03545663857422582,0.006742928306763417,-0.11782403876476404,0.03849532902619905,0.046301119376482014,-0.5822448105470507,-0.14214707256613748
139,0.6192375000100583,-0.0013916508817747057,0.002189629469776605,0.009346890518420083,-0.004238115930964382,0.03411086347821299,0.03561775370316507,0.006952547638303318,-0.12044395600600584,0.03781698887024797,0.04603040623238033,-0.5788667546828723,-0.1439283685811835
140,0.6229350000066916,-0.0013577736124522743,0.0021569026486591225,0.00957348893905906,-0.004204105807949824,0.03353926287913076,0.03577711329819683,0.007158465200811338,-0.12302186937997005,0.03714018472945525,0.045736981235867065,-0.5752403521231692,-0.14563649602264123
141,0.6264037000073586,-0.0013577736124522743,0.0021569026486591225,0.00957348893905906,-0.004169621909996579,0.032961154255700384,0.0359347151707073,0.007360608983456115,-0.12555699607677154,0.03646515479554861,0.04542107964826913,-0.5713684555273624,-0.14727131276301123
142,0.630151500008651,-0.0013577736124522743,0.0021569026486591225,0.00957348893905906,-0.004134677312637416,0.03237668588043024,0.03609055675299012,0.007558910853563982,-0.12804859655225748,0.0357921271027002,0.0450829539239597,-0.5672540943023938,-0.14883274984150852
143,0.6362786000099732,-0.0014759089536549638,0.0021670360471059643,0.010204437467506213,-0.00409928489889301,0.03178600373837248,0.03624463508912695,0.007753306556604561,-0.1304959744820274,0.03512131947589322,0.04472287333871325,-0.56290047026379,-0.15032081066050074
144,0.6401401000039186,-0.0014586665000801832,0.0021893745675720744,0.010401597710073018,-0.004063457354822332,0.03118925147906122,0.03639694682666097,0.007943735712105264,-0.13289847666981194,0.03445293949164093,0.044341123602926934,-0.5583109531429122,-0.15173557010895533
145,0.6437953999993624,-0.0014422198930512497,0.002169034108625352,0.010604951855890117,-0.004027207165463053,0.030586570373080654,0.036547488209065435,0.008130141805545417,-0.13525549291081304,0.03378718445096349,0.043938006460250284,-0.5534890759465314,-0.15307717361451548
146,0.6482240000041202,-0.0014545518612516582,0.002144086562348746,0.010792226937874705,-0.003990546611160772,0.029978099273247332,0.03669625506900893,0.008312472176284938,-0.1375664558106559,0.033124241364514286,0.04351383927217926,-0.5484385301750039,-0.15434583612589733
147,0.6525631000113208,-0.0014692496618630084,0.00212003871524745,0.01097604700186486,-0.003953487764285353,0.029363974580385116,0.036843242822417195,0.008490678001586658,-0.13983084056064868,0.03246428694973451,0.043068954589184,-0.5431631609054647,-0.15554184102737204
148,0.6559651999996277,-0.0014692496618630084,0.00212003871524745,0.01097604700186486,-0.003916042486332238,0.028744330213665865,0.036988446463331465,0.00866471427679543,-0.14204816467009063,0.031807487639901676,0.04260369970895205,-0.537666961746574,-0.1566655389871624
149,0.6593526000069687,-0.0014692496618630084,0.00212003871524745,0.01097604700186486,-0.0038782224254061484,0.028119297585483764,0.037131860559561664,0.008834539791741055,-0.14421798765641392,0.031153999604925653,0.04211843622234043,-0.5319540696714687,-0.15771734674164872
150,0.6628980000095908,-0.0014692496618630084,0.00212003871524745,0.01097604700186486,-0.0038400390140841314,0.027489005580825947,0.03727347924913205,0.009000117103435776,-0.14633991069398677,0.03050396878373319,0.04161353954764078,-0.5260287597356786,-0.1586977458173399
151,0.6663807000004454,-0.0014692496618630084,0.00212003871524745,0.01097604700186486,-0.003801503467654468,0.026853580541097332,0.03741329623751566,0.009161412505140793,-0.14841357622244658,0.029857530928069954,0.04108939845377149,-0.5198954396868659,-0.1596072811926251
152,0.6705615000100806,-0.001635147460516768,0.0020255724734662174,0.011190854033086152,-0.003762626782727521,0.02621314625235222,0.03755130479565331,0.009318395991879742,-0.1504386675154704,0.02921481165753768,0.04054641457302041,-0.5135586444733302,-0.16044655990137774
153,0.6740908000065247,-0.0015560207111327226,0.0021506867752519197,0.011973486499183122,-0.003723419736214188,0.02556782393788059,0.03768749775875197,0.00947104122248048,-0.15241490821092743,0.028575926525672653,0.03998500190396984,-0.5070230306583038,-0.1612162495805359
154,0.6774361999996472,-0.0015811886198309581,0.0021819888485057506,0.012171314452992882,-0.003683892884667227,0.024917732255092175,0.03782186752585663,0.009619325478229837,-0.1543420618033935,0.027940981096860745,0.03940558630524312,-0.5002933707471315,-0.16191707696383476
155,0.6816120000003139,-0.0015671915913872503,0.0022827930783719083,0.012426684349776096,-0.003644056563980316,0.024262987296636864,0.03795440606018875,0.009763229618229102,-0.15621993110004417,0.02731007103387372,0.03880860498071883,-0.49337454743448944,-0.16254982632391168
156,0.6854970999993384,-0.0015678467629053408,0.0023432276037232136,0.012642250712789871,-0.0036039208894393247,0.023603702595695508,0.03808510489024349,0.009902738031540986,-0.15804835764097727,0.026683282195801107,0.03819450595686433,-0.4862715477788486,-0.1631153378650485
157,0.6897259000106715,-0.0015678467629053408,0.0023432276037232136,0.012642250712789871,-0.003563495756119922,0.022939989135370816,0.038213955111636916,0.010037838586221778,-0.1598272210850466,0.026060690746142468,0.0375637475528453,-0.4789894573114332,-0.16361450606885658
158,0.6938905999995768,-0.001674407280507361,0.0022989335589754236,0.012910504749921723,-0.0035227908396252804,0.022271955362103867,0.038340947389693826,0.010168522575335043,-0.16155643856231786,0.025442363270815446,0.03691679784407178,-0.4715334540869518,-0.16404827799524793
159,0.6981151000072714,-0.0015807980423945883,0.002452712563582294,0.013254681199928094,-0.0034818155971572686,0.021599707203037728,0.038466071962766066,0.010294784660045787,-0.16323596399428544,0.02482835690582574,0.036254134119844544,-0.4639088026834059,-0.16441765154106963
160,0.7026237000100082,-0.0015730967385590151,0.0024848593575148856,0.013450261281971798,-0.0034405792689142086,0.020923348087245778,0.03858931864627046,0.010416622809896381,-0.16486578738301663,0.024218719474336618,0.035576242335768414,-0.45612084815829523,-0.16472367365881016
161,0.7063996000069892,-0.0015821168042906627,0.002529837823674823,0.013679556214431843,-0.0033990908798079283,0.020242978970738644,0.03871067683743449,0.010534038240367843,-0.16644593407041594,0.02361348963286717,0.03488361656160052,-0.44817500996854304,-0.1649674385378143
162,0.7105977000028361,-0.0015776249985567782,0.00258406694462834,0.013896287267527457,-0.0033573592414925463,0.019558698365159888,0.038830135520737205,0.01064703534783222,-0.16797646396882465,0.02301269702634089,0.03417675842520212,-0.44007677586146104,-0.16515008575046694
163,0.7139988000126323,-0.0015776249985567782,0.00258406694462834,0.013896287267527457,-0.0033153929546971463,0.018870602370077275,0.038947683274032224,0.010755621642003797,-0.1694574707641932,0.022416362451698695,0.03345617655326249,-0.4318316957440609,-0.16527279836582795
164,0.718298700012383,-0.0016905357848992953,0.002544803740695043,0.014157518240026118,-0.0032732004118541957,0.018178784708773127,0.03906330827533889,0.010859807675998649,-0.17088908109308384,0.021824498029783455,0.03272238600946256,-0.4234453755379953,-0.16533680103321827
165,0.7230574999994133,-0.0015296779641958786,0.002787573838096074,0.014541776008216255,-0.0032307898000152866,0.017483336767434004,0.03917699831028692,0.010959606974113746,-0.17227145369477898,0.02123710738519679,0.0319759077307441,-0.41492347102738275,-0.16534335803827307
166,0.7271459000039613,-0.0015137270093118099,0.002879888898507585,0.01473918698922591,-0.0031881691040455463,0.016784347637637035,0.039288740780199144,0.011055035957438333,-0.17360477853978845,0.02065418583382267,0.031217267962347844,-0.40627168170672695,-0.165293771333989
167,0.73133450000023,-0.001449212401797124,0.003012171319566728,0.014945672059174893,-0.003145346110087799,0.016081904162027268,0.039398522710796594,0.01114611386741168,-0.17488927593606193,0.02007572057770675,0.030446997692280656,-0.39749574463609866,-0.1651893785493019
168,0.7403599000099348,-0.0013725464472294675,0.0032007350755750143,0.015341647579965596,-0.0031023284092873433,0.015376090983077911,0.0395063307615095,0.011232862687442577,-0.17612519561422516,0.019501690906975015,0.029665632085867432,-0.38860142831068856,-0.16503155097773606
169,0.7478160000027856,-0.0012371330876025572,0.0034614132241011213,0.015773078047387295,-0.003059123401767995,0.014666990594822779,0.039612151235377466,0.011315307062706868,-0.1773128157931714,0.018932068408470573,0.028873709921038635,-0.37959452655177683,-0.16482169154866805
170,0.7521412000060081,-0.0011712511857469101,0.0036291569693078013,0.01595778088043213,-0.003015738300849838,0.01395468339744802,0.03971597008952152,0.011393474218240307,-0.1784524422273502,0.018366817180783018,0.028071773024998505,-0.37048085242609147,-0.16456123278374735
171,0.7572031000017887,-0.0011192149353041237,0.0037534246882646683,0.01614731348091344,-0.0029721801374989285,0.013239247754628002,0.039817772946170206,0.011467393875444747,-0.17954440723710102,0.0178058940553409,0.027260365712912432,-0.3612662322004445,-0.16425163474101115
172,0.7609208000067156,-0.0010358089565616025,0.003874213456923037,0.0163724926799257,-0.0029284557649990398,0.012520760053488084,0.03991754510422137,0.011537098167126328,-0.18058906872338648,0.017249248823234288,0.026440034229245016,-0.35195649933844436,-0.16389438294922487
173,0.7650404000014532,-0.0009557355733505473,0.004014604000486761,0.01654909797210191,-0.002884571863835361,0.011799294767075233,0.040015271551321015,0.011602621551184735,-0.18158680916828418,0.016696824467431374,0.025611326192372268,-0.3425574885459858,-0.16349098633496897
174,0.769602100001066,-0.0008572639491588217,0.004149586660569114,0.0167199701088986,-0.0028405349467799297,0.011074924519215665,0.040110936976440324,0.011664000723072977,-0.18253803462259954,0.016148557400050587,0.024774790043082803,-0.333075029872117,-0.16304297514498048
175,0.7736928000085754,-0.0007643079179232,0.004284954700613344,0.016901483226182165,-0.00279635136416844,0.010347720151637308,0.040204525782931606,0.011721274527147205,-0.18344317368196308,0.01560437770434742,0.02393097449757335,-0.32351494287176835,-0.16255189886624144
176,0.7774733000114793,-0.0006499419124767721,0.004477157208465997,0.017135566433957077,-0.002752027309357984,0.009617750793233612,0.04029602210204324,0.011774483867026215,-0.18430267645277498,0.01506420938107348,0.023080428005533938,-0.3138830308367067,-0.16201932414628673
177,0.7814757000014652,-0.00047969607040514823,0.004738245093322829,0.017398945897445374,-0.0027075688243551584,0.008885083931343995,0.040385409806873336,0.011823671615080007,-0.18511701350935786,0.014527970598863888,0.022223698213907427,-0.3041850751009545,-0.1614468327161811
178,0.7852105000056326,-0.00047969607040514823,0.004738245093322829,0.017398945897445374,-0.002662981805603896,0.008149785484925237,0.04047267252674135,0.011868882521166486,-0.1858866748436747,0.013995573948308254,0.02136133143689686,-0.2944268294267763,-0.16083601931859096
179,0.7896601000102237,-0.000496102013117753,0.004868715046311379,0.017662120188626833,-0.002618272009922294,0.007411919879487235,0.04055779366195698,0.011910163120735034,-0.186612168808963,0.013466926699360086,0.020493872132782014,-0.28461401447719714,-0.16018848964335003
180,0.7956892000074731,-8.183983719928386e-05,0.005377433426744711,0.017996762379662537,-0.002573445060577648,0.006671550123665826,0.04064075639896493,0.011947561642415089,-0.1872940210586296,0.01294193106173932,0.019621862388093922,-0.2747523123808708,-0.1595058582728871
181,0.7999744000117062,7.436768340429072e-05,0.005588553596050436,0.018129511821433568,-0.002528506453488861,0.005928737887304863,0.040721543725844495,0.011981127915207172,-0.18793277348174164,0.012420484447983039,0.018745841409682943,-0.2648473613949613,-0.15878974663985085
182,0.8063034000078915,2.9369172173454106e-05,0.0057625560432827665,0.01831517197652627,-0.0024834615635453685,0.005183543580919413,0.040800138448142634,0.012010913275392983,-0.18852898313643945,0.011902479738800237,0.01786634502520238,-0.2549047506715451,-0.15804178099923133
183,0.8104431000101613,0.0005187711863170361,0.006332882005260101,0.018665010662896227,-0.002438315651031728,0.004436026436411739,0.04087652320501928,0.012036970473280157,-0.1890832211825855,0.01138780555038765,0.016983905192515383,-0.2449300151328733,-0.1572635904172404
184,0.8147925000084797,0.0007331725647227933,0.006635165985404944,0.018868508517723582,-0.0023930738681469813,0.003686244588911716,0.04095068048568302,0.012059353579896211,-0.18959607181495036,0.010876346503365254,0.016099049518517955,-0.2349286304606653,-0.15645680477917184
185,0.8190366000053473,0.0008879204134324269,0.0070134366550440395,0.019121674148581326,-0.002347741265607932,0.0029342551596133913,0.04102259264609547,0.012078117893744935,-0.19006813119822252,0.010367983492992009,0.0152123007878556,-0.22490600820443007,-0.15562305281841954
186,0.8271508000034373,0.0012766036232468143,0.007632627106981613,0.01950999557851863,-0.002302322799325487,0.0021801143394796895,0.04109224192592268,0.012093319847737186,-0.19050000640511192,0.009862593960324802,0.014324176501995389,-0.21486749101363065,-0.15476396016878693
187,0.8304005000100005,0.0012766036232468143,0.007632627106981613,0.01950999557851863,-0.0022568233371432593,0.001423877473687622,0.041159610465712135,0.012105016916406487,-0.19089231435880039,0.009360052163986285,0.013435188429099167,-0.20481834799832285,-0.15388114744217413
188,0.8356525000126567,0.0013334998574360307,0.00784105107575787,0.019719831656183764,-0.0022112476656276697,0.0006655991466869649,0.041224680324273816,0.012113267523518288,-0.19124568078097437,0.008860229452210374,0.012545842165126964,-0.19476377022270874,-0.1529762283336789
189,0.8397927000041818,0.0018428851869717636,0.00863831178679813,0.019989491449942935,-0.0021656004968988673,-9.466673225394276e-05,0.0412874334962434,0.012118130950179959,-0.19156073914665522,0.00836299453483765,0.011656636706582537,-0.18470886633585276,-0.1520508077560986
190,0.8438680000108434,0.002115334675944826,0.009076788025481093,0.02019537114981826,-0.0021198864754918305,-0.0008568668431407706,0.041347851929805765,0.012119667243556837,-0.19183812964702038,0.007868213754936727,0.01076806403529552,-0.1746586583436102,-0.1511064800057654
191,0.8485169000050519,0.002273875320470797,0.009527149211576687,0.02041239473555863,-0.002074110185237121,-0.0016209483691086404,0.04140591754455724,0.01211793712629768,-0.19207849816138692,0.007375751359731753,0.009880608715616936,-0.16461807752561786,-0.15014482696159168
192,0.8535507000051439,0.002273875320470797,0.009527149211576687,0.02041239473555863,-0.0020282761561508534,-0.0023868589101638245,0.0414616122494847,0.012113001906770799,-0.19228249523950472,0.0068854697705207826,0.008994747504386698,-0.15459196050099377,-0.14916741631914582
193,0.8569963000045391,0.0023539942513476683,0.009854654357916862,0.02063181395886687,-0.001982388871323558,-0.0031545463969338185,0.041514917961040024,0.012104923390210097,-0.19245077509528216,0.006397229851274542,0.008110948974013361,-0.14458504544618422,-0.14817579986152016
194,0.8605870000028517,0.0028511681033196305,0.0108433683683115,0.02096948377231397,-0.0019364527737977255,-0.003923959004546522,0.04156581662128866,0.012093763790867908,-0.1925839946130413,0.005910891175610254,0.007229673148987689,-0.13460196846818653,-0.14717151176869134
195,0.8648126000043703,0.0031822079095437158,0.011371780520346809,0.021230105638706438,-0.0018904722734239575,-0.004695045066757736,0.04161429021611076,0.012079585645269286,-0.19268281236737206,0.005426312291840627,0.006351371156132637,-0.12464726013616441,-0.1461560669670116
196,0.869294500007527,0.0033477521092839546,0.01188486918452521,0.021426847711963334,-0.0018444517536857763,-0.005467752990444554,0.0416603207934339,0.012062451726659864,-0.19274788765762785,0.0049433509858038335,0.005476484888873267,-0.11472534217425712,-0.14513095952040608
197,0.8729319000121905,0.0034971417593047567,0.01239670204626107,0.021618744258293236,-0.0017983955784833053,-0.006242031170580463,0.041703890481476304,0.012042424960736917,-0.19277987955807535,0.0044618645411862775,0.00460544668579075,-0.10484052431816764,-0.1440976610647869
198,0.8772316000104183,0.0037353950651511803,0.01289413469849995,0.021784533502073645,-0.0017523080988662,-0.007017827905806077,0.0417449815069797,0.012019568342750642,-0.19277944598468202,0.003981709997056262,0.0037386790237050648,-0.0949970013378966,-0.14305761928712984
199,0.8819790000125067,0.003958435851548772,0.013454395143260125,0.02197206370791152,-0.0017061936597063776,-0.007795091314707493,0.04178357621341135,0.01199394485606008,-0.19274724277949346,0.0035027444023332343,0.0028765942255113493,-0.08519885022877008,-0.14201225645059154
200,0.885505700003705,0.00418045181450278,0.014027856792847036,0.022209808960052244,-0.0016600566063012777,-0.00857376925291215,0.041819657079114766,0.01196561739222525,-0.1926839228135216,0.0030248250669241026,0.002019594182975027,-0.07545002757268805,-0.14096296796697722
201,0.8899011000030441,0.004346533960749762,0.014589529779280156,0.02241704192033082,-0.0016139012908985844,-0.009353809231109808,0.04185320673538938,0.011934648672714277,-0.19259013510903208,0.002547809809265191,0.0011680700946709672,-0.0657543670712996,-0.1399111210177998
202,0.8936921999993501,0.004536103735263524,0.0151439343045109,0.02255705188171133,-0.001567732079133548,-0.010135158334104048,0.04188420798447927,0.011901101172301396,-0.1924665239820857,0.002071557200015666,0.00032240221923196836,-0.05611557725258854,-0.13885805322510106
203,0.898088200003258,0.004749011763831028,0.015758412695598065,0.0227623089952897,-0.0015215533563702462,-0.01091776314099718,0.04191264381745176,0.011865037044228753,-0.19231372820615542,0.001595926801655764,-0.0005170403559481692,-0.04653723935213223,-0.1378050713731348
204,0.9024443000089376,0.004966257184326459,0.016392718390911987,0.023014697550946858,-0.0014753695339383306,-0.01170156964660905,0.04193849743194676,0.011826518047201943,-0.19213238019760628,0.0011207794037508792,-0.0013498999304317441,-0.03702280537007371,-0.13675345018194088
205,0.906372100012959,0.005159520377121647,0.017043290532164,0.0232996282091748,-0.0014291850552570402,-0.012486523184227692,0.04196175224977831,0.011785605474286172,-0.19192310522379002,0.0006459772536504723,-0.002175830390769196,-0.02757559630462617,-0.1357044311337662
206,0.9107141000131378,0.0053422701032768225,0.017670907945934546,0.02352921777189962,-0.001383004401838484,-0.013272568349787036,0.04198239193437007,0.011742360083766803,-0.191686520634471,0.00017138428239886776,-0.0029944973947608586,-0.018198800562707628,-0.1346592213532167
207,0.9165283000038472,0.0055095191716107855,0.018338000000887242,0.02375501199967204,-0.0013368320991624424,-0.014059648927564148,0.0420004004080069,0.01169684203203494,-0.19142323511726422,-0.00030313367435674067,-0.003805578539883123,-0.00889547254808384,-0.13361899254195028
208,0.9214007000118728,0.005761492760071492,0.019029211334650232,0.024021054314321923,-0.0012906727224151595,-0.014847707817485633,0.042015761868885,0.011649110808555449,-0.1911338479777302,-0.0007777086606673226,-0.004608763515833577,0.0003314685728215138,-0.1325848799686487
209,0.9268955000006828,0.006077776952119159,0.020378109646811193,0.02444065080751672,-0.001244530902084873,-0.015636686964129936,0.04202846080794374,0.011599225172971607,-0.19081894844473393,-0.001252470389989759,-0.005403754241169412,0.009479239927507611,-0.13155798151493212
210,0.9315766000072472,0.006297009062209484,0.02108264357540797,0.02468003057410805,-0.0011984113294070736,-0.016426527287509412,0.04203848202546282,0.0115472430943973,-0.19047911500163756,-0.001727546040490269,-0.006190264984033026,0.018545195816642452,-0.13053935677780618
211,0.9376740000006976,0.00653516061108955,0.021736354913359384,0.024918315136105054,-0.0011523187616527626,-0.01721716861571307,0.04204581064740845,0.011493221692944387,-0.1901149147438588,-0.0022030600561236493,-0.006968022466978269,0.027526828416461827,-0.1295300262291586
212,0.9414149000076576,0.006692090164568718,0.022402544324289144,0.02515870218557681,-0.0011062580272532337,-0.018008549619487644,0.04205043214151282,0.011437217183529566,-0.18972690276328966,-0.0026791339536595066,-0.007736765955930005,0.03642176830502074,-0.12853097043274767
213,0.9458325000014156,0.006910113985336549,0.023098258271483253,0.025447217210111762,-0.0010602340307551777,-0.018800607748831674,0.04205233233307149,0.011379284822001717,-0.1893156215600321,-0.0031558861358176355,-0.008496247333328776,0.04522778481320576,-0.12754312931905215
214,0.9501366000040434,0.00710353153719543,0.023790856129224755,0.025716813419623164,-0.0010142517576001854,-0.019593279171674003,0.042051497420444256,0.011319478853627437,-0.1888816004818704,-0.0036334317106655307,-0.009246231155531213,0.05394278620162334,-0.12656740151827875
215,0.9566225000016856,0.0074905017163982585,0.02513525711255051,0.026187363516246204,-0.0009683162787230059,-0.020386498714704954,0.04204791399024539,0.01125785246396907,-0.18842535519186077,-0.004111882317421826,-0.009986494694555485,0.0625648196646826,-0.12560464375174954
216,0.9607210000103804,0.0076023740556442655,0.02579777654184424,0.02645446156026726,-0.0009224327549632052,-0.021180199806425146,0.042041569032209736,0.0111944577321862,-0.1879473871643806,-0.004591345958800188,-0.010716827964279443,0.07109207116339156,-0.12465567028182056
217,0.9647186000074726,0.007801426191505662,0.026399523534088764,0.026756693246765658,-0.000876606441285159,-0.021974314422473638,0.042032449953721275,0.011129345586788221,-0.18744818320994114,-0.005071926840018887,-0.01143703373121728,0.07952286508858343,-0.12372125242041021
218,0.9688997000048404,0.00798958280303558,0.02713971807152797,0.02702238048472608,-0.0008308426908015965,-0.022768773033293808,0.04202054459399159,0.0110625657638622,-0.18692821502902948,-0.0055537252145918875,-0.012146927510018264,0.0878556637564819,-0.12280211809614455
219,0.9733250999997836,0.008145456313952975,0.027882137501606653,0.027292688653233234,-0.0007851469585962062,-0.023563504554191882,0.042005841237876075,0.010994166767796909,-0.18638793879520787,-0.006036837237007933,-0.012846337543848488,0.09608906673870429,-0.12189895148005539
220,0.9786469000100624,0.008328835197311844,0.02852598811800059,0.027534390383878088,-0.0007395248053411047,-0.02435843629783971,0.04198832862931633,0.010924195834520584,-0.18582779476765943,-0.00652135482239468,-0.013535104769833802,0.10422181002898714,-0.12101239266969616
221,0.9821312999993096,0.008488872525801251,0.02923992388916256,0.027809985950483833,-0.0006939819007052713,-0.025153493929269882,0.0419679959843977,0.010852698897266706,-0.18524820693333194,-0.007007365513255541,-0.014213082769758752,0.11225276504910071,-0.12014303743147293
222,0.9868917999992846,0.008668203733994566,0.03002729622578766,0.02805767343922156,-0.0006485240265503469,-0.02594860142340786,0.04194483300401161,0.010779720554878643,-0.18464958267879453,-0.007494952353357461,-0.014880137706232737,0.12018093749659575,-0.11929143700091983
223,0.9936304000002564,0.009044848905570637,0.03146380247231022,0.028495506440846183,-0.0006031570799104888,-0.02674368102518229,0.04191882988611265,0.010705304042660844,-0.18403231249188393,-0.007984193768838497,-0.015536148244550558,0.12800546603719856,-0.11845809794057964
224,0.9979776000109268,0.009156159559767044,0.032197316161478515,0.028724639823040514,-0.0005578870757532767,-0.027538653212251372,0.041889977337561425,0.010629491205780944,-0.1833967696931806,-0.008475163456594693,-0.01618100546049006,0.1357256208448376,-0.11764348205508446
225,1.0024852000060491,0.009367617750352253,0.03296158398744795,0.029019903853433556,-0.0005127201495189643,-0.028333436660379654,0.04185826658554405,0.010552322475223893,-0.18274331019731654,-0.008967930279996476,-0.016814612734304818,0.14334080199244717,-0.11684800636296565
226,1.0066686000063785,0.009524218819617982,0.03377222294784138,0.029239099016102547,-0.000467662559435666,-0.02912794821149629,0.04182368938856042,0.010473836846296077,-0.1820722723040808,-0.009462558171975444,-0.017436885631184396,0.1508505376968515,-0.11607204312465902
227,1.0105501000070944,0.009694684549527051,0.03458279846391621,0.029499437915378877,-0.00042272068860836924,-0.029922102844462343,0.041786238046973415,0.010394071859674291,-0.18138397651925348,-0.009959106045513295,-0.018047751768468987,0.15825448242118498,-0.11531591992610785
228,1.014886100005242,0.009899418688754144,0.035409869688112654,0.029663215804387532,-0.00037790104687996246,-0.030715813648571212,0.0417459054131117,0.01031306358499127,-0.18067872540506213,-0.010457627711555466,-0.01864715066991903,0.16555241483845082,-0.1145799198173051
229,1.019591300006141,0.010057811772611523,0.03625693568239351,0.029865111864594306,-0.0003332102724627629,-0.031508991799802925,0.04170268490091954,0.010230846606946455,-0.1799568034601203,-0.010958171804362943,-0.01923503360735358,0.17274423565996277,-0.11386428150505667
230,1.0232933000079356,0.010220475577794114,0.03710534125933999,0.03005938468899996,-0.0002886551333393235,-0.03230154653984969,0.04165657049514755,0.010147454013927608,-0.17921847702867286,-0.011460781714306869,-0.01981136342998394,0.1798299653325502,-0.11316919959918882
231,1.0272666000091704,0.010448818129209208,0.03793375003212095,0.030279502332534625,-0.00024424252843159014,-0.03309338515792674,0.0416075567600788,0.010062917389125878,-0.17846399423893977,-0.011965495528101664,-0.02037611438178144,0.18680974160853664,-0.11249482491136581
232,1.031339500012109,0.01059247003988957,0.038836797865999306,0.030422874080348727,-0.00019997948853777374,-0.03388441297537927,0.04155563884778552,0.009977266804124117,-0.1776935849703168,-0.012472345976463647,-0.020929271907229735,0.1936838169926257,-0.11184126480562805
233,1.036276600003475,0.010748467897840055,0.03974021816849561,0.030585482700209502,-0.00015587317703658407,-0.034674533333092984,0.04150081250591203,0.009890530814935267,-0.1769074608491592,-0.012981360389173505,-0.021470832445823238,0.20045255606994572,-0.11120858359970792
234,1.0405880000034813,0.0109107330812113,0.04068735417645955,0.030800787220426784,-0.00011193089035875898,-0.03546364758171197,0.041443074084980096,0.00980273646046494,-0.17610581527284386,-0.0134925606575125,-0.022000803215684078,0.20711643271961747,-0.11059680301612831
235,1.044150100002298,0.01107989995600074,0.0416582746317025,0.030987971526125806,-6.816005822610602e-05,-0.03625165507466494,0.04138242054521352,0.009713909263369496,-0.17528882346177152,-0.014005963204033833,-0.022519201986679803,0.21367602721831416,-0.11000590268203848
236,1.0483296000020346,0.011225503151403986,0.042586450411945545,0.031155754368931775,-2.456824365855178e-05,-0.03703845316399722,0.04131884946287964,0.009624073233278341,-0.17445664253894289,-0.014521578959622456,-0.02302605684343385,0.22013202323838207,-0.10943582067669323
237,1.0518816000112563,0.011225503151403986,0.042586450411945545,0.031155754368931775,1.883685725003189e-05,-0.03782393719900302,0.04125235903614554,0.009533250872346487,-0.1736094116367111,-0.015039413347788438,-0.02352140593862956,0.22648520474518452,-0.10888645412543387
238,1.0564281000115443,0.011249750060223832,0.043471574715061044,0.03134924571181957,6.204741578618399e-05,-0.03860800052764916,0.04118294809044754,0.009441463183100861,-0.17274725203028515,-0.015559466276131178,-0.02400529723701692,0.2327364527984178,-0.1083576598389845
239,1.0605352999991735,0.01179566811645994,0.04548747577063557,0.031620323875918066,0.00010505547130008594,-0.03939053450077832,0.04111061608337282,0.00934872967854138,-0.17187026729752902,-0.01608173213490405,-0.0244777882505391,0.23888674226222664,-0.10784925499683387
240,1.064854500000365,0.011941702897878468,0.04643277496922585,0.031727881380849435,0.0001478529321160994,-0.04017142847907692,0.041035363109052654,0.009255068394455343,-0.1709785435045743,-0.01660619980260145,-0.024938945765003103,0.24493713842902073,-0.10736101787343193
241,1.0690084000088973,0.012113952571314047,0.04749055830955594,0.03190527867484399,0.0001904315766687833,-0.04095056984278976,0.04095718990206753,0.00916049590390149,-0.17007214941673765,-0.017132852658482908,-0.025388845558725327,0.25088879356196203,-0.10689268860589135
242,1.072366400010651,0.012113952571314047,0.04749055830955594,0.03190527867484399,0.00023278305486231087,-0.041727844004160616,0.040876097840864656,0.009065027333817718,-0.16915113673420865,-0.017661668601941693,-0.025827572113589232,0.2567429433611521,-0.10644397000184631
243,1.0757556000025943,0.012113952571314047,0.04749055830955594,0.03190527867484399,0.0002748988896509598,-0.04250313442257519,0.04079208895068899,0.008968676383704433,-0.1682155403519496,-0.018192620078618375,-0.02625521831895758,0.26250090335860293,-0.10601452838608591
244,1.0807397000025958,0.012591941789423513,0.05052308108449078,0.03220489168842185,0.0003167704788381075,-0.043276322622380015,0.04070516590602937,0.008871455346333363,-0.1672653786432253,-0.018725674113153106,-0.026671885168886484,0.2681640652471196,-0.10560399448454591
245,1.084403900007601,0.012591941789423513,0.05052308108449078,0.03220489168842185,0.00035838909709092707,-0.04404728821334843,0.04061533203258191,0.008773375130429738,-0.1663006537661582,-0.01926079234846375,-0.02707768145309293,0.2737338931482669,-0.10521196434421161
246,1.0881421000085538,0.012591941789423513,0.05052308108449078,0.03220489168842185,0.0003997458981677518,-0.04481590891376191,0.04052259130873318,0.008674445285273773,-0.16532135199268364,-0.019797931091430736,-0.02747272344213089,0.2792119198246258,-0.1048380002874551
247,1.092553400012548,0.012704856024778218,0.05147995526650109,0.032332608555613075,0.0004408319173548477,-0.0455820605760723,0.04042694836656581,0.008574674027165682,-0.16432744405925606,-0.02033704136486328,-0.02785713456723439,0.2845997428415724,-0.10448163189930307
248,1.0979190000070955,0.013328628907445428,0.05482624537166556,0.032608916991279276,0.0004816380741091178,-0.046345617215108166,0.040328408492389826,0.008474068267696703,-0.1633188855386391,-0.020878068965615712,-0.028231045095288496,0.28989902068383205,-0.10414235704610629
249,1.102315300013288,0.013532661106820835,0.05596542243337772,0.03270889481960105,0.0005221551749030465,-0.04710645103878557,0.04022697762680349,0.008372633643766928,-0.16229561723209227,-0.021420954528717027,-0.028594591799390914,0.2951114688320739,-0.1038196429240588
250,1.1063742000114871,0.013667985251845653,0.05714104934893039,0.032886948881173786,0.000562373916267989,-0.047864432481281624,0.04012266236428805,0.008270374549289188,-0.16125756558125015,-0.021965633597371196,-0.028947917625468212,0.30023885580482335,-0.10351292713599411
251,1.110869600001024,0.01393431472067131,0.058293561022101086,0.03297798933109123,0.0006022848880317126,-0.0486194302386264,0.040015469952341426,0.008167294168516755,-0.16020464309897345,-0.02251203669868056,-0.02929117135541145,0.30528299917096857,-0.10322161879486723
252,1.1146656000055373,0.014159455693998298,0.05947574234000862,0.033050546485892854,0.0006418785767459083,-0.04937131130666727,0.03990540829015585,0.008063394510931283,-0.1591367488184356,-0.023060089424939572,-0.029624507267196135,0.31024576153813316,-0.10294509965231433
253,1.1191634999995586,0.014333145755982346,0.06061051856081238,0.03311230964385159,0.0006811453692992023,-0.050119941021357424,0.039792485926845034,0.007958676447626076,-0.1580537687596944,-0.023609712520341393,-0.029948084792450716,0.31512904652217205,-0.10268272525066718
254,1.122925600007875,0.014531042187625406,0.06179444667546073,0.033170753121039745,0.0007200755567110206,-0.05086518310131829,0.03967671205922693,0.007853139749118603,-0.15695557641298472,-0.024160821972935485,-0.030262068171936884,0.31993479470302905,-0.1024338260967871
255,1.1268108000076609,0.014531042187625406,0.06179444667546073,0.033170753121039745,0.0007586593381014925,-0.05160689969262326,0.03955809652916816,0.007746783124525082,-0.15584203323795584,-0.024713329111669992,-0.030566626109403357,0.32466497957217016,-0.10219770885607297
256,1.1315805000049295,0.01460717016816718,0.06290729207628896,0.03331344411705722,0.0007968868248324113,-0.05234495141574842,0.039436649820496904,0.007639604262028977,-0.15471298917806672,-0.025267140708348748,-0.030861931424272883,0.32932160347677863,-0.10197365756499026
257,1.1376340999995591,0.015176602194879811,0.06543988956622601,0.03354461090039132,0.0008347480448141209,-0.05307919741463384,0.03931238305549149,0.007531599870574352,-0.15356828318934074,-0.025822159084328968,-0.03114816070361948,0.33390669356585934,-0.10176093486046157
258,1.1415200000046752,0.015282316528789145,0.06663919523418761,0.03360449019756099,0.0008722329469730492,-0.05380949540779753,0.039185307990952024,0.00742276572271433,-0.15240774378267288,-0.02637828222178227,-0.031425493953889536,0.3384222977433576,-0.10155878322445495
259,1.1462348000059135,0.015594072401137223,0.0678639749957758,0.03377348119849029,0.0009093314058744622,-0.054535701741442524,0.039055437013862965,0.007313096698544089,-0.15123118957887405,-0.026935403879338397,-0.03169411425281644,0.342870480633349,-0.1013664262421041
260,1.1496140000090236,0.015594072401137223,0.0678639749957758,0.03377348119849029,0.0009460332264948818,-0.05525767144449628,0.03892278313665478,0.007202586830647221,-0.1500384298756296,-0.0274934137119281,-0.03195420740197423,0.3472533195623003,-0.10118306987169563
261,1.1542317000130424,0.015625830978948978,0.06895227506585862,0.033974701470294695,0.0009823281491384876,-0.055975258285520024,0.038787359992073125,0.00709122934998376,-0.14882926522554352,-0.028052197394638764,-0.03220596158041112,0.35157290056334306,-0.10100790372485993
262,1.1583935000089696,0.016079783893642063,0.07148764799437689,0.03417724230351946,0.0010182058544917095,-0.056688314831424225,0.038649181827664,0.006979016732647804,-0.14760348802443418,-0.028611636750393816,-0.032449566999798354,0.3558313144074385,-0.10084010235530622
263,1.1624812000081874,0.01628992426815422,0.07277952268188664,0.034312232466418555,0.0010536559688101002,-0.05739669250792506,0.03850826349988384,0.006865940747422283,-0.14636088310904322,-0.02917160988126486,-0.03268521556152383,0.3600306526662393,-0.10067882655444853
264,1.166535800002748,0.016491310271471247,0.07396958651982062,0.034470420507746485,0.0010886680692314794,-0.058100241661675274,0.03836462046784373,0.006751992504058196,-0.14510122836331657,-0.02973199130322357,-0.03291310051615378,0.36417300381137724,-0.10052322465227735
265,1.170796300008078,0.016637165887938413,0.07521811622766882,0.03462930437266709,0.0011232316892092517,-0.05879881162400182,0.038218268786697256,0.006637162502205474,-0.1438242953324152,-0.030292652084138554,-0.03313341612567882,0.3682604493548248,-0.10037243382184136
266,1.174442300005467,0.016637165887938413,0.07521811622766882,0.03462930437266709,0.0011573363240597121,-0.05949225077618218,0.03806922510068173,0.00652144068092257,-0.14252984984361097,-0.030853459984820933,-0.033346357328953496,0.3722950600348926,-0.10022558138571577
267,1.1777671000018015,0.016637165887938413,0.07521811622766882,0.03462930437266709,0.0011909714366170757,-0.06018040661619012,0.03791750663582282,0.006404816468691915,-0.1412176526332248,-0.03141427960292124,-0.0335521194107308,0.37627889205233167,-0.10008178612284727
268,1.1811558000044895,0.016637165887938413,0.07521811622766882,0.03462930437266709,0.0012241264629898891,-0.060863125826840635,0.03776313119231237,0.006287278833868472,-0.1398874599787644,-0.03197497251947912,-0.033750897674685046,0.38021398336091433,-0.09994015957418093
269,1.184424700011732,0.016637165887938413,0.07521811622766882,0.03462930437266709,0.0012567908184124318,-0.06154025434526271,0.03760611713656994,0.006168816335488815,-0.1385390243354213,-0.03253539744792671,-0.03394288712080802,0.3841023500167663,-0.09979980734549196
270,1.1898053000040818,0.01665751052699366,0.07639258088518101,0.03484397410140866,0.001288953903184662,-0.06221163743362831,0.037446483392998525,0.0060494171743684395,-0.1371720949760893,-0.03309541038534595,-0.03412828212755434,0.38794598259061747,-0.09965983040586346
271,1.1939342000114266,0.017538171926530254,0.08266151649673151,0.035555602870107575,0.0013206051086942117,-0.06287711975106519,0.03728424943544538,0.00592906924441539,-0.1357864186340698,-0.033654864765779946,-0.034307276139102456,0.39174684264703075,-0.09951932638027325
272,1.1975271000119392,0.017538171926530254,0.08266151649673151,0.035555602870107575,0.001351733823513893,-0.06353654542668072,0.0371194352783786,0.0058077601840887585,-0.13438174014763662,-0.034213611615398556,-0.03448006135808829,0.3955068592945523,-0.09937739083477415
273,1.2021477000089362,0.01752771373944558,0.08382802896109623,0.03574056999194597,0.0013823294395681532,-0.06418975813362317,0.03695206146779062,0.005685477427931147,-0.13295780310563649,-0.034771499709318504,-0.03464682844415806,0.39922792581061073,-0.09923311855277593
274,1.205513000008068,0.01752771373944558,0.08382802896109623,0.03574056999194597,0.0014123813583618808,-0.06483660116410733,0.03678214907183964,0.0055622082581048005,-0.13151435049330912,-0.03532837572987903,-0.03480776621867693,0.4029118963448719,-0.09908560480096289
275,1.2090649000019766,0.01752771373944558,0.08382802896109623,0.03574056999194597,0.0014418789972649563,-0.06547691750533045,0.036609719671239924,0.005437939855861802,-0.1300511253375192,-0.03588408442617458,-0.03496306137591904,0.4065605827046342,-0.09893394658340786
276,1.2163074999989476,0.01752771373944558,0.08382802896109623,0.03574056999194597,0.001470811795845922,-0.06611054991620471,0.036434795349412345,0.005312659352879514,-0.12856787135060008,-0.03643846877464713,-0.035112898201053816,0.4101757512257214,-0.09877724388247221
277,1.2197409000073094,0.01752771373944558,0.08382802896109623,0.03574056999194597,0.0014991692222481561,-0.06673734100483222,0.03625739868240643,0.005186353882393328,-0.12706433357201896,-0.03699137014054161,-0.03525745829523157,0.4137591197321979,-0.09861460088511131
278,1.2233895000099435,0.01786975288702408,0.08632581455480878,0.036089820008424166,0.0015269407796019315,-0.06735713330664884,0.03607755272860544,0.005059010630059697,-0.1255402590070838,-0.03754262844002933,-0.03539692030806048,0.4173123545880958,-0.09844512719323613
279,1.2272293999994872,0.018606120000922672,0.09239528826847428,0.036670033639150904,0.001554116012465756,-0.06796976936316297,0.03589528101822587,0.004930616884483423,-0.12399539726192353,-0.0380920823028061,-0.035531459677754784,0.4208370678442092,-0.09826793901681394
280,1.2313916999992216,0.018676686093443206,0.09359051250203469,0.03689272278547111,0.0015806845132904223,-0.06857509180121514,0.035710607542623125,0.004801160087344255,-0.12242950117398503,-0.0386395692349732,-0.035661248379222,0.4243348144828717,-0.09808216034842525
281,1.2372892000130378,0.018676686093443206,0.09359051250203469,0.03689272278547111,0.001606635928899213,-0.06917294341268433,0.035523556743414515,0.004670627883058951,-0.12084232743730124,-0.03918492578201125,-0.0357864546803443,0.4278070897634881,-0.09788692411802898
282,1.2417066000052728,0.018719788523690772,0.09460164106087705,0.03704291518321464,0.0016319599669777486,-0.0697631672345675,0.03533415350143125,0.004539008167916152,-0.11923363722179986,-0.03972798769165941,-0.03590724290669628,0.4312553266714482,-0.09768137332672426
283,1.2451609000127064,0.018719788523690772,0.09460164106087705,0.03704291518321464,0.001656646402567001,-0.07034560662935954,0.03514242312551092,0.004406289138622676,-0.11760319678593525,-0.040268590076514656,-0.03602377321492907,0.4346808934729036,-0.09746466215833412
284,1.2488180000073044,0.01888564401116568,0.09687226857073129,0.037283510732232024,0.0016806850845530411,-0.07092010536566076,0.034948391341142145,0.004272459340201194,-0.11595077808194082,-0.04080656757616873,-0.03613620137503772,0.43808509137774343,-0.09723595706767478
285,1.2524086000048555,0.01922224920981422,0.09919411361243541,0.037529825941449386,0.001704065942147154,-0.07148650769893987,0.03475208427897287,0.004137507713180627,-0.11427615935301468,-0.0413417545187027,-0.036244678561715635,0.4414691523129547,-0.09699443784441437
286,1.258520800009137,0.01932535679611604,0.10030204644043988,0.03773408766048308,0.0017267789913500003,-0.07204465845238106,0.03455352846319377,0.004001423640022048,-0.11257912572176791,-0.041873985081361975,-0.03634935115498635,0.44483423680839995,-0.09673929865146419
287,1.2624923000112176,0.019379847374143222,0.10132156202171053,0.037805063551274276,0.0017488143413935773,-0.07259440309774468,0.03435275079980818,0.0038641969907243583,-0.1108594697692815,-0.04240309345023796,-0.036450360550290044,0.44818143199689753,-0.09646974903688674
288,1.2669412000104785,0.019441425709087957,0.10238640240073882,0.0379630565985328,0.0017701622011548003,-0.0731355878361717,0.034149778564799615,0.00372581816755555,-0.10911699210413528,-0.042928913978785725,-0.03654784297818828,0.4515117497303324,-0.09618501491834737
289,1.2714463000011165,0.019558905536612374,0.10336833322282601,0.03814071157218131,0.001790812885534617,-0.0736680596788635,0.0339446393922079,0.003586278148856973,-0.10735150192079067,-0.04345128134501074,-0.03664192933383722,0.4548261248133738,-0.09588433953917885
290,1.2747951000055764,0.019558905536612374,0.10336833322282601,0.03814071157218131,0.001810756821796632,-0.07419166652756863,0.03373736126212491,0.0034455685318696525,-0.10556281754672664,-0.043970030707160906,-0.03673274501636581,0.45812541335621565,-0.09556698439517175
291,1.279790700005833,0.01952744305490413,0.10424235808311089,0.03835876208568649,0.0018299845558593087,-0.07470625725480969,0.03352797248862089,0.0033036815745333837,-0.10375076697774807,-0.044484997857764226,-0.036820409778281875,0.4614103912476039,-0.09523223013124697
292,1.2854961000120966,0.019823360867487302,0.10723083447640569,0.03875384601341804,0.0018484867585359147,-0.07521168178378354,0.03331650170761202,0.0031606102362110905,-0.10191518840090392,-0.044996019375855935,-0.03690503758501537,0.464681752749258,-0.09487937740721168
293,1.2896555000043008,0.019888892516868373,0.10811336051691042,0.03887959993716276,0.0018662542317164873,-0.07570779116786967,0.03310297786468055,0.0030163482172926924,-0.10005593070447263,-0.04550293277724322,-0.03698673648469441,0.4679401092126388,-0.09450774773184488
294,1.294120700011263,0.019943427703739358,0.10896712927976306,0.03905363336959265,0.0018832779144861834,-0.0761944376696822,0.032887430202857906,0.0028708899976345064,-0.09817285397449278,-0.0460055766626594,-0.03706560848823551,0.47118598791886024,-0.09411668426460439
295,1.2980869000020905,0.01998587193603399,0.109798251432166,0.03918927782170274,0.0018995488891744962,-0.07667147483960271,0.0326698882503814,0.00272423087379208,-0.09626582997733775,-0.046503790863663956,-0.03714174945981598,0.4744198310423864,-0.09370555258429307
296,1.3017666000087047,0.01998587193603399,0.109798251432166,0.03918927782170274,0.0019150583873299247,-0.07713875759373216,0.032450381808434646,0.0025763669950062116,-0.09433474262785384,-0.04699741658614904,-0.03721524901778263,0.4776419947390036,-0.09327374142406858
297,1.3065733000112232,0.019943341596368805,0.11049418610927135,0.039380034148688015,0.0019297977956148093,-0.07759614229120106,0.032228940938882025,0.0024272953979038166,-0.09237948844260288,-0.0474862965513176,-0.0372861904460374,0.4808527483584009,-0.09282066337222696
298,1.3107662000111304,0.020170628455915794,0.11209703688640077,0.039575572609858535,0.0019437586616151605,-0.0780434868107783,0.03200559595200733,0.0022770140398772174,-0.09039997697777222,-0.04797027513400294,-0.037354650615927215,0.484052273781539,-0.09234575553823725
299,1.3146314000041457,0.020170628455915794,0.11209703688640077,0.039575572609858535,0.001956932699560432,-0.07848065062672077,0.03178037739426663,0.0021255218311073965,-0.08839613125133666,-0.04844919849820402,-0.037420699918651386,0.4872406648828362,-0.09184848018355075
300,1.319155800010776,0.020182037681357082,0.11262443977655014,0.039755257668982774,0.001969311795948322,-0.07890749488380691,0.03155331603606518,0.0019728186651987306,-0.08636788814907885,-0.04892291472971567,-0.03748440220818669,0.49041792711704746,-0.09132832531675578
301,1.3226556000008711,0.020182037681357082,0.11262443977655014,0.039755257668982774,0.0019808880150698127,-0.07932388247149923,0.03132444285956791,0.0018189054483947113,-0.08431519881409699,-0.049391273965737885,-0.03754581475471713,0.49358397723056113,-0.09078480525269654
302,1.3270153000048597,0.0203345075734089,0.11378265702403971,0.04011225845286948,0.0019916536044298017,-0.07972967809718186,0.03109378904655255,0.0016637841273461536,-0.0822380290194518,-0.04985412852135305,-0.03760498820854204,0.4967386430966937,-0.09021746113522165
303,1.3311409000016283,0.020502751752831373,0.11490634955676607,0.040315920726200064,0.0020016010000588253,-0.08012474835842091,0.0308613859663142,0.0015074577154054153,-0.08013635952362651,-0.050311333012764865,-0.037661966574423264,0.49988166367441417,-0.08962586142327411
304,1.335403300006874,0.020574512695980048,0.11530821339722633,0.04041375742353973,0.0020107228317115186,-0.08050896181419676,0.030627265163630537,0.0013499303174221845,-0.07801018640849694,-0.05076274447719795,-0.03771678719631943,0.5030126890897841,-0.08900960234008168
305,1.339766300006886,0.020697769069200463,0.11569846720392588,0.040552833947230214,0.002019011927947607,-0.08088218905505937,0.030391458346796053,0.0011912071530184333,-0.07585952139953216,-0.05120822248936225,-0.03776948075244197,0.506131280839257,-0.08836830828525288
306,1.349272999999812,0.020697769069200463,0.11569846720392588,0.040552833947230214,0.00202646132109136,-0.0812443027721596,0.030153997375733755,0.0010312945783221784,-0.07368439216796879,-0.0516476292743915,-0.03782007126055595,0.5092369121138437,-0.08770163220963044
307,1.3530372000095667,0.02077752386553893,0.11602119641750386,0.04074780427408441,0.0020330642520656013,-0.08159517782510997,0.0299149142501926,0.0008702001061417377,-0.07148484261472607,-0.052080829817170306,-0.037868576093435864,0.5123289682430148,-0.08700925595279989
308,1.356634399999166,0.02077752386553893,0.11602119641750386,0.04074780427408441,0.0020388141750965227,-0.08193469130863061,0.02967424109803852,0.0007079324245642208,-0.06926093313585083,-0.052507691967969214,-0.03791500600437493,0.5154067472570695,-0.08629089054319677
309,1.36068399999931,0.021021004251601562,0.116777874857537,0.04114813563714156,0.0020437047622857,-0.08226272261793773,0.029432010163646813,0.0005445014139640397,-0.06701274086930452,-0.05292808654431262,-0.03795936516263405,0.5184694605665702,-0.08554627646080062
310,1.364661200001137,0.021352616800311537,0.11709649715516927,0.041328489855919796,0.0020477299080458615,-0.08257915351283356,0.02918825379640335,0.0003799181624092778,-0.06474035992292784,-0.053341887429009624,-0.03800165119870548,0.5215162337573114,-0.08477518386244917
311,1.3691187000076752,0.021490847399162922,0.11710470976269154,0.041407707385274384,0.0020508837333971107,-0.08288386818045847,0.028943004439321792,0.00021419497945578787,-0.062443901583441465,-0.05374897166428325,-0.03804185525925501,0.5245461074991649,-0.0839774127698507
312,1.373017100006109,0.021625083038796594,0.11705873408578421,0.04150434050527825,0.002053160590120484,-0.08317675329666739,0.02869629461778395,4.734540832091467e-05,-0.060123494506364235,-0.0541492195419386,-0.038079962071595065,0.5275580385670198,-0.08315279322041642
313,1.3771913000091445,0.021737781436337207,0.11698258721738992,0.04161343072826538,0.002054555064765884,-0.08345769808599413,0.02844815692840994,-0.00012061576356924571,-0.057779284886753886,-0.05454251468951566,-0.03811595001753057,0.5305509009719093,-0.08230118538107734
314,1.3812868000095475,0.02185827702879629,0.11685785787415633,0.0417301152484603,0.0020550619825116024,-0.08372659438016902,0.028198624028064622,-0.0002896724956631327,-0.055411436610696564,-0.05492874415237824,-0.03814979121640865,0.5335234872003015,-0.08142247962529277
315,1.3854228999989573,0.022027385789653048,0.11663941586740427,0.04188821777017002,0.0020546764108727938,-0.08398333667515784,0.027947728623006582,-0.00045980748699964743,-0.05302013138749498,-0.05530779847169527,-0.03818145161719286,0.5364745095594178,-0.08051659657350041
316,1.3897326000005703,0.022027385789653048,0.11663941586740427,0.04188821777017002,0.0020533936632564664,-0.08422782218669102,0.027695503458185597,-0.0006310021705568405,-0.050605568862526915,-0.05567957175827658,-0.03821089109937305,0.5394026016263308,-0.07958348709729796
317,1.393730100011453,0.022087717330134142,0.11627337217732067,0.042147426883640496,0.002051209302360683,-0.08445995090425427,0.02744198130669416,-0.0008032367092315317,-0.04816796671076804,-0.05604396176222982,-0.03823806358251253,0.5423063197984908,-0.07862313228768755
318,1.3980925000068964,0.022423051457068046,0.115772009234873,0.042283219934211275,0.0020481191434158345,-0.08467962564351357,0.02718719495937856,-0.0009764899934461029,-0.045707560710994785,-0.05640086993841072,-0.038262917144224654,0.5451841449432183,-0.07763554338775343
319,1.4023618000064744,0.02256804550243166,0.1153313849264304,0.042329406738285454,0.00204411925726601,-0.08488675209714934,0.02693117721461473,-0.0011507396403767965,-0.043224604800704475,-0.05675020150764396,-0.03828539414636219,0.548034484143605,-0.07662076169018177
320,1.405811000004178,0.02256804550243166,0.1153313849264304,0.042329406738285454,0.0020392059732886603,-0.0850812388840761,0.02667396086825373,-0.0013259619947959774,-0.04071937111181127,-0.05709186551369698,-0.038305431369193746,0.5508556725381651,-0.07557885840006943
321,1.412145000009332,0.02256804550243166,0.1153313849264304,0.042329406738285454,0.0020333758821509,-0.08526299759702574,0.026415578703741376,-0.0015021321315189667,-0.038192149987197714,-0.05742577487599414,-0.03832296015333357,0.5536459752514932,-0.07450993446350469
322,1.4156376000028104,0.02256804550243166,0.1153313849264304,0.042329406738285454,0.002026625838400979,-0.0854319428484746,0.02615606348241626,-0.001679223859444236,-0.03564324997822219,-0.05775184643806362,-0.03833790654918295,0.5564035894130901,-0.07341412036243973
323,1.4191630999994231,0.02259295346974113,0.11474440705934072,0.042451962241020345,0.0020189529628936147,-0.08558799231489585,0.02589544793399015,-0.0018572097271739598,-0.03307299782330282,-0.05807000101171482,-0.03835019147363414,0.5591266462614423,-0.07229157587640937
324,1.4244280999992045,0.02316631458395066,0.11250897356223316,0.04290396411233709,0.0020103546450480543,-0.08573106677932017,0.025633764747214485,-0.0020360610302001753,-0.030481738407718006,-0.058380163416948655,-0.03835973087378045,0.5618132133303546,-0.07114248981168408
325,1.4283837000111816,0.02329017958797195,0.11173232447113451,0.042900710495513424,0.0020008285449378813,-0.08586109017218957,0.025371046560736316,-0.0022157478196400617,-0.027869834704783894,-0.05868226251760807,-0.038366435897369225,0.564461296714465,-0.06996707969847786
326,1.4319791000016266,0.023476512123886302,0.11093657903112494,0.04291799111682279,0.0019903725952117703,-0.08597798961049077,0.025107325954147035,-0.0023962389125021808,-0.02523766769858782,-0.058976231252780405,-0.038370213069728126,0.5670688434107908,-0.06876559145686374
327,1.435518000012962,0.023583795744976925,0.11016119179580765,0.04305783287545635,0.001978985002844537,-0.08608169543515613,0.02484263543922685,-0.002577501903463864,-0.022585636288475687,-0.059262006663968234,-0.03837096447688944,0.5696337437330963,-0.06753829903207993
328,1.4398313999990933,0.023704340256457623,0.10924331517797681,0.04316521254363652,0.0019666642507179945,-0.08617214124672175,0.024577007451387738,-0.002759503178138337,-0.019914157175509487,-0.05953952991805025,-0.038368587954631134,0.5721538337958082,-0.06628550399993878
329,1.4437971000006655,0.0238536455238674,0.108368767263118,0.0432528925175626,0.0019534090990312807,-0.08624926393923413,0.024310474341317178,-0.002942207927808613,-0.017223664731129146,-0.05980874632605814,-0.03836297728314837,0.5746268980641488,-0.06500753514307932
330,1.4482068000070285,0.023994348965053203,0.10734398294360778,0.04322460127392709,0.0019392185865404852,-0.0863130037323987,0.02404306836682485,-0.003125580165603653,-0.014514610848270234,-0.06006960535780028,-0.0383540223870642,0.5770506719670956,-0.06370474799883097
331,1.4541918000031728,0.024112187744986847,0.106323136551531,0.043299937518204205,0.001924092031627558,-0.08636330420196527,0.023774821684894268,-0.003309582744090817,-0.011787464775206029,-0.06032206065236672,-0.038341609540483865,0.5794228445697311,-0.0623775243794818
332,1.4583216000028187,0.02424811777584931,0.1052536582998431,0.04336687276509425,0.0019080290331986325,-0.0864001123083467,0.02350576634394108,-0.0034941773742572066,-0.009042712932398833,-0.06056607002455412,-0.03832562157679303,0.5817410613015012,-0.061026271865770025
333,1.4622354000021005,0.024336476453492715,0.10420047077664474,0.0433931103785475,0.001891029471412041,-0.08642337842346876,0.023235934276279305,-0.003679324645851132,-0.006280858712661302,-0.06080159546725331,-0.038305938102896765,0.5840029267368612,-0.059651423274441256
334,1.4667379000020446,0.02445848511159058,0.10303558403185481,0.04337890970794071,0.0018730935082364576,-0.08643305635585093,0.02296535729079663,-0.003864984049053614,-0.003502422264943896,-0.061028603149846254,-0.03828243571759278,0.5862060074247518,-0.05825343610073579
335,1.4709397000115132,0.024506165049936766,0.10187099812027764,0.043459616979026484,0.0018542215878397435,-0.08642910337391883,0.022694067065839717,-0.0040511139974485294,-0.0007079402620793724,-0.06124706341266329,-0.038254988233769265,0.5883478347633138,-0.05683279193669112
336,1.4769402000092668,0.0247436918051458,0.0994316816396279,0.043510093394484674,0.001834414436809211,-0.08641148022755096,0.02242209514231016,-0.004237671852258755,0.0021020343471704855,-0.06145695075755538,-0.038223466904115204,0.5904259079162275,-0.05538999586616424
337,1.4813298000080977,0.024872392305510877,0.0981757734014205,0.04358655929147722,0.0018136730642041566,-0.08638015116786392,0.022149472916971422,-0.004424613947814506,0.004926932601406974,-0.06165824383463983,-0.038187740650029056,0.5924376967670404,-0.053925575837496825
338,1.4870311000122456,0.024872392305510877,0.0981757734014205,0.04358655929147722,0.0017919987614416662,-0.08633508396524206,0.021876231635967008,-0.004611895618218879,0.007766169804853318,-0.06185092542528141,-0.03814767629341014,0.5943806449078208,-0.05244008201476355
339,1.4904441000107909,0.024862280144338847,0.09675177095025363,0.043678472501699345,0.0017693931020168277,-0.0862762499256185,0.021602402388549814,-0.004799471225174535,0.010619145820195578,-0.062034982421374334,-0.0381031387910155,0.5962521726584664,-0.050934086108559956
340,1.4950247000087984,0.024862280144338847,0.09675177095025363,0.043678472501699345,0.0017458579410586166,-0.08620362390501575,0.0213280161010224,-0.0049872941869344,0.013485245375608888,-0.062210405800993955,-0.0380539914710644,0.5980496801129888,-0.049408180687299984
341,1.498510300007183,0.02498254777988021,0.09393797129682029,0.04368149018635911,0.001721395414722848,-0.08611718432235557,0.0210531035308877,-0.005175317008338323,0.016363838385560957,-0.06237719060049007,-0.038000096271772275,0.5997705502090935,-0.04786297847000677
342,1.5020316000009188,0.02498254777988021,0.09393797129682029,0.04368149018635911,0.001696007939423712,-0.0860169131705487,0.02077769526120946,-0.005363491311896699,0.019254280284973887,-0.06253533588309673,-0.0379413139814957,0.601412151817369,-0.04629911160159201
343,1.5065012000122806,0.02515997586826622,0.09093173105406943,0.043768656738299674,0.0016696982109055396,-0.08590279602587647,0.02050182169518152,-0.005551767869881226,0.02215591237631519,-0.06268484470413649,-0.03787750448017042,0.602971842846401,-0.044717230911629886
344,1.51066990000254,0.025344279229728813,0.08790506113978236,0.04373072966207416,0.0016424692031565668,-0.085774822055678,0.020225513050904777,-0.005740096637382124,0.025068062189179306,-0.06282572407289944,-0.03780852698172491,0.6044469733601432,-0.04311800515764072
345,1.5163026000082027,0.025447381333727336,0.08629121653489334,0.04374847402395811,0.001614324167166587,-0.08563298402435751,0.01994879935637039,-0.0059284267862904205,0.02799004385191199,-0.06295798491128018,-0.03773424027715322,0.6058348887038806,-0.04150212025390718
346,1.5200520000071265,0.025447381333727336,0.08629121653489334,0.04374847402395811,0.001585266629530495,-0.0854772782977276,0.019671710444647782,-0.006116706740163174,0.030921158474821485,-0.06308164200925903,-0.03765450297793243,0.607132932635145,-0.039870278486852775
347,1.525416400007089,0.025480246657146897,0.08451587262018659,0.04387209654705874,0.0015553003908998287,-0.08530770484570538,0.019394275949275626,-0.006304884209928846,0.033860694544512474,-0.06319671397731585,-0.03756917375947208,0.6083384504559605,-0.03822319771801741
348,1.529378800012637,0.025480246657146897,0.08451587262018659,0.04387209654705874,0.0015244295242845334,-0.08512426724337975,0.01911652529985392,-0.006492906230389452,0.03680792832887188,-0.06330322319586744,-0.03747811160428464,0.6094487921428204,-0.03656161057566872
349,1.5332121000101324,0.025380829664366535,0.08120298043344093,0.04388109947151155,0.0014926583732072618,-0.08492697267046925,0.018838487717834945,-0.006680719197475593,0.039762124292229056,-0.06340119576182117,-0.03738117604456901,0.6104613154708293,-0.03488626363609048
350,1.5373928000044543,0.025562725880338873,0.07773195425705016,0.04389907931393383,0.0014599915497126312,-0.08471583190919084,0.018560192212510842,-0.006868268906210007,0.04272253552020683,-0.06349066143233971,-0.037278227403901715,0.6113733891284702,-0.0331979165955911
351,1.541758800012758,0.025593759445804574,0.07586896899725759,0.04391312682097438,0.001426433932233952,-0.08449085934056044,0.01828166757719531,-0.00705550058933483,0.045688404153774655,-0.0635716535659134,-0.037169127037733854,0.6121823958195031,-0.03149734143427517
352,1.5457236000074772,0.025539965054367914,0.07402227962921673,0.04387584442295619,0.0013919906633200277,-0.0842520729391479,0.018002942385596833,-0.007242358956557415,0.0486589618320106,-0.06364420906083892,-0.03705373757239562,0.6128857353485391,-0.02978532157261975
353,1.5496948000072734,0.025506100340042304,0.0721297263474811,0.04395331537963565,0.0013566671472247124,-0.08399949426630923,0.017724044988380608,-0.007428788234369206,0.05163343014307445,-0.06370836829120433,-0.03693192314231404,0.613480827686876,-0.028062651021895067
354,1.5540467000100762,0.02549561641511312,0.07025163440007999,0.044013683972552065,0.0013204690473620038,-0.08373314846192019,0.01744500350991639,-0.007614732206391998,0.05461102108289116,-0.06376417504048218,-0.03680354962515351,0.6139651160152276,-0.026330133529465755
355,1.5601802000019234,0.02543384353392458,0.06626613725750713,0.04404418221999082,0.001283402283629525,-0.08345306423463515,0.017165845845209228,-0.007800134254205623,0.05759093752104094,-0.0638116764328336,-0.03666848487459339,0.6143360697400302,-0.02458858172000412
356,1.5644843000045512,0.025340228439875497,0.06427320400993523,0.04410689001924682,0.0012454730296033297,-0.08315927385069688,0.016886599657009844,-0.007984937398610953,0.06057237367335003,-0.063850922862227,-0.03652659895046175,0.6145911874800689,-0.02283881623364086
357,1.5683499000006125,0.025340228439875497,0.06427320400993523,0.04410689001924682,0.0012066877096070263,-0.08285181312132335,0.016607292373101386,-0.008169084341282067,0.06355451558067465,-0.06388196791947677,-0.03637776434594957,0.6147280000202257,-0.021081664862071792
358,1.5728751999995438,0.025164192753956236,0.062156958723270095,0.04415076073214464,0.0011670529956582922,-0.08253072138869835,0.01632795118375919,-0.008352517506761366,0.06653654159336918,-0.06390486831730714,-0.03622185621163532,0.6147440732292062,-0.019317961683630803
359,1.577662200012128,0.025131226784783616,0.05811613998208862,0.04418011704393963,0.0011265758042959182,-0.08219604151059298,0.016048603039380122,-0.008535179084751423,0.0695176228609292,-0.0639196838135483,-0.03605875257605557,0.6146370109381756,-0.017548546198330062
360,1.581244400003925,0.025079517569008926,0.055995698835257,0.04422600108438158,0.0010852632932905764,-0.0818478198436458,0.01576927464827778,-0.00871701107265745,0.0724969238263005,-0.06392647713257234,-0.035888334562563275,0.6144044577772919,-0.015774262463857942
361,1.5856421000062255,0.02498472831919154,0.05397300153349778,0.04430778635733238,0.0010431228582425752,-0.08148610622532947,0.015489992474639773,-0.008897955318334348,0.07547360272434588,-0.06392531388507679,-0.03571048660222176,0.6140441019672002,-0.013995958233513642
362,1.5904344000009587,0.024856821024533262,0.05187802933404289,0.04438705700076414,0.0010001621290699073,-0.08111095395463302,0.015210782736643337,-0.009077953562992545,0.0784468120839633,-0.06391626248632394,-0.03552509664248905,0.6135536780626227,-0.012214484097044943
363,1.5943597000004956,0.024767945167600773,0.04974185338110269,0.04444719013110279,0.0009563889663899455,-0.08072241977148888,0.014931671404725337,-0.009256947484216977,0.08141569923334979,-0.06389939407294416,-0.03533205635145376,0.6129309696452588,-0.01043069262534206
364,1.5988817000034032,0.024767945167600773,0.04974185338110269,0.04444719013110279,0.000911811457798179,-0.08032056383497417,0.01465268420000272,-0.00943487873905383,0.08437940680790776,-0.06387478241841167,-0.03513126131739078,0.6121738119632795,-0.008645437519926009
365,1.602432300001965,0.024767945167600773,0.04974185338110269,0.04444719013110279,0.0008664379140474319,-0.0799054497003165,0.014373846592839358,-0.009611689007119988,0.08733707326029365,-0.06384250384730113,-0.0349226112434124,0.61128009451479,-0.0068595727681544484
366,1.6065754000010202,0.024524893266681412,0.04745624765137211,0.04452572496265758,0.0008202768651310364,-0.07947714429473421,0.01409518380155517,-0.009787320033690521,0.09028783337211234,-0.06380263714843346,-0.0347060101369979,0.6102477635727173,-0.005073951805051465
367,1.6105633000115631,0.024301794725549462,0.040932791107391425,0.044712459709541054,0.0007733370562734735,-0.07903571789214206,0.013816720791273319,-0.009961713672719936,0.09323081876676441,-0.06375526348701896,-0.03448136649419206,0.6090748246486587,-0.0032894266826505474
368,1.614744000005885,0.024184775061568946,0.03869547797148907,0.044768150418431664,0.0007256274438320224,-0.07858124408675347,0.013538482272901376,-0.010134811929753447,0.0961651584229581,-0.06370046631590552,-0.03424859347827123,0.6077593448933245,-0.0015068472477217563
369,1.619359300006181,0.024043441172500016,0.036443420559549564,0.04484747080291195,0.0006771571911129767,-0.0781137997656106,0.013260492702242223,-0.010306557004684932,0.09908997918840229,-0.0636383312860388,-0.034007609092683334,0.6062994554312877,0.00027293967126492443
370,1.6230615000094986,0.02391157497820124,0.0340790789000328,0.0449219552752951,0.0006279356641060171,-0.07763346508007445,0.012982776279230402,-0.010476891334318797,0.10200440629320189,-0.06356894615624072,-0.03375833634807662,0.6046933536278556,0.0020490910671078742
371,1.6265020999999251,0.02391157497820124,0.0340790789000328,0.0449219552752951,0.0005779724271403455,-0.07714032341630665,0.012705356947289618,-0.01064575763469356,0.10490756386248347,-0.06349240070241155,-0.03350070342324009,0.6029393052859624,0.003820768545962172
372,1.6314939000003503,0.023641734303347466,0.03164598521861658,0.04509712896250137,0.0005272772384662005,-0.0766344613647744,0.012428258392807078,-0.0108130989431256,0.10779857542778559,-0.06340878662625975,-0.033234643819786955,0.6010356467710815,0.005587139107757738
373,1.6356680000026245,0.023320103781730456,0.02703650979913159,0.04522517643436194,0.00047586004576537737,-0.07611596868881025,0.012151504044720382,-0.010978858659932169,0.11067656443675422,-0.06331819746366268,-0.03296009651042151,0.5989807870622499,0.00734737591417909
374,1.6398981000093045,0.023109352757834305,0.02467750178038671,0.04530266966811671,0.00042373098159439153,-0.0755849382922586,0.011875117074212613,-0.01114298058979352,0.11354065476069151,-0.06322072849276097,-0.03267700608063821,0.5967732097273991,0.009100659043461266
375,1.643733400007477,0.022875521408246936,0.02232611720563534,0.045399410996471726,0.0003709003587639246,-0.0750414661862409,0.011599120394511265,-0.011305408982714744,0.11638997119951375,-0.0631164766418879,-0.032385322863710916,0.5944114748212828,0.010846176231279831
376,1.6481857000035234,0.02262626032926105,0.01995647711513054,0.04550064498331489,0.00031737866565819447,-0.07448565145507106,0.011323536660786622,-0.011466088574548677,0.11922363998368264,-0.0630055403974334,-0.03208500306883864,0.5918942207043929,0.012583123597036762
377,1.652869900004589,0.022338835223121172,0.01752959763343326,0.04560520378653059,0.0002631765614978853,-0.07391759622135262,0.011048388270145239,-0.011624964627042043,0.12204078927268198,-0.06288801971174106,-0.03177600890232353,0.5892201657813562,0.014310706354868601
378,1.6564073000045028,0.022070001525865978,0.015101713306148517,0.045788152888810045,0.00020830487155026924,-0.07333740561028916,0.010773697361714192,-0.011781982967367884,0.12484054964962038,-0.06276401591113485,-0.03145830868166581,0.5863881101574041,0.016028139508728324
379,1.660736600009841,0.021787785157629264,0.01268454030916483,0.04595313641074865,0.000152774582290139,-0.07274518771323955,0.0104994858168118,-0.011937090027108146,0.1276220546115498,-0.06263363160417189,-0.0311318769424695,0.5833969372116152,0.017734648530917937
380,1.6647066000004995,0.02151461534196461,0.0102844878686486,0.046143501886983795,9.659683651515547e-05,-0.07214105355054959,0.010225775259200435,-0.012090232880651357,0.1303844410550991,-0.06249697059021494,-0.030796694538062205,0.580245615085725,0.01942947002347476
381,1.669018700005836,0.021259384232799425,0.007809088048086868,0.04630660270557671,3.978292841920076e-05,-0.0715251170336911,0.009952587055417217,-0.012241359282971112,0.13312684975703176,-0.062354137768416584,-0.030452748731741242,0.5769331980874044,0.02111185236184086
382,1.673629600001732,0.020954620788144095,0.005311195150224512,0.04648380787084159,-1.7655701372693278e-05,-0.0708974949267395,0.00967994231517838,-0.01239041770675215,0.13584842584934567,-0.06220523904720552,-0.03010003328156783,0.5734588280070186,0.022781056320271824
383,1.6771498000016436,0.02059714065326889,0.0028121865273226703,0.04670704781626079,-7.570747080429414e-05,-0.07025830680721996,0.009407861891853143,-0.012537357378831727,0.13854831928854486,-0.062050381254363594,-0.029738548517640174,0.5698217353469762,0.024436355678468226
384,1.6814836000121431,0.020265195136533732,0.0003082767241288386,0.04696744978249173,-0.00013436066141947307,-0.06960767502635329,0.00913636638300294,-0.01268212831592507,0.1412256853187224,-0.061889672047779565,-0.02936830141178564,0.5660212404628805,0.02607703780894058
385,1.6855658999993466,0.01994414817962632,-0.0021817654005852343,0.047176944716567235,-0.00019360342342137114,-0.06894572466873122,0.008865476130981953,-0.012824681359604696,0.14387968492810624,-0.06172321982696382,-0.028989305639621554,0.5620567546158025,0.027702404244646456
386,1.6899676000030013,0.0195689929436585,-0.004718038166443865,0.04742336528963807,-0.00025342378075596445,-0.06827258351145114,0.008595211223594848,-0.012964968210504472,0.14650948529872976,-0.061551133645406465,-0.02860158163494333,0.557927780935097,0.029311771226466395
387,1.6939732000028016,0.019256459106559022,-0.007213617360765681,0.047695220446027156,-0.00031380963621660036,-0.06758838198273923,0.008325591494807707,-0.013102941461720414,0.14911426024890084,-0.06137352312385844,-0.028205156636407963,0.5536339152912921,0.030904470230113383
388,1.698041200012085,0.01882018821696439,-0.009761344689859997,0.04797028257833806,-0.00037474877656611143,-0.06689325312009088,0.008056636525508273,-0.013238554631381239,0.15169319066815445,-0.061190498364613176,-0.02780006472649018,0.5491748470786828,0.032479848472099074
389,1.7025755000067877,0.01837179373745587,-0.012238409425421665,0.04829938190210143,-0.00043622887767315457,-0.06618733252795711,0.007788365644311628,-0.01337176219436286,0.15424546494438618,-0.06100216986686392,-0.02738634686269787,0.5445503599073627,0.034037269394408445
390,1.7064422000112245,0.017991992246387097,-0.014715218396901814,0.04870476773023446,-0.0004982375096594608,-0.06547075833500525,0.007520797928407501,-0.013502519613122179,0.15677027938287547,-0.06080864844320956,-0.026964050901042355,0.5397603322045305,0.03557611312756322
391,1.7116271000122651,0.017564295434366436,-0.017195529433241197,0.04900938081218504,-0.0005607621420547272,-0.06474367115098213,0.007253952204445494,-0.013630783367626702,0.1592668386169188,-0.06061004513737918,-0.026533231611768054,0.5348047377250055,0.03709577693178294
392,1.715773600008106,0.017564295434366436,-0.017195529433241197,0.04900938081218504,-0.0006237901489559285,-0.06400621402320666,0.006987847049454563,-0.013756510984357656,0.16173435600980499,-0.060406471143243004,-0.026093950687355153,0.5296836459709892,0.03859567561598155
393,1.7194024000054924,0.01697077154678186,-0.0198132349350613,0.04931570536143204,-0.0006873088141878732,-0.06325853239271892,0.006722500791793178,-0.013879661064365426,0.16417205404787769,-0.0601980377251752,-0.02564627674281784,0.5243972225212112,0.040075241934365895
394,1.7232728000089992,0.016227764447877494,-0.024825967597353393,0.05012819358242727,-0.0007513053364618819,-0.06250077405011263,0.006457931512126659,-0.014000193310357248,0.16657916472444342,-0.059984856139831365,-0.025190285308329355,0.5189457292696968,0.04153392696043063
395,1.728690900010406,0.016227764447877494,-0.024825967597353393,0.05012819358242727,-0.0008157668345295165,-0.061733089091077206,0.0061941570444283165,-0.014118068552798364,0.16895492991429636,-0.059767037559400854,-0.02472605881421384,0.5133295245744898,0.0429712004381731
396,1.7321040000097128,0.016227764447877494,-0.024825967597353393,0.05012819358242727,-0.000880680352328347,-0.060955629871674646,0.005931194977001118,-0.014233248775009096,0.1712986017386427,-0.05954469299639152,-0.02425368656835344,0.5075490633167626,0.044386551110379965
397,1.7358168000064325,0.015589408658513309,-0.027433660901970275,0.05054696771495977,-0.0009460328641167914,-0.06016855096337635,0.005669062653516653,-0.014345697137241412,0.1736094429202218,-0.0593179332300015,-0.02377326472606742,0.501604896870835,0.0457794870238657
398,1.7396386000036728,0.01432669947276095,-0.03481984068597127,0.05180304196870779,-0.0010118112795951264,-0.05937200910788405,0.0054077771740683326,-0.01445537799971981,0.17588672712843284,-0.059086868734130056,-0.023284896252528366,0.4954976729857187,0.04714953581157123
399,1.7440478000062285,0.013771782821364069,-0.03729414807794484,0.05234055890970422,-0.0010780024490098202,-0.05856616317175837,0.0051473553962358455,-0.014562256944632493,0.17812973931428894,-0.0588516096070766,-0.02278869087778876,0.489228135578899,0.04849624495145866
400,1.7484800000092946,0.013771782821364069,-0.03729414807794484,0.05234055890970422,-0.0011445931682384073,-0.05775117410087777,0.004887813936158007,-0.014666300797060137,0.1803377760350327,-0.05861226550297437,-0.022284765044499156,0.4827971244431496,0.049819182002165764
401,1.7518909000064014,0.013771782821364069,-0.03729414807794484,0.05234055890970422,-0.0012115701838521832,-0.0569272048747503,0.004629169169611186,-0.014767477644830834,0.1825101457682619,-0.058368945565002606,-0.021773241848407118,0.4762055748672688,0.05111793481541143
402,1.7564835000084713,0.013070728677519418,-0.03986238731481381,0.05293218203414832,-0.0012789201981540676,-0.05609442046069994,0.004371437233090615,-0.014865756857290906,0.18464616921542581,-0.058121758360418295,-0.021254250971733696,0.46945451717170733,0.05239211172517044
403,1.7600963000004413,0.013070728677519418,-0.03986238731481381,0.05293218203414832,-0.0013466298741890484,-0.05525298776794846,0.0041146340248920535,-0.014961109102982576,0.18674517959456477,-0.05787081181744534,-0.020727928609531803,0.4625450761601435,0.05364134171366257
404,1.7660745000030147,0.011490047044425314,-0.04724189131686242,0.05452774839655061,-0.0014146858407246808,-0.05440307560161296,0.0038587752061913162,-0.015053506366220628,0.18880652292217964,-0.0576162131640568,-0.02019441738913795,0.455478470488147,0.054865274554227426
405,1.7708281000086572,0.010403893741663488,-0.05191816586593146,0.055479786115126925,-0.0014830746971991916,-0.053544854616639014,0.0036038762021193154,-0.015142921962561435,0.19082955828413045,-0.057358068868683026,-0.01965386628283597,0.44825601195015,0.056063580931182785
406,1.7749348000070313,0.00990601984393514,-0.05422259723525116,0.05608299392743808,-0.0015517830186348005,-0.05267849727168847,0.0033499522028303903,-0.015229330553158948,0.19281365809547585,-0.057096484582875584,-0.019106430513858276,0.4408791046860215,0.0572359525367892
407,1.779546500009019,0.00990601984393514,-0.05422259723525116,0.05608299392743808,-0.0016207973605139316,-0.05180417778300082,0.0030970181645618073,-0.015312708158003452,0.1947582083491775,-0.056831565085954015,-0.018552271455857024,0.4333492443086162,0.058382102145469295
408,1.7831767000025138,0.00990601984393514,-0.05422259723525116,0.05608299392743808,-0.0016901042636160658,-0.05092207207824577,0.0028450888106824057,-0.015393032168039987,0.19666260885360595,-0.05656341423166011,-0.017991556525983922,0.42566801695374623,0.05950176366545472
409,1.7869572000054177,0.009125284422070088,-0.05673531647851649,0.056584991683219434,-0.0017596902588130517,-0.05003235775038399,0.002594178632728515,-0.015470281356164602,0.198526273458797,-0.056292134896840894,-0.017424459071723696,0.4178370982540895,0.060594692168058156
410,1.7925698000035482,0.00743296044566072,-0.06346946325579568,0.05823378592630141,-0.0018295418718207806,-0.0491352140115525,0.002344301891425355,-0.015544435887097686,0.2003486302714207,-0.056017828932179096,-0.016851158251632425,0.4098582522386222,0.06166066389479119
411,1.796124400003464,0.006827255414466606,-0.06559518851881922,0.05888640824700543,-0.0018996456279051826,-0.04823082164699064,0.0020954726176922464,-0.015615477326134695,0.20212912185843637,-0.05574059711498693,-0.01627183891013779,0.401733330159226,0.06269947624257179
412,1.8000351000082446,0.006124266309891891,-0.06767198563174442,0.05949073125751986,-0.001969988056540568,-0.047319362969021804,0.0018477046136300926,-0.015683388646775907,0.2038672054394194,-0.05546053910407638,-0.01568669144656376,0.3934642692461855,0.06371094772728778
413,1.804231400004937,0.005597728844938838,-0.06975566207654371,0.060165116625162975,-0.0020405556960184203,-0.0464010217711054,0.001601011453489713,-0.015748154237237928,0.20556235306755738,-0.05517775339671646,-0.015095911678547626,0.3850530913943518,0.06469491792600505
414,1.808204900007695,0.004905861773452439,-0.07189786530165182,0.0607779424761358,-0.0021113350980048306,-0.04547598328197322,0.001355406484619705,-0.015809759905850714,0.20721405179932503,-0.054892337287685666,-0.014499700700022267,0.3765019017818069,0.0656512473981312
415,1.812479100000928,0.004275461968101643,-0.07394237802053649,0.06140860915475066,-0.0021823128320448255,-0.044544434119863176,0.0011109028283926437,-0.01586819288534489,0.20882180385285887,-0.05460438683042504,-0.013898264733941769,0.36781288742292007,0.06657981758586527
416,1.816475100000389,0.003648447265879511,-0.07594015750137444,0.0620797576787025,-0.00225347549001191,-0.04360656224686304,0.0008675133811085397,-0.015923441836035397,0.21038512675506255,-0.05431399680029426,-0.01329181497993298,0.3589883156577412,0.0674805306942851
417,1.820046700013336,0.003648447265879511,-0.07594015750137444,0.0620797576787025,-0.002324809690501227,-0.042662556923376,0.0006252508148745863,-0.01597549684790841,0.2119035534774872,-0.05402126065993127,-0.012680567457060003,0.35003053257972777,0.0683533095514434
418,1.8235156000009736,0.002811126818123957,-0.0779585980632924,0.06277270767756749,-0.0023963020831648018,-0.04171260866271972,0.0003841275784603469,-0.01602434944161963,0.21337663256104014,-0.05372627052671315,-0.012064742841892805,0.3409419614038454,0.06919809744886254
419,1.828602900000988,0.002811126818123957,-0.0779585980632924,0.06277270767756749,-0.0024679393529874125,-0.04075690918586954,0.00014415589812763957,-0.016069992568412857,0.21480392822958747,-0.053429117142313284,-0.011444566302074913,0.3317251007771303,0.07001485796283564
420,1.832168000008096,0.001594239786662492,-0.08175837022724612,0.06404840508555758,-0.002539708224501718,-0.03979565137635592,-9.465222156550512e-05,-0.0161124206089688,0.21618502049252578,-0.053129889844347765,-0.010820267325588873,0.3223825230338435,0.07080357475695898
421,1.8358840000000785,0.0003586181414645326,-0.08523344194688452,0.0652758236069627,-0.0026115954659413423,-0.03882902923532525,-0.00033228499698732627,-0.016151629371195127,0.21751950523640814,-0.052828676540101475,-0.010192079545921403,0.312916872397386,0.07156425136633741
422,1.8398792000079995,-0.00024000040099373884,-0.08704072783545783,0.06592309097444833,-0.0026835878933306897,-0.03785723783677288,-0.0005687308646816604,-0.016187616086969458,0.21880699430571995,-0.05252556368232206,-0.009560240563333329,0.3033308631311796,0.07229691096392092
423,1.8437884000013585,-0.0009304716562470563,-0.08868102725425583,0.06650849046529424,-0.002755672374510322,-0.036880473282956135,-0.00080397848064441,-0.01622037940784805,0.22004711557290957,-0.05222063624706774,-0.008924991762442233,0.29362727764075336,0.07300159610944554
424,1.8483248000120511,-0.0015409515595787883,-0.09039885613069278,0.06709979873793248,-0.0028278358330967985,-0.035898932659994984,-0.0010380167196273405,-0.0162499193997538,0.2212395129977883,-0.05191397771359277,-0.008286578126328284,0.2838089645293077,0.07367836848146683
425,1.85222960000101,-0.0021757412116631906,-0.09190283473549721,0.06777882640062659,-0.0029000652523759572,-0.03491281399366726,-0.0012708346744692916,-0.01627623753665805,0.2223838466764218,-0.05160567004625177,-0.007645248047376022,0.2738788366090507,0.07432730859298743
426,1.8572618000034709,-0.002753205014299184,-0.0934945286005258,0.06840847780756605,-0.0029723476791286827,-0.03392231620540502,-0.0015024216554547826,-0.016299336693271438,0.22347979287964462,-0.051295793678402285,-0.007001253135066971,0.263839868870629,0.07494851549119348
427,1.8623885000124571,-0.003418285913242774,-0.0949359091006205,0.06891553974990342,-0.0030446702273882794,-0.03292763906849784,-0.0017327671896998878,-0.01631922113675999,0.22452704408133664,-0.05098442749828247,-0.006354848020939676,0.25369509641299554,0.07554210644182738
428,1.8667821000126423,-0.004024271343008802,-0.0964034024434145,0.06961488987968964,-0.0031170200821286262,-0.031928983164508484,-0.0019618610205651647,-0.016335896517503425,0.2255253089766103,-0.05067164883683941,-0.005706290160935339,0.24344761233607848,0.07610821659873504
429,1.8703077000100168,-0.004024271343008802,-0.0964034024434145,0.06961488987968964,-0.0031893845028823655,-0.030926549839905688,-0.002189693107095319,-0.016349369858913353,0.2264743124900647,-0.05035753345748111,-0.005055839635348521,0.23310056559862874,0.07664699865913703
430,1.8736596000089776,-0.004834883457664647,-0.09788656641332798,0.07015750182341317,-0.0032617508272884447,-0.029920541162918285,-0.002416253623485202,-0.016359649546329857,0.22737379577427122,-0.050042155547723635,-0.00440375894660334,0.22265715884363868,0.07715862250518297
431,1.8774632999993628,-0.005810017548095745,-0.10048146895344268,0.07127630499901969,-0.003334106474568404,-0.028911159880614358,-0.0026415329585716303,-0.016366745315015502,0.22822351619866205,-0.049725587712703,-0.0037503128150763367,0.21212064619373258,0.0776432748323576
432,1.881695200005197,-0.0064275349938466364,-0.1016668732090991,0.0717244278697888,-0.003406438948930879,-0.0278986093762084,-0.002865521715350438,-0.01637066823726666,0.22902324732900067,-0.04940790097051967,-0.003095767973187647,0.20149433101893768,0.0781011587653159
433,1.8854664000100456,-0.0069368580583295475,-0.10286192039686655,0.07230361720868513,-0.0034787358429038276,-0.026883093626599193,-0.0030882107105180663,-0.01637143070866256,0.22977277889761938,-0.04908916474938176,-0.00244039295798239,0.19078156367925145,0.07853249346173187
434,1.890098900010344,-0.007473536889312194,-0.10392430861101154,0.07280595818208604,-0.0035509848405940554,-0.025864817160140607,-0.0033095909740369243,-0.016369046433473016,0.23047191676461512,-0.04876944688651167,-0.0017844579024241028,0.17998573924442066,0.0789375137047524
435,1.893959200009704,-0.008034562482192309,-0.10494924461943123,0.07331616373381296,-0.0036231737208736675,-0.02484398501464709,-0.003529653748723662,-0.016363530409246402,0.23112048287020212,-0.04844881362877911,-0.0011282343256217436,0.16911029519334794,0.079316469484654
436,1.8981520000088492,-0.008468685001076623,-0.10589598567427867,0.07378314882735107,-0.003695290360493149,-0.023820802695635218,-0.003748390489859416,-0.016354898910599883,0.23171831517842503,-0.04812732963502226,-0.00047199492221127284,0.1581587090955377,0.07966962557030542
