,time,x,y,z,vx,vy,vz,ax,ay,az,jx,jy,jz
0,0.0037962999922456,0.0,0.0,0.0,5.6060450999904315e-05,-0.00019089753891690092,-0.00019406353570600634,-0.000338058881385801,0.0029226294164373793,0.000656959569221698,-0.004838663787149045,0.01619107423847541,0.012009870993233354
1,0.0080023999908007,4.767760743630586e-05,0.00012487087021846393,4.363083265167515e-05,3.9881088430156155e-05,0.00016330737455611864,-0.00014130301919600447,-0.0006630215351340162,0.0058678503727337605,0.0016083979045660342,-0.006779195121957409,0.028775548323146664,0.017848201374904605
2,0.012283899995964,8.954761122259927e-05,0.0002650278526600596,6.312573494978648e-05,2.274114941778906e-05,0.0005232962834265849,-8.584265038296085e-05,-0.0009909149008279878,0.008818469561699736,0.0025686820680417624,-0.008707402076832658,0.04122559278082428,0.023657894372437305
3,0.0176785999938147,0.00023754925652601922,0.0004937290887004258,0.00016724351580982706,4.6247622949888135e-06,0.0008890489656182279,-2.7637520757945636e-05,-0.0013216337774761314,0.01177323007044753,0.0035375338477873254,-0.010622095515222144,0.05353327784303664,0.029435622704244425
4,0.0219409999990602,0.000300651871220457,0.0005941658888511943,0.0002122791450324463,-1.4483609681946535e-05,0.001260543086521216,3.3356511327362284e-05,-0.0016550706342958242,0.014730869485524696,0.004514669118827006,-0.012522089618450808,0.06569075326848145,0.03517806766343306
5,0.0261719999980414,0.00038728599110968246,0.0007077863010168475,0.0002456336871007491,-3.4599154464682844e-05,0.001637754209592204,9.718278632574585e-05,-0.0019911156697482433,0.017690120850000074,0.005499798012542693,-0.01440620287658079,0.07769025551546699,0.04088192189892575
6,0.0304527999978745,0.0004479795557733108,0.0008011912679265862,0.00028399409950766516,-5.573669754181294e-05,0.002020655808158678,0.00016388380961934268,-0.0023296568723097434,0.020649713623603655,0.006492625090434256,-0.016273259077301986,0.08952411484267969,0.0465438921904151
7,0.0347106999979587,0.0005161133334974571,0.0009443193245910984,0.0003466333884484664,-7.791068847778518e-05,0.002409219278407521,0.00023350121813616888,-0.0026705800829242067,0.023608374644905783,0.007492849522001365,-0.01812208829180798,0.1011847623302507,0.05216070221419077
8,0.0382178999861935,0.0005161133334974571,0.0009443193245910984,0.0003466333884484664,-0.00010113518767466799,0.002803413953536707,0.0003060757474895891,-0.0030137690590792605,0.026564829094520376,0.008500165266575866,-0.019951527856614516,0.11266473681317818,0.05772909529688674
9,0.0428930999914882,0.0006127534685359266,0.0010068084060238707,0.00040388407073203684,-0.00012542385336939663,0.0032032071190480293,0.00038164719967151726,-0.0033591055404477766,0.02951780145831745,0.009514261258930314,-0.021760423350281544,0.1239566917192571,0.06324583715420921
10,0.0475832999945851,0.0007154906230580958,0.0011785695027730855,0.00045404655187417217,-0.0001507899288789076,0.003608564029157832,0.00046025441132956134,-0.0037064693160346733,0.032466016489631794,0.01053482159848505,-0.023547629564004986,0.13505340180377318,0.06870771861172202
11,0.0512499999895226,0.0007154906230580958,0.0011785695027730855,0.00045404655187417217,-0.0001772462301053108,0.004019447924301785,0.0005419352226577194,-0.0040557382927677256,0.03540820016945795,0.011561525741933084,-0.025312011465050983,0.14594776977333385,0.07411155830478615
12,0.056178999991971,0.0008345033260557421,0.001221055106726014,0.0005119807139967348,-0.00020480513331297875,0.004435820049708874,0.00062672644692959,-0.004406788565469825,0.03834308066362618,0.012594048699099287,-0.027052445152013316,0.15663283279133583,0.07945420535477475
13,0.0596447999996598,0.0009361054768383735,0.0013544153011264656,0.0005264337240416024,-0.0002334785631891461,0.0048576396750189075,0.0007146638407023801,-0.004759494488148933,0.04126938927595991,0.01363206123184772,-0.028767818800883933,0.16710176885770517,0.08473254201871148
14,0.0641812999965623,0.0009859810685236745,0.0014087325850442888,0.0005424027263648802,-0.0002632779811993119,0.005284864114917057,0.0008057820747192783,-0.005113728746540889,0.044185861396422055,0.014675230055848544,-0.0304570336009372,0.17734790305569187,0.08994348630951197
15,0.0677981999906478,0.0010164936548605018,0.0014748978373354332,0.0005603414280240059,-0.0002942143742484229,0.0057174487507581934,0.0009001147055370045,-0.005469362431839187,0.04709123744326643,0.015723218045013736,-0.03211900467944014,0.1873647136586573,0.09508399458404249
16,0.0720111999980872,0.0011002813393775437,0.0014967206310621884,0.0005638311386974742,-0.00032629824365848595,0.0061553470531530725,0.0009976941479045668,-0.00582626511554491,0.049984263798219686,0.016775684438409072,-0.03375266201421397,0.19714583808995906,0.10015106409624897
17,0.0754473999986657,0.0011002813393775437,0.0014967206310621884,0.0005638311386974742,-0.0003595395944729202,0.00659851060548772,0.0010985516479184447,-0.006184304925369122,0.052863693733730455,0.017832285049447977,-0.03535695133308674,0.20668507872921132,0.10514173551265105
18,0.0790502999880118,0.0011002813393775437,0.0014967206310621884,0.0005638311386974742,-0.0003939479250976038,0.007046889128346732,0.0012027172569785759,-0.006543348622119269,0.05572828833133437,0.018892672477171524,-0.03693083499929228,0.2159764085583848,0.11005309538754116
19,0.0824310999887529,0.001252708407515659,0.0015256107805061,0.0006189032040017647,-0.0004295322172882049,0.00750043050481058,0.001310219806568648,-0.006903261677500404,0.058576817390196885,0.019956496319417566,-0.03847329288188744,0.22501397664140294,0.11488227859527811
20,0.0864778999966802,0.0012826504353515922,0.0016700848372408978,0.0005376097775539771,-0.0004663009264930083,0.00795908080659646,0.0014210868838832947,-0.007263908352761431,0.061408060324910536,0.02102340338768105,-0.03998332321027758,0.23379211343109269,0.11962647071711674
21,0.0904753999930108,0.0013306319628816439,0.0016966371011338474,0.0005169238131794231,-0.0005042619725600631,0.008422784321011702,0.0015353448083238637,-0.007625151778115985,0.06422080705163898,0.022093037923466757,-0.041459943411959015,0.24230533589755837,0.12428291038007022
22,0.0944564999954309,0.001387762962996581,0.0017680019662661445,0.0004862740973549904,-0.0005434227308170757,0.008891483578688266,0.001653018608883469,-0.007986854032867065,0.06701385886171664,0.02316504181593518,-0.0429021909326071,0.25054835247226354,0.12884889154536106
23,0.0979763999930583,0.0014438132496186645,0.0018013307543550254,0.0004714130332792495,-0.0005837900235320677,0.009365119382066424,0.0017741320024410592,-0.008348876226164155,0.06978602928183088,0.024239054820642068,-0.04430912403766007,0.2585160678023299,0.13332176574407728
24,0.1012789999949745,0.0014988337835707447,0.0018342581008860088,0.0004621240653556324,-0.0006253701117623977,0.009843630834595293,0.0018987073729832345,-0.008711078578321306,0.07253614491993278,0.02531471477917194,-0.04567982259457092,0.26620358730979404,0.137698944257715
25,0.1047576999990269,0.0014988337835707447,0.0018342581008860088,0.0004621240653556324,-0.0006681686875993195,0.010326955370617534,0.002026765751771524,-0.00907332050262437,0.0752630462960421,0.026391657839466127,-0.04701338883492311,0.27360622155080344,0.14197790024135626
26,0.1091948999965097,0.0016423773082364116,0.001855931978206664,0.0004899479861047849,-0.0007121908668148131,0.010815028785905179,0.002158326798471783,-0.00943546068755543,0.07796558865713317,0.027469518676646244,-0.04830894809563002,0.2807194903699763,0.1461561707873004
27,0.1133398999954806,0.0016840581692645653,0.001924861335188509,0.00040733060701811965,-0.0007574411819169817,0.01130778526881332,0.0022934087832613115,-0.00979735717936243,0.08064264277531083,0.028547930714134757,-0.04956564953846321,0.28753912684540256,0.15023135892704034
28,0.1183411999954842,0.0017536499421871203,0.001956419603322705,0.00038413820628250064,-0.0008039235756198633,0.01180515743201817,0.0024320285699282354,-0.010158867464901997,0.0832930957285081,0.02962652634487493,-0.050782666847180635,0.2940610810200203,0.1542011355695503
29,0.1219608999963384,0.0018248258963211546,0.0019802955092232868,0.00036313737066745347,-0.0008516413947330531,0.01230707634480577,0.00257420159997657,-0.010519848554683481,0.08591585166296214,0.03070493715245355,-0.05195919890155293,0.30028152341536546,0.15806324137392927
30,0.1261023999977624,0.0018849145581827378,0.0019914671630754466,0.00034318081120662385,-0.0009005973844760654,0.012813471565877563,0.0027199418777493077,-0.0108801570660424,0.08850983253674886,0.03178279413193104,-0.053094470427613345,0.30619684832396077,0.16181548855452393
31,0.1304022999975131,0.0019740099541717343,0.002014527789710794,0.0003213597462356139,-0.0009507936832218998,0.013324271176638888,0.0028692619565807336,-0.01123964930637166,0.09107397884368178,0.032859727910184836,-0.054187732623485814,0.3118036768768824,0.1654557626167375
32,0.1347905999864451,0.002055538403040688,0.002024887406356737,0.0002652961020181048,-0.0010022318176738096,0.013839401814936291,0.0030221729259880723,-0.011598181356339311,0.09360725031690736,0.033935368965573774,-0.055238263760174336,0.3170988598833151,0.16898202402181411
33,0.139095599995926,0.002111285724937693,0.002041021923020321,0.00023138087983769643,-0.0010549126984787996,0.014358788709209667,0.0031786843999114366,-0.011955609153021943,0.09610862661155534,0.03500934784673298,-0.05624536975672725,0.3220794804391894,0.17239230977897554
34,0.1427578999864636,0.0021659141590800036,0.002057854708735973,0.0001984473587595489,-0.0011088366162809015,0.014882355713025217,0.0033388045060099105,-0.012311788572883281,0.09857710796583037,0.03608129539031099,-0.05720838472922037,0.326742856302275,0.17568473496337442
35,0.1469236999982968,0.0022186563613321897,0.0020844136390408634,0.0001446989475221332,-0.0011640032382168,0.015410025339955304,0.0035025398760204383,-0.012666575514528124,0.10101171583996024,0.03715084293746296,-0.05812667151303433,0.33108654203139365,0.17885749415841767
36,0.1502750999934505,0.0022186563613321897,0.0020844136390408634,0.0001446989475221332,-0.0012204116048559126,0.01594171879877143,0.003669895637185019,-0.01301982598116237,0.10341149353244404,0.038217622548916065,-0.058999622157933175,0.3351083308877022,0.18190886282110466
37,0.1538660999940475,0.0022186563613321897,0.0020844136390408634,0.0001446989475221332,-0.0012780601275865437,0.01647735602891663,0.0038408754047505704,-0.013371396162690452,0.10577550677307335,0.039281267218425994,-0.059826658395483776,0.33880625649629054,0.184837198569117
38,0.1578846999909728,0.002372450399858964,0.002090393725977255,0.00013837712223545843,-0.0013369465864492567,0.01701685573622379,0.004015481275544662,-0.01372114251738227,0.10810284429222951,0.04034141108444591,-0.060607232078387974,0.3421785942666282,0.18764094238849258
39,0.1613244999898597,0.002372450399858964,0.002090393725977255,0.00013837712223545843,-0.001397068128418124,0.017560135428846664,0.004193713822629173,-0.014068921853042541,0.11039261836599093,0.041397689639832674,-0.06134082559133281,0.34522386257068877,0.19031861976081044
40,0.1648286999989068,0.002372450399858964,0.002090393725977255,0.00013837712223545843,-0.0014584212661300426,0.018107111453370583,0.00437557209103275,-0.014414591407616341,0.11264396533661529,0.042449739939417835,-0.062026952232998,0.34794082367787504,0.19286884170890975
41,0.1682948999950895,0.002526308845355541,0.0020937540990405693,1.205424456476154e-05,-0.0015210018770618198,0.01865769903107016,0.004561053594561825,-0.014758008929165465,0.1148560461079919,0.04349720080527446,-0.06266515656889318,0.3503284844461665,0.1952903057602616
42,0.1719216999917989,0.0026453352282696063,0.002038918988836672,-0.00015142315977018697,-0.0015848052031542641,0.019211812294281417,0.004750154313688797,-0.015099032755151369,0.1170280466156913,0.04453971302951442,-0.06325501475473165,0.3523860967692022,0.19758179682721144
43,0.1760214999958407,0.00271181339805887,0.002028425535133194,-0.000205038475153423,-0.001649825850882048,0.019769364322856274,0.004942868694514887,-0.01543752189096144,0.11915917827127132,0.0455769195744542,-0.06379613483008219,0.35411315777930835,0.19974218800340754
44,0.1804248999978881,0.0027958144993338796,0.002066341725499593,-0.00024412403827496726,-0.0017160577917676382,0.020330267180667713,0.005139189648803994,-0.015773336087616403,0.1212486783805308,0.046608465769991066,-0.06428815698207488,0.3555094098067698,0.20177044127582833
45,0.1844374999927822,0.002861387660168647,0.0020796766193631206,-0.0002870274591241535,-0.0017834943633371321,0.020894431952134487,0.005339108555082797,-0.0161063359185979,0.12329581053543455,0.04763399950803523,-0.06473075377897142,0.3565748400959379,0.20366560815192064
46,0.1886697999871103,0.0029154146049626835,0.0020923942894434167,-0.0003338158828839951,-0.0018521282705153783,0.02146176877873459,0.005542615260801232,-0.01643638285573645,0.12529986497946455,0.04865317143384799,-0.06512363037344517,0.35730968027906024,0.2054268302014605
47,0.1927423999877646,0.0029941323704334665,0.0021166924582818928,-0.00040123601751482435,-0.0019219515874573099,0.022032186895477226,0.0057496980855463705,-0.016763339344101402,0.12726015894618584,0.04966563513414006,-0.06546652467545115,0.35771440560900636,0.20705333951284666
48,0.1969764999957988,0.003046536122494745,0.0021343620755767886,-0.0004485561847186989,-0.001992955759811982,0.022605594667303556,0.0059603438253016585,-0.017087068875835686,0.1291760369708481,0.05067104732178812,-0.06575920749460136,0.35778973395234775,0.20854445906363636
49,0.2011173999926541,0.003116051191385496,0.0021761522516416526,-0.0004996472570768908,-0.0020651316074153507,0.023181899625387033,0.006174537757742411,-0.017407436062879724,0.13104687117487523,0.051669068017031985,-0.06600148265199567,0.35753662454453466,0.20989960300523153
50,0.2051928999862866,0.003171779090562218,0.00219465387806432,-0.0005493136653953383,-0.0021384693274074064,0.023761008503304717,0.0063922636485573845,-0.017724306708529983,0.13287206152312908,0.05265936072501979,-0.06619318706149288,0.3569562765091892,0.2111182768617222
51,0.2094475999911083,0.0032308076025679196,0.0022110572028575725,-0.0006004942157679166,-0.0022129584977688423,0.024342827273051558,0.006613503758785231,-0.01803754787777926,0.13465103605386464,0.0536415926095729,-0.06633419078044123,0.35605012714381595,0.21220007764299148
52,0.2128031999891391,0.0032308076025679196,0.0022110572028575725,-0.0006004942157679166,-0.0022885880812720627,0.02492726118087016,0.006838238853153673,-0.018347027966387403,0.13638325108132737,0.054615434663047094,-0.06642439702992219,0.3548198499745002,0.21314469387228324
53,0.2172608999971998,0.0033681798158381494,0.0022053647802384216,-0.0005772064274345635,-0.002365346429840893,0.02551421478286937,0.007066448209408241,-0.01865261676863276,0.13806819137097562,0.05558056187217129,-0.06646374218459582,0.3532673525824319,0.21395190552853147
54,0.2208623999904375,0.0033681798158381494,0.0022053647802384216,-0.0005772064274345635,-0.002443221289312979,0.026103591980405617,0.007298109628616418,-0.018954185543696225,0.13970537028734273,0.05653665337975017,-0.06645219573226965,0.35139477420535703,0.2146215839038469
55,0.2258673999895109,0.003498190364445323,0.002284476266612543,-0.000824353120212285,-0.002522199804598466,0.026695296055201656,0.007533199446432125,-0.019251607080631446,0.14129432991458474,0.057483392642121954,-0.06638976020334711,0.3492044831173182,0.21515369137665125
56,0.2302081999951042,0.0035612386197640743,0.0022877233007431684,-0.0008701123383107888,-0.00260226852522815,0.02728922970417811,0.00777169254530457,-0.019544755761876312,0.1428346411497903,0.05842046758226776,-0.06627647107034426,0.346699073790299,0.21554828110104385
57,0.2336163999862037,0.0035612386197640743,0.0022877233007431684,-0.0008701123383107888,-0.002683413411283947,0.027885295073973877,0.008013562367614555,-0.019833507625262564,0.14432590376916177,0.059347570738473986,-0.06611239661769666,0.3438813638416362,0.21580549661307621
58,0.2371775999927194,0.0035612386197640743,0.0022877233007431684,-0.0008701123383107888,-0.002765619839704168,0.028483393795132178,0.008258780929720533,-0.020117740424482077,0.145767746467207,0.06026439940845451,-0.0658976377821107,0.3407543907713022,0.21592557135470275
59,0.2417413999937707,0.003706572403917953,0.0022963648243598937,-0.0008703475135297716,-0.002848872610955751,0.029083427015929822,0.00850731883689585,-0.020397333687970146,0.1471598268691122,0.06117065578884453,-0.06563232796374568,0.3373214084933967,0.2159088281162646
60,0.2466830999910598,0.0038063034318716483,0.002326630935828587,-0.0010255592199705727,-0.002933155956065242,0.029685295435828065,0.008759145299137808,-0.020672168776167912,0.1485018315164954,0.062066047109983535,-0.0653166328085438,0.3335858836664149,0.2157556783984515
61,0.2508872999896994,0.0038619428179977543,0.002366273181992697,-0.001054200202834781,-0.0030184535440000246,0.0302888993385242,0.009014228147828382,-0.020942128937127852,0.1497934758267697,0.06295028576590969,-0.06495074996205663,0.3295514918270835,0.21546662169477535
62,0.2550223999860463,0.003915666281151646,0.00239680972668722,-0.0010805610062309084,-0.0031047484893909857,0.030894138624584008,0.009272533853225667,-0.021207099360428108,0.15103450402637364,0.06382308943949357,-0.06453490879514681,0.32522211333276557,0.21504224469567348
63,0.2592952999984845,0.003979140888460355,0.002429107808493062,-0.0011000811157507162,-0.0031920233605875264,0.03150091284363597,0.009534027542764422,-0.021466967229363403,0.1522246890581547,0.06468418122264469,-0.06406937010197362,0.3206018291176456,0.21448322041544196
64,0.2627245999901788,0.003979140888460355,0.002429107808493062,-0.0011000811157507162,-0.003280260188035538,0.03210912122610915,0.009798673020143388,-0.021721621771382173,0.15336383246321889,0.0655332897315296,-0.06355442577070038,0.31569491626810653,0.2137903072432809
65,0.2664757999882567,0.003979140888460355,0.002429107808493062,-0.0011000811157507162,-0.0033694404729686864,0.032718662714497235,0.010066432785176391,-0.021970954306741352,0.15445176423758786,0.0663701492167452,-0.06299039842738942,0.31050584342290133,0.21296434791981383
66,0.2707866999990074,0.00407159437364588,0.0024714980618787226,-0.0010942669057211049,-0.00345954519640309,0.03332943599413216,0.010337268054383768,-0.02221485829535222,0.15548834266403136,0.06719449966839704,-0.06237764105357803,0.3050392660039056,0.21200626844052034
67,0.2758929999981774,0.0041882482778188065,0.002622328846181466,-0.0011601686851979629,-0.003550554828425247,0.033941339523451484,0.010611138782299924,-0.022453229381792523,0.1564734541194681,0.06800608691603795,-0.06171653657805545,0.29930002128341354,0.21091707688759576
68,0.2801770999940345,0.004246155349461126,0.002665852103614548,-0.0011395910846960038,-0.0036424493377628215,0.03455427156374481,0.010888003683472328,-0.022685965438462137,0.15740701285835274,0.06880466272342785,-0.06100749744338734,0.2932931232941094,0.20969786219182424
69,0.2844340999872656,0.004290114884719936,0.0027163147416573064,-0.0011264479978133543,-0.0037352082016277235,0.035168130208365435,0.011167820255126764,-0.022912966606861287,0.15828896077249258,0.06958998487808017,-0.060250965147759426,0.28702375758799986,0.208349792826122
70,0.2886712999898009,0.0043300030685436775,0.0027736392367211293,-0.0011086792809732338,-0.0038288104158206737,0.035782813411394054,0.011450544800473101,-0.023134135336972384,0.15911926712775948,0.07036181727556647,-0.059447409762736714,0.2804972758507457,0.20687411543247472
71,0.2927286999911302,0.0043300030685436775,0.0027736392367211293,-0.0011086792809732338,-0.003923234505086289,0.03639821901574252,0.011736132452625425,-0.023349376424728407,0.15989792827818616,0.07111992999855556,-0.058597329427558124,0.2737191903779693,0.20527215338405827
72,0.2969001999881584,0.004428522264226815,0.002906779253221082,-0.0010454001474693234,-0.00401845853370756,0.03701424478068628,0.012024537199109918,-0.02355859704755273,0.16062496735795873,0.07186409939056934,-0.05770124982060925,0.2666951684202503,0.20354530528439438
73,0.3010289999947417,0.004476069398831379,0.002987918776088744,-0.001024778424199945,-0.004114460116328454,0.03763078840881541,0.01231571190693353,-0.0237617067979573,0.1613004339518387,0.07259410812444216,-0.05675972360873749,0.25943102640364296,0.2016950434054529
74,0.3043971999868518,0.004476069398831379,0.002987918776088744,-0.001024778424199945,-0.00421121642899321,0.03824774757239492,0.012609608348186111,-0.02395861771518814,0.16192440374456835,0.07330974526547657,-0.05577332987509455,0.2519327240326636,0.1997229120666713
75,0.3081229999952484,0.004476069398831379,0.002987918776088744,-0.001024778424199945,-0.004308704220390776,0.03886501993912596,0.01290617722614841,-0.024149244314908797,0.16249697814983077,0.07401080632929348,-0.0547426735262113,0.24420635828279763,0.1976305259569162
76,0.312318199998117,0.004553879071813103,0.0030634410530620514,-0.000939161626950774,-0.004406899823292737,0.039482503197300414,0.013205368201878067,-0.0243335036169146,0.1630182839193562,0.07469709333437967,-0.05366838467902904,0.23625815728967112,0.1954195684014636
77,0.3159313999931328,0.004553879071813103,0.0030634410530620514,-0.000939161626950774,-0.004505779166172999,0.04010009508034222,0.013507129921245451,-0.024511315170872256,0.16348847273278247,0.07536841484934077,-0.05255111802862924,0.22809447414211625,0.19309178957612316
78,0.3199154999892926,0.004667340699825982,0.003298796062293463,-0.0007959995854472393,-0.004605317784997408,0.04071769339072935,0.013811410042391024,-0.024682601080081457,0.16390772076889637,0.07602458603487287,-0.051391552197420996,0.2197217805864361,0.19064900467067758
79,0.3237804999953368,0.004649330304628127,0.0035381268072415453,-0.0006287402797401903,-0.004705490835171438,0.041335196023291575,0.014118155263575733,-0.024847286023256747,0.16427622825889718,0.0766654286804709,-0.05019038906656135,0.21114666064923876,0.1880930920038534
80,0.3272899000003235,0.004698958339025741,0.003631881734719419,-0.0005536410030558495,-0.004806273103634011,0.041952500987879726,0.014427311351395824,-0.025005297274330037,0.16459421902233973,0.07729077123589706,-0.04894835309039847,0.20237580418626763,0.18542599109207902
81,0.3305816999927629,0.004698958339025741,0.003631881734719419,-0.0005536410030558495,-0.004907639021085462,0.04256950643140329,0.014738823169333337,-0.025156564720276,0.16486193998642662,0.07790044883743717,-0.04766619059474157,0.19341600036470052,0.18264970067432185
82,0.3346215999918058,0.004823922073525939,0.003753042901688684,-0.0004217544602712069,-0.005009562674337637,0.04318611065923415,0.015052634706613542,-0.025301020876964293,0.16507966068933427,0.07849430332897782,-0.04634466905977456,0.18427413108642976,0.1797662766953321
83,0.3397346999990986,0.004788765677553761,0.003962746384861328,-0.0002715415208683733,-0.00511201781877416,0.04380221215597521,0.015368689107340494,-0.025438600903044468,0.16524767276826846,0.07907218327794222,-0.04498457638844232,0.1749571643598604,0.17677783024965252
84,0.3432224999996833,0.004778703903909019,0.004099208841119529,-0.00015231023535126694,-0.005214977890908879,0.04441770960559322,0.01568692869988194,-0.025569242611871185,0.16536628943295667,0.07963394398612653,-0.04358672016114945,0.1654721476277812,0.17368652548878202
85,0.3475885999941965,0.0048212990052931325,0.004218566836962104,-5.02501548278667e-06,-0.005318416021030502,0.045032501910916393,0.01600729502647485,-0.025692886481479143,0.1654358449252953,0.08017944749548371,-0.04215192687762088,0.15582620105887174,0.17049457749390706
86,0.3512298999994527,0.004842766697809108,0.004337947564632587,0.00015893676327440346,-0.005422305045921476,0.045646488212497706,0.01632972887302285,-0.02580947566261895,0.16545669396587784,0.08070856258890573,-0.04068104118678267,0.14602651081040638,0.16720425011663648
87,0.3547091999935219,0.004842766697809108,0.004337947564632587,0.00015893676327440346,-0.0055266175216392086,0.046259567906845905,0.016654170299057,-0.025918955984866803,0.16542921118813864,0.08122116478605973,-0.039174925105528856,0.13608032226970646,0.16381785379019448
88,0.3589673999958904,0.004915455918926312,0.004699826214889343,0.00046723557802897953,-0.005631325736347816,0.046871640664026895,0.016980558667831498,-0.026021275960822623,0.1653537905608546,0.08171713633433844,-0.037634457227246676,0.1259949332818717,0.16033774331354242
89,0.3624708999996073,0.004915455918926312,0.004699826214889343,0.00046723557802897953,-0.00573640172318863,0.047482606444638704,0.01730883267652605,-0.026116386788413035,0.1652308447997518,0.08219636619498877,-0.03606053192097794,0.11577768737129221,0.1567663156109131
90,0.3657124999881489,0.004915455918926312,0.004699826214889343,0.00046723557802897953,-0.005841817273177808,0.04809236551616431,0.017638930386527,-0.026204242351317,0.16506080476897064,0.08265875002448678,-0.034454058522098804,0.1054359669644031,0.15310600746925065
91,0.3696982999972533,0.004998148876287665,0.004834122618592843,0.0006976854957825906,-0.00594754394811948,0.04870081846870722,0.017970789253759348,-0.026284799217533655,0.16484411887314793,0.08310419015123127,-0.032815960515403315,0.09497718662109807,0.14935929325605643
92,0.3735623999964446,0.004990200674909858,0.00525716248525348,0.001033086098278532,-0.0060535530935230146,0.04930786623011524,0.01830434615904216,-0.026358016636113417,0.16458125244087676,0.0835325955476318,-0.03114717471147862,0.0844087862821611,0.1455286826201458
93,0.3771287999988999,0.005000971366891239,0.005454999522847345,0.001206444527280211,-0.006159815851513078,0.0499134100804986,0.018639537438440084,-0.026423856532075095,0.16427268710030934,0.08394388179767084,-0.029448650417260903,0.07373822454001046,0.14161671817782245
94,0.3805550999968545,0.0049934214684315805,0.005672605231893418,0.0013866585899276259,-0.006266303173721334,0.050517351666149346,0.0189762989135841,-0.02648228349953326,0.16391892014766893,0.08433797106002347,-0.027721348601661255,0.06297297193997459,0.1376259731869749
95,0.3844363999960478,0.004986175724649188,0.005948229919322494,0.0016329460347421095,-0.006372985834148773,0.05111959301286973,0.019314565921934927,-0.026533264793061413,0.16352046390943767,0.08471479202682122,-0.025966241057149866,0.05212050431923796,0.13355904921159456
96,0.3885263999982271,0.005002446991187174,0.006204756190745495,0.0018556878595358903,-0.006479834441987837,0.05172003653871799,0.019654273346962937,-0.026576770317318053,0.16307784509898635,0.08507427987815007,-0.02418430955818527,0.0411882961905043,0.1294185737792073
97,0.3928179999929853,0.0049758842423975325,0.00649199925930731,0.0020856716031792,-0.006586819454393696,0.0523185850661805,0.01999535564821887,-0.026612772614964083,0.1625916041684104,0.08541637623237568,-0.022376545017372188,0.030183814177325824,0.12520719803369948
98,0.3969788999966113,0.0050044036721898924,0.006768579488805505,0.002314555492589308,-0.006693911189194192,0.052915141833779905,0.020337746891269968,-0.026641246852901288,0.1620622946563352,0.08574102909239258,-0.02054394664022788,0.019114510507940635,0.12092759438600728
99,0.40095549999387,0.0050508139996729385,0.007086637996188138,0.002548346832445027,-0.006801079837528209,0.05350961050712931,0.020681380777476728,-0.026662170806863183,0.1614904825324491,0.08604819278789663,-0.018687521079432015,0.007987816574345942,0.11658245416512104
100,0.4051280999992741,0.005089059737547864,0.007416731603977091,0.0027567969253726597,-0.006908295476402407,0.054101895189443194,0.021026190673585993,-0.02667552484439064,0.16087674553951903,0.08633782791378293,-0.01680828158942911,-0.0031888634367870008,0.1121744852718377
101,0.409250400000019,0.005131649653332997,0.00773438981944244,0.0029625321183208253,-0.007015528081156515,0.05469190043151652,0.021372109641116552,-0.02668129190622607,0.16022167253363825,0.08660990126477412,-0.014907247182245812,-0.014408158834879347,0.10770640983767277
102,0.4135727999964729,0.005097399425943386,0.008131804902316315,0.003245288621863944,-0.00712274753782759,0.05527953124118399,0.021719070465513923,-0.02667945748616101,0.15952586282344985,0.08686438576638647,-0.012985441785377468,-0.025662738631551937,0.1031809618913186
103,0.4180119999946328,0.005103838478668936,0.00851908223424554,0.0034857980322187897,-0.007229923655403847,0.05586469309227177,0.02206700568505167,-0.026670009609373137,0.15878992550908358,0.08710126040234359,-0.011043893402589867,-0.03694531765587588,0.09860088503500869
104,0.4219827999913832,0.005183517007453038,0.008924817866448173,0.0037590654542284177,-0.007337026177958907,0.056447291933054665,0.022415847619457162,-0.02665293880928979,0.1580144788215371,0.08732051013854993,-0.009083633278472298,-0.0482486625727185,0.09396893013311956
105,0.4263937999930931,0.0052327780859074075,0.009381237990286258,0.0040304327870364495,-0.0074440247966575885,0.05702723419423244,0.022765528398240226,-0.026628238103016167,0.1572001494632231,0.08752212584373811,-0.007105695067567652,-0.059565597798292624,0.08928785301530963
106,0.4307639999897219,0.0052669114274737,0.009793735097140936,0.004264885108924968,-0.007550889161624616,0.0576044267964392,0.023115979988703718,-0.026595902965367332,0.15634757195039484,0.08770610420690642,-0.005111114008893932,-0.07088901130717923,0.08456041219645967
107,0.4344590999971842,0.005326842830717951,0.010231858883756724,0.0045106007159089545,-0.007657588893667858,0.058178777157299855,0.023467134223615696,-0.02655593130154411,0.15545738795815342,0.08787244765166452,-0.0031009261066593193,-0.08221186032526157,0.07978936661564286
108,0.438803299999563,0.005303805694860718,0.010754318932641475,0.004795266750398567,-0.007764093595848001,0.05875019319804811,0.023818922828523624,-0.02650832341849383,0.1545302456687297,0.0880211642476076,-0.0010761673179599505,-0.09352717690318248,0.07497747339631339
109,0.4428767999925185,0.0053294253927687755,0.011263456040774484,0.005063022212064358,-0.00787037286488692,0.05931858334972113,0.024171277448691658,-0.02645308199499789,0.1535667991237218,0.08815226761884008,0.000962127251764266,-0.10482807336511533,0.07012748562986128
110,0.4469889999891165,0.0053794732664445835,0.011801348440458747,0.005314228527590443,-0.007976396302407257,0.05988385655894612,0.024524129675642724,-0.026390212050528754,0.15256770758095847,0.08826577684977224,0.0030129241447551178,-0.11610774762782292,0.06524215018463811
111,0.4503472999931546,0.0053794732664445835,0.011801348440458747,0.005314228527590443,-0.008082133525995978,0.060445922293334266,0.024877411073287826,-0.026319720912919804,0.1515336348766451,0.08836171638831376,0.005075192337697494,-0.1273594883851676,0.06032420554251319
112,0.4537979999877279,0.0053794732664445835,0.011801348440458747,0.005314228527590443,-0.008187554180084945,0.061004690546497785,0.02523105320362551,-0.026241618184892092,0.1504652487934359,0.08844011594658963,0.007147904018487494,-0.13857668015342905,0.05537637966497167
113,0.4570787999982713,0.0053794732664445835,0.011801348440458747,0.005314228527590443,-0.008292627946641908,0.061560071842706406,0.025584987651995413,-0.02615591570948295,0.14936322043506217,0.08850101039930452,0.009230035352294778,-0.1497528081729836,0.05040138789071738
114,0.4614946999936364,0.005532640874434073,0.012297869540883785,0.0055948074835654804,-0.008397324555665543,0.062111977241199434,0.025939146051870577,-0.02606262753442178,0.14822822360813176,0.08854443967988303,0.011320567236224174,-0.16088146316210017,0.04540193086669189
115,0.4650237999885576,0.005532640874434073,0.012297869540883785,0.0055948074835654804,-0.008501613795478568,0.06266031834016972,0.026293460109173827,-0.025961769875498864,0.14706093421169925,0.08857044867451354,0.01341848604189971,-0.17195634591881315,0.04038069251436831
116,0.4685155999904964,0.005500506317117514,0.013891549078140731,0.006522371012579561,-0.008605465522813209,0.0632050072804361,0.026647861626104396,-0.025853361078973586,0.14586202963519,0.0885790871142245,0.015522784345312958,-0.18297127176703976,0.035340338033123156
117,0.4722047999966889,0.005593080835365487,0.014947215548351536,0.00712600583795513,-0.008708849672683625,0.06374595674882078,0.027002282524461678,-0.025737421583068944,0.14463218816524528,0.08857040946512251,0.017632461643296956,-0.19392017484332227,0.030283511942433994
118,0.4761491999961436,0.005573266189796724,0.015585463546795682,0.007450361819846378,-0.008811736268040327,0.06428307998124866,0.027356654868453824,-0.025613973878599677,0.14337208840204008,0.08854447481692228,0.019746525056006957,-0.20479711222078945,0.025212836164592065
119,0.4803633999981684,0.005570052136260358,0.016173087720178753,0.007789422799459701,-0.008914095429201874,0.06481629076558582,0.027710910886979485,-0.025483042468781796,0.14208240868560648,0.08850134676989825,0.02186399001480974,-0.21559626786714833,0.020130908149560152
120,0.4842856999894138,0.005590728864999937,0.01675230227876817,0.008128437867123648,-0.00901589738305948,0.06534550344423436,0.02806498299537186,-0.025344653828271547,0.1407638265326788,0.08844109332038746,0.02398388093500404,-0.22631195643373692,0.015040299043545235
121,0.4887964999943506,0.005619657323485368,0.017339240303228344,0.008492970410335858,-0.00911711247205037,0.06587063291650039,0.028418803816594913,-0.02519883636148211,0.1394170180845584,0.08836378674497397,0.026105231872816183,-0.23693862687288833,0.009943551902793633
122,0.4929895999957807,0.005572647854342388,0.017967768639446036,0.00891123561417841,-0.009217711162896164,0.06639159464075238,0.02877230620188265,-0.025045620360226575,0.13804265756647704,0.08826950348348445,0.028227087166136956,-0.2474708658810789,0.004843179954053097
123,0.4969894999958342,0.005530283341203961,0.018606362187438892,0.009290534375405102,-0.009317664055102934,0.06690830463638697,0.029125423250812927,-0.024885037960735757,0.13664141675891933,0.08815832402092477,0.030348502058487912,-0.2579034011655569,-0.00025833509691782435
124,0.5011762999929488,0.005546666851311451,0.01919838807484152,0.009685315475503282,-0.009416941889219835,0.06742067948561976,0.02947808833080815,-0.02471712310009954,0.1352139644813454,0.08803033276848689,0.03246854330572812,-0.26823110453237287,-0.005358544707478081
125,0.5052808999898843,0.005529902921216294,0.01987405658948564,0.010110666859357464,-0.00951551555485353,0.06792863633511846,0.029830235096055837,-0.024541911472180572,0.1337609660887362,0.08788561794375435,0.034586289765035194,-0.2784489947939586,-0.010455035089621157
126,0.5093422999925679,0.005495178320218174,0.020549001055227074,0.010520046087373364,-0.009613356098435959,0.06843209289749576,0.030181797505843003,-0.024359440483048923,0.13228308298136357,0.08772427145023487,0.03670083296571808,-0.2885522404946275,-0.015545428749698968
127,0.5135632999881636,0.005416329897414188,0.02116872770488767,0.010965102573413404,-0.00971043473074333,0.06893096745267945,0.030532709842299086,-0.024169749205986402,0.13078097212816706,0.08754638875634671,0.03881127766144248,-0.29853616245259595,-0.020627385975238513
128,0.5170791999989888,0.005416329897414188,0.02116872770488767,0.010965102573413404,-0.009806722834164564,0.06942517884917705,0.030882906727542896,-0.023972878336109175,0.12925528560409794,0.08735206877398478,0.040916742363474264,-0.30839623611735145,-0.025698606267805683
129,0.5205101999890758,0.005416329897414188,0.02116872770488767,0.010965102573413404,-0.00990219196971777,0.06991464650525152,0.031232323140229678,-0.02376887014465719,0.12770667014177142,0.0871414137367914,0.04301635985457023,-0.31812809374141565,-0.0307568297209396
130,0.5239721999969333,0.005416329897414188,0.02116872770488767,0.010965102573413404,-0.009996813883813608,0.07039929041002427,0.031580894431495345,-0.023557768432998647,0.1261357666977476,0.0869145290782564,0.04510927768317014,-0.3277275263657766,-0.03579983834225042
131,0.5273013999976683,0.005416329897414188,0.02116872770488767,0.010965102573413404,-0.010090560514764632,0.07087903112452217,0.03192855634029543,-0.023339618486397477,0.12454321003373983,0.086671523309769,0.04719465863756841,-0.3371904856184884,-0.0408254573188435
132,0.5307505999953719,0.00544391745836887,0.021851886343052268,0.011476197785600733,-0.010183403999040205,0.07135378978268431,0.0322752450081373,-0.023114467027591498,0.12292962831302956,0.0864125078987425,0.049271681199768526,-0.34651308532615593,-0.045831556225302994
133,0.5346563999919454,0.005173731112419493,0.024569558604361177,0.013390155945632358,-0.010275316677266699,0.07182348809234433,0.03262089699320482,-0.022882362170228578,0.12129564271234403,0.08613759714693148,0.0513395399787479,-0.35569160293824764,-0.05081605017353846
134,0.5386287000001175,0.005062155066039438,0.025313744458794196,0.013922746460553232,-0.010366271099973129,0.0722880483362037,0.032965449283875244,-0.022643353372207912,0.11964186704943276,0.08584690806906016,0.05339744612288582,-0.3647224807643959,-0.055776900903868706
135,0.5421044999966398,0.005062155066039438,0.025313744458794196,0.013922746460553232,-0.010456240033082624,0.07274739337281125,0.03330883931162896,-0.022397491388973012,0.11796890742655781,0.0855405602718786,0.05544462771133251,-0.373602327025063,-0.06071211781678766
136,0.5466138999909163,0.004930704431493056,0.026673380223455546,0.014940262400956682,-0.010545196463150433,0.07320144663756414,0.03365100496335353,-0.022144828226802693,0.11627736189009116,0.08521867583376132,0.05748033012412206,-0.3823279167161652,-0.06561975894492786
137,0.5511837999947602,0.00481080877318475,0.02740321460174026,0.015529221036374994,-0.010633113602349482,0.07365013214374497,0.033991884593043815,-0.02188541709614575,0.11456782010639144,0.08488137918496134,0.05950381639085704,-0.39089619228845884,-0.0704979318648076
138,0.5553402999939863,0.004711431912245686,0.028088510478947268,0.016076226180619643,-0.010719964893204717,0.0740933744836095,0.03433141703290105,-0.021619312365044458,0.11284086305411103,0.08452879698863093,0.06151436751781745,-0.39930426414270415,-0.0753447945480187
139,0.559450899992953,0.00460298832989065,0.028765326415432932,0.01663641740361852,-0.01080572401307773,0.07453109882953926,0.03466954160383388,-0.02134656951269146,0.11109706273306381,0.0841610580227175,0.0635112827933714,-0.4075494109418245,-0.08015855615158125
140,0.5637232999870321,0.004506266771860996,0.02951572843465645,0.017238238816970015,-0.010890364878403492,0.07496323093527217,0.03500619812536541,-0.021067245083164057,0.1093369818897625,0.08377829306284168,0.06549388007159036,-0.415629079741488,-0.08493747774726189
141,0.5678505999967456,0.004391563378034908,0.030202260076722793,0.01778978614262423,-0.010973861648681305,0.07538969713722521,0.03534132692495116,-0.0207813966393793,0.10756117375971393,0.08338063476626166,0.06746149603399615,-0.4235408859407322,-0.08967987298972116
142,0.571270899992669,0.004391563378034908,0.030202260076722793,0.01778978614262423,-0.011056188730222372,0.07581042435592229,0.0356748688467131,-0.020489082717312687,0.10577018182653898,0.08296821755702637,0.06941348642939181,-0.4312826130544496,-0.09438410872342445
143,0.574617299993406,0.004391563378034908,0.030202260076722793,0.01778978614262423,-0.011137320779656545,0.07622534009754042,0.03600676525959617,-0.020190362780522383,0.1039645395979639,0.08254117751241695,0.07134922629175293,-0.43885221230974353,-0.09904860552831893
144,0.5797461999900406,0.003969358716145968,0.032421678960747595,0.01969411492793262,-0.011217232707201154,0.07663437245558606,0.03633695806495402,-0.01988529717502014,0.10214477039870923,0.08209965225077359,0.07326811013617993,-0.4462478020683506,-0.10367183820434689
145,0.5842375999927754,0.0038559383335863605,0.03310429883712969,0.02029405662137078,-0.011295899679695102,0.07703745011271369,0.03666538970357156,-0.019573947084529315,0.10031138718028235,0.08164378082080222,0.07516955213293583,-0.4534676670775141,-0.10825233619493284
146,0.5883735999959754,0.0037301485483868255,0.03386020968874491,0.020863704006419008,-0.01137329712340165,0.07743450234269815,0.03699200316213212,-0.019256374486169604,0.09846489234765932,0.08117370359245316,0.07705298625961805,-0.4605102575518696,-0.11278868394964733
147,0.591791299986653,0.0037301485483868255,0.03386020968874491,0.020863704006419008,-0.01144940072658348,0.077825459012572,0.03731674197913762,-0.018932642106607174,0.09660577760282206,0.08068956214946098,0.07891786643153562,-0.4673741880890779,-0.1172795212263156
148,0.5950562999933027,0.0037301485483868255,0.03386020968874491,0.020863704006419008,-0.011524186441853884,0.0782102505849389,0.03763955025029082,-0.01860281337870807,0.0947345238050978,0.08019149918363251,0.08076366661038656,-0.47405823642211153,-0.12172354333290356
149,0.598906100000022,0.003610723625200273,0.03464318327689957,0.02160630257187532,-0.011597630488308145,0.07858880812047334,0.037960372633349136,-0.0182669523987318,0.09285160084822802,0.07967965839096723,0.0825898808913532,-0.48056134201126105,-0.12611950130957741
150,0.602802099994733,0.0032079605052043655,0.03616644793195755,0.02284161239603249,-0.011669709353439377,0.07896106328061658,0.03827915435246008,-0.017925123884100964,0.09095746755407623,0.07915418436969092,0.0843960235687552,-0.48688260447909304,-0.1304662020513946
151,0.6063594999868656,0.0030550862204514655,0.03690949196315928,0.02352011997599217,-0.011740399794843275,0.07932694833047825,0.038595841201988716,-0.017577393131781756,0.08905257158286398,0.0786152225202804,0.08618162918042295,-0.49302128189174105,-0.1347625083721451
152,0.6098837999888929,0.002898056963890742,0.03777244092886167,0.024207959375836502,-0.011809678841716383,0.07968639614195241,0.03891037954984837,-0.017223825977309357,0.0871373493598074,0.07806291894755443,0.08794625253097571,-0.4989767888900569,-0.13900733900992224
153,0.6137276999943424,0.0027480907212240136,0.03855119540851482,0.02488318842326577,-0.011877523796152716,0.08003934019705679,0.03922271634034605,-0.016864488754491168,0.08521222601800832,0.07749742036490266,0.08968946869420932,-0.5047486946742985,-0.14319966857505964
154,0.6170959999872139,0.0027480907212240136,0.03855119540851482,0.02488318842326577,-0.011943912234243698,0.08038571459150257,0.039532799096554626,-0.01649944825581963,0.0832776153574363,0.07691887400072195,0.09141087299481979,-0.5103367208461654,-0.14733852744112935
155,0.6206569999922067,0.0027480907212240136,0.03855119540851482,0.02488318842326577,-0.012008822006986627,0.08072545403850256,0.039840575922224106,-0.01612877169362543,0.08133391981982115,0.07632742750712622,0.09311008096970905,-0.515740739112128,-0.1514230015797519
156,0.6256501999887405,0.00217065598438818,0.04102503296664767,0.0269502462800041,-0.012072231241007002,0.08105849387282466,0.04014599550324456,-0.015752526662000728,0.07938153047925893,0.0757232288709928,0.09478672830913928,-0.5209607688521166,-0.15545223234002292
157,0.6299203999951715,0.0020080853576021763,0.04195931277395381,0.02762667773751168,-0.012134118339100131,0.08138477005509676,0.040449007108673586,-0.015370781099520963,0.077420827048318,0.07510642632740475,0.09644047077802176,-0.5259969745577544,-0.159425416173415
158,0.6333156999899074,0.0020080853576021763,0.04195931277395381,0.02762667773751168,-0.012194461980597605,0.08170421917636927,0.040749560591341695,-0.014983603252792852,0.0754521778994157,0.07447716827554587,0.09807098411764523,-0.5308496631444324,-0.16334180430506412
159,0.6365307999949437,0.0020080853576021763,0.04195931277395381,0.02762667773751168,-0.01225324112156437,0.0820167784629402,0.04104760638804914,-0.01459106164085488,0.073475940101221,0.07383560319710195,0.09967796392816682,-0.5355192811416342,-0.16720070235240114
160,0.6406644999951823,0.001908722986202497,0.04273314420794219,0.02840739628992899,-0.01231043499483223,0.08232238578144818,0.04134309551936805,-0.014193225020455495,0.07149245946982331,0.07318187957721803,0.10126112553220641,-0.5400064117660196,-0.1710014698921356
161,0.6445466999866767,0.001431985114570933,0.04454180337881738,0.029739931481740707,-0.012366023109875718,0.08262097964423816,0.041635979589064044,-0.013790162352232868,0.06950207063439409,0.0725161458280584,0.10282020381990295,-0.5443117718818676,-0.17474351997664764
162,0.6488248999958159,0.0012304563516103185,0.04551716301914042,0.030464773247939097,-0.012419985252536334,0.08291249921500368,0.04192621078315174,-0.013381942767818943,0.06750509711705323,0.07183855021501287,0.10435495307580778,-0.548436208853566,-0.1784263186008884
163,0.65327029999753,0.0010538978343958849,0.046451923386939105,0.031161990081303784,-0.012472301484601399,0.08319688431470965,0.0422137418685989,-0.012968635537889309,0.0655018514266399,0.07114924078558962,0.10586514678800665,-0.5523806972949243,-0.1820493841209329
164,0.6570085999992443,0.0008531119086396125,0.04738342195995788,0.0318422479691669,-0.012522952143243766,0.08347407542779811,0.042498526191693885,-0.01255031004117918,0.06349263516607377,0.0704483653010313,0.10735057743987761,-0.5561463357201564,-0.18561228662537185
165,0.6605428999901051,0.000640497702139396,0.048323865139557616,0.03257057026794256,-0.012571917840328689,0.08374401370867902,0.04278051767609179,-0.012127035734484577,0.06147773915298062,0.06973607117068796,0.10881105628490656,-0.5597343431014475,-0.18911464726076857
166,0.6638642999896547,0.0004177915114907372,0.04929707183706003,0.03326783335160759,-0.012619179461594283,0.08400664098850749,0.04305967082055433,-0.011698882123666567,0.05945744355324375,0.06901250538917773,0.11024641310499775,-0.563146055338086,-0.1925561375124463
167,0.6688192999863531,0.00024958240814483513,0.050250189625991634,0.033930036718467636,-0.01266471816571204,0.08426189978224868,0.04333594069639879,-0.011265918735675224,0.05743201802713213,0.06827781447636172,0.11165649595272954,-0.56638292164219,-0.19593647844190562
168,0.6722030999953859,2.7196720381570533e-05,0.05124590293325693,0.03470422646970748,-0.012708515383233893,0.08450973329603086,0.04360928294467166,-0.010828215091608633,0.05540172188764543,0.06753214442015731,0.11304117087801893,-0.5694465008461089,-0.19925543988220767
169,0.6761769999866374,-0.0001726753335211358,0.05220335579190627,0.035361158591703364,-0.012750552815432423,0.08475008543478678,0.04387965377306238,-0.010385840680821077,0.053366804270705774,0.06677564062221109,0.11440032163967034,-0.5723384576366216,-0.20251283959269126
170,0.6800965999864275,-0.00040370211502454537,0.05326491454738201,0.036063621803323266,-0.012790812433040774,0.08498290081018313,0.04414700995257308,-0.009938864936093259,0.051327504316816604,0.06600844784644878,0.11573384940229703,-0.5750605587210877,-0.2057085423744221
171,0.684409899986349,-0.000615742541270435,0.054256908198018344,0.03676805932673395,-0.012829276474898873,0.08520812474883736,0.044411308813959834,-0.009487357209876137,0.049284051363799666,0.06523071017051675,0.11704167241911428,-0.5776146689307414,-0.20884245914780117
172,0.6886287999950582,-0.0008471755301085893,0.0552823522438263,0.03747575773449682,-0.01286592744651263,0.0854257033008203,0.04467250824396132,-0.009031386751618662,0.04723666515021291,0.06444257094012604,0.11832372570111442,-0.5800027472663326,-0.21191454599378626
173,0.6925869999977294,-0.001107347397544594,0.056377028309527115,0.03816024293580405,-0.012900748118532751,0.08563558324844256,0.044930566681330546,-0.008571022686188421,0.045185556029044116,0.06364417272630671,0.1195799606731425,-0.5822268428913416,-0.21492480316020673
174,0.6968092999886721,-0.0013683129780778104,0.057416481675345105,0.03887842622927779,-0.012933721525159834,0.0858377121153218,0.045185443112685374,-0.008106333993393016,0.043130925191268,0.06283565728557708,0.12081034481740087,-0.5842890910780016,-0.21787327403467452
175,0.701001699999324,-0.0015834532555425791,0.058525935424786436,0.039558294350170956,-0.012964830962482346,0.08603203817572842,0.04543709706819381,-0.007637389488608679,0.041072964898847604,0.06201716552302919,0.12201486130491887,-0.5861917091113651,-0.22076004408561548
176,0.7045854999887524,-0.0015834532555425791,0.058525935424786436,0.039558294350170956,-0.012994059986754047,0.08621851046420648,0.04568548861710971,-0.007164257804521468,0.039011858726754764,0.061188837458328676,0.12319350861553238,-0.5879369921566553,-0.22358523977296463
177,0.7082670999952825,-0.0015834532555425791,0.058525935424786436,0.039558294350170956,-0.013021392412617492,0.08639707878546614,0.045930578363174476,-0.0066870073739850365,0.036947781813578884,0.060350812194624265,0.12434630014692472,-0.5895273090951327,-0.2263490274300868
178,0.7122935999941546,-0.0017100534042545372,0.059568123135244004,0.04030463085738213,-0.013046812311280123,0.08656769372454307,0.04617232743990026,-0.00620570641399781,0.034880901120288015,0.05950322789035919,0.12547326381328716,-0.590965098333687,-0.2290516121184989
179,0.7156443999992916,-0.0017100534042545372,0.059568123135244004,0.04030463085738213,-0.013070304008649425,0.08673030665721994,0.04641069750575005,-0.005720422910801144,0.03281137569670169,0.058646221733973845,0.1265744416341632,-0.5922528635933431,-0.2316932364569833
180,0.7196191999973962,-0.0023097587910849565,0.06177222265510185,0.041661749627160516,-0.013091852083433546,0.08688486976070504,0.04664565073923008,-0.005231224606098805,0.03073935695523137,0.05777992992148557,0.12764988931404514,-0.5933931696818411,-0.2342741794266935
181,0.7231253999925684,-0.0028991501913594973,0.0641109086978295,0.042925692657375156,-0.013111441365213717,0.08703133602456214,0.046877149833909684,-0.004738178984396941,0.028664988951441258,0.056904487636928736,0.128699675813296,-0.5943886382554173,-0.23679475515386328
182,0.7266364999959478,-0.0031899150334441725,0.06531516158258728,0.04356517419477512,-0.013129056932494745,0.08716965926188552,0.04710515799338371,-0.004241353261462446,0.02658840867097974,0.056020029035635396,0.12972388291097356,-0.595241943574876,-0.2392553116717392
183,0.7303960999997798,-0.0034640911647289352,0.0664572504865808,0.04418802849326676,-0.013144684110739782,0.08729979412071408,0.047329638926192276,-0.0037408143738964935,0.024509746322428767,0.055126687230333954,0.1307226047601356,-0.595955808260999,-0.24165622966336173
184,0.7344977999891853,-0.003742610076047366,0.06768096430946942,0.044832480410315324,-0.013158308470395539,0.08742169609567733,0.04755055684071265,-0.0032366289698187657,0.022429125635617355,0.054224594280040346,0.13169594743620905,-0.5965329990542906,-0.2439979211868234
185,0.738649599996279,-0.004043117691965246,0.06884715298774202,0.04546536895310521,-0.01316991582491397,0.08753532153986675,0.04776787644003789,-0.002728863400656773,0.020346664164944482,0.05331388118171386,0.1326440284790062,-0.5969763225839938,-0.24628082838463417
186,0.7420328999869525,-0.004043117691965246,0.06884715298774202,0.04546536895310521,-0.013179492228776415,0.08764062767692485,0.04798156291685673,-0.0022175837140335267,0.018262473597255937,0.05239467786464665,0.13356697642897333,-0.5972886211512558,-0.24850542217882518
187,0.7464167999860365,-0.004203469553788797,0.07003566052158425,0.04613350420411065,-0.01318702397552606,0.08773757261334422,0.048191581948348924,-0.0017028556477456825,0.01617666006381986,0.05146711318755358,0.13446493035825627,-0.5974727685312523,-0.25067220095342024
188,0.7506307999865385,-0.004934817979334255,0.07246467213111604,0.04737100389001419,-0.013192497595814447,0.08782611535096822,0.04839789969110989,-0.001184744624823167,0.014089324455946304,0.050531314938326584,0.1353380393971673,-0.5975316657990105,-0.2527816892259004
189,0.7552348999888636,-0.005224822874555722,0.07367125386239973,0.04795534308758567,-0.013195899855467711,0.08790621579968515,0.048600482776118364,-0.0006633157496601632,0.012000562743797098,0.04958740983641505,0.13618646225663775,-0.5974682371835904,-0.2548344363092811
190,0.7595252999890363,-0.005553637797109786,0.07499802123139111,0.048504049240844546,-0.013197217753578013,0.08797783479030656,0.04879929830376042,-0.00013863380520627862,0.00991046629793419,0.048635523537791256,0.13701036674723827,-0.5972854259552064,-0.2568310149664153
191,0.7638796999963233,-0.005848011810768898,0.07620842507382582,0.04903515420967309,-0.01319643852062558,0.08804093408762047,0.04899431383892302,0.00038923674879433545,0.007819122213156511,0.0476757806424577,0.13780992929534666,-0.5969861903497821,-0.2587720200581272
192,0.7677984999900218,-0.006094855814896773,0.07753049414978976,0.049624030246539774,-0.013193549616636642,0.08809547640360997,0.04918549740616986,0.0009202317765291697,0.005726613634178294,0.04670830470445081,0.13858533445704085,-0.5965734995353473,-0.2606580671867732
193,0.7719535999931395,-0.006478328393445712,0.07879148631315462,0.05014176191940669,-0.01318853872938238,0.0881414254108277,0.0493728174850119,0.0014542874658231243,0.003633020082704764,0.045733218244293494,0.1393367744302901,-0.5960503296245871,-0.26248979133681344
194,0.7759064999991097,-0.006731804016245435,0.08004398827140403,0.050615052023079296,-0.01318139377262387,0.08817874575591605,0.04955624300528452,0.001991340326839125,0.0015384177854648336,0.04475064276384649,0.14006444856601435,-0.5954196597377552,-0.2642678455139631
195,0.7802617999986978,-0.007051368656373626,0.08135011924759453,0.051218188084458396,-0.013172102884407772,0.08820740307326304,0.049735743342643496,0.0025313271897898244,-0.0005571199972354559,0.04376069876350674,0.14076856287857778,-0.5946844681200619,-0.26599289938447834
196,0.7844532999879448,-0.007427438437356682,0.08271379326418533,0.05171614385419497,-0.013160654425417468,0.08822736399878292,0.049911288314191095,0.0030741852016775676,-0.0026535226428704584,0.042763505761698795,0.14144932955627693,-0.5938477283175345,-0.2676656379161122
197,0.7886047999927541,-0.007729578181649476,0.08398799009446441,0.05220648952545795,-0.013147036977384181,0.08823859618381116,0.050082848174243896,0.0036198518220807176,-0.00475072183839012,0.04175918231660332,0.14210696647237817,-0.5929124054152376,-0.2692867600222575
198,0.7921473999886075,-0.007729578181649476,0.08398799009446441,0.05220648952545795,-0.01313123934156252,0.08824106830910237,0.05025039361025274,0.004168264818005322,-0.006848651252674103,0.04074784605006444,0.14274169669725195,-0.5918814523416261,-0.27085697721077434
199,0.7957418999867514,-0.007729578181649476,0.08398799009446441,0.05220648952545795,-0.013113250537274706,0.08823475009892051,0.050413895738885,0.004719362257821977,-0.008947246210160211,0.03972961367361637,0.14335374801214587,-0.590757806242685,-0.2723770122389768
200,0.8008104999898933,-0.008814354252779846,0.08820688398474334,0.05359578188926169,-0.013093059800527523,0.08821961233521003,0.05057332610227879,0.005273082504308584,-0.011046443366056181,0.03870460101656789,0.14394335242513084,-0.5895443849293909,-0.27384759777623335
201,0.8050941999972565,-0.009105763182337946,0.08967338274324572,0.05407744867992109,-0.013070656582705967,0.08819562687183631,0.05072865666447882,0.005829364206820499,-0.013146180383537228,0.037672923056081595,0.14451074568974706,-0.5882440834019046,-0.2752694750756098
202,0.8095118999917759,-0.009561173991959363,0.09110034206827579,0.054489560241392565,-0.013046030549347276,0.08816276664888403,0.050879859808063026,0.0063881462926103855,-0.015246395613324585,0.036634693949182943,0.14505616682686645,-0.5868597704537775,-0.27664339265595794
203,0.8137030999932904,-0.009926437153423097,0.09266522228052235,0.054896144498101186,-0.0130191715789989,0.08812100570700142,0.05102690833096836,0.006949367957320803,-0.017347027776032854,0.03559002706663316,0.1455798576502795,-0.5853942853593238,-0.27797010499582786
204,0.8176886000001105,-0.010316572591463999,0.09411347622727008,0.05532345985556322,-0.012990069762163756,0.08807031920177838,0.05116977544352406,0.00751296865467329,-0.01944801564766608,0.03453903502859841,0.14608206229650594,-0.5838504346471864,-0.2792503712405542
205,0.8217657999921357,-0.01072050741042516,0.09555529269438172,0.0557644368855994,-0.012958715400336024,0.088010683418146,0.05130843476570001,0.008078888085378388,-0.021549297748634382,0.03348182974204619,0.14656302675931884,-0.5822309889629858,-0.28048495392383704
206,0.8261977999936789,-0.011121237805007358,0.09711087376011793,0.05614312045966663,-0.012925099005130588,0.08794207578478493,0.0514428603245777,0.008647066185291739,-0.02365081203665441,0.032418522439798876,0.14702299842946256,-0.5805386800238072,-0.28167461770510555
207,0.830344599991804,-0.011562219910318083,0.09861169601752634,0.05656677487520908,-0.01288921129750899,0.08786447488853069,0.05157302655205086,0.009217443112842026,-0.025752495603888086,0.03134922372117294,0.1474622256400339,-0.5787761976671449,-0.2828201281239208
208,0.8345291999867186,-0.011988935973791129,0.1001651809259178,0.05689500555144252,-0.012851043207104581,0.08777786048876289,0.051698908282762315,0.00978995923575717,-0.027854284378665,0.030274043594131304,0.1478809572179847,-0.5769461869967779,-0.2839222503726436
209,0.8379572999983793,-0.011988935973791129,0.1001651809259178,0.05689500555144252,-0.012810585871649302,0.0876822135317658,0.05182048075228316,0.010364555117115759,-0.029956112832124362,0.029193091518875215,0.14827944204219232,-0.5750512456279115,-0.2849817480885576
210,0.8413418999989517,-0.011988935973791129,0.1001651809259178,0.05689500555144252,-0.012767830636504397,0.08757751616504773,0.051937719595539784,0.010941171500751237,-0.03205791369010269,0.02810647645280145,0.1486579286085329,-0.5730939210337779,-0.2859993821666027
211,0.8445750999962911,-0.011988935973791129,0.1001651809259178,0.05689500555144252,-0.012722769054297133,0.08746375175160645,0.0520506008454941,0.011519749296036871,-0.03415961765058338,0.027014306896749548,0.14901666460237994,-0.5710767079957423,-0.2869759095938393
212,0.8480468999914592,-0.011988935973791129,0.1001651809259178,0.05689500555144252,-0.012675392884665479,0.08734090488412809,0.05215910093208172,0.01210022956208005,-0.036261153107014145,0.0259166909424632,0.14935589647893713,-0.5690020461588229,-0.2879120823067271
213,0.8513609999936307,-0.012326495724754659,0.1016515191334077,0.05734220180551243,-0.012625694094112497,0.08720896139910639,0.05226319668141215,0.012682553491354871,-0.03836244587778784,0.024813736321189023,0.14967586905180336,-0.5668723176943792,-0.28880864607226703
214,0.8555831999983639,-0.01406983849991435,0.10774294645942484,0.058728824787849326,-0.012573664855972028,0.08706790839087003,0.05236286531523484,0.013266662392802291,-0.040463418942171585,0.02370555045333548,0.1499768250901542,-0.5646898450715837,-0.28966633939401576
215,0.8593683999934001,-0.014504010375199841,0.10926552466297355,0.05906369860070411,-0.01251929755048702,0.08691773422550499,0.05245808445067435,0.013852497674427528,-0.042563992182958296,0.022592240499114447,0.15025900492491093,-0.5624568889391441,-0.29048589244394485
216,0.8635139999969397,-0.014928752929240887,0.11076686621768772,0.05941993210257098,-0.012462584765001694,0.08675842855465929,0.05254883210023729,0.014440000825424784,-0.04466408213610375,0.021473913410087298,0.15052264606425445,-0.5601756461185972,-0.291268026021075
217,0.8669261999893934,-0.014928752929240887,0.11076686621768772,0.05941993210257098,-0.012403519294268571,0.08658998232921737,0.05263508667209367,0.015029113397859692,-0.04676360174760087,0.020350675981537003,0.1507679828188273,-0.5578482477103465,-0.2920134505377776
218,0.8704921999888029,-0.014928752929240887,0.11076686621768772,0.05941993210257098,-0.012342094140871111,0.08641238781283112,0.052716826970634845,0.015619776987940127,-0.04886246013783184,0.01922263490558751,0.1509952459369523,-0.5554767573134705,-0.29272286503459455
219,0.8738603999954648,-0.014928752929240887,0.11076686621768772,0.05941993210257098,-0.012278302515762658,0.08622563859529558,0.05279403219730959,0.01621193321690624,-0.0509605623736266,0.01808989682499142,0.1512046622501817,-0.5530631693601817,-0.29339695622438594
220,0.8780508999916492,-0.015232868180289738,0.11235570200927288,0.059692937239796344,-0.01221213783892213,0.0860297296057574,0.05286668195173957,0.016805523711570774,-0.05305780924824518,0.016952568387507017,0.15139645432947746,-0.5506094075656746,-0.2940363975665729
221,0.8814274999895133,-0.015232868180289738,0.11235570200927288,0.059692937239796344,-0.012143593740126702,0.08582465712574347,0.052934756233114784,0.01740049008454093,-0.05515409706948917,0.015810756300785593,0.15157084015230748,-0.5481173234939479,-0.29464184837220037
222,0.885221399992588,-0.016644434362281864,0.1170864634656326,0.06053500524015333,-0.012072664059841509,0.0856104188019983,0.052998235441869206,0.017996773914153233,-0.05724931745613643,0.014664567387690036,0.15172803278092942,-0.54558869524005,-0.2952139529405035
223,0.8888178999914089,-0.016644434362281864,0.1170864634656326,0.06053500524015333,-0.011999342850226148,0.08538701365911809,0.05305710038163651,0.01859431672415284,-0.05934335714288053,0.013514108641965936,0.15186824005211683,-0.5430252262290399,-0.2957533397276198
224,0.8927941999863833,-0.01754060698268383,0.12023418885716108,0.06110617191849167,-0.011923624376257663,0.08515444211196975,0.05311133226148554,0.019193059963149007,-0.06143609779394503,0.012359487284186541,0.15199166427856753,-0.5404285441318207,-0.29626062054804403
225,0.8968966999964323,-0.01862128161805555,0.12353069470097751,0.06161450616351574,-0.011845503116969537,0.08491270597788263,0.05316091269843466,0.019792944983878447,-0.0635274158255304,0.011200810817893182,0.15209850196221988,-0.5378001998978633,-0.29673638980938244
226,0.9009807999973418,-0.019057597729198558,0.1252133474134993,0.06182911853188662,-0.011764973766806124,0.08466180848860166,0.0532058237202438,0.020393913022308467,-0.06561718223723964,0.010038187085853164,0.15218894351968754,-0.5351416669047003,-0.2971812237809189
227,0.9051805999915814,-0.019491395849515283,0.12683480576128642,0.0620036454964043,-0.011682031237091703,0.0844017543019902,0.05324604776848252,0.02099590517661164,-0.06770526245261675,0.008871724326357563,0.15226317302000678,-0.5324543402239293,-0.29759567989646263
228,0.9086494999937712,-0.019491395849515283,0.12683480576128642,0.0620036454964043,-0.01159667065761317,0.08413254951347116,0.05328156770187203,0.02159886238604379,-0.06979151616892,0.007701531229481859,0.15232136793487652,-0.5297395360033271,-0.2979802960919032
229,0.912243499988108,-0.019491395849515283,0.12683480576128642,0.0620036454964043,-0.011508887378315251,0.08385420166719504,0.05331236679989858,0.02220272540975686,-0.07187579721623935,0.006527716993232957,0.15236369890155452,-0.5269984909645465,-0.29833559017785555
230,0.9155989999999292,-0.019962803625911386,0.12845845418367807,0.06231855821607243,-0.011418676971106944,0.08356671976692448,0.053338428766695235,0.02280743480557825,-0.07395795342605621,0.005350391379506825,0.1523903294985573,-0.5242323620157356,-0.29866205924773637
231,0.919274799991399,-0.02096905192859854,0.1317819217209272,0.062742859206378,-0.011326035231777698,0.08327011428662384,0.053359737735188456,0.023412930908788043,-0.07603782650933127,0.004169664769781695,0.15240141603429685,-0.5214422259782868,-0.2989601791215697
232,0.9227012999908766,-0.02096905192859854,0.1317819217209272,0.062742859206378,-0.011230958182021689,0.08296439718074328,0.05337627827150578,0.02401915381092541,-0.07811525194419425,0.002985648220472558,0.15239710734877138,-0.5186290794267956,-0.2992304038257762
233,0.9262993999873288,-0.02096905192859854,0.1317819217209272,0.062742859206378,-0.011133442071568363,0.08264958189418681,0.053388035379640396,0.024626043338655205,-0.0801900588732972,0.0017984535178735273,0.15237754462841122,-0.5157938386411848,-0.2994731651091581
234,0.929674699989846,-0.02096905192859854,0.1317819217209272,0.062742859206378,-0.011033483380417252,0.08232568337195456,0.0533949945063681,0.025233539032725457,-0.08226207001088104,0.0006081932326156269,0.15234286123416732,-0.512937339669824,-0.29968887199524946
235,0.9332305999996606,-0.02096905192859854,0.1317819217209272,0.062742859206378,-0.010931078821174983,0.08199271806844959,0.053397141546412244,0.025841580127046425,-0.08433110155959339,-0.0005850192264314585,0.15229318254291344,-0.5100603385023569,-0.29987791037115974
236,0.9374053999927128,-0.021309315080110774,0.13341726080791863,0.0629028849719848,-0.010826225341492265,0.08165070395643952,0.05339446284785161,0.026450105527921534,-0.08639696313708457,-0.0017810695588841158,0.15222862580221702,-0.5071635113508334,-0.30004064261299523
237,0.941042299993569,-0.023219768429281955,0.13991387493288882,0.0636824642703035,-0.010718920126598523,0.08129966053566415,0.053386945217766,0.02705905379346021,-0.08845945771239638,-0.002979842520265332,0.15214929999851995,-0.5042474550376276,-0.30017740724790004
238,0.9455045999930008,-0.023724000106445486,0.14147934095215237,0.06382469526147294,-0.010609160601931721,0.08093960884107988,0.053374575928113795,0.02766836311320234,-0.09051838155214732,-0.004181221870189171,0.15205530573875586,-0.5013126874885125,-0.30028851865271955
239,0.951033199991798,-0.02459182970090853,0.14461920662081876,0.06421774645000969,-0.010496944435860748,0.08057057145073221,0.053357342721835406,0.028277971287983695,-0.0925735241765067,-0.005385090321376109,0.15194673514541474,-0.4983596483291524,-0.30037426678924867
240,0.9551485999982106,-0.025000705814486424,0.14616238363304324,0.06443055938840221,-0.010382269542497586,0.08019257249324761,0.05333523381917627,0.028887815710071294,-0.09462466832493975,-0.006591329489564863,0.15182367176505127,-0.49538869958316967,-0.3004349169759869
241,0.9596224999986588,-0.025454310059554522,0.1477122156307226,0.06456301980702861,-0.010265134084596408,0.0798056376549365,0.05330823792422263,0.02949783334359712,-0.0966715899316944,-0.007799819844384991,0.15168619049021814,-0.49240012646984543,-0.3004707096962826
242,0.965616699992097,-0.025866039060754558,0.1492095802706599,0.0647128285389114,-0.010145536476536593,0.07940979418649936,0.05327634423164302,0.03010796070531823,-0.09871405811098971,-0.00901044066125317,0.15153435749479144,-0.4893941382994119,-0.30048186044271047
243,0.969732399986242,-0.026231727215036374,0.1506690194048363,0.0649496878117764,-0.010023475387386545,0.0790050709093284,0.05323954243362828,0.030718133845730876,-0.100751835151855,-0.010223069974354647,0.15136823018264067,-0.4863708694637983,-0.300468559597487
244,0.973188799995114,-0.026231727215036374,0.1506690194048363,0.0649496878117764,-0.009898949744045076,0.07859149822139719,0.05319782272702262,0.03132828833056575,-0.1027846765225583,-0.011437584530769793,0.15118785714958213,-0.4833303805206017,-0.30043097234868993
245,0.9764332999911858,-0.026564650394410895,0.15212526077629274,0.06504292711874521,-0.009771958734456998,0.0781691081027306,0.05315117582063828,0.031938359222690955,-0.10481233088455237,-0.012653859745804224,0.1509932781585404,-0.4802726593679662,-0.3003692386420144
246,0.9806963999872096,-0.027435354445559373,0.15506064070702194,0.06539493296722983,-0.00964250181089951,0.0777379341204477,0.053099592942746146,0.03254828106444872,-0.10683454011585682,-0.013871769659579395,0.15078452412782997,-0.4771976225079698,-0.30028347316775855
247,0.9842763999913586,-0.027435354445559373,0.15506064070702194,0.06539493296722983,-0.009510578693335941,0.07729801143337113,0.053043065848734264,0.03315798786045144,-0.10885103934378469,-0.015091186894938985,0.15056161713245478,-0.47410511639603775,-0.30017376538269835
248,0.9876126999879488,-0.027435354445559373,0.15506064070702194,0.06539493296722983,-0.009376189372833264,0.07684937679619673,0.05298158682892597,0.03376741306086187,-0.1108615569869128,-0.01631198261672466,0.1503245704183106,-0.47099491887382544,-0.30004017956647516
249,0.99075989999983,-0.027435354445559373,0.15506064070702194,0.06539493296722983,-0.009239334115039757,0.07639206856321674,0.05291514871654936,0.03437648954518193,-0.11286581480618553,-0.01753402649247318,0.15007338842916254,-0.46786674068294265,-0.29988275491208716
250,0.994628799991915,-0.02772994967919444,0.1564263520806058,0.06557386896870654,-0.009100013463719032,0.07592612669159086,0.0528437448958495,0.03498514960657372,-0.11486352796503313,-0.018757186654585072,0.14980806684625728,-0.46472022705682,-0.29970150565004205
251,0.998739899994689,-0.02890081039324298,0.16061167342602772,0.06594630705073928,-0.008958228244336626,0.0754515927441597,0.05276736931033434,0.03559332493673586,-0.11685440509837597,-0.0199813296640132,0.14952859264041712,-0.46155495938795765,-0.29949642120569353
252,1.00288709999586,-0.029242167020319194,0.16193999131989328,0.06618491455379968,-0.00881397956769528,0.07496850989179563,0.0526860164711452,0.0362009466113577,-0.1188381483903785,-0.021206320475517768,0.1492349441364516,-0.4583704569677339,-0.29926746638925433
253,1.0062730999925409,-0.029242167020319194,0.16193999131989328,0.06618491455379968,-0.008667268833614968,0.07447692291528611,0.05259968146554241,0.03680794507617312,-0.12081445366080806,-0.02243202240453239,0.1489270910897099,-0.45516617879589244,-0.2990145816179481
254,1.0102389999956358,-0.029392094947476445,0.16316933480769444,0.06637136894168487,-0.008518097734653762,0.07397687820674492,0.05250835996549665,0.037414250133635,-0.12278301045984547,-0.0236582970956841,0.14860499477458744,-0.4519415254567785,-0.29873768316973137
255,1.0138267999864183,-0.030152737233510283,0.16565888888368913,0.06663644988313833,-0.008366468259865433,0.0734684237705472,0.0524120482363761,0.03801979093023094,-0.12474350217118663,-0.02488500449300827,0.14826860808478898,-0.4486958410593421,-0.2984366634679892
256,1.0177800999954345,-0.03047546775723644,0.16681996083922263,0.06679663576436864,-0.008212382698589637,0.07295160922378499,0.05231074314571968,0.03862449594445992,-0.12669560612326788,-0.026112002811897614,0.14791787564513834,-0.4454284152378859,-0.2981113913965812
257,1.0219165999878896,-0.03076164695438508,0.16797680981406382,0.06691648511046522,-0.008055843644270519,0.07242648579623943,0.05220444217208656,0.03922829297548895,-0.12863899370843992,-0.02733914851282249,0.1475527339347156,-0.44213848521049137,-0.2977617126445882
258,1.0259603999875253,-0.030998012315313416,0.1690223616170497,0.06711624519487998,-0.007896853998299506,0.0718931063298665,0.052093143413972004,0.039831109132507744,-0.13057333050990835,-0.028566296276857642,0.1471731114210913,-0.4388252378920228,-0.2973874500800819
259,1.0301786999916658,-0.03132397035443611,0.17021488191822173,0.06728777849998943,-0.007735416973878031,0.07135152527779354,0.05197684559877977,0.040432870824798954,-0.1324982764362527,-0.029793298983048815,0.1467789287054182,-0.4354878120585738,-0.29698840415221633
260,1.0344672999926845,-0.03149860503776411,0.1712072197012155,0.06742303018462227,-0.007571536099895901,0.07080179870282438,0.05185554809184098,0.041033503752540564,-0.1344134858633299,-0.03102000768765034,0.14637009867813136,-0.43212530056019455,-0.2965643533209134
261,1.0385979999991832,-0.03180699472338733,0.17220610281893686,0.06762086374078474,-0.007405215224821012,0.07024398427545059,0.05172925090546962,0.04163293289835648,-0.13631860778336047,-0.032246271605262944,0.14594652668499816,-0.4287367525787155,-0.29611505451339826
262,1.042289199991501,-0.03180699472338733,0.17220610281893686,0.06762086374078474,-0.007236458520596081,0.06967814127136729,0.051597954708044874,0.04223108251963038,-0.13821328596099025,-0.03347193809189902,0.1455081107032522,-0.4253211759274599,-0.2956402436068174
263,1.0458049999870127,-0.03180699472338733,0.17220610281893686,0.06762086374078474,-0.007065270486538033,0.06910433056849223,0.051461660833110344,0.042827876141597165,-0.1400971590961162,-0.03469685263000065,0.1450547415275369,-0.42187753938962325,-0.29513963593615206
264,1.0492216999991797,-0.03180699472338733,0.17220610281893686,0.06762086374078474,-0.006891655953235687,0.06852261464348745,0.051320371288480125,0.04342323655122565,-0.14196986099325806,-0.035920858815433374,0.14458630296537653,-0.4184047750920854,-0.2946129268266174
265,1.0529315999883693,-0.0318935082312699,0.17320550994393963,0.06779307414009972,-0.0067156200864413595,0.06793305756778292,0.05117408876534132,0.04401708579190511,-0.1438310207372538,-0.03714379834647687,0.14410267204188532,-0.4149017809114099,-0.29405979214972233
266,1.0572749999992084,-0.03259180935729847,0.1759894762136458,0.06813535577690864,-0.006537168390952074,0.06733572500310149,0.051022816647342886,0.044609345158947496,-0.1456802628750512,-0.0383655110148316,0.14360371921341702,-0.4113674229087849,-0.29347988890214655
267,1.0614934999903198,-0.032851108942519955,0.17686702325743758,0.0683199982228902,-0.006356306714476015,0.06673068419648542,0.05086655901966071,0.0451999351959166,-0.1475172076033661,-0.0395858346986585,0.1430893085898519,-0.40780053779065667,-0.29287285580657574
268,1.0654367999959504,-0.032904681063460346,0.17768169006056375,0.06844962827697959,-0.006173041251479899,0.06611800397482458,0.05070532067802864,0.04578877569179431,-0.14934147096197203,-0.040804605357666494,0.14255929816521096,-0.4041999353918084,-0.2922383139336225
269,1.0687722000002395,-0.032904681063460346,0.17768169006056375,0.06844962827697959,-0.005987378547012918,0.06549775473888665,0.05053910713772558,0.04637578567899363,-0.15115266503238461,-0.042021657030260756,0.14201354005628253,-0.40056440117764636,-0.2915758673439466
270,1.0721948999998858,-0.033034668554173814,0.1785502966979654,0.06861502344759732,-0.0057993255005029136,0.06487000845685008,0.050367924642508714,0.04696088343222704,-0.15295039814169978,-0.04323682183276277,0.1414518807489398,-0.3968926987624679,-0.29088510374967547
271,1.0764394999860087,-0.0334047307107095,0.17991376514530075,0.0687981910856521,-0.0056088893695204626,0.06423483865734039,0.05019178017348291,0.04754398646823823,-0.1547342750713424,-0.04444992996071119,0.14087416135182398,-0.39318357244049895,-0.29016559519421414
272,1.0804416999890236,-0.033570511554635175,0.18061999762514408,0.0689667258956915,-0.005416077773506555,0.06359232042197142,0.05001068145789626,0.048125011546403744,-0.1565038972704791,-0.04566080969225027,0.1402802178570617,-0.3894357497265072,-0.28941689874952237
273,1.0845421999983955,-0.03366355969783391,0.18125593233007073,0.06909227901429005,-0.005220898697459596,0.0629425303773929,0.04982463697785186,0.048703874670210666,-0.15825886307384596,-0.04686928739361071,0.13966988140768247,-0.38564794390281976,-0.28863855722992876
274,1.0887325999938184,-0.03378051949226802,0.18181670851074022,0.0692011190904478,-0.005023360495577498,0.06228554668684642,0.049633655978926126,0.04928049108961541,-0.15999876792374168,-0.04807518752668568,0.1390429785713977,-0.38181885656959746,-0.28783009992154307
275,1.09225499999593,-0.03378051949226802,0.18181670851074022,0.0692011190904478,-0.0048234718948506694,0.06162144904123207,0.04943774847868422,0.04985477530428815,-0.16172320459593414,-0.049278332658702705,0.13839933162039963,-0.3779471801952476,-0.28699104332632236
276,1.095851499994751,-0.03378051949226802,0.18181670851074022,0.0692011190904478,-0.004621241998601759,0.06095031864968799,0.049236925275083165,0.05042664106774643,-0.16343176342922694,-0.050478543473990806,0.1377387588168357,-0.374031600663889,-0.28612089191984286
277,1.0995514999958689,-0.03378051949226802,0.18181670851074022,0.0692011190904478,-0.004416680289968013,0.060272238229684943,0.04903119795475318,0.05099600139238053,-0.16512403255843092,-0.051675638787840025,0.13706107470360943,-0.3700707998168188,-0.285219138921822
278,1.1030782999878284,-0.03378051949226802,0.18181670851074022,0.0692011190904478,-0.004209796635322183,0.05958729199663896,0.04882057890114797,0.05156276855537228,-0.16679959815048356,-0.052869435562448115,0.1363660904001581,-0.36606345798496726,-0.2842852670784331
279,1.1066833999939265,-0.03378051949226802,0.18181670851074022,0.0692011190904478,-0.004000601287627989,0.058895565653044754,0.048605081302554774,0.052126854105508366,-0.1684580446434599,-0.05405974892494773,0.1356536139028545,-0.3620082565093728,-0.2833187494554519
280,1.1101295999978902,-0.033756208578698536,0.18243058260466205,0.06930831503359791,-0.0037891048897261853,0.058197146377133406,0.04838471915995485,0.05268816887088854,-0.1700989549882187,-0.055246392187505336,0.13492345038967876,-0.3579038802467497,-0.2823190502412708
281,1.1136303999956,-0.03412391020293813,0.1848562932916085,0.0696090861908716,-0.0035753184775473446,0.05749212281105786,0.04815950729472544,0.053246622967528,-0.17172191089242775,-0.0564291768694813,0.13417540252880578,-0.3537490200572706,-0.2812856255588188
282,1.1179417999956058,-0.0341115212013017,0.18527497579650445,0.06963226455781348,-0.0033592534832475184,0.05678058504861043,0.0479294613561744,0.05380212580885261,-0.17332649306671308,-0.057607912721639065,0.13340927079075118,-0.34954237527173265,-0.2802179242854247
283,1.1218961999984458,-0.03407658821284616,0.18564834862664129,0.06962176659458043,-0.0031409217382630202,0.05606262462247601,0.047694597828898795,0.054354586116084555,-0.17491228147267657,-0.05878240775238952,0.1326248537637217,-0.34528265613533055,-0.27911538887966375
284,1.1260333999962313,-0.03403314228448713,0.18598870630211803,0.06968299785913731,-0.0029203354762806304,0.05533833449102535,0.04745493403995897,0.054903911929515485,-0.17647885557252768,-0.05995246825605461,0.13182194847181397,-0.34096858622531995,-0.2779774562142285
285,1.1302055999985896,-0.03399562921182107,0.18634997397378392,0.06972022088250462,-0.0026975073361195936,0.05460780902465303,0.04721048816585951,0.055450010620663126,-0.1780257945800756,-0.0611178988431322,0.13100035069570648,-0.33659890483991345,-0.27680355841386967
286,1.1388019999867538,-0.03373083280173777,0.18674852232774147,0.06975745066426607,-0.0024724503645218573,0.05387114399166493,0.04696127923932919,0.05599278890530675,-0.17955267771282993,-0.062278502472542394,0.13015985529549076,-0.3321723693558096,-0.2755931236974584
287,1.1427675999875646,-0.033632251646433416,0.1873141918692272,0.06969694475050613,-0.0022451780188470767,0.05312843654372011,0.04670732715589224,0.05653215285739647,-0.1810590844449592,-0.06343408048583395,0.12930025653528726,-0.3276877575518203,-0.27434557722322334
288,1.1470201999909475,-0.03350949939885461,0.18764658119512456,0.06965490460054113,-0.002015704169668988,0.052379785200832384,0.046448652680223426,0.057068007923830315,-0.18254459476085907,-0.06458443264332836,0.12842134840929442,-0.3231438698961247,-0.27306034193622447
289,1.1510079999861773,-0.033332497141504124,0.18792556274318487,0.06968344733496917,-0.0017840431032698396,0.05162528983593672,0.046185277452279225,0.05760025894009232,-0.18400878940908447,-0.06572935716217691,0.1275229249689214,-0.3185395317947491,-0.27173683941713606
290,1.155253699995228,-0.03314195995476284,0.18823835831649718,0.06963591573896002,-0.001550209524029628,0.050865051659026016,0.04591722399319799,0.058128810146744134,-0.18545125015640265,-0.06686865075630485,0.12660478065065733,-0.3138735957989387,-0.2703744907314164
291,1.1594034999870928,-0.03288304831442457,0.1885958749785443,0.0696131184222247,-0.0013142185567069761,0.050099173200863704,0.04564451571096188,0.05865356520676186,-0.1868715600417262,-0.0680021086782154,0.1256667106043323,-0.30914494376916224,-0.26897271727795447
292,1.1636271999886958,-0.03265935579538606,0.18895300909550866,0.06958837333860014,-0.0010760857486085847,0.049327758296278015,0.0453671769058135,0.05917442722370901,-0.18826930362968788,-0.06912952476262449,0.12470851102142662,-0.3043524889935608,-0.26753094163629326
293,1.1680388999957358,-0.03239095207279247,0.1892220572457066,0.06952089152120827,-0.0008358270716442853,0.04855091206704418,0.0450852327754203,0.05969129876073594,-0.18964406726362215,-0.0702506914718956,0.12372997946308878,-0.29949517825872857,-0.2660485884115398
294,1.1719649999868125,-0.0321193160278541,0.18962254437050513,0.06946272007658397,-0.0005934589242648126,0.04776874090436066,0.04479870941978054,0.06020408186039494,-0.19099543931772062,-0.07136539994324281,0.12273091518752524,-0.2945719938707897,-0.2645250850760831
295,1.176013699994655,-0.03184333955631273,0.1899403457060565,0.06943438291897377,-0.00034899813327950467,0.04698135245092605,0.04450763384586451,0.06071267806526013,-0.19232301044813538,-0.0724734400376686,0.1217111194764303,-0.2895819556248154,-0.26295986280725664
296,1.1804105999908645,-0.0315015661623064,0.19026481713420942,0.06931669141440573,-0.00010246195555124236,0.04618885558262276,0.04421203397198469,0.061216988439340335,-0.19362637384280595,-0.07357460039060214,0.12067039596012832,-0.28452412272070593,-0.26135235732009177
297,1.1843809999991208,-0.03118237972622815,0.1906256497622094,0.06928095329108677,0.00014613192043396727,0.0453913603898144,0.04391193863188926,0.06171691359027232,-0.19490512546979066,-0.07466866846420224,0.11960855094110441,-0.27939759562374356,-0.25970200969432544
298,1.1932467999868095,-0.030497097262105196,0.19143975307522879,0.06909743258263149,0.00039676537312526483,0.044588978158263584,0.04360737757857305,0.06221235369228184,-0.19615886432388668,-0.07575543060128836,0.11852539371560475,-0.27420151786810587,-0.2580082671948382
299,1.1970752999914112,-0.030158559457203447,0.1918598209332088,0.06907303394782122,0.0006494198465954667,0.04378182134967718,0.043298381487800956,0.06270320850989895,-0.19738719267132632,-0.07683467208086135,0.11742073689299179,-0.2689350778017093,-0.2562705840847151
300,1.2011873999872478,-0.029766793029429126,0.19230571082929496,0.06903629587995178,0.0009040763493621453,0.04297000358188591,0.04298498196133869,0.06318937742241341,-0.19858971629234295,-0.07790617717517431,0.11629439671254511,-0.2635975102708395,-0.2544884224301411
301,1.2052512999944156,-0.02939054669330706,0.19277537251568164,0.0689691324390771,0.0011607154533434568,0.04215363960866549,0.04266721152988614,0.06367075944905552,-0.19976604472140402,-0.0789697292083131,0.11514619335740486,-0.2581880982431114,-0.2526612528963579
302,1.209549999999581,-0.029084479733266166,0.193266670513361,0.06895109839026309,0.0014193172929508116,0.0413328452992067,0.04234510365570862,0.0641472532748871,-0.20091579148491392,-0.08002511061624465,0.11397595126536052,-0.25270617436738596,-0.2507885555339271
303,1.2128387999982806,-0.029084479733266166,0.193266670513361,0.06895109839026309,0.0016798615643203727,0.04050773761724179,0.042018692734961546,0.06461875727738667,-0.20203857433619485,-0.0810721030082907,0.11278349943619295,-0.24715112246935794,-0.2488698205545625
304,1.216501499991864,-0.029084479733266166,0.193266670513361,0.06895109839026309,0.0019423275246852694,0.039678434599834916,0.04168801409970462,0.06508516955371217,-0.2031340154875583,-0.08211048722998404,0.11156867173528456,-0.24152237898161805,-0.2469045490958125
305,1.2228223999991314,-0.02809331751528294,0.19491331358010372,0.06890125915194187,0.002206693991890316,0.03884505533584412,0.041353104019601766,0.06554638794862398,-0.2042017418392858,-0.08314004342726274,0.11033130719321889,-0.23581943430707958,-0.2448922539738947
306,1.2276377999951364,-0.02789085665764888,0.19548026238191357,0.06885437394918224,0.002472939344050919,0.03800771994406249,0.041013999703303,0.06600231008305073,-0.20524138520534196,-0.08416055111195678,0.10907125030109717,-0.23004183411474569,-0.2428324604240047
307,1.2328355999925409,-0.0276037980066732,0.19602271075706626,0.06884752509839205,0.002741041519357744,0.037166549551046146,0.040670739299504884,0.06645283338328045,-0.2062525825356494,-0.08517178922852126,0.1077883513013063,-0.224189180566883,-0.24072470682744126
308,1.2420544999913543,-0.02705984815716678,0.19721490994031005,0.06878141003854091,0.0030109780160286256,0.03632166626863669,0.040323361897686545,0.06689785511075903,-0.20723497613476002,-0.08617353622196913,0.10648246647347959,-0.218261133476756,-0.23856854542491074
309,1.2467846999934409,-0.02659929073820396,0.1982716080838262,0.06874000837133676,0.0032827258924090752,0.03547319317118617,0.039971907528518875,0.06733727239247725,-0.20818821387676267,-0.08716557010695615,0.10515345841539941,-0.21225741139616466,-0.23636354301539542
310,1.251380199988489,-0.026345205162485088,0.19880548647217414,0.06872019675743563,0.0035562617672226533,0.0346212542724924,0.0396164171639443,0.06777098225192761,-0.20911194941627279,-0.08814766853796996,0.10380119631859773,-0.20617779263211655,-0.23410928163999178
311,1.2555861999862827,-0.026076523051844987,0.19929213352941233,0.06869296627440605,0.003831561819972361,0.033765974502452695,0.03925693271692488,0.06819888164061183,-0.21000584239535564,-0.08911960888057434,0.10242555623841798,-0.20002211619205262,-0.23180535925014628
312,1.2595469999941995,-0.02576721680859043,0.1997971219735112,0.06860992417547687,0.004108601791494098,0.032907479683444076,0.03889349704085665,0.06862086747007869,-0.21086955864624154,-0.09008116828365906,0.10102642135831043,-0.1937902826571326,-0.2294513903597408
313,1.2651248999900415,-0.025564226135050695,0.20025122717064614,0.06856839019724977,0.004387356984663101,0.032045896506437924,0.03852615392864827,0.06903683664447216,-0.2117027703896974,-0.09103212375264588,0.09960368224813987,-0.18748225498317367,-0.22704700668050098
314,1.2688043999951333,-0.025292778513986154,0.20074332771269487,0.06853883585125943,0.004667802265254219,0.031181352506857062,0.038154948111462486,0.06944668609356924,-0.21250515642892476,-0.09197225222360003,0.09815723711629283,-0.18109805922892186,-0.22459185774022294
315,1.2722061999957075,-0.025111575915475515,0.2011607651403812,0.06853619207534387,0.0049499120629567074,0.030313976040183353,0.03777992525711901,0.06985031280628642,-0.21327640233886094,-0.09290133063819625,0.09668699205537926,-0.1746377852114232,-0.22208561148333852
316,1.2764778999990083,-0.024923451963195842,0.20162888536435136,0.06842294952339423,0.005233660372544184,0.029443896257323823,0.03740113196815807,0.07024761386463356,-0.21401620065076501,-0.0938191360194883,0.09519286128133204,-0.16810158708834666,-0.2195279548533625
317,1.2803638999903342,-0.024923451963195842,0.20162888536435136,0.06842294952339423,0.005519020755200246,0.028571243079743607,0.03701861577956386,0.07063848647809375,-0.21472425103197648,-0.0947254455484302,0.09367476736571666,-0.16148968386719406,-0.21691859435678965
318,1.2844458999898052,-0.024588833159424013,0.2020523167032361,0.06846558995072347,0.0058059663400001574,0.02769614717437379,0.03663242515614741,0.07102282801840741,-0.21540026046074182,-0.0956200366410973,0.09213264146107181,-0.1548023598414158,-0.21425725660803308
319,1.288625499990303,-0.024405672933541768,0.20301074527711543,0.06843666818676082,0.006094469825548955,0.02681873992830228,0.03624260948958848,0.07140053605473852,-0.21604394339600977,-0.09650268702655464,0.09056642351911025,-0.14803996495353455,-0.2115436888550187
320,1.2928351999871666,-0.02434214040814448,0.20344015656219808,0.06845443710593534,0.006384503481776174,0.025939153423255902,0.03584921909513667,0.07177150838920059,-0.2166550219421032,-0.09737317482531986,0.08897606250161735,-0.14120291508545968,-0.2087776594850761
321,1.2968656999873929,-0.02426670680885166,0.20390779557686947,0.06848071281213892,0.006676039151887311,0.02505752040988172,0.035452305207971754,0.07213564309272033,-0.21723322600818198,-0.09823127862836906,0.08736151658389339,-0.13429169227625692,-0.2059589585107878
322,1.301263099987409,-0.02424426461048556,0.20437899642461743,0.0685139916477876,0.006969048254472001,0.024173974281835597,0.0350519199792239,0.07249283854121641,-0.21777829346241698,-0.09907677757663277,0.08572275335059414,-0.12730684486771615,-0.2030873980354834
323,1.3059969999885652,-0.024258733486924984,0.20479046587045924,0.0685716024129085,0.007263501785768857,0.023288649049686104,0.034648116471654264,0.07284299345207067,-0.21828997028080077,-0.09990945144093055,0.0840597499838335,-0.120248987578138,-0.2001628126980907
324,1.3096631999942474,-0.024258733486924984,0.20479046587045924,0.0685716024129085,0.0075593703220867585,0.022401679314641595,0.03424094865499693,0.0731860069208692,-0.21876801069052754,-0.10072908070229185,0.08237249344342056,-0.1131188015048362,-0.1971850600970798
325,1.3130144999886395,-0.024258733486924984,0.20479046587045924,0.0685716024129085,0.00785662402238232,0.02151320024210849,0.033830471400963194,0.07352177845839047,-0.2192121773078803,-0.101535446632611,0.08066098063911198,-0.10591703405592841,-0.19415402119326136
326,1.3167931999923894,-0.024258733486924984,0.20479046587045924,0.0685716024129085,0.0081552326309932,0.020623347535088862,0.03341674047790956,0.07385020802781758,-0.21962224127057,-0.10232833137558406,0.07892521859477024,-0.09864449881206101,-0.19106960069122397
327,1.3216231999977026,-0.024722034094513033,0.2068166554370995,0.06902803935840461,0.008455165480526779,0.019732257407425395,0.03299981254517088,0.0741711960821518,-0.21999798236447768,-0.10310751802787514,0.07716522460432658,-0.09130207531878573,-0.1879317273992214
328,1.3258261999872047,-0.024891042992994054,0.20735903880714973,0.06915114465062475,0.00875639149490365,0.01884006655690173,0.03257974514706008,0.07448464360180468,-0.22033918914475503,-0.10387279072046049,0.07538102637945673,-0.08389070881037583,-0.18474035456734167
329,1.3292802999931157,-0.024891042992994054,0.20735903880714973,0.06915114465062475,0.009058879192555384,0.017946912138206154,0.03215659670653633,0.07479045213234513,-0.22064565905124675,-0.10462393470009793,0.07357266218888595,-0.07641140986593892,-0.18149546020381596
330,1.3326336999889463,-0.024891042992994054,0.20735903880714973,0.06915114465062475,0.0093625966897758,0.017052931735766323,0.03173042651854361,0.07508852382237849,-0.22091719851820316,-0.10536073641087047,0.07174018098924846,-0.06886525399874895,-0.17819704736934863
331,1.3364153999864357,-0.02499953489658377,0.20786931028548336,0.06934160853363901,0.009667511704225026,0.016158263336462694,0.03130129474302187,0.07537876146153445,-0.22115362307825892,-0.10608298357575342,0.06988364254743544,-0.06125338117978497,-0.1748451444493738
332,1.340664499992272,-0.02558625767078445,0.2089366772786589,0.06956077795976882,0.00997359155858542,0.01526304530222842,0.030869262397593446,0.07566106851854026,-0.22135475746065852,-0.10679046527815457,0.06800311755437359,-0.053576995296527805,-0.17143980540416734
333,1.344050599989714,-0.02558625767078445,0.2089366772786589,0.06956077795976882,0.010280803184368395,0.014367416342543406,0.03043439134992758,0.07593534917935635,-0.22152043568371582,-0.10748297204337721,0.06609868773018583,-0.045837363548126654,-0.16798110999676635
334,1.3474532999971416,-0.02568980080082491,0.2095566067267223,0.06984756727296473,0.01058911312587116,0.013471515486830031,0.029996744309785578,0.07620150838535177,-0.2216505011414995,-0.10816029591995609,0.06417044592069428,-0.03803581577810674,-0.16446916399867104
335,1.351047899996047,-0.02632905252997668,0.21059692640631886,0.07012422197607436,0.010898487544282246,0.012575482056758035,0.02955638482074944,0.07645945187149653,-0.22174480668474186,-0.10882223056081677,0.06221849618523354,-0.030173743745845857,-0.16090409937332673
336,1.3544765999977244,-0.02632905252997668,0.21059692640631886,0.07012422197607436,0.011208892221934684,0.011679455638465954,0.029113377251637245,0.07670908620454783,-0.22180321469597505,-0.10946857130420992,0.06024295387575128,-0.022252600338102623,-0.15728607443740547
337,1.3579716999956872,-0.02632905252997668,0.21059692640631886,0.07012422197607436,0.011520292566705514,0.010783576054706487,0.02866778678760855,0.07695031882120774,-0.22182559715890282,-0.11009911525437148,0.058243945707181305,-0.014273898721931789,-0.1536152739999285
338,1.3622398999868892,-0.026487423824967868,0.21114774162263986,0.07032841095742151,0.011832653616560275,0.00988798333692312,0.028219679420963192,0.07718305806622995,-0.22181183572202262,-0.11071366136186123,0.056221609819082814,-0.00623921144037246,-0.1498919094792927
339,1.3675968999887118,-0.02735955780677781,0.21284775510630033,0.07082406682914251,0.01214594004424107,0.008992817697265275,0.02776912194163726,0.07740721323045358,-0.22176182175651848,-0.11131201050353275,0.054176095828547405,0.0018498305476564397,-0.14611621899828658
340,1.371730699989712,-0.02757126951324014,0.2133581293142782,0.07095057982000184,0.012460116162096774,0.008098219500549142,0.027316181927399825,0.07762269458874194,-0.22167545640844957,-0.111893965562089,0.052107564874383866,0.009991538881773041,-0.1422884674572024
341,1.3759533999982525,-0.027793227107298372,0.2139153831142355,0.0710725927434504,0.012775145927053847,0.0072043292361712915,0.02686092773375443,0.07782941343780436,-0.22155265064526392,-0.11245933150517773,0.050016189652598596,0.018184168867337498,-0.13840894658517242
342,1.3799768999888329,-0.027951366866237757,0.21438950666311632,0.07117515042893392,0.013090992945726191,0.006311287489982027,0.026403428483549398,0.07802728213387942,-0.22139332529667233,-0.11300791546398166,0.047902154443197176,0.02642592059387921,-0.13447797496987565
343,1.384216499995091,-0.028182291726839843,0.21487729583785425,0.07127680532823592,0.013407620479662485,0.005419234916125407,0.025943754056301213,0.07821621413025819,-0.22119741108992122,-0.11353952681125938,0.045765655128340486,0.034714940103141204,-0.13049589806578152
344,1.3876034999993865,-0.028182291726839843,0.21487729583785425,0.07127680532823592,0.013724991450729347,0.004528312208852717,0.02548197507723532,0.0783961240146263,-0.22096484867950855,-0.11405397723879374,0.04360689920189629,0.0430493206050996,-0.12646308818111743
345,1.3911826999974437,-0.028182291726839843,0.21487729583785425,0.07127680532823592,0.014043068446628598,0.003638660074316151,0.0250181629060489,0.07856692754620391,-0.22069558867139102,-0.11455108083420482,0.041426105770434846,0.05142710374028153,-0.12237994444376485
346,1.394570999997086,-0.028182291726839843,0.21487729583785425,0.07127680532823592,0.014361813726546876,0.0027504192023493643,0.02455238962540013,0.07872854169266257,-0.22038959164173552,-0.11503065415708641,0.039223505545724166,0.05984628088667262,-0.11824689274630783
347,1.3986039999872446,-0.02831987551812709,0.21540769117736386,0.0714312863161148,0.014681189226935728,0.00186373023824144,0.02408472802912871,0.07888088466679859,-0.2200468281502712,-0.11549251631442461,0.03699934082878763,0.06830479450947492,-0.1140643856704756
348,1.4020947999961209,-0.02905130165476865,0.2168160101089548,0.07169719196887993,0.015001156567420319,0.0009787337545107558,0.023615251610212485,0.07902387596294257,-0.21966727874830408,-0.11593648903525822,0.03475386548559382,0.07680053955194936,-0.10983290239123851
349,1.405570599992643,-0.029284160071156508,0.21722817373360534,0.07179492502014109,0.015321677056834878,9.557022268513886e-05,0.023144034548465024,0.07915743639308524,-0.2192509339814588,-0.11636239674454195,0.03248734491445536,0.08533136486555093,-0.10555294856083408
350,1.4096354999928735,-0.02959406006082489,0.21767666654451823,0.07185188148313353,0.01564271169938291,-0.0007856200149053805,0.022671151697979088,0.07928148812270079,-0.21879779438721642,-0.11677006663617413,0.03020005600521975,0.0938950746775424,-0.10122505617301607
351,1.4135810999869136,-0.029833864486054403,0.2181218936813345,0.07199067527361958,0.015964221200920194,-0.001664696773317003,0.02219667857432106,0.07939595470624854,-0.21830787048732075,-0.11715932874515182,0.027892287090342017,0.10248943009425178,-0.09684978340783527
352,1.41785249998793,-0.0300063918594076,0.21861032044561943,0.07204102162064047,0.01628616597535847,-0.002541520053155647,0.021720691341481396,0.07950076112233444,-0.21778118277513134,-0.11753001601881766,0.02556433788793549,0.11111215063812051,-0.09242771445727552
353,1.4218516999972053,-0.030227616728845705,0.21905982866597892,0.07207772510088548,0.016608506151187665,-0.0034159500687094444,0.02124326679858627,0.07959583380851391,-0.21721776169800097,-0.11788196438716438,0.023216519436902974,0.11976091581667417,-0.0879594593320836
354,1.425223999991431,-0.030227616728845705,0.21905982866597892,0.07207772510088548,0.016931201578114525,-0.00428784727604429,0.020764482366375684,0.07968110069571792,-0.21661764763476174,-0.11821501283216283,0.020849154024256706,0.12843336672153358,-0.08344565365014661
355,1.4285511999914888,-0.030227616728845705,0.21905982866597892,0.07207772510088548,0.01725421183381534,-0.005157072401056578,0.020284416073453198,0.07975649124228427,-0.21598089086840408,-0.11852900345608083,0.018462575104741186,0.13712710765557304,-0.07888695840678314
356,1.43236039999465,-0.03034755484088865,0.21949466595474776,0.07216952208576939,0.01757749623080054,-0.006023486467477362,0.019803146542312716,0.07982193646757722,-0.2153075515540391,-0.11882378154876212,0.016057127212878556,0.14583970778632394,-0.0742840597273282
357,1.43622289999621,-0.030867842473668358,0.22029308386933316,0.07222045278948992,0.01790101382338886,-0.0068869508248222185,0.019320752975147824,0.07987736898517815,-0.2145976996822366,-0.11909919565383448,0.013633165867561563,0.1545687028237157,-0.06963766860240399
358,1.4406137999903876,-0.031078350584363805,0.22067935170678962,0.07228575843115467,0.01822472341478889,-0.007747327176281212,0.01883731513944924,0.07992272303563062,-0.21385141503783353,-0.11935509763381762,0.011191057469324412,0.16331159672024254,-0.06494852060628066
359,1.4445227999967756,-0.0312953430300999,0.22106973471376457,0.07236605364255971,0.01854858356428555,-0.008604477606543422,0.018352913353395936,0.07995793451872389,-0.21306878715430938,-0.11959134273410213,0.008731179190426649,0.17206586339164176,-0.06021737559874238
360,1.4486086999968393,-0.031492936804533474,0.2214893545275225,0.07243665386985278,0.018872552594529243,-0.009458264609550593,0.01786762847104557,0.07998294102529879,-0.21224991526382758,-0.11980778964577167,0.006253918857890142,0.1808289484561707,-0.05544501741088523
361,1.4520212999923388,-0.031690847839153075,0.22184740672956516,0.0725033473378638,0.019196588598925226,-0.010308551116174552,0.017381541867329795,0.07999768186856121,-0.21139490824304336,-0.12000430056724198,0.003759674829633893,0.18959827099057028,-0.05063225351528328
362,1.4553075000003446,-0.03184242524368518,0.22222679685708188,0.07254109877324977,0.01952064944912088,-0.011155200521813121,0.016894735422860057,0.08000209811488806,-0.2105038845547811,-0.12018074126469147,0.0012488558638557394,0.198371225300809,-0.04577991468096837
363,1.4589565999922345,-0.03184242524368518,0.22222679685708188,0.07254109877324977,0.019844692802588403,-0.011998076713899325,0.016407291508549512,0.0799961326141117,-0.20957697218568708,-0.12033698113125922,-0.001278119018185784,0.2071451827057073,-0.04088885461367795
364,1.4624310999934096,-0.03184242524368518,0.22222679685708188,0.07254109877324977,0.020168676110300387,-0.012837044099318818,0.015919292970056703,0.07997973002926873,-0.2086143085799641,-0.12047289324498753,-0.0038208206758322412,0.2159174933315507,-0.0359599495818341
365,1.466482799994992,-0.031904259950694014,0.22263878253991204,0.07258501279036411,0.0204925566244958,-0.01367196763173053,0.015430823112056664,0.07995283686579924,-0.20761604056929725,-0.1205883544254864,-0.006378809998967783,0.22468548791581042,-0.03099409802872422
366,1.471857999989879,-0.032588666331391875,0.22379769923668622,0.07264000171956352,0.020816291406533873,-0.014502712838785509,0.014941965682345246,0.07991540150018306,-0.2065823242990805,-0.12068324528929948,-0.008951638064078823,0.2334464796181038,-0.025992220171361262
367,1.4780838999868138,-0.03269375575045842,0.22414453124348613,0.07261690081365407,0.021139837334833454,-0.015329145849239126,0.014452804855782281,0.07986737420799962,-0.20551332515105497,-0.12075745030395187,-0.011538846296263082,0.24219776583654107,-0.020955257586507806
368,1.4815783999947598,-0.03281805481601117,0.22448094350848277,0.07264195819452765,0.021463151112895335,-0.016151133419951832,0.013963425218079247,0.07980870719139906,-0.20440921766247136,-0.12081085784066142,-0.01413996663701702,0.2509366300276229,-0.015884172784353733
369,1.4849055999948175,-0.03281805481601117,0.22448094350848277,0.07264195819452765,0.02178618927740493,-0.016968542962773694,0.013473911749437226,0.07973935460597288,-0.2032701854418889,-0.12084336022569636,-0.016754521717627827,0.2596603435278724,-0.010779948770342636
370,1.4886857999954373,-0.03281805481601117,0.22448094350848277,0.07264195819452765,0.022108908206412828,-0.017781242571307965,0.012984349808040961,0.07965927258701284,-0.2020964210817254,-0.12085485379036258,-0.01938202503799341,0.26836616737540303,-0.005643588595646643
371,1.493121899999096,-0.032895278635270433,0.22485955834031737,0.07273576581619709,0.02243126412759076,-0.018589101047549055,0.012494825113414725,0.0795684192751472,-0.20088812606767276,-0.12084523891960612,-0.022021981150691393,0.27705135412964926,-0.00047611489679352565
372,1.4969235999888042,-0.03337327395980369,0.22582885301217506,0.07267628212226357,0.022753213126560326,-0.019391987928390527,0.012005423729645607,0.07946675484134443,-0.19964551068509453,-0.12081442009921643,-0.02467388585011592,0.28571314968750605,0.0047214305750467355
373,1.5010532999876889,-0.03348538646139911,0.22606741233501215,0.07266411883210981,0.023074711155291958,-0.020189773511998688,0.011516232048479883,0.07935424151127464,-0.19836879392252071,-0.12076230596161755,-0.027337226366499018,0.29434879509415135,0.009947987434605936
374,1.5051643999904627,-0.03353818843169833,0.2262898043816952,0.07266949013059665,0.02339571404057163,-0.020982328884047212,0.01102733677229799,0.07923084358901884,-0.19705820337235533,-0.12068880933023532,-0.030011481564631303,0.3029555283468534,0.015202477152380014
375,1.5092752999917138,-0.03355793620054966,0.2265414456992175,0.07265258811451857,0.02371617749253268,-0.021769525943808477,0.010538824896973725,0.07909652748011771,-0.19571397512891378,-0.1205938472624303,-0.03269612214709536,0.3115305861900956,0.020483803553296008
376,1.5134283999941545,-0.033609034125216104,0.22674913778986427,0.07262924440541349,0.024036057113250242,-0.022551237430097366,0.010050783694623174,0.07895126171395113,-0.19433635368390634,-0.12047734109098643,-0.03539061086182349,0.3200712059003812,0.025790853323668757
377,1.5169686999870464,-0.033609034125216104,0.22674913778986427,0.07262924440541349,0.024355308405395685,-0.02332733694706326,0.009563300696248918,0.07879501696544085,-0.19292559181948352,-0.12033921646414682,-0.038094402713790554,0.32857462705911145,0.031122496525932002
378,1.520386199990753,-0.033609034125216104,0.22674913778986427,0.07262924440541349,0.02467388678094846,-0.02409769898982603,0.009076463674284975,0.07862776607606854,-0.19148195049895936,-0.12017940338418943,-0.040806945180651345,0.3370380933119659,0.03647758712062874
379,1.5246848999959184,-0.03353905994404009,0.22700023618692308,0.07261241064199084,0.024991747569962884,-0.024862198969951916,0.008590360625047895,0.07844948407420212,-0.19000569875532736,-0.1199978362445361,-0.04352767843213117,0.34545885411324745,0.04185496349514623
380,1.528946199992788,-0.033721529163227265,0.2273216577780925,0.07248368117517974,0.025308846029387322,-0.025620713240765234,0.008105079751099403,0.07826014819472361,-0.18849711357768312,-0.11979445386538946,-0.046256035552977706,0.35383416645369165,0.04725344899868246
381,1.5332894999883138,-0.033725550070815555,0.22744703132738334,0.07242205291163234,0.025625137351933266,-0.026373119122492013,0.007620709443525895,0.07805973789795219,-0.1869564797956672,-0.11956919952789347,-0.04899144276928211,0.3621612965702744,0.05267185248293274
382,1.5375512999889906,-0.033715366691603556,0.2275420661918158,0.07237358446140674,0.02594057667499169,-0.02711929492723155,0.00713733826414011,0.07784823488785665,-0.18538408996204142,-0.1193220210068131,-0.05173331967797696,0.37043752163659144,0.05810896884798733
383,1.543129300000146,-0.03362867264688107,0.2276915330526827,0.07222218788832699,0.02625511908959417,-0.027859119983751925,0.006655054927610085,0.07762562312955273,-0.1837802442335108,-0.11905287060173075,-0.0544810794793185,0.3786601314324238,0.06356357959293343
384,1.5477656999864848,-0.03357020466994906,0.2277035268530605,0.07213445939049856,0.026568719649416258,-0.02859247466210557,0.0061739482835205155,0.07739188886608023,-0.18214525024990166,-0.11876170516675788,-0.05723412921216084,0.38682642999114464,0.06903445337065822
385,1.5513943999976618,-0.03348837041310729,0.22770339134192233,0.07205110416213062,0.026881333379820637,-0.029319240398061087,0.005694107298371613,0.07714702063445589,-0.1804794230118053,-0.11844848613876201,-0.05999186999182994,0.39493373722366426,0.0745203465463533
386,1.5555835999984993,-0.0333873554576385,0.22763327091184393,0.07199221955684112,0.027192915286937538,-0.030039299717347416,0.005215621037520489,0.0768910092809984,-0.17878308475679733,-0.11811317956410937,-0.06275369725040593,0.4029793905176493,0.08002000375922545
387,1.559729899992817,-0.0332837244730577,0.2275587418393907,0.07191800880054193,0.027503420366779982,-0.030752536259706625,0.004738578647070006,0.07662384797592152,-0.17705656483433851,-0.11775575612392462,-0.06551900097922247,0.41096074631080015,0.08553215848692294
388,1.564023199985968,-0.03316086612526225,0.2274510160262056,0.07183143444867536,0.027812803614391264,-0.03145883480275147,0.004263069335709986,0.07634553222719208,-0.17530019957946313,-0.11737619115786976,-0.06828716597339358,0.4188751816370119,0.09105553361219208
389,1.567762299993774,-0.03298017650464813,0.22733157291939882,0.07168958700744621,0.028121020033022078,-0.032158081285623974,0.0037891823565155956,0.07605605989365019,-0.17351433218535858,-0.11697446468644554,-0.07105757207817899,0.42672009564428864,0.09658884199128435
390,1.5717907999933232,-0.03278141393468094,0.22710162222514496,0.07157710098811065,0.0284280246433349,-0.03285016283245121,0.0033170069887076873,0.07575543119738923,-0.17169931257493834,-0.11655056143181926,-0.07382959443700057,0.4344929110833275,0.10213078702364065
391,1.5762015999935102,-0.03257796076530601,0.22686776175653003,0.0714562038141504,0.028733772492633047,-0.03353496777559456,0.0028466325193797874,0.07544364873539323,-0.16985549727150845,-0.11610447083718396,-0.07660260374092386,0.44219107576573274,0.10768006322238612
392,1.5803070999972988,-0.03238714577442731,0.22660903927238665,0.0713473787594456,0.029038218664112082,-0.0342123856786889,0.0023781482251963464,0.07512071749043009,-0.16798324926862618,-0.11563618708465434,-0.0793759664794202,0.4498120639908704,0.11323535678517631
393,1.5844809999980498,-0.03217684236158489,0.22624075394500515,0.07125063213634143,0.02934131828613121,-0.034882307359468116,0.0019116433540668218,0.07478664484119962,-0.16608293789924747,-0.11514570911170546,-0.0821490451922264,0.4573533779404185,0.11879534616494243
394,1.5881212999956915,-0.03217684236158489,0.22624075394500515,0.07125063213634143,0.029643026541502443,-0.03554462491237335,0.001447207106800065,0.07444144057173628,-0.16415493870425785,-0.1146330406261619,-0.08492119872212046,0.4648125490397173,0.12435870264009108
395,1.5915438999945763,-0.03217684236158489,0.22624075394500515,0.07125063213634143,0.029943298676795068,-0.036199231730940216,0.0009849286187434145,0.07408511688006567,-0.1621996333004798,-0.11409819011974413,-0.08769178246843422,0.47218713928507006,0.1299240908837225
396,1.5969657999958145,-0.031489090450942385,0.22503901731833273,0.07087904443322553,0.030242090011653202,-0.03684602252996176,0.0005248969414108154,0.07371768838611527,-0.16021740924824654,-0.11354117088018092,-0.09046014864112548,0.4794747425361946,0.13549016953143941
397,1.6011328999884429,-0.03126391203386587,0.2245663850336288,0.07075517453613608,0.030539355948124233,-0.03748489336742335,6.720102410420895e-05,0.07333917213887975,-0.1582086599186303,-0.1129620010018967,-0.0932256465152352,0.48667298577307805,0.1410555917473273
398,1.6052677999978189,-0.030942590124848023,0.2240665420481063,0.07058094417111682,0.030835051979995972,-0.03811574166620589,-0.00038807030446763867,0.07294958762284158,-0.15617378436040977,-0.1123607033952837,-0.09598762268555722,0.493779530316535,0.14661900578769688
399,1.6096282999933464,-0.03073930691176706,0.22344778111460117,0.07042453684355388,0.031129133702140183,-0.03873846623555404,-0.0008408283545687746,0.07254895676364789,-0.1541131871668592,-0.11173730579456952,-0.09874542132135106,0.5007920730118176,0.15217905556218825
400,1.6137568999984069,-0.03048807740931922,0.22282600404819325,0.07029713785382338,0.03142155681986025,-0.03935296729230575,-0.0012909845938101465,0.07213730393304492,-0.15202727834244026,-0.11109184076429165,-0.10149838442093101,0.507708347374675,0.1577343811918452
401,1.6178866999980528,-0.030260553086262777,0.22227358218218002,0.07018362790889733,0.03171227715824077,-0.03995914648187988,-0.0017384506655142037,0.07171465595307203,-0.14991647316947568,-0.11042434570439148,-0.10424585206596776,0.5145261246993079,0.16328361956378037
402,1.6219214999873657,-0.030000997834346323,0.22163636710095577,0.07003534447660864,0.03200125067149691,-0.04055690689901836,-0.0021831384070661454,0.07128104209951734,-0.14778119207488108,-0.10973486285394002,-0.10698716267534177,0.5212432151277169,0.16882540488206021
403,1.6262354999926174,-0.029799782668417187,0.220962516265612,0.06985925253665921,0.0322884334523214,-0.04114615310827978,-0.00262495986824803,0.07083649410463762,-0.14562186049702788,-0.10902343929350948,-0.10972165325839064,0.5278574686799866,0.17435836921445097
404,1.6302616999892052,-0.029571382334733224,0.22027818714746933,0.06974195224704667,0.032573781741226826,-0.04172679116428069,-0.0030638273295520418,0.07038104615914476,-0.1434389087528092,-0.10829012694620457,-0.11244865966739602,0.5343667762451025,0.17988114303467675
405,1.6343818999885116,-0.029392646243123384,0.2195552625273488,0.06958691730463133,0.032857251935881106,-0.042298728631681416,-0.0034996533204692823,0.06991473491346192,-0.1412327719049764,-0.10753498257736738,-0.1151675168491585,0.5407690705319402,0.1853923557598526
406,1.6385347999894293,-0.029168089557205328,0.21874872419022892,0.06943647956191393,0.03313880060043411,-0.04286187460491265,-0.003932350637750547,0.06943759947825247,-0.13900388962981255,-0.10675806779297047,-0.11787755909551294,0.5470623269801139,0.19089063628276648
407,1.6426570999901742,-0.028983799114455953,0.21799059028090412,0.0693240448154013,0.03341838447483353,-0.043416139727639615,-0.004361832363635613,0.06894968142422596,-0.136752706085206,-0.10595944903671335,-0.12057812029263978,0.5532445646304244,0.19637461349869464
408,1.6471166999981506,-0.02879363047398652,0.21722194451466417,0.06919397052820271,0.03369596048412808,-0.04396143621196032,-0.004788011884047636,0.06845102478122485,-0.13447966977918416,-0.1051391975858376,-0.12326853416903183,0.5593138469546911,0.20184291682644726
409,1.6511446999938926,-0.02865043486509979,0.21640441154203363,0.0690741756305773,0.033971485747755936,-0.04449767785733455,-0.005210802906749348,0.06794167603659655,-0.1321852334389646,-0.10429738954567648,-0.12594813454197923,0.5652682826448009,0.207294176723353
410,1.655554499986465,-0.028545276146026605,0.21561308920668146,0.06899303878211303,0.034244917588816634,-0.045024780069239975,-0.005630119479457784,0.06742168413285533,-0.12986985388057842,-0.10343410584295575,-0.1286162555624389,0.5711060263608493,0.21272702519390396
411,1.6596738999942318,-0.028429229734637455,0.21480155517807686,0.06888442697619662,0.0345162135433244,-0.04554265987755149,-0.0060458760079143345,0.06689110046463846,-0.12753399187911743,-0.10254943221786246,-0.13127223195815899,0.5768252794383038,0.21814009629179199
412,1.6636868999921717,-0.028326804212786796,0.21392410635824705,0.06874320931793168,0.03478533136944083,-0.04605123595464052,-0.006457987273907,0.06634997887496154,-0.12517811203965465,-0.10164345921489797,-0.13391539927493243,0.5824242905541583,0.22353202661508068
413,1.6679654999898048,-0.028197612199085814,0.21303986767855532,0.06863921947358402,0.035052229056684814,-0.04655042863319071,-0.006866368453241757,0.06579837565077866,-0.12280268266888474,-0.10071628217253238,-0.13654509411585883,0.587901356352097,0.22890145579426918
414,1.672016899989103,-0.02816035688079671,0.21214563486543547,0.06856281716890643,0.035316864835118,-0.04704015992372652,-0.007270935133660103,0.0652363495178524,-0.12040817564752865,-0.09976800121167792,-0.13916065437849645,0.5932548220267255,0.2342470269730169
415,1.6759813999960895,-0.02805696627828586,0.2112400403758175,0.06840783588945062,0.03557919718450374,-0.047520353531851196,-0.00767160333269986,0.06466396163493895,-0.11799506630354427,-0.09879872122299888,-0.14176141948979012,0.5984830818669777,0.2395673872813087
416,1.6801845999871148,-0.028013403946461055,0.2103105520054712,0.06828181733324891,0.03583918484343802,-0.04799093487519075,-0.00806828951549639,0.06408127558729447,-0.11556383328618137,-0.09780855185307614,-0.14434673063866446,0.603584579758836,0.24486118830085354
417,1.6845230999897467,-0.02792738581252235,0.20936014512761772,0.06816535484475425,0.036096786818450605,-0.04845183110004033,-0.008460910612521473,0.06348835737950893,-0.1131149584409176,-0.09679760748944374,-0.14691593100617617,0.6085578096475535,0.25012708652252325
418,1.6889161999861244,-0.027848700889622838,0.20838962928225202,0.06809371592181503,0.036351962393074776,-0.04890297109770944,-0.008849384037257093,0.06288527542767366,-0.11064892668530839,-0.09576600724451538,-0.14946836599312396,0.6134013159596055,0.25536374379564963
419,1.692834599991329,-0.027796709705430925,0.20737426474978188,0.06794017615304256,0.036604671136883746,-0.04934428552056262,-0.00923362770380147,0.06227210055088826,-0.10816622588578134,-0.0947138749384192,-0.1520033834450176,0.6181136939846386,0.26056982776901033
420,1.6969819999940228,-0.027731661875247803,0.20638456660227156,0.06781566896752787,0.03685487291449203,-0.04977570679775195,-0.00961356004440474,0.061648905962113754,-0.10566734673540329,-0.09364133908075895,-0.15452033387431272,0.6226935902177251,0.2657440123233444
421,1.7002826999960234,-0.027731661875247803,0.20638456660227156,0.06781566896752787,0.03710252789451999,-0.050197169150637835,-0.009989100026931675,0.061015767258378935,-0.10315278263264609,-0.09254853285131981,-0.15701857067982292,0.6271397026622652,0.27088497799525246
422,1.7037588999955915,-0.027731661875247803,0.20638456660227156,0.06781566896752787,0.037347596558519915,-0.05060860860789477,-0.010360167172248923,0.060372762410346524,-0.10062302956117378,-0.0914355940797373,-0.15949745036322402,0.6314507810939187,0.2759914123923479
423,1.7071133999997985,-0.02760217000146823,0.20525075838431975,0.06775184872240224,0.03759003970986206,-0.0510099630202987,-0.010726681571534403,0.05971997175124624,-0.09807858597067143,-0.09030266522414733,-0.16195633274256957,0.635625627285983,0.28106201059953806
424,1.7116282999922987,-0.027692154074096625,0.203149379818857,0.06732340780610664,0.037829818482579027,-0.051401172075192375,-0.011088563903506436,0.059057477965181605,-0.09551995265873332,-0.08914989334883622,-0.16439458116274094,0.6396630951966656,0.2860954755763286
425,1.715651299993624,-0.027631024969485794,0.20211932077188766,0.06711828765202946,0.03806689435016681,-0.05178217731062512,-0.011445735451570276,0.0583853660748178,-0.09294763265382591,-0.08797743010090897,-0.16681156270275999,0.6435620911187393,0.291090518545055
426,1.7196725999965563,-0.02764117890755693,0.20104778029187728,0.06692912492895205,0.038301229134340704,-0.052152922129163365,-0.011798118120879697,0.05770372342845796,-0.09036213109933876,-0.08678543168599434,-0.16920664837989555,0.6473215737920959,0.29604585936995564
427,1.7231723000004422,-0.02764117890755693,0.20104778029187728,0.06692912492895205,0.0385327850137445,-0.052513351811368514,-0.012145634455311418,0.057012639686515806,-0.08776395513873389,-0.085574058843005,-0.1715792133504988,0.6509405544797527,0.3009602269270146
428,1.7263504000002283,-0.02764117890755693,0.20104778029187728,0.06692912492895205,0.038761524532611294,-0.052863413528938676,-0.012488207654350188,0.056312206807392115,-0.08515361380180221,-0.08434347681797053,-0.17392863710750583,0.6544180970078937,0.3058323594645145
429,1.730454099990311,-0.0275590882626059,0.19991509333983876,0.06669609749159262,0.038987410609374565,-0.05320305635751057,-0.012825761589882386,0.055602519032762567,-0.08253161789203316,-0.08309385533696173,-0.17625430367455047,0.6577533177705542,0.31066100495424825
430,1.7338931999984195,-0.0275590882626059,0.19991509333983876,0.06669609749159262,0.039210406545227776,-0.053532231289117826,-0.013158220822895963,0.054883672872284385,-0.07989847987510125,-0.08182536857812393,-0.17855560179663607,0.6609453856995886,0.3154449214333525
431,1.73826790000021,-0.02752689350633275,0.19678453961412695,0.06591731944724734,0.03943047603263106,-0.053850891244302354,-0.013485510620084653,0.054155767087729595,-0.07725471376847072,-0.0805381951428369,-0.18083192512731788,0.6639935222005825,0.3201828773367366
432,1.7424822999892058,-0.027671943261278358,0.1947363666839613,0.06536112900523403,0.039647583163763496,-0.05415899108387537,-0.013807556970354382,0.053418902676553096,-0.07460083503211802,-0.07923251802601881,-0.18308267241235188,0.6668970010554028,0.3248736518200929
433,1.7468103999999585,-0.027611648260525062,0.1937248559886089,0.06498790665822488,0.03986169243891925,-0.0544564876203247,-0.014124286601229856,0.05267318285490353,-0.07193736046036947,-0.07790852458559162,-0.18530724766977077,0.6696551482920979,0.3295160350734832
434,1.751200599988806,-0.02761436387207042,0.1927071860301326,0.06465876878823691,0.04007276877484567,-0.05474333962886481,-0.014435626995159346,0.051918713040084656,-0.06926480807484951,-0.07656640651112488,-0.18750506036635178,0.672267342022887,0.3341088286255074
435,1.7545821999956388,-0.02761436387207042,0.1927071860301326,0.06465876878823691,0.04028077751302179,-0.05501950785812627,-0.014741506405715733,0.051155600832475195,-0.06658369701853328,-0.07520635979167506,-0.1896755255904449,0.674733012251001,0.3386508456380712
436,1.7581585999869276,-0.02761436387207042,0.1927071860301326,0.06465876878823691,0.04048568442787574,-0.055284955040480976,-0.015041853873691913,0.050383955996915156,-0.06389454745089503,-0.07382858468283678,-0.19181806422113426,0.6770516406471593,0.3431409111917799
437,1.7623368999920783,-0.02755776146629347,0.19165881292534473,0.06443689895884458,0.04068745573493951,-0.0555396459019995,-0.015336599243088594,0.04960389044356655,-0.06119788044414255,-0.07243328567302224,-0.19393210309370815,0.67922276029648,0.34757786256199547
438,1.7675193999893963,-0.027491128550762405,0.1888319027757129,0.06338935119399229,0.04088605809893965,-0.05578354717203671,-0.015625673176992497,0.04881551820825666,-0.05849421788052601,-0.07102067144898463,-0.19601707516141834,0.6812459554166465,0.3519605494856047
439,1.7717519999860087,-0.027430851168838654,0.18796873765579444,0.06305433368320425,0.041081458641822305,-0.056016627592442136,-0.015909007173343044,0.04801895543231183,-0.05578408235070762,-0.06959095486060127,-0.1980724196535121,0.6831208610481636,0.35628783441855477
440,1.7759312999987742,-0.027373634165233397,0.18704182207808254,0.06270111208520811,0.04127362495071067,-0.05623885792639183,-0.01618653358058571,0.04721432034188963,-0.053067997053176996,-0.06814435288493162,-0.20009758222952462,0.6848471627175535,0.3605585927842211
441,1.7803608999965943,-0.027395086720083308,0.18616752813359497,0.062411301329614005,0.04146252508579362,-0.05645021096683784,-0.016458185613210274,0.04640173322681728,-0.05034648569469553,-0.06668108658956536,-0.20209201512982242,0.6864245960743544,0.364771713212683
442,1.7845061999978498,-0.02735848685722863,0.1853676650367404,0.0621179026128597,0.04164812758814408,-0.05665066154457183,-0.016723897367172096,0.04558131641894438,-0.047620072391751755,-0.06520138109527536,-0.20405517732239123,0.6878529465028017,0.3689260977709911
