,time,x,y,z,vx,vy,vz,ax,ay,az,jx,jy,jz
0,0.0038646000029984,0.0,0.0,0.0,7.158843964073544e-05,0.0006823444044535922,-5.4240463507781726e-05,0.0013738935915853395,0.006160364292606175,0.0023328595221588687,-0.0013928076555097288,-0.0328787257993573,0.0014709261766468497
1,0.0084407000103965,-0.00022853206632400517,-0.00015884014188203137,-0.00011699633807286072,0.0002966885008686022,0.0019824152776533985,0.00038639603222579864,0.002502261378497564,0.011450184746869927,0.004902513996328771,0.0012537752767022036,-0.025216275748781557,0.009570666581971298
2,0.0135279000096488,-3.226572303607801e-05,-0.00043534704455578435,-0.0005829753530269882,0.0005232241595445561,0.0032857494030024245,0.0008312118393282906,0.0036250582235448797,0.016691590306262494,0.007468182362983499,0.0038405685297794195,-0.017855644067663084,0.0175587161917606
3,0.0189217000006465,-2.9900641946310604e-05,-0.0005407217005163536,-0.0007374668284915544,0.0007511249368716491,0.00459182357070695,0.0012801109122873,0.00474166944265497,0.02188138027435876,0.010028653872583494,0.006365599327110944,-0.010803415118250436,0.025429931983050175
4,0.0230249000014737,-4.265200637405746e-05,-0.0006214765838140859,-0.0008509895509232243,0.000980319600424436,0.005900112167429452,0.0017329956951794216,0.005851482871011523,0.027016382095505716,0.012582719765071821,0.008826938790870023,-0.00406592273368344,0.03317925042425297
5,0.0270339000126114,-4.852908974622626e-05,-0.0007126262583428678,-0.0009701910341301173,0.0012107362150332163,0.0072100875746892315,0.002189767197393128,0.00695388937962081,0.03209345421064383,0.015129174273271321,0.011222703944255475,0.0023507574123927044,0.040801692370764295
6,0.031174200004898,-9.449755025470278e-05,-0.0008257868457838482,-0.0011137291048757035,0.0014423021940683396,0.008521220568359154,0.002650325070158679,0.008048283389305763,0.037109488887431236,0.01766681562317596,0.013551059672172789,0.00844081519098666,0.048292367883827056
7,0.0357932000042637,-0.000110779910690964,-0.0009208943970417178,-0.0012328188032785586,0.0016749443510688095,0.009832980718832325,0.0031145676837978117,0.009134063381563784,0.042061415021492604,0.02019444703003701,0.015810220637956264,0.014198713147861513,0.05564648096693968
8,0.0396099000063259,-0.00012773830812610795,-0.0010062847616080705,-0.001341662957792707,0.0019085889516592027,0.011144836791432584,0.0035823922056054526,0.010210632405728106,0.04694620090564547,0.022710877689149842,0.017998453153780854,0.019619193369024117,0.06285933421417837
9,0.0453343000117456,-0.00012773830812610795,-0.0010062847616080705,-0.001341662957792707,0.002143161765698779,0.012456257146643439,0.004053694678275304,0.011277398581876838,0.05176085696399188,0.025214923760253975,0.020114077002463156,0.024697284072344606,0.06992633336490305
10,0.0490775000071153,-0.00030580400212120557,-0.0011764256702934044,-0.0014416040834727179,0.0023785881196065886,0.01376671013973118,0.004528370098780862,0.012333775598938909,0.05650243844780259,0.02770540934446689,0.022155467208405145,0.029428305916355608,0.07684299175942165
11,0.0524160000059055,-0.00022485424041866805,-0.0013255894190532934,-0.0017128983849007248,0.0026147929488064053,0.015075664519339624,0.005006312497623278,0.013379183207451925,0.061168048090164434,0.03018116745268196,0.024121055755491512,0.03380787801760245,0.08360493469030071
12,0.0585320000100182,-0.00023574997864181773,-0.001474176431673117,-0.0018877319237132451,0.0028517008502353903,0.01638258982463634,0.005487415018357426,0.014413047706433387,0.06575483871640944,0.032641040964371766,0.026009333249811924,0.03783192366825076,0.09020790364413055
13,0.0625935000134632,-0.00025999873813681263,-0.0015953794891337828,-0.0020304580861202027,0.0030892361348605476,0.017686956780593045,0.005971569997307632,0.015434802423834068,0.07026001580739569,0.03508388357575052,0.027818850525143133,0.04149667574600566,0.09664776042868171
14,0.0664658000023337,-0.0002704812956294014,-0.0016589338075068912,-0.0021114645410339715,0.003327322880147243,0.018988237690986322,0.006458669043384758,0.01644388819005029,0.07468084001276551,0.03750856073626322,0.029548220189192512,0.04479868180875704,0.10292049118052447
15,0.0729764999996405,-0.0002835007637791005,-0.0017660078476654036,-0.002223045661722503,0.003565884982424386,0.020285906828708823,0.006948603117916587,0.01743975380398049,0.07901462961136627,0.039913950572384206,0.031196118108674068,0.04773480886673761,0.10902221024832467
16,0.0792052000033436,-0.0002835007637791005,-0.0017660078476654036,-0.002223045661722503,0.003804846209091258,0.02157944082298572,0.007441262614403883,0.01842185649112068,0.083258762916082,0.04229894479772451,0.03276128483136026,0.05030224782536375,0.11494916394717833
17,0.0856468999991193,-0.0005368426980134949,-0.0020211249369628376,-0.002358553223626927,0.004044130250611447,0.02286831904309623,0.007936537438115083,0.0193896623532036,0.08741068062039123,0.04466244960846528,0.03424252694332802,0.05249851759232349,0.12069773417950277
18,0.0898109000117983,-0.0003251747642482551,-0.002329646516958804,-0.002722740796335668,0.004283660772239842,0.02415202397820555,0.008434317085433251,0.0203426468088967,0.09146788808403625,0.04700338656315379,0.035638718359694926,0.0543214688428803,0.12626444191816463
19,0.0939777000021422,-0.0003297241798774273,-0.002462699806512602,-0.0028727366479975847,0.004523361465429264,0.025430041612918546,0.008934490722869696,0.02128029502508564,0.09542795755526409,0.04932069344591878,0.03694880154722144,0.05576928743777557,0.13164595054769054
20,0.0984615000052144,-0.0003270862561985091,-0.0025549799736220096,-0.0030223675767936543,0.004763156098863974,0.026701861798173143,0.009436947265659577,0.022202102338281827,0.09928853032717697,0.05161332511218348,0.03817178867723774,0.056840497488535896,0.13683906905958118
21,0.102353000009316,-0.00032924603311696354,-0.002683076599107803,-0.0031490428874618778,0.0050029685690680045,0.027966978617098275,0.009941575455855797,0.02310757466570485,0.10304731882581017,0.05388025431597732,0.039306762707438374,0.057533964065422785,0.14184075509792834
22,0.1064833999989787,-0.00032924603311696354,-0.002683076599107803,-0.0031490428874618778,0.00524272295053705,0.02922489074546881,0.010448263939838545,0.02399622890560394,0.1067021086276396,0.056120472517971316,0.040352878391174456,0.057848895543702206,0.14664811785171936
23,0.1108502000133739,-0.0005216070004496017,-0.0028894788559886606,-0.003243583224142433,0.005482343545343528,0.030475101806397772,0.010956901345159064,0.024867593326396188,0.11025076040430778,0.05833299067338717,0.04130936321296216,0.057784845584357244,0.15125842079040216
24,0.114683400010108,-0.0004129308687763247,-0.003058348661728218,-0.0035094336700179996,0.005721754932165347,0.031717120718914624,0.011467376356637575,0.02572120794421335,0.11369121179244732,0.06051683999895642,0.04217551824901626,0.05734171474582058,0.15566908423947942
25,0.1190456000040285,-0.0004129308687763247,-0.003058348661728218,-0.0035094336700179996,0.00596088201468989,0.03295046204008743,0.011979577791636602,0.026556624888463727,0.11702147918657299,0.06267107271813306,0.042950718951710196,0.056519751723762675,0.15987768779309783
26,0.1230543999990914,-0.0006097478165481584,-0.0032700779559023834,-0.0036055738171041096,0.006199650069345753,0.03417464630035576,0.012493394674432466,0.02737340875503087,0.12023965945310841,0.06479476278379089,0.04363441585695764,0.05531955421643558,0.16388197256080247
27,0.1272726000024704,-0.0005226772843363878,-0.0035029301737317135,-0.0038376783461066765,0.006437984792315902,0.03538920033175079,0.01300871630960935,0.028171136946746455,0.12334393156370946,0.06688700657766657,0.04422613521360645,0.053742069413541066,0.16767984324583293
28,0.1315158000070369,-0.0005305378860145716,-0.003630795995232277,-0.0039390742560391,0.00667581234578698,0.036593657588689425,0.013525432354401993,0.028949400000790725,0.1263325581461475,0.0689469235858389,0.0447254795340322,0.051788594107064385,0.17126937005254791
29,0.1380789000104414,-0.0005680539799019638,-0.003758399019431576,-0.0040067492158146634,0.00691305940339078,0.03778755846103917,0.014043432889914855,0.029707801902690387,0.12920388695111637,0.07097365704956579,0.04513212806521653,0.04946077442299029,0.17464879042077816
30,0.1425172000017482,-0.0006052281044014367,-0.003885626563715906,-0.004072807458346349,0.007149653194795098,0.038970450579161535,0.014562608491147528,0.030445960386600787,0.13195635223343127,0.07296637459083224,0.04544583717969456,0.04676060517329614,0.17781651058512402
31,0.1467925000033574,-0.0006349173482371352,-0.004033825747797057,-0.0041437412545053546,0.007385521549402526,0.04014188911065253,0.015082850295758022,0.03116350722157639,0.1345884760461945,0.07492426881199485,0.04566644068585499,0.043690428828096164,0.18077110695743212
32,0.1522394000057829,-0.0006349173482371352,-0.004033825747797057,-0.0041437412545053546,0.007620592939117033,0.04130143704851044,0.015604050071497677,0.031860088483551256,0.13709886944660965,0.07684655786894172,0.04579385005717721,0.04025293410829145,0.18351132733090667
33,0.1563849000085611,-0.0008610038748413339,-0.004244230362319833,-0.004172749735014128,0.007854796520139663,0.042448665490472555,0.016126100282253517,0.03253536481276908,0.13948623361223478,0.07873248601722026,0.045828054580090906,0.03645115419956084,0.1860360919045344
34,0.1610254000115674,-0.0007500658254286411,-0.004466093034902903,-0.0042651541178728315,0.008088062173756098,0.043583153909274204,0.01664889415263589,0.03318901165642051,0.14174936086657566,0.08058132413061919,0.045769121420245175,0.03228846458900872,0.1883444941267275
35,0.1648615000012796,-0.0007861504312126448,-0.004609760053744749,-0.004308242948004012,0.008320320546080305,0.044704490413595824,0.017172325731051492,0.03382071949626422,0.14388713561303149,0.08239237019172652,0.04561719560707582,0.02776858052626465,0.19043580135731478
36,0.169019400011166,-0.0008552116589524187,-0.004744972342838736,-0.004342967592700243,0.008551503086719953,0.04581227199947604,0.017696289951204223,0.03443019406102649,0.14589853517631773,0.08416494975402057,0.04537249993666119,0.02289555411130712,0.1923094553472388
37,0.1769882000080542,-0.0009054657568583369,-0.004875631802996396,-0.004335650018071269,0.008781542086330857,0.04690610479198146,0.018220682691968564,0.03501715652339308,0.14778263055060456,0.08589841637508724,0.04503533479295873,0.017673771011758394,0.19396507253554324
38,0.1816470000048866,-0.0009512293692511617,-0.004966008851619537,-0.004341070690191184,0.00901037071302924,0.04798560427693696,0.018745400835582585,0.03558134368142636,0.14953858705372233,0.08759215202059238,0.04460607788761617,0.012107946812869107,0.19540244416346342
39,0.1854738000110956,-0.0010164736221588925,-0.005061946068702999,-0.004308501317392043,0.009237923047632216,0.049050395522533305,0.019270342324110262,0.03612250812425973,0.15116566488690186,0.08924556743867501,0.04408518391865236,0.006203123003878616,0.19662153620566028
40,0.1898282000038307,-0.001072082012219799,-0.005158956261577825,-0.004282751803279248,0.009464134117698626,0.0501001133906419,0.019795406214125264,0.03664041838194074,0.15266321959963128,0.09085810250446442,0.043473184148403725,-3.533739509985701e-05,0.19762248911886432
41,0.1931066000106511,-0.0011248943438642216,-0.005245811293159931,-0.004258481565684818,0.009688939930343962,0.051134402737679885,0.020320492729570906,0.03713485905931383,0.154030702459327,0.09242922653446081,0.042770685901232404,-0.00660175456106294,0.19840561740842333
42,0.1967863000027137,-0.0011791087111355826,-0.005328024097868084,-0.004225619952926104,0.009912277503804788,0.05215291860488182,0.020845503312753682,0.03760563095385301,0.15526766072563147,0.09395843857055697,0.04197837198159182,-0.013490136945911694,0.19897140901347438
43,0.2016919000016059,-0.001236140182948105,-0.005421262011135346,-0.004211867241803738,0.010134084897729765,0.053155326397847945,0.021370340673430372,0.038052551157374374,0.1563737378292645,0.09544526763351559,0.041097000013143946,-0.020694186698554197,0.19932052451168403
44,0.207224000012502,-0.0012860878840161632,-0.005507570504697407,-0.004185217538787607,0.010354301242176053,0.054141302055252506,0.021894908835951403,0.038475453141577944,0.15734867345547196,0.09688927294575382,0.04012740169972036,-0.028207305425375643,0.19945379614472278
45,0.2108977000025333,-0.0013177367337990052,-0.0055971123270534195,-0.004129072262755236,0.010572866765291624,0.055110532206609324,0.022419113184425656,0.0388741868273876,0.15819230353222838,0.09829004412332439,0.03907048200901557,-0.036022600282705805,0.19937222666586057
46,0.2148630000010598,-0.0013630504828641733,-0.005679775825910088,-0.004103289666453681,0.010789722819665773,0.05606271431900551,0.022942860505874716,0.03924861863807747,0.15890456012346466,0.09964720133702042,0.03792721827999583,-0.04413289039449249,0.1990769880112893
47,0.218184100012877,-0.001428951287971181,-0.005721398125932165,-0.004003621426373426,0.01100481190733186,0.056997556832727864,0.023466059031347224,0.03959863153619258,0.15948547122770423,0.10096039544256877,0.036698659255100456,-0.05253071358797753,0.19856941979699308
48,0.2218359000107739,-0.001428951287971181,-0.005721398125932165,-0.004003621426373426,0.011218077703408129,0.05791477928572013,0.023988618474966795,0.03992412504429083,0.15993516048260373,0.10222930807991354,0.035385924038404855,-0.061208333439769565,0.19785102764319978
49,0.2267085000057704,-0.0016087854341637977,-0.005867833516799729,-0.003928843002238648,0.01142946507836415,0.058814112426822725,0.024510450070889808,0.04022501524955252,0.16025384677600485,0.10345365174162822,0.03399020098100477,-0.07015774662431577,0.1969234813286573
50,0.2302848000108497,-0.001517849234768269,-0.005974194088275859,-0.003828764033178531,0.011638920118902224,0.0596952983177603,0.025031466608152173,0.040501234792322496,0.16044184376421497,0.10463316981053154,0.0325127464949699,-0.0793706905563935,0.19578861277718296
51,0.2335393000103067,-0.0014959058002045932,-0.006055979929819843,-0.0037561581528532915,0.011846390147444827,0.06055809042385618,0.025551582463386856,0.040752732838669134,0.16049955929834311,0.10576763656661844,0.030954883797301595,-0.088838651318873,0.19444841387913742
52,0.2374255000031553,-0.001537938562785624,-0.0061257726123970764,-0.003685528946921677,0.012051823740220999,0.06140225369346644,0.026070713631396757,0.04097947503706296,0.16042749475962412,0.10685685716345464,0.02931800158541376,-0.0985528718666446,0.1929050341506731
53,0.2420372000051429,-0.0015846052835385913,-0.006252479280379018,-0.003531208769106154,0.012255170743946211,0.062227564626139376,0.02658877775357019,0.04118144345929623,0.16022624430476962,0.10790066757421854,0.027603552645738872,-0.10850436049725816,0.1911607782337994
54,0.245887600001879,-0.001573944668384719,-0.0063295272561469,-0.0034636313125349007,0.012456382291092121,0.06303381132951977,0.02710569414412893,0.04135863652578268,0.15989649402248776,0.10889893450760983,0.025813052397140865,-0.11868389957849015,0.18921810324049604
55,0.2535748000082094,-0.0016122842412236136,-0.0064001436565282125,-0.0033961787019248573,0.012655410813744274,0.06382079356503029,0.027621383814201702,0.0415110689153945,0.1594390210024153,0.10985155529387902,0.023948077370894428,-0.12908205452273452,0.18707961594429004
56,0.257186200004071,-0.001640613295071975,-0.006480995719583739,-0.0033030118659543796,0.01285221005604754,0.06458832278237552,0.02813576949371858,0.041638771460011645,0.1588546923178058,0.11075845774126643,0.022010263629065288,-0.13968918299780747,0.18474806982289277
57,0.2605634000065038,-0.0016739851423675403,-0.00660945124998537,-0.0030598283713790396,0.013046735085240792,0.06533622214292625,0.028648775651124635,0.041741791023975426,0.15814446392341394,0.11161959996317287,0.020001305123198723,-0.15049544436346454,0.1822263619556669
58,0.2653853000083472,-0.0017318848331923209,-0.006708999311854049,-0.0029361948078540723,0.013238942301284065,0.06606432653205498,0.029160328510913748,0.04182019036865573,0.1573093794701122,0.11243497017641692,0.017922951995293326,-0.16149080932265197,0.17951752977986302
59,0.2688539000082528,-0.001772985288749913,-0.006786420571412143,-0.002818210851835168,0.013428789445083024,0.066772482560506,0.029670356068986183,0.041874048002357604,0.1563505690378695,0.11320458647096687,0.015777008823104274,-0.17266506977625268,0.17662474770972816
60,0.2731432000000495,-0.001774481289822851,-0.006853912046558966,-0.0027255972750448183,0.013616235605317297,0.06746054855489586,0.03017878810583603,0.04190345801580923,0.15526924778881204,0.11392849655156766,0.013565332811884667,-0.1840078488698396,0.1735513236227451
61,0.2773091000126442,-0.001815436753659144,-0.0069658128550682315,-0.0026178805230845283,0.013801241223880841,0.06812839453745188,0.030685556197577374,0.041908529903489346,0.1540667145421722,0.11460677745171298,0.011289831934734864,-0.19550861122071864,0.1703006952174119
62,0.2814881000085734,-0.0018829156562024645,-0.007116612068988374,-0.0025612058511613996,0.013983768099944102,0.06877590219510797,0.031190593724820404,0.041889388371067066,0.1527443502730171,0.11523953522044471,0.008952463023788033,-0.20715667331332788,0.16687642624711488
63,0.2855064000032143,-0.001910646761975343,-0.0072217496377536446,-0.0024470255314433574,0.014163779392649272,0.06940296483808867,0.031693835879411304,0.0418461731292425,0.1513036165367308,0.11582690458248979,0.006555229814515146,-0.21894121405086048,0.16328220263478682
64,0.2900313999998616,-0.0019428702559823956,-0.007299983007881364,-0.002311900368006132,0.014341239622451547,0.07000948734812346,0.03219521966905234,0.04177903867429079,0.1497460538213028,0.11636904857227395,0.004100180945484961,-0.23085128545079517,0.15952182847317387
65,0.2942705000023125,-0.0019428702559823956,-0.007299983007881364,-0.002311900368006132,0.014516114671120786,0.0705953861164444,0.03269468391982105,0.04168815405562628,0.14807327982955254,0.11686615814237927,0.0015894079159631874,-0.24287582347185305,0.1555992219156593
66,0.2981758000096306,-0.0019428702559823956,-0.007299983007881364,-0.002311900368006132,0.014688371780419361,0.0711605889717308,0.03319216927660986,0.04157370263071694,0.14628698769349147,0.1173184517470398,-0.0009749569962192785,-0.2550036589597496,0.15151841096270957
67,0.3023917000100482,-0.0019428702559823956,-0.007299983007881364,-0.002311900368006132,0.01485797954947349,0.0717050350981755,0.03368761820150974,0.04143588180769225,0.14438894412309516,0.1177261749012958,-0.0035907428540569142,-0.2672235286989773,0.14728352914911852
68,0.3066934000089532,-0.00219915205304205,-0.007463282456355601,-0.0021060887566056036,0.015024907930856701,0.07222867494385661,0.034180974970163716,0.04127490277600025,0.1423809874918247,0.11808959971645137,-0.006255742215507893,-0.2795240865577398,0.14289881113732966
69,0.3107464000058826,-0.0020898124814665263,-0.007669130263219835,-0.0014786183247540569,0.01518912822540554,0.07273147011960873,0.03467218566611853,0.04109099022548164,0.14026502586129905,0.1184090244125045,-0.00896771331983361,-0.29189391471305876,0.13836858822221199
70,0.3151214000099571,-0.0021129413214689445,-0.00775808795207645,-0.0013223489049296446,0.015350613075788876,0.07321339328859702,0.035161198173204886,0.04088438205424013,0.13804303494758027,0.11868477280824176,-0.011724382303560793,-0.3043215349429951,0.13369728375275264
71,0.3200484000117285,-0.002163051821904411,-0.007866039173389952,-0.0011541671123265753,0.015509336458853471,0.07367442804680725,0.03564796216597864,0.04065532906569949,0.13571705603158932,0.11891719378971255,-0.014523445443458955,-0.31679541997285976,0.12888940847621186
72,0.323546500003431,-0.0022102649968380895,-0.007934556751520317,-0.000999475258936792,0.01566527367676967,0.07411456879467315,0.036132429098257195,0.040404094655247594,0.13328919381622287,0.1191066607578176,-0.017362571423900852,-0.32930400486224454,0.12394955581035876
73,0.3274080000119284,-0.0022432381256418704,-0.008016748307184862,-0.0008414716771205791,0.01581840134700239,0.07453382060007108,0.03661455218978765,0.0401309544868776,0.1307616142327923,0.11925357105576673,-0.02023940362595197,-0.3418356984196726,0.11888239704947183
74,0.3312624000100186,-0.0022432381256418704,-0.008016748307184862,-0.0008414716771205791,0.01596869739113374,0.07493219905291965,0.037094286411085094,0.0398361961602454,0.12813654219945125,0.11935834537717939,-0.023151562435516974,-0.3543788946316592,0.11369267650984759
75,0.3354144000040833,-0.0024733710735403316,-0.00814401076122441,-0.0006837401863232688,0.016116141022564666,0.07530973011162978,0.03757158846648105,0.03952011886857136,0.12541625933432068,0.11942142715561903,-0.026096647567856446,-0.36692198409297744,0.10838520662061121
76,0.3396975000068778,-0.0023672637103713135,-0.008199704192400587,-0.0003587396844268664,0.016260712733124114,0.07566644994165801,0.03804641677542378,0.03918303304782216,0.12260310162605867,0.11944328193636897,-0.029072240405776256,-0.3794533654249451,0.10296486296566634
77,0.3438323000009404,-0.002379906585923435,-0.008232909205213293,-0.00018348230393133887,0.016402394278615194,0.07600240474642266,0.03851873145207416,0.038825260017616055,0.11969945706465542,0.11942439673127339,-0.032075906348784385,-0.39196145666859167,0.09743657928265494
78,0.3482480000093346,-0.0024285724371623874,-0.008301339135158391,-2.7614240219370895e-05,0.016541168663328956,0.07631765059084868,0.03898849428324269,0.038447131614301557,0.1167077632352663,0.11936527935748163,-0.03510519717050627,-0.40443470663962094,0.09180534242482714
79,0.3522449000010965,-0.002492813819438832,-0.008393533127754428,0.00016311200523850742,0.01667702012355726,0.07661225321781355,0.03945566870471444,0.03804898981666558,0.1136305048779226,0.1192664577609462,-0.038157653381649004,-0.4168616062321601,0.08607618729174017
80,0.3561220000119647,-0.002543812663037263,-0.008464587828122415,0.00034386406399657533,0.016809934110137016,0.07688628785777182,0.03992021977601049,0.03763118636473291,0.11047021141598266,0.11912847932553677,-0.0412308065958079,-0.42923069965837174,0.08025419173471728
81,0.3603051000100095,-0.002612986596297355,-0.008542871572590061,0.0005149504425896648,0.016939897270058908,0.0771398390318412,0.04038211415363585,0.03719408237212393,0.10722945445620634,0.11895191016864354,-0.044322181895415404,-0.44153059561111563,0.07434447144300273
82,0.3689927000086754,-0.0026482665960452663,-0.008583832384964254,0.0007034139489141787,0.017066897427174436,0.07737300034863821,0.04084132006286522,0.036738047932441946,0.10391084526335195,0.11873733442415386,-0.04742930019514253,-0.4537499783369681,0.0683521748165449
83,0.3738502000051085,-0.00270826026445879,-0.008648017856312199,0.0009042313803866967,0.01719092356203596,0.07758587429515575,0.04129780726811918,0.03626346172016459,0.1005170322122073,0.1184853535136937,-0.05054968060007636,-0.4658776186070469,0.06228247783132867
84,0.3774902000004658,-0.0027465465035293158,-0.008690907891083195,0.0010873559878410973,0.017311965790905014,0.0777785720219791,0.041751547041984576,0.03577071058651713,0.09705069821997535,0.11819658540703229,-0.05368084275601407,-0.47790238457324474,0.05614057890315995
85,0.3816614000097615,-0.0027942574606233035,-0.00874146406189636,0.0012756369231217413,0.017430015343964846,0.07795121312314061,0.042202512132934154,0.03526018915080802,0.09351455816194035,0.11787166387255486,-0.05682030918923357,-0.4898132524976475,0.049931693755779084
86,0.3851744000130566,-0.0028238143916378884,-0.008765088074701369,0.0014857695952324923,0.017545064542773853,0.07810392541091561,0.04265067673180147,0.034732299387708825,0.08991135627334113,0.11751123771871382,-0.05996560763312438,-0.5015993173430988,0.043661050299146686
87,0.3898331000091275,-0.0029012303681794963,-0.008788441325947303,0.0016694555948803798,0.01765710677699703,0.07823684468586534,0.04309601643706798,0.03418745021096178,0.08624386354037539,0.11711597002737223,-0.0631142733390889,-0.5132498032130742,0.03733388352370507
88,0.394606300003943,-0.0029148486198155073,-0.00882023797217552,0.0018875634883331917,0.017766136480453092,0.07835011450243516,0.04353850821901949,0.03362605705399891,0.08251487508325328,0.1166865373799561,-0.0662638513691547,-0.5247540736292428,0.030955430416369976
89,0.3980876999994507,-0.0029148486198155073,-0.00882023797217552,0.0018875634883331917,0.017872149106515123,0.07844388593041848,0.04397813038283054,0.033048541447956575,0.07872720753420845,0.1162236290773327,-0.06941189886777113,-0.5361016416353268,0.024530924903952502
90,0.4025828000012552,-0.0032353682405495705,-0.0089187043433284,0.0020496593791006056,0.017975141102903214,0.07851831731259833,0.044414862530635875,0.03245533059756902,0.07488369641336155,0.11572794635433337,-0.0725559873102994,-0.5472821797161133,0.01806559282964913
91,0.4066540000058012,-0.0030412819295482824,-0.008917223636590366,0.0025371094687228362,0.018075109885907627,0.07857357401887988,0.044848685522648896,0.03184685695542317,0.07098719350531472,0.11520020158983739,-0.07569370472574519,-0.5582855295207241,0.01156464696816891
92,0.4123854000063147,-0.0031012283404136505,-0.0089679979685248,0.0027451730875445728,0.018172053814081303,0.07860982819722769,0.04527958143738752,0.031223557795054944,0.06704056423933538,0.1146411175133324,-0.07882265789132449,-0.5691017113795251,0.005033282084991127
93,0.4165756000002147,-0.003173740676546739,-0.008986155628439204,0.0029996057972500184,0.018265972161440762,0.07862725852172174,0.04570753353106784,0.030585874783365292,0.06304668507596406,0.11405142640886333,-0.08194047449649774,-0.5797209336043403,-0.001523329954835401
94,0.4208473000035155,-0.0032342643294780227,-0.008993068232724626,0.0032286841588572107,0.018356865090214704,0.07862604993804709,0.0461325261962268,0.029934253552830907,0.059008440902854196,0.11343186931727732,-0.08504480527415527,-0.5901336015619303,-0.008100045023028708
95,0.4248463000112679,-0.0032784137514490345,-0.008989478794496405,0.0034406000285288766,0.018444733623179718,0.07860639340673055,0.04655454491963557,0.029269143273981064,0.0549287224426219,0.112783195237667,-0.08813332609668714,-0.6003303265110083,-0.014691751504317934
96,0.4292423000006238,-0.0035270464169821977,-0.009067162139434428,0.003682039322009468,0.018529579615622557,0.07856848564443732,0.04697357623956504,0.028590996228608084,0.05081042367544959,0.112106160328908,-0.09120374003472399,-0.6103019341933795,-0.021293375007468668
97,0.4337424000113969,-0.0033914649512575687,-0.00894751881557522,0.004078619324032404,0.018611405726968375,0.07851252886363859,0.04738960770246549,0.027900267384174365,0.046656439279151134,0.11140152711217863,-0.094253779376391,-0.6200394731701226,-0.027899883006069468
98,0.4390019000129541,-0.0033981866552678765,-0.008955123964123804,0.004270258027666422,0.01869021539211436,0.07843873051096072,0.047802627819122416,0.02719741396987367,0.04246966208936616,0.11067006367534209,-0.09728120760497541,-0.6295342228940669,-0.03450628940417229
99,0.4463263000070583,-0.0034261256476059514,-0.008949682115052017,0.004530964541224153,0.01876601279250795,0.07834730300452399,0.048212626020350015,0.02648289505479873,0.03825298058250872,0.10991254288006182,-0.10028382133296847,-0.6387777015101743,-0.04110765902199779
100,0.4531527000071946,-0.0034456489520655036,-0.008920094884075516,0.004796853955534195,0.0188388028270087,0.07823846347057699,0.048619592612283845,0.025757171128661053,0.03400927638404965,0.10912974157251078,-0.10325945219050495,-0.647761673375795,-0.04769911199704006
101,0.4572600000101374,-0.00352253455853201,-0.008918116107073118,0.005060004958354159,0.018908591082572864,0.0781124334797296,0.04902351873133421,0.025020703685502174,0.029741421804663493,0.10832243979852255,-0.10620596866628895,-0.6564781562931276,-0.054275828096034005
102,0.4617718000081368,-0.0035682671285771107,-0.008908176926768001,0.0053375857933756505,0.01897538380479929,0.07796943878308507,0.04942439629886153,0.024273954810828422,0.025452277406719764,0.10749142002402108,-0.10912127789916119,-0.6649194284465982,-0.060833050933382364
103,0.4671974000084447,-0.0035943782907678187,-0.008908885689671225,0.005581903967162422,0.019039187868375034,0.07780970904856802,0.04982221797563452,0.0235173867725936,0.021144689603544025,0.10663746636155282,-0.11200332741853176,-0.6730780350382588,-0.06736609209177791
104,0.471506900008535,-0.0035943782907678187,-0.008908885689671225,0.005581903967162422,0.019100010747458703,0.07763347759774164,0.05021697711613159,0.022751461616446013,0.016821488293817865,0.10576136380372944,-0.11485010683197355,-0.6809467946146893,-0.07387033514089957
105,0.4768010000116192,-0.003774553687099675,-0.008990983954611552,0.005861543549297166,0.01915786048603925,0.07744098114340332,0.050608667722745464,0.021976640765647683,0.012485484533428145,0.10486389746437492,-0.11765964945834365,-0.6885188050792908,-0.08034123955020858
106,0.481130000000121,-0.003774553687099675,-0.008990983954611552,0.005861543549297166,0.01921274566830753,0.07723245952824392,0.05099728439995033,0.021193384626064658,0.008139468247014281,0.10394585182815448,-0.12043003390487425,-0.6957874493842581,-0.08677434449202208
107,0.4866237000096589,-0.003814386405149581,-0.00892058228027255,0.006296109210167518,0.0192646753890774,0.077008155464851,0.05138282230849046,0.020402152196618,0.003786205981398667,0.10300801000944634,-0.12315938558674977,-0.7027464008969329,-0.09316527253119743
108,0.4903427000099327,-0.00363429702593385,-0.008772469777875104,0.006695765413218985,0.019313659224292602,0.07676831427733176,0.05176527711964858,0.019603400685575263,-0.0005715612969805633,0.10205115302119928,-0.12584587818776405,-0.7093896284356525,-0.09950973319791953
109,0.4946902000083355,-0.0036008375090597184,-0.008696505199063736,0.006970260993693238,0.01935970720165528,0.07651318364482583,0.05214464496965146,0.018797585133052006,-0.004931120358583161,0.10107605905450064,-0.1284877350607315,-0.7157114009706292,-0.10580352644024495
110,0.4986799000034807,-0.003602558101678731,-0.008642510833758204,0.007188911107821722,0.019402829771411195,0.07624301334717304,0.052520922414269304,0.017985158040082275,-0.009289787819245391,0.10008350276956116,-0.13108323056640486,-0.7217062919858187,-0.11204254595322259
111,0.5022440000029746,-0.003602558101678731,-0.008642510833758204,0.007188911107821722,0.019443037777326307,0.0759580550129961,0.052894106383665,0.01716656900460611,-0.013644912198714132,0.09907425459880316,-0.1336306913497339,-0.7273691834981605,-0.11822278238157902
112,0.5062922000070103,-0.003812096743594916,-0.008695152071154965,0.007450803513563982,0.019480342427888552,0.07565856187045156,0.053264194137548106,0.01634226436471098,-0.017993875927400486,0.09804908006271786,-0.1361284975523802,-0.7326952697310066,-0.1243403263931277
113,0.5100210000091465,-0.003812096743594916,-0.008695152071154965,0.007450803513563982,0.019514755267768025,0.07534478850089636,0.05363118322068767,0.015512686849452713,-0.02233409729959218,0.09700873909913668,-0.138575083960487,-0.737680060438981,-0.13039137162023512
114,0.5146563000016613,-0.003812096743594916,-0.008695152071154965,0.007450803513563982,0.019546288149568148,0.07501699059571103,0.053995071418836506,0.014678275237569486,-0.026663032371440843,0.09595398540654006,-0.14096894108678637,-0.7423193838819434,-0.13637221746685269
115,0.5188045000104466,-0.0036615149910460545,-0.008357693555454055,0.008432731766512947,0.019574953205899644,0.07467542471651338,0.05435585671511884,0.013839464024390447,-0.03097817680211831,0.09488556580200459,-0.14330861618621032,-0.7466093894461701,-0.14227927177880184
116,0.5225006000109715,-0.0036231333101545884,-0.00829244599931828,0.008641341633810487,0.01960076282180835,0.0743203480589898,0.05471353724693194,0.012996683097228175,-0.035277067636615866,0.09380421959436788,-0.145592714204256,-0.7505465499112962,-0.14810905337517902
117,0.5273198000068078,-0.0036026316636335203,-0.008232939514419972,0.008885442293709486,0.019623729607586994,0.07395201822056349,0.05506811126341135,0.012150357419531488,-0.03955728502874103,0.09271067797316596,-0.14781989865744152,-0.7541276633619971,-0.1538581944389286
118,0.5314407000114443,-0.003499859534567123,-0.008075020115133807,0.009345788970058567,0.019643866372000125,0.07357069297211277,0.05541957708350788,0.01130090672406232,-0.04381645390294823,0.09160566341387527,-0.1499888924452744,-0.7573498547438168,-0.1595234427648141
119,0.5352308000001358,-0.00347132670302174,-0.007998145092339076,0.009575786141377418,0.01966118609595066,0.0731766300339443,0.055767933054723495,0.01044874521534735,-0.04805224555372297,0.09048988909996686,-0.15209847859324105,-0.7602105770629821,-0.16510166386320155
120,0.5396455000009155,-0.003438095623355277,-0.007791245611414678,0.010133173780896733,0.019675701906615634,0.07277008685621891,0.05611317751255184,0.009594281281641862,-0.05226237918132251,0.08936405836225611,-0.15414750092640897,-0.7627076122304731,-0.17058984291825188
121,0.5432662000093842,-0.0034417212241111624,-0.007663987562830256,0.010398685311028902,0.019687427052077752,0.07235132040401973,0.05645530874066733,0.008737917216629901,-0.05644462336276041,0.0882288641360063,-0.1561348646733216,-0.7648390715510441,-0.1759850865993035
122,0.547020900005009,-0.0034417212241111624,-0.007663987562830256,0.010398685311028902,0.019696374876478438,0.0719205869472445,0.05679432493190577,0.007880048951071328,-0.06059679745700753,0.08708498843621877,-0.15805953699995073,-0.7666033958583214,-0.18128462472441123
123,0.5510301000031177,-0.0036168932461349526,-0.007660748080014944,0.010748815199985991,0.019702558795717074,0.07147814185549661,0.05713022415007783,0.007021065794592655,-0.06471677294346782,0.08593310185151745,-0.15992054747355666,-0.7679993552975208,-0.1864858117751929
124,0.5556328000093345,-0.0033822497195979346,-0.0072464171431994295,0.01139059758758819,0.019705992273720257,0.07102423939814093,0.05746300429265493,0.0061613501878047434,-0.06880247469287298,0.08477386305700953,-0.16171698845639154,-0.7690260487577435,-0.1915861282623203
125,0.5602205000031972,-0.0033567070196470674,-0.007112157482647742,0.01167692457052795,0.019706688799303873,0.07055913254968216,0.057792663054366145,0.005301277464916587,-0.07285188216982649,0.0836079183464784,-0.1634480154292652,-0.7696829029562205,-0.19658318194117366
126,0.5637310000020079,-0.0033567070196470674,-0.007112157482647742,0.01167692457052795,0.019704661863649827,0.0700830728006153,0.05811919789174298,0.004441215627000415,-0.0768630305663142,0.08243590118423871,-0.16511284724507724,-0.7699696711772874,-0.20147470887736327
127,0.5675484000094002,-0.0036113452179971106,-0.007026165800441336,0.011951827014212362,0.019699924938418257,0.06959630997388902,0.058442605988647395,0.003581525126049389,-0.08083401186558574,0.08125843177695709,-0.16671076631250206,-0.7698864316692638,-0.20625857436200232
128,0.5711942000052659,-0.0033031151656989026,-0.0062966309472699605,0.013301384040760693,0.019692491454514904,0.06909909204711392,0.05876288422281638,0.0027225586599550888,-0.08476297583589755,0.08007611666571628,-0.16824111871009698,-0.7694335857028091,-0.2109327736767975
129,0.577563500002725,-0.003290129201687794,-0.006079813645669075,0.013693331222129668,0.01968237478153213,0.06859166498063948,0.059080029133455565,0.0018646609785178895,-0.0886481309536944,0.07888954833857373,-0.16970331423118448,-0.7686118552947172,-0.21549543270920382
130,0.5812884000042686,-0.003303363823290327,-0.005881326745354688,0.014091527650163622,0.019669588207881016,0.0680742725516144,0.0593940368899126,0.0010081687005892778,-0.09248774525589289,0.07769930486383837,-0.17109682635994097,-0.767422280601493,-0.21994480841806838
131,0.5854911000060383,-0.0033219743833541133,-0.005617711999695958,0.014522365609595305,0.01965414492163092,0.06754715619413687,0.059704903261459163,0.00015341014243108332,-0.09628014712101639,0.07650594954426373,-0.17242119217920285,-0.765866216987425,-0.22427928915036388
132,0.5903551000083098,-0.0033219743833541133,-0.005617711999695958,0.014522365609595305,0.01963605799207178,0.06701055484559278,0.06001262358820866,-0.0006992948426374211,-0.10002372597901683,0.0753100305923292,-0.17367601221057952,-0.7639453317722406,-0.2284973948097875
133,0.5942899000074249,-0.0034868352004414883,-0.00544831015101309,0.01498919098754239,0.01961534035201347,0.06646470479927012,0.06031719275319536,-0.0015496350132475896,-0.10371693294970254,0.07411208082675476,-0.17486095018754103,-0.7616616006637862,-0.23259777687817276
134,0.5982187000045087,-0.003277305166007935,-0.00488822037974785,0.01567373951697539,0.019592004780835438,0.06590983956332983,0.060618605155638806,-0.002397307877601591,-0.10735828140977606,0.07291261739036813,-0.17597573276222236,-0.7590173038815212,-0.23657921829083173
135,0.6021910000126809,-0.0032769567163955403,-0.00402840384994282,0.016770093210938728,0.01956606388829883,0.06534618972620448,0.060916854685415536,-0.003242019819675502,-0.11094634748856957,0.07171214148941682,-0.17702014914676104,-0.7560150219769534,-0.24044063316711262
136,0.6075743000110378,-0.003260946993983835,-0.003724547653953118,0.017170530982052436,0.01953753009913202,0.06477398282848729,0.061211934698758574,-0.0040834862139898275,-0.11447977049264761,0.07051113815439183,-0.1779940506900574,-0.7526576313574677,-0.2441810663976229
137,0.6118867000041064,-0.003260946993983835,-0.003724547653953118,0.017170530982052436,0.019506415638399548,0.06419344324136526,0.06150383799520358,-0.004921431528945591,-0.11795725325952873,0.06931007602240322,-0.17889735039091917,-0.7489482995203277,-0.24779969308972868
138,0.6153289000067161,-0.0034477531597617425,-0.0035036490381131482,0.017574223170957755,0.019472732517663283,0.06360479205164264,0.06179255679579845,-0.00575558941873763,-0.12137756244085816,0.06810940714112289,-0.17973002234862062,-0.7448904800039381,-0.2512958178730977
139,0.6192375000100583,-0.0032272004183084417,-0.0028174451263060256,0.018338009557929556,0.019436492521943554,0.06300824695339112,0.062078082722591986,-0.00658570280387004,-0.12473952871544293,0.06690956679428428,-0.18049210115197376,-0.7404879070637593,-0.2546688740672088
140,0.6229350000066916,-0.0034214114128141918,-0.0025063284727389694,0.018648210993408663,0.019397707197486826,0.062404022146256115,0.06236040677941514,-0.007411523940311918,-0.12804204693263915,0.06571097334870281,-0.18118368120807626,-0.7357445900805504,-0.25791842271290183
141,0.6264037000073586,-0.0030346496989414077,-0.001619538449250198,0.019451331053269322,0.01935638784034544,0.061792328240438406,0.06263951933396684,-0.008232814477344558,-0.13128407618665747,0.06451402812275668,-0.1818049160119642,-0.7306648077088937,-0.26104415147018944
142,0.630151500008651,-0.0030346496989414077,-0.001619538449250198,0.019451331053269322,0.01931254548577387,0.06117337216836301,0.06291541010121461,-0.009049345504164032,-0.13446463982242818,0.0633191152762428,-0.1823560173584594,-0.7252531017742226,-0.2640458733846942
143,0.6362786000099732,-0.003116334304420691,-0.0013217817055846846,0.019813006077751334,0.019266190898444908,0.0605473571030383,0.06318806812811835,-0.009860897585315744,-0.1375828253737426,0.0621266017214988,-0.18283725449756225,-0.7195142709268213,-0.2669235255252165
144,0.6401401000039186,-0.002755812568217255,-0.0003740559866502115,0.02047487846987567,0.01921733456348808,0.05991448238310071,0.06345748177968465,-0.010667260785049917,-0.1406377844344584,0.060936837055657916,-0.18324895323479834,-0.7134533640615128,-0.2696771674950719
145,0.6437953999993624,-0.0026299814677256668,0.00015513001457073163,0.02085414203619297,0.01916598667835168,0.059274943444532234,0.0637236387263569,-0.011468234680699132,-0.14362873246362845,0.059750153513879974,-0.18359149497798305,-0.7070756735119804,-0.27230697981996993
146,0.6482240000041202,-0.0024925645510149533,0.0006181610665736297,0.021198393402996108,0.019112157145488574,0.058628931759029876,0.06398652593274481,-0.012263628365190918,-0.14655494852548082,0.05856686594337922,-0.1838653157319215,-0.7003867280288815,-0.27481326221533187
147,0.6525631000113208,-0.0024925645510149533,0.0006181610665736297,0.021198393402996108,0.019055855565865094,0.05797663477899835,0.06424612964769524,-0.01305326043882017,-0.14941577496524505,0.057387271798047,-0.1840709050426137,-0.6933922855511194,-0.27719643173606895
148,0.6559651999996277,-0.002602469157299081,0.0010205678701131124,0.02149937317560034,0.018997091233291026,0.05731823588912992,0.06450243539570498,-0.013836958990417467,-0.1522106170218862,0.05621165115344512,-0.1842088048925838,-0.6860983257798334,-0.27945702081195506
149,0.6593526000069687,-0.0020509535303120017,0.002295857543203027,0.02230147035465548,0.018935873129567748,0.056653914364527505,0.0647554279696737,-0.014614561568060446,-0.15493894237887043,0.055040266741923784,-0.18427960854899852,-0.6785110425648362,-0.2815956751718435
150,0.6628980000095908,-0.0017654957777098297,0.0034992455787410575,0.02300289827802113,0.01887220992045068,0.05598384533531979,0.06500509142499435,-0.015385915139486265,-0.15760028065414894,0.053873364007597305,-0.1842839593662834,-0.6706368361133992,-0.28361315166008316
151,0.6663807000004454,-0.001620078885812339,0.004090788882885895,0.023363540643429746,0.018806109952421247,0.05530819975770981,0.06525140907497648,-0.016150876042373617,-0.16019422283060558,0.052711171180890345,-0.18422254954498687,-0.6624823050314385,-0.2855103159485922
152,0.6705615000100806,-0.0014244290672208416,0.0047831288175833805,0.02383695296610821,0.018737581250262658,0.05462714439139143,0.0654943634875968,-0.016909309924673113,-0.16272042062827097,0.05155389937234785,-0.1840961188486829,-0.6540542382072936,-0.2872881401481451
153,0.6740908000065247,-0.0012147115454685716,0.005454060645899466,0.024212931608018812,0.01866663151543266,0.053940841783261,0.0657339364835688,-0.017661091675174646,-0.1651785858196616,0.05040174268538209,-0.18390545328073832,-0.6453596065484144,-0.2889477003225237
154,0.6774361999996472,-0.0010041543256666078,0.006162641020641427,0.02455796877658548,0.018593268125225763,0.053249450257344455,0.06597010913572308,-0.018406105344509826,-0.1675684894896549,0.049254878347611164,-0.18365138372280593,-0.6364055545813802,-0.290490173909269
155,0.6816120000003139,-0.0008420915224280133,0.0068932148871043404,0.024943528781145932,0.018517498132716317,0.05255312391085379,0.06620286176968755,-0.01914424405679698,-0.16988996124136277,0.0481134668604254,-0.18333478453693514,-0.6271993919257782,-0.29191683705084887
156,0.6854970999993384,-0.0006198134313494601,0.007635847601908776,0.025384520125004664,0.01843932826747304,0.051852012616280585,0.06643217396585585,-0.01987540991214496,-0.17214288834951436,0.0469776521664005,-0.1829565721332214,-0.6177485846525511,-0.29322906184013814
157,0.6897259000106715,-0.0004168850327285875,0.00842244721711753,0.025800822274169313,0.018358764937034713,0.05114626202942821,0.0666580245626307,-0.020599513880240505,-0.17432721486290456,0.04584756183415951,-0.18251770350494256,-0.6080607465374885,-0.2944283134841783
158,0.6938905999995768,-0.00020223900819343259,0.009276788641071046,0.026200254131085024,0.018275814229135996,0.05043601360327843,0.06688039166092738,-0.021316475685252106,-0.17644294065750923,0.04472330726026963,-0.18201917473315457,-0.5981436302206046,-0.29551614739024795
159,0.6981151000072714,3.6792166187566864e-05,0.010042782340078837,0.026581209743099046,0.01819048191467139,0.049721404607582474,0.06709925262992139,-0.022026223682290933,-0.17849012044190893,0.04360498388774409,-0.1814620194627393,-0.5880051182821809,-0.2964942061783357
160,0.7026237000100082,0.0004997613344390021,0.011867210437267142,0.027386226635569194,0.018102773451384675,0.04900256815406056,0.06731458411402262,-0.022728694725677054,-0.18046886271670373,0.04249267144070451,-0.18084730735191695,-0.5776532142462875,-0.2973642166241609
161,0.7063996000069892,0.0007329860371298393,0.012782903397381917,0.02780186604697006,0.018012693988270434,0.0482796332270889,0.06752636204105768,-0.0234238340292661,-0.18237932868963858,0.04138643417474482,-0.18017614249725108,-0.5670960335226035,-0.298127986536937
162,0.7105977000028361,0.0010334211756773534,0.013791143383941308,0.02812203328553346,0.017920248370673318,0.04755272471974778,0.06773456163164064,-0.02411159501909813,-0.1842217311481924,0.040286321142524416,-0.17944966183618807,-0.5563417942973641,-0.2987874015761184
163,0.7139988000126323,0.0012613730323925267,0.014743364710764857,0.02843368089675261,0.017825441146070306,0.04682196347509963,0.06793915740971093,-0.02479193917863682,-0.185996333291416,0.03919236647410511,-0.1786690335291843,-0.5453988083842474,-0.29934442201140643
164,0.718298700012383,0.0015931812640876423,0.01575389362114555,0.0288212337605663,0.01772827657052043,0.04608746633256105,0.06814012321421625,-0.02546483588687289,-0.18770344752283286,0.03810458967153476,-0.1778354553234825,-0.5342754720459987,-0.29980107943032513
165,0.7230574999994133,0.0018819950980722027,0.016796814658875794,0.029104229813811968,0.017628758615765752,0.04534934617922831,0.0683374322119175,-0.026130262249571195,-0.18934343420624494,0.037022995917169,-0.17695015290060379,-0.5229802567975473,-0.3001594733977024
166,0.7271459000039613,0.0021804955264600008,0.01780720252059469,0.02942609413697247,0.01752689097696678,0.04460771200601171,0.06853105691129131,-0.02678820292394611,-0.19091670038630773,0.0359475763952119,-0.17601437820962487,-0.5115217002013259,-0.30042176807141363
167,0.73133450000023,0.002552863425959966,0.01892688197797769,0.02975426619244065,0.017422677081054896,0.043862668968430156,0.06872096917750464,-0.027438649937054384,-0.19242369847576182,0.03487830862594642,-0.17502940778831075,-0.49990839666543585,-0.3005901887787598
168,0.7403599000099348,0.002552863425959966,0.01892688197797769,0.02975426619244065,0.017316120095683667,0.04311431845191356,0.06890714024843546,-0.02808160249819895,-0.19386492491122775,0.033815156812116526,-0.1739965410741719,-0.4881489882552256,-0.3006670185578655
169,0.7478160000027856,0.0026469699210490702,0.01989503458463452,0.030142808973545904,0.01720722293876056,0.042362758141456985,0.06908954075171206,-0.028717066805641164,-0.19524091877948827,0.032758072196914005,-0.17291709870750993,-0.4762521555287627,-0.3006545946684848
170,0.7521412000060081,0.0035572733366054763,0.022218603621486446,0.03065840178911822,0.017095988288540063,0.04160808209546713,0.06926814072274251,-0.029345055847922377,-0.1965522604161969,0.031706993433015855,-0.17179242082850818,-0.46422660840657554,-0.3005553050766036
171,0.7572031000017887,0.00391075417295521,0.023341719676831567,0.030937490590585086,0.016982418594258676,0.040850380823638885,0.06944290962370535,-0.02996558920009883,-0.19779956997896378,0.03066184696211078,-0.17062386537041363,-0.45208107708593054,-0.3003715849172185
172,0.7609208000067156,0.004313369566021188,0.02457232524070032,0.031223173668721283,0.016866516087291894,0.040089741368696565,0.06961381636347189,-0.030578692815196533,-0.19898350599677983,0.029622547404347475,-0.1694128063508447,-0.43982430300978426,-0.30010591293966493
173,0.7650404000014532,0.004704124748040123,0.0257970935830903,0.03145840639903592,0.01674828279281274,0.03932624739183213,0.06978082931842973,-0.031184398811195314,-0.20010476389774637,0.028588997957132,-0.16816063216324523,-0.42746502990041546,-0.2997608079398493
174,0.769602100001066,0.005107757142804644,0.02696183776769408,0.03170691104109407,0.016627720541930964,0.03855997926167022,0.06994391635417696,-0.03178274525385305,-0.2011640745170822,0.02756109080269675,-0.1668687438704877,-0.41501199486759527,-0.2993388251837187
175,0.7736928000085754,0.005471694688199353,0.028219912180638164,0.03196166523831288,0.01650483098429167,0.037791014146587684,0.07010304484805506,-0.03237377593568253,-0.2021622025873828,0.026538707523859634,-0.16553855350261096,-0.40247391960099643,-0.2988425528262722
176,0.7774733000114793,0.005907791002771888,0.029474699778683222,0.032234018938378795,0.01637961560111184,0.03701942611021346,0.07025818171248822,-0.03295754015139435,-0.20309994521310545,0.025521719527388874,-0.16417148236065487,-0.3898595016563741,-0.29827460833038966
177,0.7814757000014652,0.006254984067419962,0.030741561547401264,0.03238179072811265,0.016252075718632977,0.03624528620993292,0.07040929341909574,-0.033534092470120104,-0.20397813033125273,0.024509988474386377,-0.1627689593285308,-0.37717740584486803,-0.29763763488971345
178,0.7852105000056326,0.006254984067419962,0.030741561547401264,0.03238179072811265,0.016122212521967827,0.035468662598219416,0.07055634602354453,-0.03410349250473046,-0.20479761516021974,0.02350336671710101,-0.16133241919484131,-0.3644362557345857,-0.2969342978597792
179,0.7896601000102237,0.006596235966523043,0.03199522483172906,0.032678481582279956,0.015990027069318805,0.03468962062661442,0.07069930519110798,-0.034665804678562694,-0.20555928463876366,0.022501697741581936,-0.15986330098653342,-0.3516446252734285,-0.2961672812015427
180,0.7956892000074731,0.007564448365863487,0.03465246370313052,0.03308220008335036,0.015855520306545606,0.03390822295217708,0.07083813622289666,-0.035221097989872,-0.20626404985704386,0.021504816615582067,-0.15836304631624035,-0.33881103054191036,-0.29533928394140063
181,0.7999744000117062,0.007968741760844798,0.03606654072865439,0.03322075664920564,0.015718693082059337,0.033124529646223276,0.07097280408272616,-0.03576944577431962,-0.20691284648166955,0.020512550441121984,-0.1568330977451341,-0.3259439216445016,-0.29445301665174983
182,0.8063034000078915,0.00845187770813747,0.037362019293012735,0.0334068024620169,0.01557954616202031,0.03233859830517327,0.07110327342458654,-0.036310925465809975,-0.2075066331766776,0.019524718811125778,-0.15527489716307924,-0.3130516747477988,-0.29351119795606573
183,0.8104431000101613,0.008866998344348592,0.03877687482038832,0.033554842084675414,0.015438080245816409,0.03155048416332714,0.07122950862067802,-0.036845618355987125,-0.20804639002234765,0.01854113426954198,-0.1536898841878406,-0.300142584273588,-0.29251655106241786
184,0.8147925000084797,0.009329478181409327,0.04016839712887142,0.03376748129577373,0.015294295981798867,0.03076024020738714,0.07135147378997714,-0.03737360935269952,-0.20853311693374216,0.01756160277436519,-0.15207949458506037,-0.2872248552546214,-0.291471800329271
185,0.8190366000053473,0.010193110562851486,0.04296491853038439,0.03417406588953371,0.015148193983252204,0.029967917292546317,0.07146913282729798,-0.03789498673773961,-0.20896783208083994,0.016585924162977238,-0.15044515871068057,-0.27430659586068085,-0.29037966786734665
186,0.8271508000034373,0.01057496455541981,0.044550769480824204,0.03431963025772096,0.01499977484457513,0.029173564259963074,0.0715824494328127,-0.03840984192416228,-0.20935157031210702,0.015613892619230537,-0.14878829997744564,-0.2613958101022352,-0.2892428701812441
187,0.8304005000100005,0.01107463511249189,0.04599041658979422,0.03450198862503225,0.01484903915764915,0.028377228055441902,0.07169138714199486,-0.03891826921348274,-0.20968538158332525,0.014645297141700604,-0.1471103333470765,-0.2485003907187347,-0.2880641148544405
188,0.8356525000126567,0.011429692300337335,0.04751475208088046,0.034714706576507826,0.014695987528371705,0.027578953849141604,0.0717959093559493,-0.03942036555305154,-0.209970329393472,0.01367992201253981,-0.14541266384966206,-0.2356281122583106,-0.28684609728120486
189,0.8397927000041818,0.011865408825790564,0.04899800161876825,0.03477323755961827,0.014540620593330646,0.026778785156133234,0.0718959793720922,-0.039916230293900706,-0.21020748922941634,0.01271754726637023,-0.14369668513176795,-0.2227866243553688,-0.28559149744887263
190,0.8438680000108434,0.011865408825790564,0.04899800161876825,0.03477323755961827,0.014382939036596955,0.025976763957631377,0.07199156041514543,-0.04040596494935095,-0.2103979470211662,0.011757949158659648,-0.14196377803471455,-0.20998344521227846,-0.284302976773835
191,0.8485169000050519,0.01208681122129479,0.050420981846981384,0.03485947504002189,0.014222943606612705,0.025172930822723455,0.0720826156684087,-0.040889672954666244,-0.21054279760936934,0.01080090063303181,-0.14021530920442807,-0.19722595529106773,-0.28298317499450243
192,0.8535507000051439,0.01208681122129479,0.050420981846981384,0.03485947504002189,0.014060635133151407,0.02436732503042351,0.07216910830527351,-0.04136745942803735,-0.21064314322673833,0.009846171786969398,-0.13845262973421849,-0.18452139122074124,-0.2816347071244039
193,0.8569963000045391,0.013007236480365938,0.053398845822245244,0.035119573816093944,0.013896014544328024,0.023559984691878613,0.07225100152094287,-0.041839430933170656,-0.2107000919950342,0.008893530335376192,-0.13667707384178573,-0.1718768399255325,-0.28026016046848273
194,0.8605870000028517,0.013911221284238565,0.05667788679605635,0.03527825670677719,0.013729082883636053,0.02275094687255823,0.07232825856432092,-0.042305695243754105,-0.21071475643920626,0.007942742071473472,-0.13488995758170352,-0.15929923297909868,-0.2788620917055486
195,0.8648126000043703,0.014281619157028642,0.05826246586313194,0.035396396484261454,0.013559841326989334,0.0219402477142589,0.07240084277003637,-0.04276636111006623,-0.2106882520202472,0.006993571324514834,-0.1330925775945768,-0.146795341189356,-0.277443024039737
196,0.869294500007527,0.014714726827691078,0.059936468558768274,0.03543790486819128,0.013388291199746426,0.021127922556758886,0.07246871759056468,-0.043221538027988726,-0.21062169568828293,0.006045781413813116,-0.13128620989401438,-0.13437176941834103,-0.2760054444237205
197,0.8729319000121905,0.015070655534512256,0.0616947089264444,0.035613269059803145,0.013214433993695757,0.020314006058960256,0.07253184662841343,-0.04367133601067735,-0.2105162044573743,0.005099135098583242,-0.12947210869250203,-0.12203495164116827,-0.27455180085630637
198,0.8772316000104183,0.01541858385127031,0.06328889644501094,0.03574370297703313,0.013038271383979881,0.019498532319358452,0.07259019366833659,-0.04411586536313967,-0.21037289400346554,0.004153395023115335,-0.12765150526720392,-0.10979114624783555,-0.27308449975693744
199,0.8819790000125067,0.01583109388648043,0.0650366657962146,0.035813381833191826,0.012859805245937543,0.018681534995682262,0.07264372270954308,-0.044555236459962094,-0.2101928772868704,0.0032083241568035183,-0.12582560686666514,-0.09764643159130769,-0.27160590341949936
200,0.885505700003705,0.01610594532732078,0.06680609209692316,0.03600239564224639,0.012679037671842485,0.017863047423550063,0.0726923979978657,-0.04498955952642204,-0.2099772632006411,0.0022636862285672684,-0.12399559565932662,-0.08560670178498676,-0.2701183275477197
201,0.8899011000030441,0.016504486144277106,0.06858656725679436,0.03613056203444939,0.012495970987518422,0.017043102733991424,0.07273618405785717,-0.04541894442321404,-0.20972715524611865,0.001319246155214034,-0.1221626277247069,-0.0736776627523542,-0.2686240388743256
202,0.8936921999993501,0.0167945899655081,0.07034231479692271,0.03619940354840024,0.012310607768809876,0.016221733969686427,0.0727750457247801,-0.045843500435012195,-0.20944365023691497,0.00037477046330409275,-0.12032783208804541,-0.06186482853124481,-0.26712525286600763
203,0.898088200003258,0.01713494375267611,0.07219599472520105,0.03640996864659949,0.012122950857889,0.015398974199778481,0.07280894817645794,-0.04626333606308391,-0.20912783703253085,-0.0005699722959087197,-0.11849230979914326,-0.05017351783488771,-0.26562413151611436
204,0.9024443000089376,0.01713494375267611,0.07219599472520105,0.03640996864659949,0.011933003379378783,0.014574856633119946,0.07283785696495518,-0.04667855882216235,-0.2087807953027634,-0.0015152111388737604,-0.11665713305607754,-0.03860885087152357,-0.26412278122687943
205,0.906372100012959,0.017288080020578248,0.07393264286584947,0.0366347450239726,0.01174076875627356,0.01374941472981354,0.07286173804805483,-0.047089275041777595,-0.20840359432400649,-0.0024611722498778118,-0.11482334437440513,-0.02717574642408282,-0.2626232507828589
206,0.9107141000131378,0.01795333145582809,0.0777291834568135,0.036885012472729614,0.011546250725638096,0.012922682310916369,0.07288055782050284,-0.04749558967223903,-0.20799729180849857,-0.0034080785893031277,-0.11299195580241042,-0.015878919191084747,-0.26112752941713024
207,0.9165283000038472,0.01820467388085371,0.07956228034568573,0.03704834644508992,0.011349453354066997,0.012094693666177308,0.07289428314498876,-0.047897606095453474,-0.20756293276751897,-0.004356149510381656,-0.11116394818289076,-0.004722877389594237,-0.2596375449716769
208,0.9214007000118728,0.018457592554552052,0.08143537205312146,0.03720435519967124,0.011150381052886675,0.011265483659682503,0.07290288138283348,-0.0482954259407557,-0.20710154840948164,-0.005305600384803563,-0.10934027046191294,0.0062880793792490204,-0.25815516215325973
209,0.9268955000006828,0.018585285927425678,0.08339341634997989,0.03731942442479318,0.01094903859308256,0.010435087833287966,0.07290632042435477,-0.04868914890591979,-0.20661415507382255,-0.006256642237523671,-0.10752183904491375,0.017149862001933875,-0.2566821808859486
210,0.9315766000072472,0.018585285927425678,0.08339341634997989,0.03731942442479318,0.010745431119934762,0.009603542507722471,0.07290456871888211,-0.049078872583511964,-0.20610175320152221,-0.007209481391094683,-0.10570953720045624,0.027858593461636078,-0.2552203347613596
211,0.9376740000006976,0.01867494345394249,0.08527924720939925,0.03764272001401735,0.010539564167345878,0.008770884881248197,0.0728975953043932,-0.04946469229273718,-0.20556532634305275,-0.008164319119841083,-0.10390421451189286,0.03841061018506927,-0.2537712895875161
212,0.9414149000076576,0.019082832581618126,0.08916810055441372,0.03796504331237795,0.01033144367184516,0.007937153125770988,0.07288536983674575,-0.0498467009169233,-0.20500584020448376,-0.009121351314172466,-0.10210668637712614,0.04880246312787817,-0.2523366420371246
213,0.9458325000014156,0.019082832581618126,0.08916810055441372,0.03796504331237795,0.010121075986253792,0.007102386480296533,0.07286786261847804,-0.0502249887467784,-0.20442424173242682,-0.01008076815531974,-0.10031773355659772,0.059030918599632116,-0.25091791839592914
214,0.9501366000040434,0.019082832581618126,0.08916810055441372,0.03796504331237795,0.009908467892996528,0.00626662534163326,0.07284504462715295,-0.05059964332954822,-0.20382145823844275,-0.011042753800762119,-0.0985381017695768,0.06909295882978221,-0.2495165734116826
215,0.9566225000016856,0.019159714604606356,0.09101367137583032,0.03823683218158375,0.009693626617045521,0.005429911352247348,0.072816887543221,-0.050970749324192315,-0.20319839656348238,-0.012007486080597197,-0.09676850133875961,0.07898578227624571,-0.2481339892441472
216,0.9607210000103804,0.019177914446957184,0.0949063605416277,0.03859133456076805,0.009476559838482761,0.004592287485179934,0.07278336377737825,-0.05133838836268854,-0.20255594228287607,-0.012975136205090675,-0.09500960688313327,0.08870680367857776,-0.24677147451641168
217,0.9647186000074726,0.019177914446957184,0.0949063605416277,0.03859133456076805,0.009257275704668062,0.0037537981259413056,0.07274444649739613,-0.05170263891756674,-0.20189495895233145,-0.013945868483626448,-0.09326205705899906,0.09825365385798249,-0.2454302634676856
218,0.9688997000048404,0.01949046453722551,0.10093846686826247,0.03926755279113418,0.009035782842000234,0.0029144891513016003,0.07270010965440124,-0.05206357617576394,-0.20121628739534447,-0.014919840055261873,-0.09152645434899344,0.1076241792667014,-0.24411151520761096
219,0.9733250999997836,0.019452773441127297,0.10298027933588189,0.03937295017011085,0.008812090367259579,0.002074408004902312,0.07265032800858354,-0.05242127191888473,-0.20052074503237463,-0.01589720063107717,-0.08980336489888764,0.1168164412895989,-0.24281631307200813
220,0.9786469000100624,0.01951321716153019,0.10504187878435961,0.039689688643558596,0.008586207898520421,0.0012336037696177005,0.07259507715431264,-0.05277579440994204,-0.19980912525207828,-0.01687809224849182,-0.08809331840189044,0.12582871530103942,-0.24154566407985092
221,0.9821312999993096,0.019412241599800095,0.1070705197007185,0.039904309935953675,0.008358145565623013,0.0003921272366000264,0.07253433354464234,-0.05312720828664448,-0.1990821968248412,-0.01786264903770487,-0.08639680803012345,0.13465948948042133,-0.24030049849114718
222,0.9868917999992846,0.019305252905030972,0.1112126952075774,0.04038119561326574,0.008127914020194688,-0.0004499690290526008,0.07246807451518487,-0.053475574461287825,-0.19834070335879694,-0.018850997000399935,-0.08471429041288471,0.14330746338999487,-0.23908166946528345
223,0.9936304000002564,0.01902079674180269,0.11315260526253176,0.04073487425338089,0.00789552444521085,-0.001292630626062106,0.07239627830733689,-0.05382095002729977,-0.19758536279846398,-0.01984325380083992,-0.0830461856612631,0.15177154631884904,-0.23788995281927494
224,0.9979776000109268,0.01892585820498701,0.11733450470613595,0.04105480555163219,0.007660988564086957,-0.002135801258221548,0.07231892409084001,-0.05416338817247844,-0.19681686696608136,-0.020839528569460208,-0.08139287743861362,0.16005085539720101,-0.2367260468852483
225,1.0024852000060491,0.018842142316738072,0.11930117428370413,0.04137029608777234,0.007424318649293281,-0.002979422679178046,0.07223599198566037,-0.05450293809895659,-0.1960358811456696,-0.021839921719053523,-0.07975471307635247,0.16814471348536514,-0.2355905724663708
226,1.0066686000063785,0.01871443303793699,0.12131457468828157,0.04161803484066734,0.007185527530484823,-0.0038234346407892876,0.07214746308317195,-0.05483964494991512,-0.19524304370979223,-0.022844524773623566,-0.07813200373448008,0.1760526468420136,-0.23448407289032816
227,1.0105501000070944,0.018549552019583124,0.12328930462485505,0.04180969160401602,0.006944628602139398,-0.0046677748450905275,0.07205331946662973,-0.05517354974306127,-0.19443896578894096,-0.023853420209968928,-0.07652502460619195,0.18377438257656956,-0.2334070141593441
228,1.014886100005242,0.018342622597501506,0.12517971109276776,0.042052948759759734,0.006701635830697487,-0.005512378899904158,0.07195354423091968,-0.05550468931087816,-0.19362423098341636,-0.02486668131204323,-0.07493401516588896,0.19130984589079236,-0.23235978519562855
229,1.019591300006141,0.018133707554783704,0.12709457105169716,0.04235020977703177,0.0064565637611981265,-0.006357180278119099,0.07184812150157337,-0.05583309624764446,-0.19279939511752567,-0.025884372038121876,-0.07335917945985235,0.19865915711482762,-0.23134269818103842
230,1.0232933000079356,0.017933040439910942,0.1289277547704579,0.04257814288678938,0.006209427523405631,-0.00720211028066251,0.07173703645303521,-0.05615879886321462,-0.19196498603587064,-0.026906546900790557,-0.0718006864388037,0.20582262854319758,-0.2303559889896317
231,1.0272666000091704,0.017758673453443445,0.130760564706947,0.04280171608741,0.005960242837422652,-0.008047098003181557,0.07162027532617242,-0.05648182114354209,-0.19112150344144987,-0.027933250859755537,-0.07025867033152616,0.21280076107640358,-0.22939981771169785
232,1.031339500012109,0.017528299569397686,0.13249534095256474,0.043058280907436734,0.005709026018785618,-0.008892070306448275,0.07149782544501793,-0.05680218271791978,-0.19026941877525116,-0.0289645192274609,-0.06873323105868115,0.21959424067399985,-0.22847426926775083
233,1.036276600003475,0.017309085540840367,0.13430806083368338,0.04330226324427827,0.005455793983039268,-0.00973695179049588,0.07136967523273732,-0.057119898832904435,-0.1894091751369634,-0.03000037758748306,-0.06722443468591359,0.22620393462517555,-0.22757935411087662
234,1.0405880000034813,0.017098938695542864,0.13606376466124995,0.04350315254940802,0.005200564249787536,-0.010581664772490293,0.07123581422681212,-0.057434980332884106,-0.18854118724639157,-0.031040841725658467,-0.06573231391529889,0.23263088764305137,-0.22671500901573646
235,1.044150100002298,0.016861844988303953,0.1377162067990054,0.04376069640828467,0.004943354946218652,-0.011426129268336103,0.07109623309343244,-0.057747433647239985,-0.18766584144511236,-0.032085917573885785,-0.0642568686141473,0.23887631778905702,-0.22588109795243919
236,1.0483296000020346,0.01669209724126731,0.1393095830139717,0.04396232181083463,0.0046841848101029405,-0.012270262978011691,0.07095092364109297,-0.05805726078404662,-0.18678349573786523,-0.03313560116653022,-0.0627980663801449,0.24494161223390884,-0.22507741304341167
237,1.0518816000112563,0.016431197162806797,0.14090078579383947,0.04420016920291477,0.004423073192262396,-0.013113981274623784,0.07079987883338715,-0.05836445933024735,-0.18589447987313087,-0.03418987860934374,-0.0613558431417763,0.2508283228618486,-0.2243036756013136
238,1.0564281000115443,0.016274203703853497,0.14242731579463747,0.044426679852099304,0.004160040058511675,-0.01395719719716725,0.07064309280099589,-0.05866902245823443,-0.18499909546230806,-0.035248726060801074,-0.05993010379294014,0.25653816172493593,-0.22355953724596578
239,1.0605352999991735,0.016147433990777164,0.14392490576446937,0.04463184493239705,0.0038951059910707275,-0.014799821446971659,0.07048056085286762,-0.058970938938756726,-0.18409761613685982,-0.036312109725738125,-0.05852072286063745,0.26207299635431197,-0.22284458109818442
240,1.064854500000365,0.015940881674593753,0.14534195236101619,0.044832172223606,0.0036282921894498395,-0.01564176238781186,0.07031227948658707,-0.05927019316007066,-0.1831902877427602,-0.037379985861166413,-0.057127545204582374,0.2674348449354632,-0.22215832304834196
241,1.0690084000088973,0.015725919322153822,0.14670230655819133,0.04505520959425882,0.0033596204708084445,-0.016482926049655712,0.07013824639793093,-0.059566765153243835,-0.18227732857153534,-0.03845230079412459,-0.055750386747556786,0.2726258713546212,-0.22150021309740658
242,1.072366400010651,0.015576610067272982,0.14790894533729626,0.04524083402298483,0.003089113269789619,-0.017323216136018088,0.06995846048960991,-0.05986063062351467,-0.18135892962715525,-0.03952899095141603,-0.054389035235303675,0.27764838012352805,-0.22086963676814472
243,1.0757556000025943,0.015461259569080205,0.14920134668743704,0.04541664898613155,0.0028167936378327187,-0.018162534034886345,0.06977292187919731,-0.06015176098760491,-0.1804352549279968,-0.04060998290106922,-0.05304325102473005,0.28250481118988563,-0.22026591658411032
244,1.0807397000025958,0.015327522704296728,0.15032928954392172,0.0455803168554026,0.0025426852419671345,-0.01900077883317851,0.06958163190624495,-0.06044012341687592,-0.17950644184306502,-0.04169519340534586,-0.05171276789916661,0.2871977346408779,-0.21968831361398766
245,1.084403900007601,0.01520971792489715,0.15145146495500644,0.04586054365983484,0.0022668123630906973,-0.019837847334691613,0.06938459313858857,-0.06072568088621379,-0.17857260146162707,-0.042784529485110294,-0.050397293909409856,0.29172984530722257,-0.21913602907879737
246,1.0881421000085538,0.015118468874770457,0.15249376527473205,0.04601832834988835,0.001989199893736763,-0.020673634081493864,0.069181809377846,-0.06100839222852293,-0.1776338189953822,-0.04387788849536303,-0.04909651223925297,0.2961039572752636,-0.21860820601942596
247,1.092553400012548,0.014989318411695497,0.1534217504526984,0.04624202838084814,0.0017098733353344891,-0.02150803137871078,0.06897328566411134,-0.061288212194702166,-0.1766901542122614,-0.04497515821173028,-0.0478100820941941,0.300322998314663,-0.21810393102189013
248,1.0979190000070955,0.014915556583284017,0.154266856876755,0.04640399979845832,0.0014288587949673021,-0.022340929322651807,0.06875902827984899,-0.06156509151897204,-0.17574164190092134,-0.046076216927691455,-0.04653763961199459,0.3043900042292883,-0.21762223599770336
249,1.102315300013288,0.014841058294414622,0.15509915700157478,0.04655810372234177,0.0011461829816350497,-0.023172215832220847,0.06853904475299295,-0.06183897698941724,-0.17478829236496995,-0.047180933562316486,-0.04527879879374526,0.3083081131389178,-0.21716210001667016
250,1.1063742000114871,0.014803193877835987,0.15580956165834906,0.04675478540642811,0.0008618732020257897,-0.024001776683550587,0.06831334385925708,-0.06210981152360303,-0.17383009194593582,-0.04828916777827525,-0.044033152454086476,0.31208055969940485,-0.21672245118939615
251,1.110869600001024,0.014803193877835987,0.15580956165834906,0.04675478540642811,0.0005759573558036217,-0.02482949554779742,0.06808193562366263,-0.062377534249120084,-0.17286700357397128,-0.04940077010987257,-0.042800273189216816,0.31571066926894853,-0.2163021685967694
252,1.1146656000055373,0.014624959293419306,0.1563246430195252,0.04699677512837266,0.0002884639304194097,-0.025655254032030658,0.06784483132129034,-0.06264208058890826,-0.17189896734525484,-0.05051558210085324,-0.041579714361316154,0.31920185202811935,-0.21590008426363774
253,1.1191634999995586,0.014695562100085671,0.15746952204127268,0.047397970724268185,-5.780045483270947e-07,-0.026478931723146987,0.06760204347726462,-0.06290338235120546,-0.17092590112503941,-0.051633436451713484,-0.04037101109800204,0.32255759706127607,-0.21551498517388115
254,1.122925600007875,0.014674574767569538,0.15781422161254885,0.04760970278758786,-0.00029113880351467155,-0.027300406234738086,0.06735358586597892,-0.06316136782396442,-0.1699477011752723,-0.0527541571762476,-0.03917368130543232,0.3257814664069925,-0.21514561532405552
255,1.1268108000076609,0.014674574767569538,0.15781422161254885,0.04760970278758786,-0.0005831882514636291,-0.028119553256836804,0.06709947350957181,-0.06341596187357634,-0.16896424280569405,-0.05387755976705079,-0.037987226693663466,0.32887708908508334,-0.21479067781276542
256,1.1315805000049295,0.014550415210459248,0.1580186599401321,0.04788197915400218,-0.0008766955709690373,-0.028936246608464587,0.06683972267566372,-0.06366708604773685,-0.16797538104730805,-0.05500345136969228,-0.03681113381287204,0.3318481551077788,-0.21444883696290884
257,1.1376340999995591,0.014678468390089596,0.15840460673521697,0.048202501245407314,-0.0011716294296522211,-0.02975035829290046,0.06657435087436443,-0.06391465868228624,-0.16698095134709656,-0.05613163096526611,-0.03564487509904643,0.3346984094825542,-0.21411872047392527
258,1.1415200000046752,0.014678468390089596,0.15840460673521697,0.048202501245407314,-0.0014679579480671914,-0.03056175855558963,0.06630337685456232,-0.06415859501185328,-0.16598077028284614,-0.05726188956102096,-0.03448790992775735,0.3374316462140625,-0.21379892160117037
259,1.1462348000059135,0.014541597150636961,0.15835897576050734,0.0484754886375311,-0.00176564870800384,-0.03137031594460753,0.06602682059950689,-0.06439880728412979,-0.16497463629693354,-0.0583940103887646,-0.03333968567461854,0.34005170231255544,-0.2134880013595348
260,1.1496140000090236,0.014823816186545501,0.15822926886957553,0.04887095024963163,-0.0020646687611992768,-0.03217589737359303,0.06574470332169671,-0.06463520487760045,-0.16396233044791356,-0.05952776911073321,-0.03219963878105398,0.34256245181610295,-0.2131844907484257
261,1.1542317000130424,0.014893651502506336,0.1579869586250746,0.04912722679252056,-0.002364984638447123,-0.032978368187062845,0.0654570474570852,-0.06486769442255004,-0.16294361717874065,-0.06066293403261106,-0.03106719582399412,0.3449677998338416,-0.21288689299523092
262,1.1583935000089696,0.014964500035215943,0.15770280589693156,0.04942056512372968,-0.0026665623590942885,-0.03377759222801671,0.06516387665861735,-0.06509617992516861,-0.16191824510045041,-0.06179926632338158,-0.02994177458813195,0.3472716766173907,-0.2125936858143922
263,1.1624812000081874,0.015110358184407612,0.15682053640045518,0.0499370618231124,-0.00296936744091447,-0.03457343190774185,0.06486521578911102,-0.06532056289457347,-0.16088594779012144,-0.06293652024168672,-0.028822785139379123,0.3494780316674807,-0.21230332367922225
264,1.166535800002748,0.015235643783757118,0.15624585297718646,0.050174766579477365,-0.0032733649103473456,-0.03536574827772311,0.06456109091349604,-0.06554074247256517,-0.1598464446019326,-0.06407444336836801,-0.027709630898173413,0.35159082788273194,-0.21201424010361403
265,1.170796300008078,0.015336423914995727,0.15560652490942703,0.05039525840032716,-0.0035785193130921833,-0.03615440110356449,0.06425152929042556,-0.0657566155659334,-0.15879944149012734,-0.06521277684485939,-0.026601709711301692,0.35361403575740985,-0.21172484993080543
266,1.174442300005467,0.015336423914995727,0.15560652490942703,0.05039525840032716,-0.003884794725044341,-0.036939248940825974,0.06393655936327394,-0.06596807698112747,-0.1577446318426968,-0.06635125561709942,-0.02549841492091661,0.3555516276348615,-0.2114335516263825
267,1.1777671000018015,0.015336423914995727,0.15560652490942703,0.05039525840032716,-0.004192154763562936,-0.03772014921267859,0.06361621075053646,-0.06617501956110525,-0.15668169732459186,-0.06748960868462793,-0.02439913642944094,0.3574075720232117,-0.2111387295727273
268,1.1811558000044895,0.015338055663821229,0.15476262274658606,0.05067384793307823,-0.004500562599057765,-0.03849695828927939,0.06329051423564591,-0.06637733432417395,-0.15561030872927695,-0.06862755935453022,-0.02330326175907078,0.3591858279797634,-0.21083875636214236
269,1.184424700011732,0.015876403341780254,0.15202628479347546,0.05146665009955011,-0.0048099809668833565,-0.03926953156876705,0.06295950175622245,-0.06657491060463651,-0.15453012683744086,-0.06976482549989095,-0.02221017710460736,0.36089033957040595,-0.21053199508591133
270,1.1898053000040818,0.01609895156903548,0.1508983183944153,0.05167350060751674,-0.005120372179527889,-0.040037723559778055,0.06262320639277259,-0.06676763619505656,-0.15344080328168408,-0.07090111982241859,-0.021119268378366963,0.36252503041019046,-0.210216801616588
271,1.1939342000114266,0.016214424803073675,0.14973467404547594,0.05192141439258552,-0.005431698139084538,-0.04080138796538234,0.06228166235685363,-0.0669553974899551,-0.15234198141600905,-0.07203615011890051,-0.020029922245940048,0.36409379829107463,-0.20989152688083895
272,1.1975271000119392,0.01640185282565472,0.14841333819734054,0.05216920789256057,-0.005743920349992719,-0.04156037776833685,0.06193490497872008,-0.06713807963075201,-0.1512332971889473,-0.0731696195511484,-0.018941527151592877,0.3656005099026806,-0.2095545191202026
273,1.2021477000089362,0.016625071681111037,0.1471195515992761,0.05239734906015628,-0.006056999932036551,-0.04231454531755529,0.06158297069446913,-0.06731556665176677,-0.15011438001916488,-0.07430122691909369,-0.01785347433212893,0.36704899565174615,-0.2092041261371688
274,1.205513000008068,0.01676600233562744,0.14564593758801317,0.052651292454832486,-0.006370897633587732,-0.04306374241569218,0.06122589703270228,-0.06748774162709359,-0.1489848536723972,-0.0754306669366938,-0.016765158818052246,0.3684430445857779,-0.2088386975240264
275,1.2090649000019766,0.016998017502279344,0.14416156342203315,0.0528451152946435,-0.006685573845079977,-0.04380782040773904,0.060863722600720614,-0.0676544868181662,-0.1478443371385757,-0.07655763051031096,-0.015675980420901136,0.3697863994262386,-0.20845658687197166
276,1.2163074999989476,0.017185033146653584,0.14255431382707506,0.05310645762017632,-0.007000988612702017,-0.04454663027053058,0.06049648707027074,-0.06781568382182963,-0.14669244550802163,-0.07768180501922615,-0.014585344705647827,0.37108275171641686,-0.20805615395801783
277,1.2197409000073094,0.017185033146653584,0.14255431382707506,0.05310645762017632,-0.007317101652296143,-0.045280022703058295,0.060124231162859434,-0.06797121371873775,-0.14552879084559572,-0.0788028745979525,-0.013492663947088035,0.3723357370889443,-0.20763576690729788
278,1.2233895000099435,0.01726767264771344,0.14081715455260949,0.05334846161656066,-0.007633872363449197,-0.04600784821748939,0.05974699663465472,-0.0681209572218966,-0.1443529830617067,-0.07992052042001466,-0.01239735806917411,0.37354893065773365,-0.20719380432840556
279,1.2272293999994872,0.01783442043813336,0.13733901290728762,0.05374928975339941,-0.007951259843762926,-0.04672995723078915,0.05936482626099154,-0.06826479482517485,-0.14316463077909844,-0.0810344209828631,-0.011298855566275755,0.3747258425389179,-0.2067286574194747
280,1.2313916999992216,0.018055014373878183,0.13552535741340865,0.053911277412919296,-0.008269222903290532,-0.04744620015684518,0.058977763820499456,-0.06840260695160569,-0.1419633421943518,-0.08214425239359552,-0.010196594405383707,0.3758699135051721,-0.20623873204275459
281,1.2372892000130378,0.01829792857398094,0.13359183146793127,0.05416679176204518,-0.008587720079126285,-0.04815642749899286,0.05858585407887028,-0.06853427410130629,-0.14074872593305535,-0.08324968865515991,-0.009090022908304006,0.3769845107775984,-0.20572245076549905
282,1.2417066000052728,0.018771939692868694,0.1295155568320388,0.054581785970044025,-0.008906709650135111,-0.04886048994284192,0.058189142772283625,-0.06865967699884372,-0.13952039189761822,-0.08435040195271765,-0.007978600612923712,0.37807292395914854,-0.2051782548650476
283,1.2451609000127064,0.01899337880975068,0.12737598474527434,0.054739306837729575,-0.009226149651809061,-0.04955823844930467,0.05778767659050822,-0.06877869673987834,-0.1382779521067186,-0.08544606293984836,-0.006861799112662822,0.37913836111335153,-0.20460460629604024
284,1.2488180000073044,0.01922560720395235,0.12514077372730614,0.05500705465726992,-0.00954599789123757,-0.05024952434772715,0.05738150315969709,-0.06889121493691862,-0.13702102152540255,-0.08653634102428313,-0.00573910287326184,0.3801839449919029,-0.20399998961777405
285,1.2524086000048555,0.01949048809630486,0.12285370338902984,0.05514824544779209,-0.009866211962178462,-0.0509341994290253,0.05697067102489449,-0.06899711386402343,-0.13574921888487052,-0.08762090465285674,-0.004610010026089853,0.3812127094144598,-0.20336291387977662
286,1.258520800009137,0.01949048809630486,0.12285370338902984,0.05514824544779209,-0.010186749260216727,-0.05161211603872924,0.05655522963227274,-0.06909627660029156,-0.1344621674910109,-0.08869942159537458,-0.003474033137194006,0.38222759580376764,-0.20269191446374066
287,1.2624923000112176,0.019597833630637905,0.12051060348699728,0.05547823964414549,-0.010507566997998192,-0.052283127169840245,0.05613522931111681,-0.06918858717198116,-0.1331594960207643,-0.08977155922709526,-0.002330699951347927,0.38323144987902763,-0.2019855548800331
288,1.2669412000104785,0.02023303491264762,0.11571939280640908,0.055897806183793745,-0.010828622220525318,-0.052947086555406093,0.05571072125557428,-0.06927393069310496,-0.1318408393054264,-0.09083698480953434,-0.0011795541103938791,0.3842270185101926,-0.20124242851706503
289,1.2714463000011165,0.02023303491264762,0.11571939280640908,0.055897806183793745,-0.011149871820502456,-0.053603848760721384,0.05528175750618848,-0.06935219350435039,-0.13050583910002295,-0.09189536576930064,-2.0155845211105175e-05,0.38521694673565965,-0.20046116034188113
290,1.2747951000055764,0.020379505719736738,0.11316562746095626,0.05610592269280371,-0.01147127255371795,-0.05425326927506091,0.05484839093123244,-0.06942326331017767,-0.1291541448379173,-0.09294636997468238,0.0011479173593189936,0.38620377494560404,-0.19964040855040202
291,1.279790700005833,0.021021576490508183,0.10806839024179443,0.05661707552996293,-0.011792781054450618,-0.05489520460285551,0.054410675207861324,-0.06948702931395319,-0.12778541436983656,-0.093989666009707,0.0023250701269416263,0.3871899362329772,-0.1987788661658282
292,1.2854961000120966,0.021285338852033243,0.10548250301156545,0.05683769120819396,-0.012114353850888368,-0.05552951235422176,0.05396866480310058,-0.0695433823509783,-0.12639931468653146,-0.09502492344540532,0.00351168858080319,0.38817775391397014,-0.19787526258379134
293,1.2896555000043008,0.021755000460283086,0.10009155609463742,0.057365812459000534,-0.012435947380546772,-0.05615605133475853,0.05352241495468698,-0.06959221501927872,-0.12499552262431238,-0.09605181310801673,0.004708139762884303,0.38916943921952035,-0.19692836506291422
294,1.294120700011263,0.02197153466908738,0.09728919199755795,0.05760212530441619,-0.012757518005675653,-0.05677468163452503,0.05307198165177989,-0.0696334218080229,-0.12357372555273394,-0.0970700073438793,0.00591477108256446,0.39016708915921605,-0.19593698015951985
295,1.2980869000020905,0.02197153466908738,0.09728919199755795,0.05760212530441619,-0.013079022028641795,-0.05738526471611676,0.05261742161555906,-0.06966689922344253,-0.12213362204372925,-0.09807918028075513,0.007131909794751833,0.391172684558726,-0.19489995510530897
296,1.3017666000087047,0.021990651642034433,0.09450137978226891,0.05796405116629167,-0.013400415707276165,-0.05798766350175771,0.05215879227972557,-0.06969254591213245,-0.12067492252152644,-0.09907900808534904,0.008359862507971895,0.39218808827166246,-0.19381617912690405
297,1.3065733000112232,0.022482684922576327,0.08890535146562956,0.058593259419630395,-0.0137216552701742,-0.05858174245932895,0.0516961517709223,-0.06971026278161202,-0.11919734989270939,-0.10006916921678558,0.00959891472276864,0.39321504356656295,-0.19268458470623873
298,1.3107662000111304,0.022621950708183264,0.08602765447588978,0.05895398817217598,-0.014042696931937878,-0.059167367687256216,0.051229558889090004,-0.06971995311803444,-0.11770064015581584,-0.10104934467581736,0.010849330400732254,0.39425517268945703,-0.19150414878085162
299,1.3146314000041457,0.022771185614111306,0.08316159289369696,0.05934936400430055,-0.014363496908348579,-0.05974440699818095,0.05075907308777504,-0.06972152270093422,-0.11618454298989696,-0.10201921824954598,0.012111351564427098,0.39530997560226416,-0.19027389388322397
300,1.319155800010776,0.022865445119650066,0.08029557710756133,0.05972327716806089,-0.014684011431459932,-0.06031273000134107,0.05028475445440423,-0.06971487991490788,-0.11464882232149394,-0.10297847675144406,0.013385197928453992,0.3963808288970519,-0.1889928892183827
301,1.3226556000008711,0.022856223933008298,0.07735667014240401,0.06016931013806894,-0.015004196764600063,-0.06087220818359001,0.04980666369054212,-0.06969993585812762,-0.11309325686951902,-0.10392681025647564,0.01467106656184092,0.39746898488596744,-0.18766025167907074
302,1.3270153000048597,0.023074124399182935,0.07157019247074424,0.061061388419902225,-0.015324009217272913,-0.06142271498898493,0.04932486209214524,-0.06967660444759294,-0.11151764066756124,-0.10486391233111991,0.015969131581916696,0.39857557086644224,-0.18627514679786755
303,1.3311409000016283,0.023074124399182935,0.07157019247074424,0.061061388419902225,-0.015643405159948533,-0.061964125896876825,0.04883941152982806,-0.06964480252103006,-0.10992178356316941,-0.10578948025811133,0.017279543879782647,0.39970158856105853,-0.18483678963572342
304,1.335403300006874,0.022954260684987605,0.06864599373229385,0.06159218282792993,-0.015962341038732467,-0.06249631849843756,0.04835037442915514,-0.06960444993535357,-0.10830551169369744,-0.10670321525571794,0.018602430877458012,0.4008479137312583,-0.18334444560645222
305,1.339766300006886,0.02310439288148455,0.06275653863063851,0.062461641346958745,-0.016280773389904656,-0.06301917257156157,0.047857813750973546,-0.06955546966160976,-0.10666866793833055,-0.10760482269138841,0.019937896316735947,0.40201529596387103,-0.1817974312368075
306,1.349272999999812,0.02300688081377639,0.05700003263466777,0.06346939210573133,-0.01659865885431852,-0.06353257015408202,0.04736179297179934,-0.06949778787632592,-0.1050111123459416,-0.10849401228960656,0.02128602007974823,0.40320435862923076,-0.18019511486184625
307,1.3530372000095667,0.022921509567332805,0.05406646094380041,0.06402321337351947,-0.016915954191651143,-0.06403639561524387,0.04686237606427138,-0.06943133404919484,-0.10333272253846068,-0.1093704983338011,0.022646858041198592,0.40441559900945206,-0.17853691725536505
308,1.356634399999166,0.022846342000184608,0.051117985404337624,0.06451954977243946,-0.01723261629449578,-0.06453053572537885,0.04635962747768533,-0.06935604102702878,-0.10163339408947396,-0.11023399986216674,0.02402044195218675,0.405649388595242,-0.1768223121952722
309,1.36068399999931,0.022846342000184608,0.051117985404337624,0.06451954977243946,-0.017548602202288235,-0.06501487972373025,0.04585361211862036,-0.06927184511392202,-0.0999130408778008,-0.11108424085726172,0.02540677935550787,0.4069059735494312,-0.17505082696383786
310,1.364661200001137,0.022648040430201348,0.04818911237275031,0.06506766118006155,-0.017863869115058932,-0.0654893193843774,0.045344395331670485,-0.06917868614756616,-0.09817159541583058,-0.11192095042925523,0.02680585353227515,0.4081854753352218,-0.17322204278284103
311,1.3691187000076752,0.022597315469416932,0.04245474426456828,0.06630734919140562,-0.01817837440700282,-0.06595374908021283,0.044832042880292335,-0.06907650757166771,-0.0964090091524331,-0.11274386299270743,0.028217623479676993,0.4094878915069634,-0.17133559518370986
312,1.373017100006109,0.022519630638768127,0.03957902689547386,0.0669163239813549,-0.018492075639859457,-0.06640806584492723,0.04431662092778047,-0.06896525650442234,-0.09462525275028898,-0.11355271843677343,0.0296420239196444,0.4108130966610871,-0.16939117431282746
313,1.3771913000091445,0.022401110733354764,0.03647016200651501,0.06744056183785671,-0.01880493057609596,-0.0668521694329596,0.04379819601838117,-0.06884488380300503,-0.09282031633751847,-0.11434726228873147,0.03107896533816902,0.41216084354465315,-0.16738852517224906
314,1.3812868000095475,0.02226505180440865,0.030483906455048736,0.0685409258314565,-0.01911689719188578,-0.06728596237737308,0.04327683505855501,-0.06871534412404073,-0.09099420973351999,-0.11512724587074455,0.032528334054977966,0.4135307643187958,-0.16532744779615066
315,1.3854228999989573,0.022174351436749798,0.02748998813213853,0.0691554240408507,-0.01942793368987661,-0.06770935004561875,0.04275260529839852,-0.06857659598002477,-0.08914696264896156,-0.11589242644977478,0.033989992323237295,0.414922371974184,-0.16320779736340243
316,1.3897326000005703,0.021998628284232123,0.024327904782213097,0.06973540784107506,-0.019737998511741132,-0.06812224069315316,0.04222557431323455,-0.06842860179166727,-0.08727862485989969,-0.11664256738057742,0.03546377845892314,0.41633506189545466,-0.16102948424673105
317,1.393730100011453,0.021908235639060976,0.021360452907594044,0.07031847499716325,-0.02004705035050449,-0.0685245455148773,0.04169580998538083,-0.06827132793614056,-0.08538926635603147,-0.11737743824170965,0.03694950699946706,0.41776811357142196,-0.1587924739990055
318,1.3980925000068964,0.021792808272060437,0.01841429951380156,0.07090234009277444,-0.02035504816264263,-0.06891617869436756,0.041163380486105725,-0.06810474479121345,-0.08347897746311689,-0.11809681496449821,0.03844696889125056,0.4192206924477131,-0.15649678727724978
319,1.4023618000064744,0.021701775412965828,0.015549053605825987,0.07150421547121229,-0.020661951179945973,-0.06929705745087232,0.04062835425777947,-0.06792882677526121,-0.08154786893963856,-0.11880047995491896,0.03995593170549299,0.42069185191833675,-0.15414249970505192
320,1.405811000004178,0.021552871289434603,0.01263223756259263,0.07216939449357349,-0.0209677189211433,-0.06966710208404985,0.0400907999962289,-0.06774355238314492,-0.07959607204779563,-0.11948822220835079,0.04147613988204748,0.4221805354525523,-0.1517297416741062
321,1.412145000009332,0.021344292047038957,0.009677275786068366,0.07289514998206083,-0.021272311203281016,-0.07002623601642619,0.03955078663330322,-0.06754890421795892,-0.07762373859895864,-0.12015983741717398,0.04300731500059004,0.4236855788532729,-0.1492586980856884
322,1.4156376000028104,0.021344292047038957,0.009677275786068366,0.07289514998206083,-0.021575688152853285,-0.07037438583355367,0.039008383319657926,-0.06734486901864974,-0.07563104097374093,-0.120815128071193,0.04454915607865904,0.42520571264310647,-0.14672960803292762
323,1.4191630999994231,0.02100210266116296,0.006652489686729532,0.07367521850783025,-0.021877810216678683,-0.07071148132185323,0.03846365940776365,-0.06713143768351393,-0.0736181721168707,-0.12145390355087171,0.04610133989597482,0.4267395645740161,-0.14414276442479773
324,1.4244280999992045,0.0207627254779474,0.001097361873388665,0.07504286210532862,-0.02217863817251931,-0.07103745550412659,0.03791668443514611,-0.06690860528958739,-0.07158534550707658,-0.12207598021337637,0.0476635213444433,0.4282856622564656,-0.1414985135528112
325,1.4283837000111816,0.02055968693214475,-0.0016204852789486815,0.07559031196769822,-0.022478133139438777,-0.07135224467272681,0.037367528107863195,-0.06667637110794251,-0.06953279510222667,-0.1226811814714302,0.04923533380322183,0.4298424359038055,-0.13879725460145448
326,1.4319791000016266,0.02029783705481542,-0.004386769664431462,0.07624768596828391,-0.02277625658789578,-0.07165578842037798,0.03681626028422452,-0.06643473861491497,-0.06746077525998832,-0.12326933786499264,0.050816389538201376,0.43140822118755046,-0.13603943910346045
327,1.435518000012962,0.02029783705481542,-0.004386769664431462,0.07624768596828391,-0.02307297034957017,-0.0719480296686378,0.03626295095875833,-0.06618371549928598,-0.06536956063430174,-0.12384028712578397,0.05240628012523582,0.43298126219910293,-0.1332255703410671
328,1.4398313999990933,0.019956108412942628,-0.007200482065797353,0.07706508750621588,-0.023368236626918802,-0.07222891469399915,0.03570767024643053,-0.06592331366544975,-0.06325944604798599,-0.12439387423468357,0.05400457689642643,0.43455971451338615,-0.13035620269446385
329,1.4437971000006655,0.019468319277257517,-0.012498552908186786,0.07851877756477536,-0.023662018002458558,-0.07249839315162851,0.03515048836712014,-0.06565354923260044,-0.06113074634182138,-0.12492995147203712,0.05561083140874871,0.43614164834976266,-0.12743194093867513
330,1.4482068000070285,0.019468319277257517,-0.012498552908186786,0.07851877756477536,-0.023954277447774498,-0.07275641809674156,0.03459147563035507,-0.06537444252997685,-0.058983796200476196,-0.12544837846091622,0.05722457593428843,0.4377250518255351,-0.12445343949018013
331,1.4541918000031728,0.018162605295723694,-0.022565602266113163,0.08138954450221024,-0.024244978332251216,-0.07300294600361928,0.0340307024203119,-0.06508601808820672,-0.05681894995566879,-0.125949022203381,0.05884532397133494,0.43930783429725273,-0.12142140160461148
332,1.4583216000028187,0.018162605295723694,-0.022565602266113163,0.08138954450221024,-0.024534084431525792,-0.07323793678226985,0.03346823918108257,-0.06478830462679683,-0.05463658136697954,-0.12643175710980376,0.06047257077556153,0.44088782978498137,-0.118336578526921
333,1.4622354000021005,0.01704352055382704,-0.0298195455494204,0.08366574746913992,-0.02482155993566115,-0.07346135379274417,0.03290415640221051,-0.06448133503781857,-0.05243708338074893,-0.12689646502131788,0.06210579391050643,0.4424628004746359,-0.11519976859544102
334,1.4667379000020446,0.01665819552471119,-0.03210986144797692,0.08439823308271445,-0.025107369457038786,-0.07367316385711509,0.03233852460449862,-0.0641651463658431,-0.05022086786751996,-0.12734303522546367,0.06374445381655187,0.44403044029341604,-0.1120118163013091
335,1.4709397000115132,0.01630343876752067,-0.034304493953099625,0.08516849325190695,-0.025391478037970126,-0.07387333726913169,0.03177141432609099,-0.06383977978418331,-0.04798836533850348,-0.12777136446510878,0.0653879943975837,0.4455883785533421,-0.10877361130476085
336,1.4769402000092668,0.01584940670173028,-0.0364992089620184,0.08590735529235353,-0.02567385115802604,-0.0740618478015629,0.03120289610883011,-0.06350528056750318,-0.04574002464156448,-0.12818135694072863,0.06703584362450084,0.4471341836578482,-0.10548608740983002
337,1.4813298000080977,0.01500695342457669,-0.04064556122931883,0.08742337152573083,-0.025954454741084446,-0.07423867271124629,0.030633040484890652,-0.06316169806085864,-0.04347631263724671,-0.12857292430613856,0.06868741415473126,0.4486653668663593,-0.10215022149902918
338,1.4870311000122456,0.014133815733733558,-0.044466794063701735,0.08901511824669991,-0.026233255162096007,-0.07440379274186018,0.030061917963690735,-0.06280908564523684,-0.0411977138553709,-0.12894598565777432,0.07034210396689965,0.45017938611174757,-0.09876703242961345
339,1.4904441000107909,0.01369185160420298,-0.04633681303412,0.08972169984994251,-0.026510219253568335,-0.07455719212443918,0.029489599019080666,-0.062447500699664156,-0.03890473013275906,-0.1293004675176249,0.07199929700978186,0.4516736498655412,-0.09533757989305872
340,1.4950247000087984,0.013213991045470016,-0.04810077019943475,0.09039106745806555,-0.026785314311769153,-0.07469885857565538,0.02891615407680926,-0.06207700455995649,-0.0365978802326537,-0.12963630380992652,0.07365836386467213,0.4531455210457487,-0.09186296323941122
341,1.498510300007183,0.012261724661116774,-0.051405386475302885,0.0918381784143701,-0.027058508102649387,-0.07482878329388955,0.02834165350226745,-0.06169766247418778,-0.034277699446416864,-0.1299534358317325,0.07531866242028082,0.45459232096214797,-0.08834432026818956
342,1.5020316000009188,0.012261724661116774,-0.051405386475302885,0.0918381784143701,-0.02732976886748731,-0.07494696095311852,0.027766167588508476,-0.06130954355495611,-0.03194473917810798,-0.13025181221747764,0.07697953855927435,0.45601133329389393,-0.08478282598754117
343,1.5065012000122806,0.011543596083425048,-0.052989938732687425,0.09254113355852753,-0.027599065328255026,-0.07505338969464734,0.027189766544543605,-0.0609127207285289,-0.029599566512553938,-0.13053138889766241,0.07864032685556255,0.4573998080942966,-0.08117969134337445
344,1.51066990000254,0.011543596083425048,-0.052989938732687425,0.09254113355852753,-0.027866366692708835,-0.0751480711167154,0.026612520483912234,-0.06050727068095099,-0.02724276376753743,-0.13079212905178714,0.08030035128143455,0.4587549658176317,-0.07753616192020525
345,1.5163026000082027,0.010566286724194872,-0.05582150264282659,0.09386252573929042,-0.028131642659205158,-0.07523101026200799,0.026034499413524793,-0.06009327380120231,-0.024874928030741504,-0.13103400305567112,0.08195892592364064,0.4600740013628634,-0.07385351661547045
346,1.5200520000071265,0.009960132386061787,-0.058376949522853244,0.09523055649726679,-0.02839486342124403,-0.07530221560310613,0.025455773222776586,-0.05967081412149426,-0.022496670682099578,-0.13125698842329647,0.08361535570751528,0.46135408812918227,-0.07013306628907429
347,1.525416400007089,0.009559465938364126,-0.05953141065152737,0.0958315617199109,-0.028655999671742354,-0.07536169902590932,0.024876411672930348,-0.05923997925479567,-0.020108616902210427,-0.13146106974331928,0.08526893712823519,0.4625923820782923,-0.06637615238994318
348,1.529378800012637,0.009040961887212873,-0.06066790940383689,0.09646959682389523,-0.028915022607039265,-0.07540947581106723,0.024296484386765176,-0.05880086032968089,-0.017711405167486986,-0.13164623861039584,0.08691895898830658,0.4637860257984138,-0.06258414556137278
349,1.5332121000101324,0.00862804929081476,-0.06168596039585263,0.09699190940174825,-0.029171903930636196,-0.07544556461345757,0.023716060838489067,-0.058353551922595046,-0.015305686732716301,-0.13181249355147476,0.08856470314037669,0.4649321525650096,-0.05875844422695709
350,1.5373928000044543,0.00862804929081476,-0.06168596039585263,0.09699190940174825,-0.029426615856674505,-0.07546998743974893,0.02313521034391209,-0.05789815198763285,-0.012892125101715553,-0.1319598399472099,0.0902054452344662,0.4660278903932851,-0.054900473158893306
351,1.541758800012758,0.00798286795087267,-0.0627952384664858,0.09759353509384068,-0.02967913111315373,-0.07548276962408872,0.02255400205087689,-0.05743476178392923,-0.010471395486775883,-0.13208828994865235,0.09184045546872238,0.4670703660775671,-0.051011682030456564
352,1.5457236000074772,0.0069237742071036855,-0.06521070268843204,0.09905644789858974,-0.02992942294489394,-0.07548393980195763,0.02197250492994307,-0.056963485800761285,-0.008044184257591529,-0.13219786238938322,0.09346899934279723,0.46805670921271963,-0.04709354395443909
353,1.5496948000072734,0.0069237742071036855,-0.06521070268843204,0.09905644789858974,-0.030177465116245566,-0.07547352988223331,0.02139078776532166,-0.056484431680462584,-0.005611188380376806,-0.13228858269325136,0.09509033841295983,0.4689840561928215,-0.043147554009344634
354,1.5540467000100762,0.006366859960182771,-0.06599893633026138,0.09960573739950339,-0.030423231913550123,-0.07545157501750661,0.02080891914605563,-0.055997710139251526,-0.003173114847877499,-0.1323604827778827,0.09670373104805788,0.4698495541823915,-0.039175227755124505
355,1.5601802000019234,0.005790162444715553,-0.06712641106575394,0.10047964580629994,-0.030666698147355505,-0.07541811357269489,0.02022696745744224,-0.05550343488607654,-0.0007306801009863518,-0.13241360095412968,0.09830843318545113,0.47065036505552693,-0.035178099740234524
356,1.5644843000045512,0.0054048787714356976,-0.06765150698120034,0.10086852487499778,-0.030907839154389653,-0.0753731870919981,0.019645000872692924,-0.05500172253958181,0.0017153905573254276,-0.13244798182163223,0.09990369908604753,0.4713836692983928,-0.031157722001783072
357,1.5683499000006125,0.005051915842964195,-0.06808846014962808,0.10122723172710182,-0.031146630799296488,-0.07531684026424439,0.019063087344826146,-0.05449269254329803,0.0041643635550472164,-0.1324636761606625,0.10148878208758207,0.47204666987058336,-0.02711566256052944
358,1.5728751999995438,0.0046645464535044045,-0.06856443244909637,0.1016017497588205,-0.03138304947613825,-0.07524912088667275,0.01848129459878839,-0.053976467079163294,0.006615497650424549,-0.13246074082042777,0.10306293535528815,0.47263659602096414,-0.023053503912478453
359,1.577662200012128,0.0046645464535044045,-0.06856443244909637,0.1016017497588205,-0.03161707210966842,-0.07517007982720118,0.017899690123798453,-0.05345317097948006,0.009068044536797439,-0.13243923860400772,0.10462541262912192,0.4731507070536969,-0.018972841518802512
360,1.581244400003925,0.004074982989992936,-0.06895052906992463,0.10189033989523062,-0.03184867615637964,-0.07507977098522857,0.017318341165909894,-0.05292293163741412,0.01152124945226877,-0.13239923815010268,0.1061754689667118,0.473586296040243,-0.014875282295805618
361,1.5856421000062255,0.004074982989992936,-0.06895052906992463,0.10189033989523062,-0.0320778396053311,-0.07497825125102013,0.016737314720786507,-0.05238587891614202,0.01397435179349198,-0.1323408138117698,0.10771236148121853,0.47394069347324064,-0.01076244310662512
362,1.5904344000009587,0.003324851733030154,-0.06952048805420422,0.10246987220430798,-0.03230454097876008,-0.07486558046372616,0.016156677526685446,-0.051842145056753386,0.016426585732869994,-0.1322640455323258,0.1092353500733045,0.474211270858257,-0.006635949256346513
363,1.5943597000004956,0.002926912639179125,-0.06987145767450158,0.10291807859234259,-0.032528759332481935,-0.07474182136808546,0.015576496057642494,-0.0512918645850147,0.018877180838460902,-0.13216901871859607,0.11074369815642564,0.4743954442395231,-0.0024974329921842804
364,1.5988817000034032,0.0026206671793169278,-0.06996078404096898,0.10305477712143188,-0.03275047425608359,-0.07460703956986503,0.014996836516853875,-0.05073517421710095,0.02132536269589008,-0.13205582411168915,0.11223667337467379,0.4744906776558705,0.0016514679896420992
365,1.602432300001965,0.0026206671793169278,-0.06996078404096898,0.10305477712143188,-0.032969665872915575,-0.07446130349008748,0.014417764830248946,-0.050172212764401404,0.023770353531573522,-0.1319245576554759,0.11371354831241368,0.47449448652320153,0.0058091120287335814
366,1.6065754000010202,0.0026206671793169278,-0.06996078404096898,0.10305477712143188,-0.0331863148398877,-0.07430468431809895,0.013839346640247887,-0.04960312103750542,0.026211372836562982,-0.13177532036295334,0.1151736011949756,0.47440444093994816,0.009973854975462224
367,1.6105633000115631,0.0020928709951514362,-0.070007836378257,0.10319115054737533,-0.03340040234707328,-0.07413725596352996,0.013261647299698524,-0.04902804174947354,0.028647637990329943,-0.1316082181806716,0.11661611657968146,0.4742181689120924,0.014144051654499697
368,1.614744000005885,0.0013359009852452917,-0.06965575645667679,0.10352407948180457,-0.03361191011712689,-0.0739590950072021,0.012684731865986381,-0.04844711941849895,0.03107836488381291,-0.1314233618514022,0.11804038603650062,0.4739333594944492,0.018318057315406606
369,1.619359300006181,0.0013359009852452917,-0.06965575645667679,0.10352407948180457,-0.03382082040452074,-0.07377028065103287,0.012108665095311914,-0.04786050027006331,0.03350276854106029,-0.1312208667752256,0.11944570881765083,0.47354776584503505,0.022494229068797333
370,1.6230615000094986,0.0007599021562106701,-0.06945058340338614,0.10354860918856391,-0.034027115994604805,-0.07357089466699217,0.01153351143712881,-0.04726833213869042,0.03592006373881007,-0.13100085286921287,0.12083139251547767,0.4730592081894778,0.026670927306628293
371,1.6265020999999251,0.00042233654464219565,-0.06882522272223457,0.10353148549595101,-0.0342307802024962,-0.07336102134516305,0.010959335028737178,-0.046670764369400125,0.038329465623356776,-0.13076344442587748,0.12219675370796647,0.4724655766925602,0.03084651710519215
372,1.6314939000003503,0.00017422462593037584,-0.06843032009868294,0.10348798223700625,-0.03443179687180288,-0.0731407474409597,0.010386199690025444,-0.046067947718964,0.0407301903240661,-0.13050876997057084,0.12354111859126175,0.4717648342341244,0.03501936960943635
373,1.6356680000026245,-9.149486574724398e-05,-0.06800312162977593,0.10336049472167799,-0.03463015037318703,-0.07291016212155545,0.009814168918354774,-0.0454600342570631,0.04312145556290833,-0.13023696211799385,0.12486382359858911,0.47095501908669885,0.03918786339726141
374,1.6398981000093045,-0.00038607136617925964,-0.06752982316756113,0.10323701979921038,-0.034825825602773426,-0.07266935691157392,0.009243305883579803,-0.04484717726744691,0.04550248125939281,-0.1299481574279952,0.1261642160049963,0.4700342474923477,0.04335038582249277
375,1.643733400007477,-0.000864499996705988,-0.06631141812973476,0.10303473325281882,-0.0350188079804079,-0.07241842563809614,0.00867367342319947,-0.04422953114919128,0.04787249013029755,-0.12964249626082502,0.1274416545173529,0.4690007161363839,0.04750533433525956
376,1.6481857000035234,-0.0011442064000596374,-0.06566615660097795,0.10281045335132412,-0.03520908344777122,-0.0721574643750362,0.008105334037631782,-0.04360725131815178,0.05023070828360023,-0.12932012263201084,0.12869550984906972,0.46785270451572847,0.05165111777855363
377,1.652869900004589,-0.001347012974138367,-0.06500061918760443,0.10257007169276156,-0.03539663846635351,-0.07188657138693755,0.007538349885606349,-0.042980494108706725,0.05257636580603001,-0.12898118406702133,0.1299251652790222,0.46658857719984065,0.05578615765978385
378,1.6564073000045028,-0.001347012974138367,-0.06500061918760443,0.10257007169276156,-0.035581460015294476,-0.0716058470722419,0.006972782779668578,-0.04234941667588336,0.054908697343672624,-0.1286258314558807,0.13113001719418563,0.4652067859822924,0.05990888939618303
379,1.660736600009841,-0.0018176165671617726,-0.06437987767145127,0.10228595192096863,-0.03576353558909464,-0.07131539390608192,0.00640869418178942,-0.04171417689795881,0.05722694267507591,-0.12825421890789276,0.13230947561551357,0.46370587192120716,0.06401776353296809
380,1.6647066000004995,-0.002074576572164289,-0.0627601906746337,0.10163809627767431,-0.03594285319520316,-0.07101531638264848,0.005846145199074583,-0.04107493327962555,0.05953034727631641,-0.12786650360663115,0.13346296470661326,0.46208446726692826,0.06811124693319824
381,1.669018700005836,-0.0022503280260724413,-0.06200315102888209,0.10127491515285936,-0.03611940135148728,-0.07070572095718289,0.005285196579567198,-0.040431844855809244,0.06181816287750335,-0.1274628456653493,0.1345899232647971,0.46034129727543294,0.07218782393832054
382,1.673629600001732,-0.0024588161748957246,-0.0611564001457338,0.10088542336948687,-0.03629316908358861,-0.07038671598764479,0.00472590870813798,-0.03978507109622502,0.06408964801021086,-0.1270434079829618,0.13568980519411283,0.4584751819061488,0.07624599749843783
383,1.6771498000016436,-0.0027103631504981117,-0.06031690435902512,0.10053447440134623,-0.03646414592217143,-0.07005841167610535,0.00416834160245698,-0.03913477181075615,0.06634406854534551,-0.1266083561007455,0.13676207995998077,0.4564850374029816,0.08028429027138012
384,1.6814836000121431,-0.0027103631504981117,-0.06031690435902512,0.10053447440134623,-0.03663232190006824,-0.06972092000991485,0.00361255490904111,-0.0384811070557368,0.06858069822097212,-0.1261578580599042,0.13780623302509154,0.4543698777575107,0.08430124568970719
385,1.6855658999993466,-0.0031453463302050155,-0.059487887224021666,0.10003338114709658,-0.03679768754932752,-0.06937435470269267,0.003058607899371722,-0.037824237041218456,0.07079881915963772,-0.12569208426013723,0.13882176626624187,0.4521288160534522,0.08829542899481752
386,1.6899676000030013,-0.0032695284017186374,-0.05761087199345512,0.09913340526949144,-0.03696023389816898,-0.06901883113518739,0.0025065594660766233,-0.03716432203929745,0.07299772237475068,-0.12521120731934984,0.13980819837181177,0.4497610656916406,0.09226542823738602
387,1.6939732000028016,-0.003371919935119757,-0.0566254848847192,0.09869344999112635,-0.03711995246785119,-0.0686544662960541,0.001956468119170965,-0.03650152229357902,0.07517670826558903,-0.12471540193463913,0.14076506521961135,0.44726594149492854,0.09620985524340152
388,1.698041200012085,-0.0036021500540789784,-0.05569429985377157,0.09817161482278486,-0.03727683526945663,-0.06828137872259478,0.0014083919823515824,-0.035835997929850996,0.0773350871005286,-0.1242048447446855,0.1416919202348517,0.44464286069254527,0.10012734654512319
389,1.7025755000067877,-0.0037557009267428906,-0.05481720887649278,0.09765673943141928,-0.03743087480059889,-0.06789968844150676,0.0008623887893394729,-0.035167908868037896,0.07947217948809923,-0.12367971419367674,0.14258833472801863,0.44189134378360595,0.10401656427632389
390,1.7064422000112245,-0.0037557009267428906,-0.05481720887649278,0.09765673943141928,-0.03758206404205682,-0.0675095169096836,0.00031851588026522286,-0.03449741473550352,0.08158731683549568,-0.1231401903968874,0.14345389821245333,0.4390110152796121,0.10787619703123677
391,1.7116271000122651,-0.004144969595435703,-0.05386630426416766,0.0971947609219569,-0.03773039645434022,-0.0671109869551121,-0.00022316980190768376,-0.03382467478176789,0.08367984179418748,-0.1225864550080318,0.14428821870146835,0.4360016043259229,0.11170496068667059
392,1.715773600008106,-0.00444735677288538,-0.05092067747746673,0.09541843299121808,-0.03787586597419142,-0.06670422271790785,-0.0007626117149266133,-0.03314984779470158,0.08574910869229103,-0.12201869108850465,0.14509092298485413,0.4328629452023175,0.11550159918680766
393,1.7194024000054924,-0.00459000153360076,-0.05001531788311732,0.09484446129588603,-0.038018467011027415,-0.06628934959153103,-0.0012997537207653908,-0.0324730920182583,0.08779448395338503,-0.12143708297861927,0.145861656884656,0.4295949777029113,0.11926488529024827
394,1.7232728000089992,-0.004761684698993134,-0.049078678967036445,0.0941911658687204,-0.038158194443326646,-0.06586649416422304,-0.0018345400891164288,-0.03179456507180392,0.08981534650146984,-0.120841816170949,0.14660008549012618,0.42619774739582994,0.12299362127891358
395,1.728690900010406,-0.0049414256481307706,-0.04809218202284696,0.09358796354559987,-0.03829504361496456,-0.0654357841607037,-0.0023669155008638923,-0.031114423871097273,0.09181108815178934,-0.12023307718587406,0.14730589337178057,0.422671405763183,0.12668663962846918
396,1.7321040000097128,-0.005062724787259931,-0.04716510082203357,0.0930354890703018,-0.03842901033150221,-0.0649973483841682,-0.00289682505154225,-0.030432824550975665,0.09378111398725263,-0.11961105344943149,0.1479787847745149,0.4190162102220124,0.1303428036399795
397,1.7358168000064325,-0.005225875196958389,-0.04617617904851759,0.09236539109620902,-0.038560090856431986,-0.06455131665862107,-0.0034242142547844167,-0.02974992238979521,0.09572484272021244,-0.11897593317356175,0.148618483789759,0.4152325240270258,0.13396100803255243
398,1.7396386000036728,-0.005399501306291594,-0.04522814479068682,0.09176181374604162,-0.038688281907384395,-0.0640978197715838,-0.003949029045763527,-0.029065871735673456,0.09764170703937583,-0.11832790523884139,0.14922473450667237,0.41132081605605836,0.1375401794967805
399,1.7440478000062285,-0.0055134156068710844,-0.044275337725451405,0.09107813244822575,-0.03881358065229955,-0.06363698941721137,-0.004471215784632237,-0.028380825934579065,0.09953115394164173,-0.11766715907978567,0.14979730114240672,0.4072816604793344,0.1410792772088328
400,1.7484800000092946,-0.00572873702870113,-0.04328746265292088,0.0905089464977282,-0.03893598470556715,-0.0631689581398526,-0.00499072125996325,-0.027694937260310616,0.10139264504867934,-0.11699388457279987,0.15033596815148573,0.4031157363137273,0.14457729330509922
401,1.7518909000064014,-0.0059010861873768986,-0.04239046441909085,0.08995404687987331,-0.03905549212413894,-0.06269385927808789,-0.005507492692194619,-0.027008356846403705,0.10322565690808055,-0.11630827192685411,0.15084054031437594,0.39882382686334084,0.14803325331733563
402,1.7564835000084713,-0.006022810020468248,-0.041394579146711255,0.08929703779997598,-0.039172101403617175,-0.06221182690927683,-0.006021477737083168,-0.026321234620003114,0.10502968127893847,-0.1156105115769525,0.15131084280534582,0.3944068190478581,0.1514462165683062
403,1.7600963000004413,-0.006237451381216436,-0.04040059350149873,0.08872000882869552,-0.03928581147432286,-0.06172299579464662,-0.006532624489169196,-0.025633719237734248,0.10680422540172245,-0.11490079408046226,0.1517467212397313,0.3898657026202231,0.15481527652796465
404,1.7660745000030147,-0.006308253638881825,-0.03942693459758838,0.08808608132780812,-0.039396621697347006,-0.061227501324950695,-0.007040881485255459,-0.024945958023605126,0.10854881225233884,-0.11417931001636464,0.15214804170075039,0.3852015692753312,0.15813956113026273
405,1.7708281000086572,-0.006495523557673733,-0.038403272674372366,0.0874998618529004,-0.03950453186058795,-0.06072547946672607,-0.00754619770790323,-0.024258096908967467,0.11026298078028596,-0.11344624988748295,0.15251469074602983,0.3804156116515212,0.16141823305071867
406,1.7749348000070313,-0.006680701156485555,-0.0374360198939926,0.08698873667576988,-0.03960954217477787,-0.060217066709177036,-0.008048522588948077,-0.023570280374562675,0.11194628613082945,-0.11270180402573951,0.15284657539402768,0.375509122226767,0.16465048994492193
407,1.779546500009019,-0.006843048668781873,-0.03640484812974234,0.0863716144956828,-0.03971165326950143,-0.05970240001171151,-0.008547806013037762,-0.022882651394675796,0.11359829985114372,-0.11194616250048892,0.15314362309055743,0.37048349211157955,0.16783556464819402
408,1.7831767000025138,-0.007047544093803028,-0.03543054904259936,0.08581619690800794,-0.03981086618920948,-0.05918161675215511,-0.009043998321194551,-0.02219535138341787,0.11521861008038328,-0.11117951502996973,0.1534057816556394,0.36534020974072834,0.17097272533666866
409,1.7869572000054177,-0.0071841676062395915,-0.034465524040209417,0.08516966845753982,-0.03990718238923047,-0.05865485467566727,-0.009537050314403949,-0.021508520143154335,0.11680682172366562,-0.11040205089591257,0.15363301921092637,0.36008085946599433,0.17406127565009522
410,1.7925698000035482,-0.007354119896949297,-0.03344017935930019,0.08467259573044394,-0.04000060373178186,-0.058122251844382404,-0.010026913257231741,-0.020822295815094614,0.11836255660996481,-0.10961395886133778,0.1538253240879695,0.35470712005226157,0.1771005547767112
411,1.796124400003464,-0.007573459882600208,-0.03244424825718471,0.08408377168806509,-0.04009113248198436,-0.05758394658779785,-0.01051353888147105,-0.020136814832055247,0.119885453633933,-0.10881542709157131,0.15398270471761027,0.3492207630793457,0.1800899375005692
412,1.8000351000082446,-0.007573459882600208,-0.03244424825718471,0.08408377168806509,-0.040178771303881256,-0.05704007745392922,-0.010996879389820939,-0.019452211873406434,0.12137516888168472,-0.10800664307850276,0.1541051895008039,0.34362365125204714,0.18302883421174343
413,1.804231400004937,-0.007869363955789827,-0.031561722165642916,0.08354812131225119,-0.040263523256465435,-0.056490783161252243,-0.011476887459597893,-0.018768619822209103,0.12283137574059612,-0.10718779356810504,0.15419282666119596,0.33791773662100044,0.18591669087987808
414,1.808204900007695,-0.008036270617008644,-0.02956906235666858,0.0824179889218824,-0.04034539178971645,-0.05593620255144916,-0.011953516246481324,-0.018086169724547102,0.1242537649931887,-0.10635906449123128,0.1542456840797909,0.33210505871697177,0.18875298899157805
415,1.812479100000928,-0.008207729891777777,-0.02864146300548035,0.08180744849760704,-0.04042438074064963,-0.05537647454297666,-0.012426719388294066,-0.017404990751056688,0.1256420448951833,-0.10552064089769976,0.15426384911206856,0.326187742601335,0.19153724545217818
416,1.816475100000389,-0.008393896817352496,-0.02766331994145029,0.08122442295731076,-0.04050049432937897,-0.05481173808547116,-0.012896451008818652,-0.01672521016065275,0.12699594123782618,-0.10467270689367388,0.15424742838792121,0.32016799683553065,0.19426901245246253
417,1.820046700013336,-0.008525671213055582,-0.026831339386350746,0.08072132367768424,-0.04057373715519587,-0.054242132115006066,-0.01336266572164995,-0.016046953266448855,0.12831519739460462,-0.10381544558233971,0.15419654759479806,0.3140481113723813,0.19694787730093832
418,1.8235156000009736,-0.00870882843817864,-0.025768044102856803,0.08019439740629133,-0.040644114192665164,-0.05366779551021393,-0.013825318634084614,-0.01537034340386588,0.12959957435248576,-0.1029490390078793,0.15411135124446038,0.30783045537220105,0.19957346222230302
419,1.828602900000988,-0.00870882843817864,-0.025768044102856803,0.08019439740629133,-0.040711630787740094,-0.05308886704928552,-0.014284365351047556,-0.014695501900921486,0.13084885072782648,-0.10207366810273359,0.15399200242376412,0.3015174749466991,0.20214542412277475
420,1.832168000008096,-0.009013339280764053,-0.024948643665618605,0.07974006272607428,-0.04077629265389775,-0.05250548536785658,-0.014739761979055467,-0.014022548050690423,0.13206282276711773,-0.1011895126381449,0.15383868252990118,0.2951116908337341,0.20466345432298658
421,1.8358840000000785,-0.009218319719865534,-0.022978934641311035,0.07863679847651098,-0.04083810586829644,-0.051917788917792154,-0.01519146513021725,-0.01335159908592331,0.13324130433274128,-0.1002967511779647,0.15365159099054299,0.28861569600602954,0.2071272782591752
422,1.8398792000079995,-0.009218319719865534,-0.022978934641311035,0.07863679847651098,-0.04089707686795666,-0.05132591592687672,-0.01563943192627099,-0.012682770155809427,0.13438412687393114,-0.09939556103570911,0.15343094496934376,0.28203215321700775,0.20953665515342149
423,1.8437884000013585,-0.009516333161795596,-0.02217003739979817,0.07818957450685342,-0.04095321244596693,-0.05073000435941771,-0.016083620002657062,-0.012016174304866746,0.13549113938314591,-0.09848611823484003,0.1531769790572712,0.27536379248694515,0.21189137765372854
424,1.8483248000120511,-0.00961508857625078,-0.020391980349118526,0.07712972189689712,-0.04100651974771549,-0.05013019187776836,-0.016523987512626764,-0.011351922453940299,0.13656220833807145,-0.09756859747224687,0.1528899449502439,0.26861340853269133,0.21419127144474795
425,1.85222960000101,-0.009974782253992832,-0.01796456652802477,0.07566961005810227,-0.04105700626714862,-0.04952661580477544,-0.016960493131385673,-0.010690123383287979,0.1375972176294865,-0.09664317208489952,0.1525701111135649,0.26178385814423294,0.21643619482998852
426,1.8572618000034709,-0.01006680876743836,-0.01716712626489352,0.07518361622694227,-0.04110467984305651,-0.04891941308715607,-0.017393096060270664,-0.010030883717730796,0.1385960684752367,-0.09571001401964062,0.1522177624336492,0.25487805751141424,0.2186260382863659
427,1.8623885000124571,-0.010174659961708767,-0.016425050091459233,0.07470459169268223,-0.04114954865538717,-0.048308720259806696,-0.01782175603095942,-0.009374307913842628,0.1395586793205732,-0.09476929380608126,0.15183319985755317,0.247898979504155,0.2207607239919718
428,1.8667821000126423,-0.010325250206556856,-0.015606787203810327,0.07424794437011877,-0.041191621221588995,-0.0476946734110461,-0.0182464333097111,-0.00872049824915258,0.14048498572512574,-0.0938211805325607,0.15141674002082137,0.2408496509095269,0.22284020532796256
429,1.8703077000100168,-0.010325250206556856,-0.015606787203810327,0.07424794437011877,-0.04123090639298226,-0.04707740814879363,-0.018667088701636664,-0.008069554813331213,0.14137494023679045,-0.09286584182512671,0.15096871486417568,0.23373314962907155,0.2248644663554884
430,1.8736596000089776,-0.010693786644819153,-0.014909612728211254,0.07388791300082409,-0.04126741335115964,-0.046457059567682917,-0.0190836835549972,-0.007421575501330159,0.14222851225282193,-0.09190344382949106,0.15048947123957723,0.2265526018397574,0.2268335212686006
431,1.8774632999993628,-0.010693786644819153,-0.014909612728211254,0.07388791300082409,-0.041301151604415984,-0.04583376221711004,-0.01949617976552857,-0.006776656008442908,0.14304568786843191,-0.09093415119591094,0.14997937050619822,0.2193111791219863,0.22874741382409086
432,1.881695200005197,-0.010693786644819153,-0.014909612728211254,0.07388791300082409,-0.04133213098420748,-0.045207650070214524,-0.019904539780790372,-0.006134889827252868,0.14382646971320626,-0.08995812706694496,0.1494387881168467,0.21201209555806655,0.2306062167492321
433,1.8854664000100456,-0.0109402774191125,-0.013414911083965489,0.0730871064244707,-0.04136036164163973,-0.04457885649379031,-0.020308726604537253,-0.005496368246433297,0.14457087677566116,-0.08897553306802868,0.1488681131953919,0.20465860480457207,0.23241003112840317
434,1.890098900010344,-0.01108514250988248,-0.011257204190177542,0.07175612936063029,-0.041385854043984385,-0.043947514219122914,-0.020708703801110288,-0.004861180351362123,0.14527894421626686,-0.08798652930081192,0.1482677481057422,0.19725399714200695,0.23415898576959499
435,1.893959200009704,-0.01108514250988248,-0.011257204190177542,0.07175612936063029,-0.04140861897122408,-0.04331375531374808,-0.02110443549984629,-0.004229413026513229,0.14595072316927613,-0.08699127433919748,0.147638108012929,0.18980159650518857,0.2358532365518051
436,1.8981520000088492,-0.01108514250988248,-0.011257204190177542,0.07175612936063029,-0.04142866751262556,-0.042677711154126316,-0.021495886399502583,-0.0036011509595843642,0.14658628053370246,-0.08598992522801857,0.1469796204368543,0.18230475749775357,0.23749296575433665
437,1.9025491000065813,-0.011408533139211906,-0.010730507857638707,0.07141342389150505,-0.04144601106334041,-0.04203951239922711,-0.02188302177269469,-0.002976476647320528,0.14718569875380136,-0.08498263748429002,0.14629272479926236,0.1747668623941789,0.23907838136902762
438,1.906292100000428,-0.011578030489055858,-0.009314120766771579,0.07060042823567417,-0.04146066132103274,-0.04139928896501567,-0.02226580747034422,-0.002355470402990458,0.1477490755894134,-0.08396956510096588,0.1455778719644967,0.1671913181326948,0.24060971639644113
439,1.9099125000066124,-0.011704800649868102,-0.008742667653413933,0.07019937016208738,-0.04147263028253343,-0.040757169999834454,-0.022644209926134196,-0.0017382103654726816,0.14827652387653423,-0.08295086055313362,0.14483552377460376,0.1595815533024448,0.2420872281270543
440,1.91319660001318,-0.011982919492163534,-0.0075162213605166565,0.06952803767852228,-0.041481930240520146,-0.040113283860670666,-0.02301819616096891,-0.0011247725099064521,0.14876817127848277,-0.08192667480657341,0.14406615257934546,0.151941015128224,0.2435111974084878
441,1.916914400004316,-0.012375128452144496,-0.007043234977186149,0.06923354310008922,-0.04148857378022247,-0.0394677580903004,-0.023387733787435392,-0.000515230659861876,0.14922416002804345,-0.0808971573286096,0.1432702407616809,0.14427316645609872,0.24488192789982183
