,time,x,y,z,vx,vy,vz,ax,ay,az,jx,jy,jz
0,0.0032404999947175,0.0,0.0,0.0,0.0001534497495178781,-0.00018919328289600712,6.682057769891618e-05,0.00112510463756678,-0.000768629691622362,0.0003059204866130099,-0.008128414284852748,0.022382053715307125,-0.0038669136461235436
1,0.0087332999974023,-7.055812600515394e-06,9.171487043950003e-05,-2.405756621585541e-06,0.0004019255028728747,-0.0006355305177048555,0.00014795149869501305,0.0020860738531055137,-0.0021627887679254013,0.0005423535497868931,-0.007067041176052968,0.022054062340546597,-0.0040590397685292936
2,0.0125026999885449,-2.8478776315512648e-05,0.00018072110792112137,-3.254306617369856e-05,0.0006507436978550193,-0.001081040002887759,0.00022888821159666416,0.0030366057841039944,-0.00353550517034826,0.0007742121534014062,-0.0060632231271283464,0.021807376661588964,-0.004268867819820843
3,0.0158665999915683,-3.7251379071758656e-05,0.00022568128034323946,-4.193080239100601e-05,0.0008997976188069251,-0.0015255048674732736,0.0003095881467065262,0.003976095513540628,-0.004885843978187124,0.0010013126105323903,-0.005117974939067743,0.02164261541287518,-0.004496450800643104
4,0.0192315999884158,-4.778223131266754e-05,0.00025915996622029075,-4.583083386800042e-05,0.00114898019351835,-0.001968708484320746,0.00039000869833739595,0.004903944449227349,-0.00621288507989492,0.00122347398501057,-0.004232261514862961,0.02156031839061223,-0.004741825393028761
5,0.0237170999898808,-5.5655511638641835e-05,0.00029231159783661296,-5.643831343248493e-05,0.0013981840753964985,-0.0024104346464916804,0.00047010725725543347,0.005819560874963366,-0.007515724073337027,0.0014405182649039662,-0.003406996583260208,0.02156094530796601,-0.005005011772453224
6,0.0279931999975815,-5.750954331228155e-05,0.0003331134746791739,-6.425506848307848e-05,0.0016473017257885114,-0.002850467743187047,0.000549841243109065,0.006722360496007682,-0.008793473152313812,0.0016522705336009032,-0.0026430414720202606,0.021644874733682287,-0.005286013436157197
7,0.0323231999936979,-5.750954331228155e-05,0.0003331134746791739,-6.425506848307848e-05,0.0018962254963687723,-0.0032885929350602422,0.0006291681368093374,0.007611766978252602,-0.010045261978304592,0.0018585591382971986,-0.0019412039324014205,0.021812403115985087,-0.005584817048053009
8,0.0365113000007113,-0.00016895952541873626,0.0003328932921102576,-6.620108815759831e-05,0.002144847711503735,-0.003724596328716316,0.0007080455128275963,0.008487212480487095,-0.011270238536403245,0.0020592158556938392,-0.0013022370165229242,0.02206374389350393,-0.005901392300512326
9,0.0408360000001266,-5.639577162118005e-05,0.0004209959589080129,-0.0001176528221736838,0.002393060750507154,-0.004158265150209201,0.0007864310713765129,0.009348138179146336,-0.012467569974432784,0.0022540760547144255,-0.0007268380092074071,0.02239902669488031,-0.0062356917933138935
10,0.0453597000014269,-4.552822209957055e-05,0.0004464002697646295,-0.00012523018871797402,0.002640757129698907,-0.004589387917350058,0.0008642826704406804,0.010193994784951955,-0.01363644342424464,0.002442978856054893,-0.00021564741583951318,0.022818296628599716,-0.006587650930010456
11,0.0495534999936353,-4.209322854355806e-05,0.0004832167909470023,-0.00010863021968709255,0.002887829584181023,-0.005017754610641465,0.0009415583576232325,0.011024243050856718,-0.01477606680422837,0.0026257672883815116,0.00023075199228625134,0.023321513664488758,-0.006957187831954035
12,0.053460900002392,-3.1551330889346505e-05,0.0005241257260132636,-0.0001291142900052282,0.003134171149245068,-0.0054431568426540665,0.0010182164017752248,0.011838354270717213,-0.015885669602078656,0.002802288440996924,0.0006118360737216395,0.02390855210820717,-0.00734420327019828
13,0.0576124999934108,-3.9646287894592585e-05,0.0005740760896874416,-0.00011586147090552691,0.003379675241325672,-0.0058653880256644255,0.0010942153243748377,0.012635810768128869,-0.016964503636889117,0.0029723936127979593,0.0009271401523865688,0.024579200169952495,-0.007748580615475744
14,0.0616709999885642,-3.9646287894592585e-05,0.0005740760896874416,-0.00011586147090552691,0.0036242357384157612,-0.0062842435373751575,0.0011695139306238354,0.013416106374869013,-0.018011843799666333,0.0031359384573532234,0.001176259791589363,0.025333159628480713,-0.008170185806426679
15,0.0661508999910438,-0.00017760217597871672,0.000545810862276206,-8.441139441143533e-05,0.003867747059859905,-0.006699520884541015,0.0012440713402291255,0.014178746898405986,-0.019026988771382453,0.0032927831239329417,0.001358851505350701,0.026170045591429224,-0.008608867336234345
16,0.0696705000009387,-5.318035879440462e-05,0.0006658431155744137,-0.00012463588350879838,0.004110104245443172,-0.0071110198643274366,0.0013178470178377205,0.014923250577945154,-0.020009261717711196,0.0034427923943282303,0.0014746334059114233,0.027089386352809705,-0.009064456257799842
17,0.0730731999938143,-4.764129211476279e-05,0.0006965618630186799,-0.00014206484880107756,0.004351203033693975,-0.007518542723231121,0.001390800803093904,0.015649148528496325,-0.020958010959619647,0.0035858358153018845,0.0015233857863809982,0.028090623348417457,-0.009536766207567203
18,0.0764575999928638,-5.0472743120631633e-05,0.0007282774756340324,-0.00014587929009715427,0.004590939939320602,-0.007921894313395446,0.0014628929402879355,0.01635598517246139,-0.02187261061901695,0.0037217878265179247,0.0015049516375618367,0.029173111209781492,-0.010025593448086867
19,0.082627899988438,-6.344882517638922e-05,0.0007875886037529786,-0.0001386128179023598,0.004829212329702368,-0.008320882246157067,0.0015340841075661997,0.017043318658256056,-0.022752461238690916,0.0038505278838025033,0.0014192370980646847,0.03033611791715529,-0.01053071692938284
20,0.0862736999988555,-6.28495635279963e-05,0.000807798605936587,-0.00014689682038468343,0.005065918500357771,-0.00871531704266369,0.0016043354456733204,0.01771072126549513,-0.02359699037579434,0.003971940577594323,0.0012662118369118941,0.03157882505192258,-0.011051898369165838
21,0.090572200002498,-6.252548703869213e-05,0.0008326854376759836,-0.00015407721439183826,0.005300957749313505,-0.009105012281406947,0.0016736085861974092,0.018357779796287103,-0.024405653168174706,0.004085915746448489,0.0010459093679083356,0.03290032814866587,-0.01158888235191141
22,0.0951932999887503,-5.657143701551546e-05,0.0008566672468250382,-0.00015568831036199025,0.0055342304502997595,-0.009489784742518435,0.0017418656792903024,0.018984095952200623,-0.025177932872873936,0.004192348585463634,0.000758427295143986,0.03429963714701757,-0.012141396446798708
23,0.0991307999938726,-5.0171962164379885e-05,0.0008767527884197126,-0.00015574262117220937,0.005765638124698903,-0.009869454548681168,0.001809069420835364,0.019589286696483015,-0.025913341376158593,0.004291139749508295,0.0004039274890776484,0.03577567694328533,-0.012709151344482028
24,0.1033561999938683,-2.79055003396472e-05,0.0009070032620914227,-0.00014564552379567623,0.005995083512176406,-0.010243845302513174,0.0018751830790361768,0.020172984601128895,-0.02661141967447576,0.0043821954511287335,-1.736380726229033e-05,0.03732728804171378,-0.013291841012643692
25,0.1086600999988149,-3.350164621657304e-05,0.0009104955247738334,-0.00015717279287907787,0.006222470639924729,-0.010612784220284594,0.0019401705204002359,0.02073483817841553,-0.027271738325765276,0.004465427553026889,-0.0005051559423367746,0.03895322730511533,-0.013889142870253144
26,0.113977100001648,-1.7432642357806295e-05,0.0009386913000526675,-0.00014193042727981414,0.00644770489045279,-0.01097610226183447,0.0020039962350925722,0.021274512196540606,-0.027893897870595246,0.004540753655003688,-0.0010590938907032142,0.040652168804472796,-0.014500717980433472
27,0.1174909999972442,-1.7432642357806295e-05,0.0009386913000526675,-0.00014193042727981414,0.00667069306785564,-0.011333634256558324,0.0020666253616350868,0.021791687979017697,-0.028477529222624736,0.004608097175269648,-0.001678758358370575,0.04242270476698667,-0.015126211261812898
28,0.1210348999884445,-0.00019914121803598535,0.0009011368393948456,-0.00011438099339567788,0.006891343462501071,-0.01168521902534278,0.0021280237109282426,0.02228606368750457,-0.029022294027935196,0.004667387426031514,-0.0023636659590128236,0.04426334662190984,-0.015765251718215353
29,0.124379000000772,-0.00019914121803598535,0.0009011368393948456,-0.00011438099339567788,0.0071095659140720914,-0.012030699498328773,0.0021881577895726634,0.02275735458775984,-0.029527884992810515,0.004718559683270673,-0.003113269461061399,0.046172526143383026,-0.01641745268652067
30,0.1290428999927826,-0.00019914121803598535,0.0009011368393948456,-0.00011438099339567788,0.0073252718729064055,-0.01236992282839025,0.0022469948224691136,0.023205293298444278,-0.02999402617958442,0.004761555250636144,-0.0039269581056074025,0.04814859668935519,-0.017082412102501596
31,0.1326088999921921,-1.2593883350057001e-05,0.0009907130707064076,-0.00018615129580590236,0.007538374459576299,-0.012702740500220829,0.0023045027746762983,0.023629630022503786,-0.03042047327021309,0.004796321517382129,-0.004804057994954103,0.05018983453554507,-0.017759712784421556
32,0.1367640999960713,-1.2593883350057001e-05,0.0009907130707064076,-0.00018615129580590236,0.007748788522654717,-0.013029008434926508,0.0023606503725068922,0.024030132760892633,-0.030807013797270813,0.004822812010287336,-0.00574383255157024,0.052294440303272946,-0.018448922734154195
33,0.1406439999991562,-1.2593883350057001e-05,0.0009907130707064076,-0.00018615129580590236,0.00795643069461572,-0.013348587090028247,0.0024154071238432096,0.024406587508417205,-0.03115346734210668,0.004840986439500639,-0.006745483047104669,0.054460540479865364,-0.019149595455562864
34,0.1450679999979911,-0.00015703622220214426,0.0009480458602690586,-0.0001605350148482793,0.00816121944582001,-0.013661341554784021,0.0024687433376549242,0.02475879843150236,-0.03145968569994078,0.0048508107382650234,-0.007808149201033199,0.056686189030210395,-0.019861270289855706
35,0.1495681999949738,1.827375917173123e-05,0.001008132150360563,-0.00019354907945696447,0.00836307513653869,-0.013967141640745978,0.0025206301427022856,0.02508658802770464,-0.031725553011718775,0.004852257096479196,-0.008930909848419244,0.058969369097918126,-0.0205834727676098
36,0.1535004999896045,1.827375917173123e-05,0.001008132150360563,-0.00019354907945696447,0.008561920066971028,-0.014265861967474293,0.0025710395054093374,0.025389797266818927,-0.03195098586258504,0.004845303988063746,-0.01011278367618114,0.061307994794418924,-0.02131571497713589
37,0.1582263000018429,-0.00012045167798270987,0.0009639152186833601,-0.0001805947966716963,0.008757678525214637,-0.014557382043335421,0.0026199442468926954,0.025668285713447547,-0.032135933346875256,0.004829936192106242,-0.011352730027170913,0.06369991307421223,-0.02205749594883375
38,0.1626963000016985,5.894313294264267e-05,0.001023446718860817,-0.0001849659153981835,0.008950276833149046,-0.014841586341318599,0.002667318059132523,0.025921931630923337,-0.032280377099570635,0.004806144807767208,-0.012649649771282028,0.0661429056943607,-0.022808302055166995
39,0.1660240999917732,0.00011724233352897764,0.0010372411468721112,-0.00016605439129339876,0.009139643390196418,-0.015118364369810731,0.0027131355202734304,0.026150632066500774,-0.032384331294196836,0.004773927262936479,-0.01400238624271737,0.0686346912562088,-0.02356760742586532
40,0.1702574999944772,0.0001296167764744912,0.0010459741874698893,-0.0001443907109294131,0.009325708714925815,-0.015387610738276061,0.002757372109044105,0.026354302917752117,-0.032447842607192016,0.004733287316637006,-0.015409726242463413,0.07117292732719217,-0.02433487437794209
41,0.1741006999945966,0.00011389143950525039,0.0010588853668370265,-0.00012029203456104725,0.0095084054844702,-0.015649225217793317,0.0028000042182855936,0.02653287898012824,-0.03247099014880936,0.004684235055180694,-0.016870401104932504,0.07375521264049263,-0.02510955386009541
42,0.1786060000013094,0.00011389143950525039,0.0010588853668370265,-0.00012029203456104725,0.009687668571728068,-0.01590311279640933,0.0028410091675792563,0.0266863139756666,-0.032453885360660024,0.004626786882088387,-0.01838308782765237,0.07637908937018707,-0.025891085911041438
43,0.1823764000000665,-1.4776134282585975e-05,0.0010206301450987395,-3.5105546827989726e-05,0.009863435080324388,-0.016149183729274413,0.002880365214966532,0.026814580562851565,-0.032396671880043464,0.004560965501793557,-0.019946410262800453,0.07904204547943308,-0.02667890013131002
44,0.1864627999893855,0.00013533473238032566,0.0010977104993018468,4.0899547127782495e-06,0.010035644377308266,-0.01638735358353119,0.002918051567753793,0.02691767032765482,-0.03229952537125256,0.00448679989715676,-0.021558940369301033,0.08174151713913205,-0.027472416168014546
45,0.19114830000035,0.00013533473238032566,0.0010977104993018468,4.0899547127782495e-06,0.01020423812356763,-0.0166175432779349,0.002954048392396665,0.02699559375580627,-0.032162653324080935,0.0044043253008252264,-0.02321919952412498,0.08447489121441212,-0.028271044212090205
46,0.1951314999896567,1.9492312571997808e-05,0.0010738152943133804,4.201477748321804e-05,0.010369160301944062,-0.01683967911718964,0.002988336823459324,0.027048380186368116,-0.03198629481979943,0.004313583160479371,-0.024925659891355596,0.08723950781617842,-0.02907418550747804
47,0.2006797999929404,0.00016056917328316386,0.0011510142353473862,6.478576380367203e-05,0.010530357243033663,-0.017053692820991256,0.0030208989716453785,0.027076077746707037,-0.031770720264907876,0.0042146210980151975,-0.026676745847509557,0.09003266291488601,-0.02988123287171591
48,0.2053770999918924,0.00016056917328316386,0.0011510142353473862,6.478576380367203e-05,0.010687777648662675,-0.017259521547773875,0.0030517179308980798,0.027078753268981366,-0.031516231093007045,0.004107492862718782,-0.028470835461529485,0.09285161101360341,-0.030691571227381847
49,0.209334699989995,0.00016056917328316386,0.0011510142353473862,6.478576380367203e-05,0.010841372613029438,-0.017457107913163433,0.003080777784568703,0.02705649218828213,-0.031223159435173523,0.003992258278496082,-0.030306262027794278,0.09569356787735028,-0.03150457814382053
50,0.2134221000014804,0.00016755963855422955,0.0011871523006987148,0.00012969216615472907,0.010991095641506974,-0.017646400003147635,0.0031080636106530527,0.027009398422588364,-0.03089186775925838,0.0038689831852283256,-0.032181315650425105,0.09855571331561173,-0.03231962438856935
51,0.2168889999884413,0.0001765669225474047,0.0011971277701699403,0.00015334801706492397,0.011136902667103305,-0.01782735138197808,0.0031335614860971595,0.026937594234718268,-0.030522748478567355,0.003737739374330052,-0.03409424487709904,0.10143519401485587,-0.03313607448788715
52,0.2211493999930098,0.000200700404858661,0.0012161946551359343,0.00020111106049181874,0.011278752064579376,-0.017999921094826298,0.003157258490174292,0.026841220076478718,-0.03011622353041678,0.0035986045185936563,-0.03604325838051884,0.10432912641780884,-0.03395328729577611
53,0.2251065999880666,0.0002123201500228071,0.0012211416802643507,0.00022509021467209504,0.011416604662227168,-0.0181640736652214,0.003179142706936509,0.02672043441523617,-0.029672743925094888,0.0034516620964108974,-0.038026526685626366,0.1072345996461738,-0.03477061657087509
54,0.2285502000013366,0.00022172237536019468,0.001228263750763029,0.00025155024641863524,0.011550423751313323,-0.01831977908730308,0.0031992032267450323,0.02657541354315235,-0.029192789265792614,0.003297001310468328,-0.04004218394058855,0.11014867846341692,-0.035587411560591795
55,0.2336842999939108,0.00022842268610148898,0.0012389155174780493,0.0002803739328728845,0.011680175093196278,-0.018467012812929576,0.0032174301468847937,0.026406351369348047,-0.028676867240102093,0.003134717001019908,-0.04208832972952891,0.11306840627418409,-0.036403017591830775
56,0.2377807000011671,0.0002376416140885861,0.0012527642048822027,0.0003072123711709431,0.011805826924127558,-0.01860575573368617,0.0032338145712695293,0.02621345919527768,-0.028125513083714068,0.002964909553846263,-0.04416303092492462,0.11599080815685817,-0.03721677666766478
57,0.2419733999995514,0.000261662867642903,0.0012702395051565525,0.0003360425699833148,0.011927349957750586,-0.018735994157845257,0.0032483486092448216,0.025996965473616275,-0.027539289016977532,0.0027876848030160663,-0.046264323577538506,0.11891289392571566,-0.03802802806928885
58,0.2458991000021342,0.00026295090487452657,0.0012804797715607952,0.00036240638969392834,0.012044717385312891,-0.018857719782334748,0.003261025373497499,0.025757115550979166,-0.0269187836550158,0.002603153928570851,-0.048390214841707836,0.12183166121909729,-0.038836108962588496
59,0.2493010999896796,0.00026910583586613494,0.0012913588517398124,0.00038561337115563984,0.01215790487361008,-0.01897092965977694,0.0032718389770807635,0.02549417139481261,-0.02626461139212356,0.002411433349260224,-0.05053868493376736,0.12474409860996634,-0.039640355008646405
60,0.252829599994584,0.00026963453883950675,0.0013049247163178723,0.0003985103426852161,0.012266890560682482,-0.01907562616066544,0.0032807845295654008,0.02520841130481115,-0.025577411761198342,0.002212644610459935,-0.05270768912134249,0.12764718873519398,-0.04044010097750624
61,0.2570457999972859,0.00026963453883950675,0.0013049247163178723,0.0003985103426852161,0.012371655049287876,-0.019171816930753132,0.0032878581323283543,0.024900129609234493,-0.024857848768988007,0.0020069142674105462,-0.054895159741209974,0.13053791143987958,-0.041234681364506746
62,0.2627669999928912,0.00026963453883950675,0.0013049247163178723,0.0003985103426852161,0.012472181398176128,-0.01925951484372919,0.0032930568729908874,0.024569636346513126,-0.024106610207962897,0.0017943737639195562,-0.05709900824338807,0.1334132469329881,-0.04202343100849546
63,0.2666360000002896,0.00025979912448291574,0.0013477288694124616,0.00045395705795871644,0.012568455111193835,-0.019338737949268013,0.0032963788190194525,0.024217256932547775,-0.023324406945646914,0.0015751593066746846,-0.05931712725908554,0.13627017895056617,-0.042805685711228086
64,0.2703247999888845,0.0002592268816988398,0.0013606294430134214,0.0004575620810094025,0.012660464124249394,-0.019409509416537633,0.0032978230105032576,0.023843331814123007,-0.02251197219226642,0.0013494117353207288,-0.06154739269010999,0.13910569792278318,-0.043580782857256826
65,0.2743219999974826,0.0002592268816988398,0.0013606294430134214,0.0004575620810094025,0.012748198790171174,-0.019471857473259843,0.0032973894521233873,0.02344821610886996,-0.021670060747599237,0.0011172763884568788,-0.06378766581730969,0.14191680414103094,-0.04434806203360959
66,0.2782714999921154,0.00017821972730091895,0.0013635808226951966,0.0004876984084022863,0.012831651861493619,-0.019525815340419053,0.0032950791043291523,0.023032279232227178,-0.02079944822792829,0.0008789029657156194,-0.06603579542560029,0.14470051092131087,-0.04510686564856136
67,0.2828101999912178,0.00017821972730091895,0.0013635808226951966,0.0004876984084022863,0.012910818471208308,-0.019571421162720908,0.0032908938737381452,0.022595904511861963,-0.019900930274025286,0.0006344453860883752,-0.06828961994310842,0.1474538477601371,-0.045856539548799514
68,0.2866323999915039,0.00016394881779555477,0.0013748930022360283,0.0005215894611168948,0.012985696111519032,-0.019608717934905994,0.0032848366027772506,0.022139488790027428,-0.018975321741109556,0.00038406164266683977,-0.07054696959194816,0.1501738634791883,-0.04659643363428569
69,0.2907637999887811,0.00016394881779555477,0.0013748930022360283,0.0005215894611168948,0.013056284610641884,-0.019637753424027973,0.003276911058582613,0.02166344201434244,-0.018023455871745492,0.0001279136539725032,-0.07280566854813318,0.15285762935495,-0.047325902470118815
70,0.2954762000008486,0.00016874515244899804,0.0013887743501781128,0.000523640481559759,0.013122586107693278,-0.01965858008780951,0.0032671219211772443,0.02116818681749318,-0.01704618345265934,-0.0001338328879497906,-0.07506353710811785,0.1555022422296034,-0.04804430589470697
71,0.2990959000017028,0.0002604605762201051,0.0014208396688654703,0.0005033210020945606,0.013184605025710623,-0.01967125498919306,0.003255474770945649,0.020654158086365955,-0.016044371956471702,-0.00040100867249533574,-0.07731839385945406,0.1581048275994369,-0.04875100962355985
72,0.3034942999947816,0.0002632480618994402,0.0014305036320744788,0.000500876405851248,0.01324234804285218,-0.019675839707207023,0.0032419760754255097,0.02012180252113055,-0.015018904669356528,-0.0006734409283383371,-0.07956805785304763,0.16066254267708094,-0.04944538584801811
73,0.308719699998619,0.00026060572312671976,0.0014416606712410616,0.0005038209273538034,0.01329582406182434,-0.01967240024427109,0.003226633175437095,0.019571578184802835,-0.013970679805650355,-0.0009509535839615884,-0.08181035077449815,0.16317257942389551,-0.05012681382824166
74,0.3137802999990526,0.00025450149504828803,0.0014592301909587561,0.0004916247510719614,0.013345044177586182,-0.01966100693006773,0.0032094542705716285,0.019003954043824094,-0.01290060961044727,-0.0012333674306903263,-0.08404309911201034,0.16563216754887408,-0.05079468047978569
75,0.3176235999999335,0.00024822197816066897,0.0014716828352084935,0.0004886817130812778,0.013390021643382663,-0.019641734322109784,0.0031904484040604273,0.018419409500202176,-0.011809619451225363,-0.0015205002880414192,-0.08626413631837156,0.16803857747046763,-0.05144838095310064
76,0.3224298999994062,0.0002323326168804441,0.001491742454713119,0.0004772431316460932,0.013430771835159316,-0.019614661103136945,0.003169625447047137,0.017818433915766745,-0.010698646899559457,-0.0018121671711971957,-0.08847130496450066,0.1703891232377751,-0.05208731920530052
77,0.3268861999968067,0.00022288885849105428,0.0015055185175424245,0.0004731938048738454,0.013467312214412693,-0.019579869975476578,0.0031469960822859033,0.01720152612909722,-0.00956864080398246,-0.0021081804604116054,-0.09066245888208722,0.17268116540759462,-0.052710908563553115
78,0.3313599999964935,0.00020963727559166568,0.0015302120066802163,0.0004648942237404344,0.01349966228953209,-0.01953744755250673,0.0031225717872887795,0.016569193965687783,-0.008420560355063953,-0.002408350072155052,-0.0928354652928554,0.1749121138738831,-0.053318572279455405
79,0.3363612999964971,0.00019475093223445488,0.001545182258559548,0.00046623273435759266,0.013527843575689246,-0.019487484247361304,0.0030963648169460723,0.01592195374191874,-0.007255374143779371,-0.0027124836318031323,-0.09498820692200634,0.1770794306462305,-0.05390974407376837
80,0.3407064999919384,0.0001809962169075679,0.001564301381232055,0.00045295973287639386,0.013551879553333925,-0.019430074159019393,0.0030683881856437326,0.015260329763407621,-0.0060740592142465915,-0.0030203866476736676,-0.09711858409341655,0.17918063257401431,-0.054483868670897245
81,0.3450061999901663,0.0001644749939587306,0.0015850832979374928,0.0004452153579960943,0.013571795625354327,-0.019365314955922624,0.003038655648902247,0.014584853818316892,-0.0048776001119087,-0.003331862686215808,-0.0992245168041954,0.18121329401296826,-0.05504040232251538
82,0.3493670000025304,0.00014758378567584056,0.0016036345895019334,0.0004377672304640578,0.013587619072962307,-0.019293307757265912,0.0030071816845618164,0.013896064666197968,-0.0036669879282425193,-0.003646713548154628,-0.1013039467762342,0.18317504943096835,-0.055578813319743015
83,0.3542488999955822,0.00011132502950003801,0.001632962819203956,0.0004267381122332664,0.013599379010364232,-0.019214157012108667,0.0029739814735389165,0.013194507522953109,-0.00244321934307173,-0.003964739445394525,-0.10335483948241114,0.1850635959499155,-0.0560985824933058
84,0.3576948999980232,9.662863747333658e-05,0.0016455483115637361,0.0004181055808884543,0.013607106338279072,-0.01912797037645462,0.002939070880179585,0.012480733542497905,-0.0012072956655613792,-0.004285739178484875,-0.10537518614515196,0.18687669582067212,-0.056599203701112946
85,0.3618547999940347,5.756980344563691e-05,0.0016808198531789744,0.00040045509078174483,0.013610833696366025,-0.019034858588449517,0.0029024664322349998,0.011755299295707577,3.977812503284769e-05,-0.004609510314451773,-0.10736300570508323,0.188612178828094,-0.05708018430271008
86,0.3662303000019165,-4.288262279184082e-05,0.0016686076226953572,0.0004363201400924536,0.013610595414624628,-0.018934935341846752,0.0028641853004850917,0.01101876624723004,0.0012969943377919171,-0.004935849364800358,-0.10931634675755694,0.19026794462328545,-0.05754104562007764
87,0.369940199991106,-1.5023344851211357e-05,0.0017497838391920262,0.00038661942502850143,0.013606427463830876,-0.01882831715789174,0.002824245278036081,0.010271700230747733,0.002563343526674674,-0.005264551963493072,-0.11123328945486798,0.19184196498029543,-0.05798132338426251
88,0.375538599997526,-3.491666358025428e-05,0.001771061184166758,0.00037707080370201625,0.013598367405073275,-0.01871512325577613,0.0027826647593179716,0.009514670923268548,0.0038378154441177175,-0.005595413044710336,-0.11311194737203231,0.19333228597456653,-0.058400568167347754
89,0.3803235999948811,-6.149877394988454e-05,0.001787470583341482,0.0003746931278666306,0.01358645433845323,-0.018595475421813504,0.0027394627188080966,0.008748251319023704,0.0051193999906472675,-0.00592822702020151,-0.1149504693340427,0.1947370300805448,-0.058798345799283135
90,0.3846753999969223,-7.861238840751344e-05,0.00180533199138184,0.0003708280647722079,0.013570728851014454,-0.018469497877488198,0.0026946586895068825,0.007973017203547378,0.006407088159466245,-0.0062627879560355326,-0.1167470412025702,0.19605439818596,-0.0591742377691178
91,0.3908154999953694,-0.00010213914121202068,0.001823773682512681,0.0003662067798522735,0.013551232963966264,-0.01833731714652862,0.002648272741192031,0.0071895466285090154,0.007699872974990943,-0.006598889748562458,-0.1184998876201335,0.19728267152038984,-0.059527841610195094
92,0.395030300001963,-0.00012339481060670936,0.001872806367906618,0.00037689371723864174,0.013528010079265787,-0.018199061921156306,0.002600325458477302,0.006398419387864811,0.008996750424323987,-0.00693632629939917,-0.12020727370981343,0.19842021349582928,-0.059858771268889215
93,0.3992940000025555,-0.00012339481060670936,0.001872806367906618,0.00037689371723864174,0.013501104925624131,-0.01805486292766149,0.002550837918702045,0.005600216495889769,0.010296720380663874,-0.0072748916892547795,-0.12186750672864978,0.1994654714570941,-0.0601666574564839
94,0.4035311999905389,-0.0002380041941167615,0.0018520930389163818,0.00040346947935841553,0.013470563504001533,-0.017904852791455435,0.0024998316696775466,0.004795519667645854,0.011598787517666093,-0.0076143803504136924,-0.12347893767291697,0.20041697834000238,-0.06045114798381381
95,0.4076015999889932,-0.00018657645804252373,0.0019103313921473013,0.0003721234190687839,0.013436433032656393,-0.01774916590174878,0.0024473287073161452,0.0039849108024352835,0.012901962213786693,-0.007954587237697017,-0.12503996283353946,0.20127335423538986,-0.06071190807831057
96,0.4115501999913249,-0.00018617309328863277,0.0019283934710459876,0.00035835599720758716,0.01339876189181294,-0.017587938276004276,0.0023933514531689305,0.003168971470780937,0.014205261445656115,-0.008295307997725862,-0.12654902529997245,0.20203330785713317,-0.06094862068311645
97,0.415659099991899,-0.00020611137326215212,0.0019333396959363577,0.00035298951309789534,0.01335759956801204,-0.01742130742431097,0.0023379227318976814,0.002348282405468143,0.0155077096695493,-0.008636339136313152,-0.12800461641093977,0.2026956379124748,-0.06116098673795086
98,0.4208402999938698,-0.0002131103458025354,0.0019442238177244222,0.0003520182420648684,0.013312996598209312,-0.017249412213825612,0.0022810657487064927,0.001523422997173766,0.01680833969003718,-0.008977478183813942,-0.12940527715048972,0.20325923437306445,-0.06134872544143676
99,0.4242305999941891,-0.00022627102886924502,0.0019507773405777636,0.0003489448829906335,0.013265004513684335,-0.017072392733425572,0.0022228040667583134,0.0006949707951996094,0.018106193514924762,-0.009318523858267667,-0.13074959948790119,0.20372307964525474,-0.06151157449461622
100,0.4284647999884328,-0.0002374435407425235,0.001956600362016535,0.00033222254997747856,0.013213675783824137,-0.016890390158715934,0.0021631615846013546,-0.0001364989861823117,0.01940032319560219,-0.00965927622616935,-0.1320362276600434,0.20408624963831484,-0.061649290325407335
101,0.4332334999926388,-0.0002374435407425235,0.001956600362016535,0.00033222254997747856,0.013159063759843595,-0.016703546617531574,0.0021021625136300264,-0.0009704139552751499,0.02068979165195731,-0.009999536860710655,-0.13326385939486568,0.20434791472935215,-0.061761648293778136
102,0.436877000000095,-0.0002374435407425235,0.001956600362016535,0.00033222254997747856,0.013101222618504715,-0.016512005056073066,0.0020398313556047533,-0.001806205023906346,0.021973673481021208,-0.010339108997335644,-0.13443124707477064,0.20450734062385972,-0.061848442877436675
103,0.4403197999927215,-0.00032449957763364866,0.0019399321385449846,0.0003584318453944996,0.013040207305896081,-0.016315909105813313,0.0019761928802546802,-0.002643306881304691,0.02325105574854212,-0.010677797686460318,-0.1355371988386994,0.20456388911093698,-0.06190948783785939
104,0.444554399990011,-0.0002798169718541394,0.002008610886188114,0.0003404673272105343,0.012976073481332973,-0.016115402951309376,0.0019112721029869312,-0.003481158460441136,0.024521038762707916,-0.01101540994320931,-0.1365805796218356,0.2045170187123614,-0.061944616366504314
105,0.4480257999966852,-0.0002964265963673413,0.002038311004439214,0.00033653113427785245,0.012908877461437812,-0.01591063119905162,0.0018450942627256807,-0.004319203396381259,0.025782736829262964,-0.011351754894027673,-0.13756031213191183,0.2043662852248193,-0.06195368121107925
106,0.4513747000019066,-0.00030589196884643903,0.0020529732700286197,0.00035326734623936426,0.012838676164459713,-0.015701738747479793,0.0017776847999038902,-0.005156890476209854,0.027035278987291425,-0.011686643920030257,-0.13847537776118432,0.2041113421547356,-0.0619365547817591
107,0.4553804000024684,-0.00030589196884643903,0.0020529732700286197,0.00035326734623936426,0.012765527054891007,-0.01548887065829313,0.001709069334630124,-0.0059936740801010985,0.028277809724966095,-0.012019890796956008,-0.13932481743322098,0.20375194104527442,-0.06189312923727023
108,0.4593200999952387,-0.0003198789323062357,0.0021004490568055927,0.00036975877854583103,0.012689488088437553,-0.015272172029178594,0.0016392736450523682,-0.006829014613121204,0.02950948967458973,-0.01235131183159946,-0.14010773238373025,0.20328793169521678,-0.061823316550783936
109,0.4634107999881962,-0.0003128674226929876,0.002112044965883812,0.0003638303898406699,0.012610617657398569,-0.01505178786807852,0.001568323645940314,-0.0076623789273642905,0.030729496286284127,-0.012680725994596602,-0.14082328487473997,0.20271926226955264,-0.061727048555585765
110,0.4699283999943873,-0.00030572702751591825,0.002115955987906606,0.0003703500771713294,0.012528974536510577,-0.014827862969115818,0.0014962453675070523,-0.008493240734036487,0.0319370244797113,-0.013007955049447496,-0.1414706988415183,0.20204597930175838,-0.06160427697051116
111,0.4734287999890512,-0.0003016036171420615,0.0021295242746203805,0.0003692487971202262,0.012444617829308852,-0.014600541790291818,0.0014230649344906079,-0.009321081005117793,0.03313128727324064,-0.01333282367766324,-0.142049260471712,0.2012682275878621,-0.061454973405162025
112,0.4769452999898931,-0.0003016036171420615,0.0021295242746203805,0.0003692487971202262,0.012357606915058524,-0.01436996833306859,0.0013488085455151848,-0.010145388364246135,0.03431151639000611,-0.01365515959993021,-0.14255831871625999,0.20038624997253143,-0.06127912934494284
113,0.4811667999892961,-0.0003808609206247355,0.002115776756246577,0.0003919212417868155,0.012268001396306199,-0.014136286023944273,0.001273502452751446,-0.010965659466483254,0.03547696284032829,-0.01397479369318996,-0.14299728573172546,0.19940038702754945,-0.06107675611597836
114,0.4893813999951817,-0.00029447487409329224,0.002167429592384055,0.00037917342537325855,0.012175861047101683,-0.013899637598126534,0.0011971729418945557,-0.01178139936663761,0.036626897480006734,-0.014291560103538728,-0.14336563725377297,0.19831107662317374,-0.060847884829999116
115,0.4928122999990592,-0.00028268234095079074,0.0021867706295101764,0.00036971705771142124,0.012081245761938066,-0.013660164985405805,0.001119846312478121,-0.012592121875835294,0.037760611544019926,-0.014605296354856065,-0.14366291290159944,0.19711885339300436,-0.060592566309303916
116,0.4960789999895496,-0.00028268234095079074,0.0021867706295101764,0.00036971705771142124,0.011984215505456848,-0.01341800919832616,0.001041548858541556,-0.013397349906045974,0.03887741715520155,-0.014915843453077726,-0.1438887164132136,0.19582434809311422,-0.06031087099193272
117,0.5005635999987135,-0.00028268234095079074,0.0021867706295101764,0.00036971705771142124,0.011884830262963447,-0.013173310222748126,0.0009623068496677627,-0.014196615802287245,0.03997664780749412,-0.015223045986033825,-0.14404271581154185,0.19442828685632274,-0.06000288881720618
118,0.5051657000003615,-0.0003597203058847488,0.002190376181090027,0.0003816266822055718,0.011783149991796832,-0.012926206910893953,0.0008821465124073855,-0.01498946166224726,0.04105765882341296,-0.015526752218779034,-0.1441246435014215,0.19293149034261994,-0.05966872909181117
119,0.5094871999899624,-0.0003597203058847488,0.002190376181090027,0.0003816266822055718,0.011679234573595496,-0.01267683687696198,0.000801094012105245,-0.015775439643082253,0.04211982778538676,-0.015826814184347355,-0.14413429629762506,0.1913348727868727,-0.05930852033663363
120,0.5135917000006884,-0.0003597203058847488,0.002190376181090027,0.0003816266822055718,0.011573143767500411,-0.012425336395392873,0.0007191754351438874,-0.016554112255162394,0.04316255494067305,-0.016123087769869825,-0.1440715353841408,0.18963944094506718,-0.05892241011456284
121,0.5201832000020659,-0.0003597203058847488,0.002190376181090027,0.0003816266822055718,0.011464937164334004,-0.012171840301866584,0.0006364167716185057,-0.017325052642556307,0.0441852635795801,-0.016415432797999535,-0.14393628620501744,0.18784629294046123,-0.05851056483951319
122,0.5245821999997133,-0.0003460227521771337,0.002476514001084123,0.000434808624078393,0.01135467414179251,-0.011916481897104907,0.0005528438984568015,-0.01808784485006172,0.04518740038675966,-0.01670371310359426,-0.143728538287161,0.18595661701114036,-0.05807316956693052
123,0.5286354999989271,-0.00024520735116807503,0.0026025444441446386,0.000452480342929058,0.01124241382068745,-0.011659392853550445,0.00046848256299665753,-0.01884208407660695,0.04616843576536817,-0.01698779660561296,-0.14344834499555273,0.1839716901605884,-0.05761042776607167
124,0.5326671999937389,-0.0002409355956162196,0.002635971078375222,0.00044966594252280505,0.011128215022270292,-0.011400703124988764,0.0003833583670337955,-0.019587376914865135,0.04712786413392713,-0.017267555374188392,-0.1430958232214344,0.18189287671299698,-0.05712256107436677
125,0.5365257999947062,-0.00023363133231213187,0.0026670476823846827,0.00045334846081385096,0.011012136226672676,-0.011140540859176422,0.00029749675135087855,-0.020323341576940452,0.04806520419574591,-0.01754286569284394,-0.14267115300408764,0.1797216267751492,-0.056609809034193985
126,0.5407640999910655,-0.00022549686715181056,0.002703210400211849,0.0004426220370061906,0.010894235532492797,-0.010879032313533312,0.00021092298073880375,-0.02104960810600283,0.04897999918080372,-0.017813608115828706,-0.1421745770869097,0.17745947460682182,-0.05607242881241632
127,0.5451064999942901,-0.00022160110264546562,0.002793233361545279,0.0004585112039681912,0.010774570617556895,-0.010616301773953729,0.0001236621295202076,-0.021765818573765187,0.049871817060020376,-0.01807966752055089,-0.1416064004085649,0.17510803690175686,-0.055510694903049204
128,0.5493618999898899,-0.00021310585205695006,0.0028418240332006785,0.0004528848676061156,0.01065319870088306,-0.010352471476786316,3.5739067584484224e-05,-0.022471627263714402,0.05074025073187822,-0.018340933155095236,-0.14096698953006334,0.17266901098135642,-0.054924898813446275
129,0.553652599992347,-0.0002162127543542175,0.0029326111232057203,0.0004488498122142712,0.010530176505872743,-0.010087661534028791,-5.282155305711394e-05,-0.023166700840024614,0.05158491818139021,-0.018597298680816336,-0.14025677199869294,0.17014417290335637,-0.05431534873440924
130,0.557707300002221,-0.0002170375735564558,0.0029767740975433815,0.00044463648757824475,0.010405560224753604,-0.009821989861779255,-0.0001419953111884536,-0.023850718502098658,0.05240546261144144,-0.01884866221000556,-0.13947623564980224,0.16753537548783007,-0.05368236919464529
131,0.56532189999416,-0.000246892150762671,0.0030673729798185085,0.00043570998635376266,0.010279405484295474,-0.009555572111981667,-0.00023175802877046695,-0.024523372124700422,0.05320155254656273,-0.01909492633863487,-0.13862592784750064,0.16484454626296802,-0.053026300700012595
132,0.5702077000023564,-0.00025756599398606383,0.003112363583214724,0.0004368879074101805,0.01015176731281946,-0.00928852160749887,-0.0003220857827816896,-0.0251843663836581,0.053972881909226764,-0.01933599817418677,-0.13770645466541062,0.16207368533316913,-0.05234749935801109
133,0.5744725999975344,-0.00025756599398606383,0.003112363583214724,0.0004368879074101805,0.010022700108518431,-0.009020949280542308,-0.00041295491651174366,-0.025833418867135194,0.054719170068788583,-0.019571789358585362,-0.13671848000867387,0.1592248631720678,-0.05164633648799144
134,0.5782930999994278,-0.00026676650522574973,0.0032613751009385778,0.00041486406973191987,0.009892257609105323,-0.008752963614483463,-0.0005043420503028474,-0.026470260172482957,0.055440161863223245,-0.019802216086248974,-0.13566272467847665,0.1563002183432041,-0.05092319821757018
135,0.5825227999885101,-0.00026172678285901665,0.0033088567423205707,0.00041976885268258486,0.009760492862803902,-0.00848467058906789,-0.0005962240917351579,-0.02709463398870466,0.05613562759384418,-0.020027199117290378,-0.134539965380423,0.15330195515112355,-0.05017848506575378
136,0.5860556999978144,-0.00026172678285901665,0.0033088567423205707,0.00041976885268258486,0.00962745820069486,-0.008216173629048633,-0.0006885782452524767,-0.02770629716457825,0.05680536299321525,-0.020246663785896176,-0.13335103367814624,0.15023234122577045,-0.04941261151328824
137,0.5910788999899523,-0.00035802648918678337,0.0033450292460312967,0.0004355831561111919,0.009493205210428405,-0.007947573556251673,-0.000781382021225565,-0.028305019762500223,0.057449189166499624,-0.020460540003922372,-0.1320968148936071,0.14709370504310937,-0.04862600556076425
138,0.5955568999925163,-0.00026971557807554643,0.0034603891306830958,0.0004581037888415442,0.00935778471131265,-0.007678968545081975,-0.0008746132444510315,-0.02889058509812933,0.05806695250651749,-0.02066876225974838,-0.13077824695558413,0.1438884333849796,-0.04781910827501997
139,0.599086799993529,-0.00026971557807554643,0.0034603891306830958,0.0004581037888415442,0.009221246730785358,-0.007410454081474677,-0.0009682500620844635,-0.029462789765924768,0.058658524582813204,-0.020871269612436984,-0.12939631919791625,0.1406189687412512,-0.04699237332439563
140,0.6035176000004867,-0.00026971557807554643,0.0034603891306830958,0.0004581037888415442,0.009083640482274905,-0.007142122925291891,-0.0010622709510071727,-0.030021443650688897,0.05922380200506001,-0.0210680056812529,-0.1279520711091101,0.13728780665741216,-0.04614626650340504
141,0.607866299993475,-0.0003711395608162409,0.003485192264695395,0.000478694395400559,0.008945014344454591,-0.006874065076161754,-0.0011566547246266148,-0.03056636992523988,0.059762706261157865,-0.021258918630597465,-0.12644659103497294,0.1338974930307725,-0.045281265247399484
142,0.6116567999997642,-0.0003711395608162409,0.003485192264695395,0.000478694395400559,0.008805415841892685,-0.0066063677427524925,-0.001251380539111234,-0.031097405034354545,0.060275183530406874,-0.02144396115042194,-0.12488101483598132,0.1304506213585235,-0.04439785813780896
143,0.615918999988935,-0.0003711395608162409,0.003485192264695395,0.000478694395400559,0.008664891627098966,-0.00633911531547042,-0.0013464278990611572,-0.031614398665136455,0.060761204472164515,-0.021623090432186597,-0.1232565245011397,0.12694982994093768,-0.043496544398554465
144,0.6198712999903364,-0.000407191680789943,0.0035918705493012443,0.0005186556323789069,0.00852348746396683,-0.006072389342567077,-0.0014417766626168207,-0.03211721370397834,0.06122076399042022,-0.021796268140437378,-0.12157434672012593,0.12339779904304005,-0.04257783338423336
145,0.6239397999888752,-0.0003175366366026751,0.0037751471655491247,0.0004947807822918223,0.00838124821260827,-0.005806268509636935,-0.0015374070460082757,-0.03260572618030204,0.06165388097474541,-0.02196346038007655,-0.11983575141556181,0.1197972480181205,-0.04164224406068674
146,0.62773659999948,-0.0003214149803413026,0.0038175591009729777,0.0004935475516982284,0.008238217815577488,-0.005540828622483454,-0.0016332996275485573,-0.03307982519727294,0.06206059801810057,-0.022124637659408142,-0.11804205023728412,0.11615093239649218,-0.040690304478564435
147,0.6313014999905135,-0.0003408261252018026,0.00387453822644923,0.0004944027187600597,0.00809443928547732,-0.005276142593327722,-0.0017294353510751335,-0.03353941284969912,0.06244098111200435,-0.022279774849043196,-0.11619459502052759,0.11246164094293155,-0.039722551240508636
148,0.6365097999951104,-0.0003470906701995434,0.003919500990575529,0.000492028283317835,0.00794995469394108,-0.005012280430330399,-0.001825795528844076,-0.03398440412933831,0.06279511931959188,-0.0224288511367541,-0.11429477620996453,0.10873219268626251,-0.038739528962582134
149,0.6405350999993971,-0.000346912599817834,0.0039650810782499695,0.0004877323634130482,0.007804805161980839,-0.004749309230394254,-0.0019223618438822066,-0.03441472681784832,0.0631231244271112,-0.02257184997837105,-0.11234402125157536,0.10496543392456842,-0.03774178973057147
150,0.6440375999954995,-0.0003470878652484582,0.0040049171275677925,0.000486001535984083,0.00765903085169172,-0.004487293175211295,-0.0020191163518030507,-0.0348303213676288,0.0634251305744267,-0.02270875904481753,-0.11034379295435277,0.1011642352095344,-0.03672989255179855
151,0.6472036999912234,-0.00034217323554677564,0.0040494278421297205,0.00048246365724708627,0.007512670959300244,-0.004226293530515222,-0.002116041482093022,-0.03523114077081375,0.063701293865118,-0.022839570165385542,-0.10829558782386657,0.09733148831343554,-0.03570440280307687
152,0.6520462999906158,-0.00035464445974684095,0.004105898181022228,0.00047430696507429887,0.007365763709543356,-0.003966368648496792,-0.002213120038874823,-0.03561715041668543,0.0639517919567815,-0.0229642792673547,-0.10620093436973888,0.09347010318229497,-0.034665891675450124
153,0.6553702999954112,-0.0003379056938510503,0.004154005000457072,0.00046353115987107004,0.0072183463513632445,-0.003707573973336536,-0.002310335201155587,-0.03598832793779109,0.06417682363216014,-0.023082886312062748,-0.10406139138909927,0.08958300487874027,-0.03361493561635193
154,0.6594819000019925,-0.0003310110534654326,0.004192226647626506,0.0004645943250856039,0.007070455154901792,-0.0034499620498063413,-0.0024076705225678364,-0.03634466304505436,0.06437660835174432,-0.02319539522753802,-0.10187854622810659,0.0856731305180871,-0.0325521157698259
155,0.663615999990725,-0.0003305421679666075,0.004237295603724808,0.00045460657559527563,0.006922125409777087,-0.0031935825348885015,-0.0025051099306118265,-0.03668615735218317,0.0645513857885031,-0.023301813837807835,-0.09965401302363823,0.0817434262011746,-0.031478017415444225
156,0.6702853999886429,-0.00031924941528172,0.00427605215546649,0.00044333162635822976,0.006773391424623194,-0.002938482212358056,-0.0026026377254083437,-0.03701282418968559,0.06470141534541961,-0.0234021537889994,-0.0973894309272598,0.07779684394746897,-0.030393229406562125
157,0.6740742999973008,-0.00031234459473222646,0.004320550236327238,0.0004362941402695271,0.0066242865278730665,-0.0026847050102715483,-0.002700238577971508,-0.03732468840881398,0.06482697565651929,-0.023496430472352628,-0.09508646231359721,0.07383633863193881,-0.029298343608542818
158,0.678454499997315,-0.0003093741512204047,0.004372707640692071,0.0004186369358285236,0.006474843069763268,-0.0024322920213027156,-0.0027978975280115994,-0.037621786175766066,0.0649283640720927,-0.023584662944266623,-0.09274679097523998,0.06986486492918821,-0.028193954337584946
159,0.6831115999957547,-0.0003089224781460821,0.004406674381368219,0.0004061782566513205,0.006325092425538071,-0.002181281525863162,-0.002895599981278382,-0.037904164756480084,0.06500589612882701,-0.023666873843503886,-0.0903721203063074,0.06588537426831247,-0.027080657800780377
160,0.6866652999888174,-0.0003072535360424759,0.004440973998492762,0.0004021257316700423,0.006175064999829272,-0.00193170901794366,-0.0029933317064558245,-0.03817188229236822,0.06505990500557195,-0.023743089305678675,-0.08796417147681142,0.0619008118019162,-0.02595905153802617
161,0.6908744999964256,-0.00030511217291775386,0.004476134203198603,0.0003978572547355543,0.006024790232187017,-0.0016836072336094657,-0.003091078831619529,-0.03842500756734012,0.0650907409654759,-0.023813338875157804,-0.08552468159994794,0.057914113392704185,-0.02482973386640906
162,0.6949732999928528,-0.00030071628542058574,0.004511427967348577,0.0003894212192482549,0.005874296603735849,-0.001437006182080845,-0.003188827840268557,-0.03866361976647482,0.06509877078523837,-0.023877655414504165,-0.08305540189444435,0.05392820262102158,-0.023693303327674883
163,0.7019338999962201,-0.00029986562179341294,0.004540839539047283,0.00038365162449855567,0.005723611644929203,-0.0011919331793279577,-0.0032865655669437337,-0.038887808226705206,0.06508437717223255,-0.02393607501159494,-0.0805580958440838,0.04994598781668193,-0.022550358139388913
164,0.707290299993474,-0.00029320772965885333,0.0045640097921163785,0.00036696742378570265,0.005572761944374611,-0.0009484128841072948,-0.0033842791924448504,-0.0390976721798852,0.06504795817025956,-0.023988636884547866,-0.07803453735651779,0.045970359118380155,-0.02140149565038559
165,0.7117629999993369,-0.0002894229610590301,0.004593715240623388,0.00035651394932366355,0.005421773158700994,-0.0007064673363650269,-0.0034819562386595175,-0.039293320488614523,0.06498992655470258,-0.024035383284590314,-0.07548650892346703,0.042004185563942205,-0.02024731180109819
166,0.7157331999915186,-0.000283256707187172,0.004624081293456305,0.00036044123494564153,0.00527067002343849,-0.00046611599793088736,-0.0035795845630167307,-0.03947487137520113,0.06491070921785433,-0.02407635939700707,-0.07291579978439619,0.0380503122146135,-0.019088400589350244
167,0.7201097999932244,-0.0002750916081079978,0.004651845217428161,0.0003516686026947281,0.005119476364880525,-0.00022737579542459786,-0.0036771523525785175,-0.03964245214414524,0.06481074654519611,-0.024111613240303597,-0.07032420409573167,0.03411155731653561,-0.017925353542180892
168,0.724060799999279,-0.0002694350874715716,0.004678748294756069,0.00033941376394189607,0.004968215112897032,9.738834704650446e-06,-0.003774648117783299,-0.03979619889853257,0.06469049178340973,-0.024141195563722333,-0.06771351910767233,0.030190709502504017,-0.016758759194266542
169,0.728523400000995,-0.0002606184224104955,0.004706307324515722,0.00033293587332434456,0.004816908314667034,0.000245215899086541,-0.00387206068585485,-0.039936256250727234,0.06455041040090706,-0.0241651597432503,-0.06508554335062114,0.026290525037040095,-0.015589202573490293
170,0.733425400001579,-0.000248738624187037,0.004731288904082183,0.00031975083414467157,0.004665577149298117,0.00047904579836795686,-0.003969379193890977,-0.04006277702775743,0.06439097944166303,-0.024183561676256758,-0.062442074833242184,0.02241372510774662,-0.014417264694199319
171,0.7376488000008976,-0.00023886567900642771,0.004757949587460119,0.0003127798667837966,0.004514241943299702,0.000711221276264603,-0.004066593081646251,-0.040175921971789395,0.06421268687313869,-0.024196459674899952,-0.059784909254121006,0.01856299316584941,-0.0132435220586785
172,0.7443622999999207,-0.00021057251503377422,0.004806032975337278,0.0003138345044770242,0.004362922186876414,0.0009417373668102929,-0.004163692084023334,-0.04027585943608675,0.0640160309290808,-0.02420391435844204,-0.05711583822897734,0.01474097231875761,-0.012068546167356121
173,0.7490814999910071,-0.0001912162610648374,0.00483457299303402,0.00029988121916846197,0.004211636551007351,0.0011705913398892002,-0.004260666223287649,-0.0403627650768534,0.06380151944798318,-0.024205988544611076,-0.0544366475353493,0.010950262777401847,-0.010892903038244348
174,0.75291599999764,-0.00017085096310762797,0.0048602095525827425,0.0002868836914140221,0.004060402905276533,0.0013977826451371995,-0.004357505801020209,-0.040436821541358775,0.0635696692079932,-0.0242027471401489,-0.051749115376634965,0.0071934193610331005,-0.009717152736103506
175,0.7574334999953862,-0.00013779524832115215,0.004884686667667657,0.0002853245696482862,0.0039092383364193965,0.0016233128542991293,-0.004454201389823633,-0.04049821815274414,0.06332100525904408,-0.02419425703068324,-0.049055010667342164,0.003472949062085999,-0.008541848911805167
176,0.7618264999910025,-0.00011709242843506215,0.004914969658306253,0.0002732931536260115,0.0037581591675498265,0.0018471856021294174,-0.004550743824796459,-0.04054715059190868,0.0630560602529892,-0.02418058697006172,-0.04635609134136035,-0.00020869132637169128,-0.007367538352354313
177,0.7657397000002675,-0.00010382236639792008,0.004955637855022866,0.00023997867091604664,0.0036071809780318987,0.0020694065259239964,-0.004647124194790928,-0.04058382057687332,0.06277537377251016,-0.02416180746928481,-0.043654102685029804,-0.0038490975181662748,-0.006194760542015754
178,0.7741658000013558,-9.697942486723899e-05,0.005021280985998012,0.00024729681546356553,0.0034563186239602254,0.0022899832037718056,-0.004743333833469563,-0.04060843554001889,0.06247949165956426,-0.024137990685174065,-0.04095077569674234,-0.007445919974172193,-0.005024047234974384
179,0.778697399990051,-9.697942486723899e-05,0.005021280985998012,0.00024729681546356553,0.0033055862592125005,0.0025089250916144525,-0.0048393643101758985,-0.040621208303593795,0.06216896534413141,-0.024109210308910698,-0.03824782547476489,-0.01099686607283278,-0.0038559220399427526
180,0.7852146999939578,-0.00018253889687748154,0.005049939945800126,0.0002747757462930951,0.0031549973570376825,0.0027262434592027654,-0.004935207420634764,-0.040622356753883856,0.06184435117401299,-0.02407554145457835,-0.03554694963493283,-0.014499702208879514,-0.0026909000171130293
181,0.7905938999901991,-9.328341849614416e-05,0.005172378795403125,0.0002335338299323363,0.003004564732143104,0.002941951325039026,-0.005030855177497544,-0.040612103514434506,0.06150620974642641,-0.024037060547842517,-0.03284982675981374,-0.01795225581817574,-0.0015294872878335753
182,0.7947933999967063,-9.328341849614416e-05,0.005172378795403125,0.0002335338299323363,0.002854300563243708,0.0031560633903936243,-0.005126299800747802,-0.04059067561871235,0.06115510524213025,-0.023993845214897728,-0.030158114880894295,-0.021352417326707143,-0.0003721806573731222
183,0.7989309999975376,-0.0001443338588631896,0.005251926111862882,0.00029382291876283817,0.002704216416036563,0.0033685959724847124,-0.005221533707982608,-0.04055830418258977,0.060791604762804936,-0.02394597417181178,-0.027473449995293685,-0.0246981420218393,0.0007805327488820531
184,0.8036599999904865,-5.284123936591543e-05,0.0054557209770404866,0.00036315666021516515,0.0025543232665637926,0.003579566936909192,-0.005316549504584902,-0.040515224077032154,0.06041627767240419,-0.0238935271143946,-0.024797444618456028,-0.02798745184406278,0.0019281758354704743
185,0.8087037999939639,-4.397439746459082e-05,0.005503260350120289,0.0003674503649389275,0.0024046315249271217,0.003788995629413002,-0.005411339973802178,-0.04046167360136307,0.0600296949431806,-0.023836584608717445,-0.02213168637422191,-0.031218437097547777,0.003070281872828051
186,0.8125189999991562,-0.00011207365209423112,0.0055284811358283425,0.00038486712434062097,0.002255151059317312,0.003996902807088212,-0.005505898066746683,-0.04039789415747785,0.05963242850707718,-0.023775227982406038,-0.019477736623625445,-0.034389258077933436,0.004206394818900118
187,0.8161175999994157,-0.00011207365209423112,0.0055284811358283425,0.00038486712434062097,0.0021058912203218666,0.004203310569083889,-0.00560021689233225,-0.04032412992537091,0.05922505061316341,-0.023709539216829233,-0.01683712913370812,-0.0374981466158816,0.0053360696261208875
188,0.8199579999927664,-0.00011207365209423112,0.0055284811358283425,0.00038486712434062097,0.001956860865474546,0.004408242286917023,-0.005694289707162765,-0.04024062754033662,0.05880813319178059,-0.023639600840302297,-0.014211368787584529,-0.040543407535030614,0.006458872533507209
189,0.8243498999945587,-0.00012044932058541359,0.005650675187008757,0.0003985714158739001,0.0018080683840104698,0.004611722534469093,-0.005788109905387155,-0.04014763577219751,0.05838224722604778,-0.023565495822421397,-0.011601930336937624,-0.04352342002309163,0.0075743813436327445
190,0.8285554999893066,-1.0427500265142029e-05,0.005813238497264543,0.0004273942948404143,0.001659521721790818,0.004813777017753033,-0.005881671008535616,-0.040045405206907546,0.057947962131364605,-0.023487307469643403,-0.009010257198062855,-0.04643663891493781,0.008682185684267962
191,0.8325228999892715,-3.136641443651673e-05,0.005873367027095336,0.00044903677096102277,0.0015112284063614502,0.005014432504534436,-0.005974966655351684,-0.03993418793087145,0.057505845143531936,-0.02340511932222231,-0.006437760292521218,-0.04928159588664558,0.009781887254490841
192,0.8368915999890305,-3.2354674328488456e-05,0.005919608483014831,0.0004628473621758473,0.001363195572110092,0.005213716753889816,-0.006067990591634521,-0.039814237218314515,0.0570564607160958,-0.023319015052610827,-0.0038858169334009506,-0.05205690055955691,0.010873100055092799
193,0.840723799992702,-4.709628322926514e-05,0.005978357352047878,0.0004781975833348275,0.0012154299854871067,0.005411658445783671,-0.00616073666010564,-0.03968580722202961,0.05660036992750305,-0.023229078365432972,-0.0013557697581265955,-0.0547612415135412,0.011955450603124109
194,0.8452902999997605,-4.7783304626608484e-05,0.006027391570191913,0.0004905134116066625,0.0010679380702552695,0.005608287110744878,-0.006253198790314081,-0.03954915266782058,0.05613812989864068,-0.023135392899130528,0.0011510742913076353,-0.057393387208746025,0.013028578130442869
195,0.8490996999898925,-4.826519515627387e-05,0.006068938715589007,0.0005043901045368858,0.0009207259327343999,0.005803633059721715,-0.0063453709885938426,-0.03940452855295317,0.05567029322131239,-0.023038042129383082,0.0036334449398656658,-0.05995218681523664,0.014092134766151393
196,0.853393799989135,-4.7663201712955984e-05,0.006114497460462706,0.0005196679849492666,0.000773799387007196,0.005997727314193485,-0.006437247328087135,-0.03925218984891645,0.05519740739818865,-0.022937109274398265,0.006090109502006897,-0.062436570950034874,0.015145785702823818
197,0.8577638999995543,-4.647276398995692e-05,0.006161926252513395,0.000522379024417109,0.0006271639800531249,0.006190601536615297,-0.006528821938846763,-0.039092391208789476,0.05472001429474735,-0.02283267720216552,0.00851987375454489,-0.06484555232117895,0.016189209346448567
198,0.8615432999940822,-4.252932929911242e-05,0.006205386199153089,0.0005365138109994201,0.00048082501677776775,0.006382287961271122,-0.006620088998030686,-0.038925386679498755,0.05423864960370366,-0.022724828339763345,0.01092158275920299,-0.0671782262785365,0.017222097450029217
199,0.8653260999999475,-3.6620731225215007e-05,0.006262933835217641,0.0005463723320909907,0.00033478758490560075,0.006572819325608671,-0.006711042720201545,-0.03875142941924337,0.05375384232240852,-0.02261364458480654,0.013294121634306587,-0.06943377127121331,0.01824415523080709
200,0.8695537000021432,-3.6620731225215007e-05,0.006262933835217641,0.0005463723320909907,0.000189056579704807,0.006762228802128066,-0.006801677347743664,-0.038570771420355546,0.05326611424367466,-0.022499207219116458,0.015636416275116118,-0.07161144921151039,0.019255101471088693
201,0.8733327999943867,-0.00013389654503676176,0.006277883688994775,0.0005748167923520613,4.363672851334613e-05,0.006950549930894601,-0.0068919871414097845,-0.03838366323785492,0.05277597946046944,-0.022381596824693872,0.01794743402236937,-0.07371060574549129,0.0202546686026807
202,0.8768400999979349,-3.360578179824374e-05,0.006380352476254445,0.0005732218034780647,-0.00010146738496381896,0.007137816552744196,-0.006981966371009454,-0.038190353723945344,0.05228394388489324,-0.02226089320207029,0.020226184278666206,-0.07573067043033133,0.02124260277495485
203,0.8811254999891389,-2.0605506663694435e-05,0.0064254054346419365,0.0005688598269446051,-0.00024625129661574484,0.007324062743248324,-0.0070716093062507005,-0.037991089768692865,0.05179050478184138,-0.022137175291109926,0.02247171907239334,-0.07767115681872769,0.022218663906584543
204,0.8865178999985801,-6.999468079920559e-06,0.006472568373919652,0.0005774634217033368,-0.00039071063817346314,0.007509322747503405,-0.007160910207746289,-0.03778611604711383,0.051296150317726476,-0.022010521094330878,0.024683133568951278,-0.07953166245075685,0.023182625721014122
205,0.8906495999981416,-1.0434995093422392e-05,0.006515781969590396,0.0005835944201210862,-0.0005348411137728039,0.007693630915807663,-0.007249863318195472,-0.037575674772891476,0.050801359124617126,-0.021881007602810247,0.026859566529110056,-0.08131186875367122,0.024134275765740714
206,0.8940975000004983,-3.0868259370505816e-06,0.006557873888007372,0.0005909623669721116,-0.0006786384768592502,0.007877021640286572,-0.007338462853751834,-0.03736000545892931,0.050306599880127215,-0.02174871072473408,0.02900020071438421,-0.08301154085023194,0.025073415415507387
207,0.8977521999913733,-3.0868259370505816e-06,0.006557873888007372,0.0005909623669721116,-0.000822098507461196,0.00805952929252602,-0.0074267029955874826,-0.03713934468493884,0.04981233090336873,-0.02161370521664907,0.031104263239381164,-0.08463052727627865,0.025999859859524944
208,0.9029990999988512,-3.0868259370505816e-06,0.006557873888007372,0.0005909623669721116,-0.0009652169898571635,0.008241188162270296,-0.007514577881663488,-0.036913925872248614,0.049318999767259245,-0.021476064617469173,0.03317102587114049,-0.08616875960833852,0.026913438072858054
209,0.9086153999960516,-3.0868259370505816e-06,0.006557873888007372,0.0005909623669721116,-0.001107989690661706,0.00842203239723991,-0.007602081598716046,-0.036683979066010904,0.04882704292745298,-0.021335861185286378,0.03519980527554428,-0.08762625200217794,0.027813992772129457
210,0.91268759999366,-3.0868259370505816e-06,0.006557873888007372,0.0005909623669721116,-0.001250412337353865,0.008602095944122182,-0.0076892081744675215,-0.03644973072497149,0.04833688536814227,-0.021193165837030917,0.03718996321094116,-0.08900310064329936,0.028701380355713724
211,0.9163427000021328,-3.0868259370505816e-06,0.006557873888007372,0.0005909623669721116,-0.0013924805972711873,0.008781412490785408,-0.00777595157007108,-0.036211403518957234,0.04784894026495466,-0.021048048091022224,0.03914090666918791,-0.09029948311048293,0.029575470828609514
212,0.9202029000007316,-3.0868259370505816e-06,0.006557873888007372,0.0005909623669721116,-0.0015341900570914155,0.008960015409765331,-0.007862305672797283,-0.03596921613422514,0.04736360866514834,-0.02090057601244815,0.04105208796437384,-0.09151565765356813,0.03043614771219649
213,0.9244694999943022,1.72715820546425e-05,0.006798456342385485,0.0006547292592781092,-0.001675536202823063,0.009137937703070404,-0.007948264288970667,-0.03572338308680544,0.04688127918528696,-0.020750816161805845,0.04292300476955288,-0.09265196238676328,0.031283307939099746
214,0.928555199992843,3.2638814477509953e-05,0.00684537039311958,0.0006388684327746234,-0.001816514400325172,0.009315211948350163,-0.008033821137163862,-0.035474114543960336,0.046402327726552346,-0.020598833546333777,0.0447532001018678,-0.09370881439886256,0.032116861733400906
215,0.932838199994876,3.2960150866894874e-05,0.006882402109573808,0.0006533581252036762,-0.0019571198763756225,0.009491870246468748,-0.008118969841656472,-0.035221616153868866,0.04592711720783169,-0.020444691574460345,0.046542262256509315,-0.09468670878183914,0.032936732476451
216,0.9384970999963116,3.343491295117179e-05,0.006910719801854048,0.0006707471151264985,-0.002097347700306428,0.009667944170523359,-0.008203703926165458,-0.03496608888363718,0.04545599731669382,-0.02028845201329077,0.0482898246900104,-0.09558621757936958,0.033742856558555794
217,0.9428656999953092,3.834100238683474e-05,0.006943275005357371,0.0006808506456752022,-0.0022371927662235024,0.009843464716345231,-0.00828801680785338,-0.03470772886572257,0.04498930427834736,-0.02013017494914998,0.04999556585343241,-0.09640798865692893,0.03453518321681959
218,0.949663799998234,3.667662779768154e-05,0.0069680764017779565,0.0006941493688070131,-0.002376649775827432,0.010018462254518348,-0.008371901791620428,-0.03444672725284862,0.04452736064265147,-0.019969918751195276,0.05165920897605489,-0.09715274449517837,0.0353136743594482
219,0.9531636999890908,3.810406829684153e-05,0.006998913507760651,0.0007152694339359821,-0.0025157132218508226,0.01019296648394883,-0.008455352064685744,-0.03418327008147773,0.04407047508922805,-0.01980774003810868,0.05328052180023501,-0.09782128090844634,0.03607830437682605
220,0.9576744999940274,3.563914805496156e-05,0.007024267765636333,0.0007264337270055579,-0.0026543773721268015,0.010367006387015652,-0.008538360691463158,-0.03391753814389631,0.0436189422507032,-0.019643693647874966,0.05485931626815544,-0.09841446569018139,0.03682905993969617
221,0.9629009999916888,3.0756324136094025e-05,0.007043929847500547,0.0007418473928080284,-0.002792636254302291,0.010540610186331074,-0.00862092060873611,-0.033649706868956804,0.043173042554084044,-0.019477832610647502,0.05639544816123129,-0.09893323718732888,0.03756593978478511
222,0.9662798999925144,2.506933779932707e-05,0.007066536779573837,0.0007523506833134566,-0.002930483641208691,0.010713805303136837,-0.00870302462113606,-0.033379946211510164,0.042733042080256106,-0.019310208124700256,0.057888816692996885,-0.09937860280565496,0.038288954488227445
223,0.970272099992144,1.9927423554564564e-05,0.007088022024204965,0.0007633273468387491,-0.003067913036901639,0.010886618317359915,-0.008784665396928282,-0.0331084205505513,0.042299192441565374,-0.019140869535460608,0.05933936405634256,-0.09975163744810928,0.03899812622715708
224,0.9748822999972616,1.719508086602293e-05,0.007106556606053845,0.0007798324780546533,-0.003204917663380537,0.011059074929349412,-0.008865835464108558,-0.03283528859608948,0.041871730677428574,-0.018969864317613994,0.06074707492601898,-0.100053481888384,0.03969348852984426
225,0.981103099999018,1.719508086602293e-05,0.007106556606053845,0.0007798324780546533,-0.003341490447997553,0.01123119992331379,-0.008946527206813784,-0.03256070330474491,0.041450879167895034,-0.01879723806026771,0.06211197591737196,-0.10028534108188818,0.040375086014768254
226,0.9861461999971652,-0.00010114943583720539,0.0070910633975019444,0.0008264963612611753,-0.0034776240115648254,0.011403017132475457,-0.009026732862049195,-0.03228481180406247,0.0410368455650634,-0.01862303445515745,0.06343413500231532,-0.10044848241641714,0.04104297411902637
227,0.9906780999881448,-0.00010114943583720539,0.0070910633975019444,0.0008264963612611753,-0.0036133106571676096,0.011574549405957384,-0.009106444516734369,-0.03200775532552299,0.040629822742236726,-0.018447295287876638,0.0647136608835931,-0.10054423390485324,0.041697218816490106
228,0.994726199991419,3.2133349104838894e-05,0.0071824724923147225,0.0008424116097807443,-0.003748542359690153,0.011745818577414203,-0.009185654105069918,-0.031729669146222446,0.04022998876068008,-0.018270060432105006,0.06595070232842382,-0.10057398232228669,0.0423378963261291
229,0.9989263999887044,4.128429186237771e-05,0.007201944557992335,0.0008480859469794429,-0.0038833107560601104,0.011916845435418126,-0.009264353406226295,-0.03145068253917926,0.03983750685382573,-0.018091367846809682,0.06714544746265884,-0.1005391712899959,0.042965092810932026
230,1.0037523999926634,4.94935363896427e-05,0.007212607526632269,0.0008587357794641375,-0.004017607136216365,0.012087649695607692,-0.009342534042355691,-0.03117091873221977,0.03945252542875216,-0.017911253576388547,0.06829812302662468,-0.10044129930877341,0.04357890406786237
231,1.007635899994057,5.043416209500208e-05,0.007227682306846967,0.0008639870978230202,-0.00415142243480415,0.012258249974605239,-0.009420187476927596,-0.030890494875382417,0.03907517808474501,-0.017729751753722236,0.06940899359385536,-0.1002819177441272,0.04417943520929516
232,1.0118441999948118,-5.8164691156685304e-05,0.0071946563143388854,0.0008997985455875695,-0.004284747223600414,0.01242866376570675,-0.009497305013388252,-0.03060952201677156,0.03870558364872996,-0.017546894606098082,0.07047836075395633,-0.10006262876592814,0.044766800336387594
233,1.0168131999962498,8.4822168457516e-05,0.007258750448774502,0.0008688181358307851,-0.004417571704671438,0.01259890741634564,-0.009573877794143872,-0.03032810508678281,0.03834384622735071,-0.01736271246396601,0.07150656226087358,-0.09978508324511064,0.045341122204843265
234,1.0242418999987422,0.00010723618450589722,0.007297528009377226,0.000871792325034112,-0.00454988570426382,0.012768996107330038,-0.009649896799867044,-0.030046342890612317,0.03799005527544796,-0.017177233772483296,0.07249397114787266,-0.09945097861006785,0.04590253188353566
235,1.0283280000003288,0.00011738561819594709,0.00731494626050738,0.0008701291588011352,-0.004681678667428944,0.012938943833850962,-0.009725352849125403,-0.02976432810895377,0.03764428568067878,-0.016990485105802273,0.07344099481056206,-0.09906205666541303,0.0464511684064623
236,1.0326179999974556,0.0001264923626688992,0.0073249007999825425,0.0008641979800751438,-0.004812939653380217,0.0131087633882568,-0.009800236598331338,-0.02948214730677795,0.03730659786400002,-0.016802491184052106,0.07434807405932213,-0.09862010137580536,0.04698717841850544
237,1.036913399992045,0.00013192969013100072,0.007340984117301885,0.0008548966686000078,-0.004943657331581455,0.013278466344587545,-0.009874538542011006,-0.029199880950081,0.03697703789572369,-0.016613274892963107,0.07521568214252619,-0.09812693661756272,0.0475107158154795
238,1.040817999994033,0.00016408724841788448,0.00734497717682404,0.00084470337131937,-0.005073819978563915,0.013448063044860173,-0.009948249013390666,-0.028917603430479426,0.036655637626837226,-0.016422857306079255,0.07604432374196372,-0.09758442390080405,0.048021941378949266
239,1.0451867999945534,0.0001741884977935495,0.007357573385217634,0.0008322335478379301,-0.00520341547546864,0.013617562587094647,-0.010021358185297913,-0.028635383097521772,0.03634241483526747,-0.016231257709501876,0.07683453394189778,-0.09699446006488126,0.048521022406305556
240,1.0491526999976486,0.00018486168379341854,0.007361086485030144,0.0008213426122216049,-0.0053324313063099135,0.013786972815068166,-0.010093856071375097,-0.0283532822985792,0.03603737338675271,-0.016038493629104936,0.07758687717320835,-0.09635897494987401,0.04900813233658763
241,1.0529429000016537,0.00017021729771082367,0.007363471462160315,0.0008024174330136338,-0.005460854556954825,0.013956300309783414,-0.010165732527601818,-0.028071357426169636,0.035740503409974214,-0.01584458086015992,0.07830194613409164,-0.09567992904693058,0.04948345037254372
242,1.0562411999999313,0.00017021729771082367,0.007363471462160315,0.0008024174330136338,-0.005588671914813095,0.014125550382634787,-0.010236977254123073,-0.027789658972562893,0.035451781485585664,-0.015649533499305965,0.07898036068880149,-0.09495931113024444,0.049947161099421884
243,1.0598163999966346,0.00017021729771082367,0.007363471462160315,0.0008024174330136338,-0.00571586966923052,0.014294727070254785,-0.010307579797379302,-0.02750823159150711,0.03517117084876682,-0.015453363978798814,0.07962276674593313,-0.09419913587346015,0.05039945410098384
244,1.063354599988088,9.766109121950943e-05,0.007352531633765243,0.0008320590828426339,-0.005842433712578605,0.014463833131021129,-0.010377529552534279,-0.027227114166910107,0.0348986216049159,-0.015256083102969904,0.08022983511776187,-0.09340144145330145,0.050840523573234826
245,1.068084699989413,9.766109121950943e-05,0.007352531633765243,0.0008320590828426339,-0.0059683495420322,0.014632870043203421,-0.010446815766196485,-0.02694633988830273,0.0346340709580843,-0.01505770008682487,0.0808022603621589,-0.09256828714321177,0.051270567936361505
246,1.072170699990238,0.00011223459703954878,0.007344971289904385,0.0008092694651357243,-0.006093602262026198,0.014801838004726602,-0.010515427539429323,-0.026665936332905173,0.03437744345174687,-0.014858222596708801,0.0813407596086148,-0.09170175089979057,0.051689789445369234
247,1.0761648999905449,0.00024877611808173545,0.007380890424868863,0.000713248699578457,-0.006218176587381648,0.014970735934526934,-0.010583353831045222,-0.02638592555411139,0.03412865122149073,-0.014657656792963792,0.08184607136990726,-0.09080392694479919,0.05209839379990793
248,1.080154199997196,0.0002645265755873465,0.007377382963932221,0.0006928173576713498,-0.006342056847091005,0.015139561475474718,-0.01065058346117842,-0.026106324176201047,0.033887594259196456,-0.014456007374502726,0.08231895434095482,-0.08987692334549716,0.052496589753773304
249,1.084374799989746,0.00027216961499205853,0.0073809814388536826,0.000682972016203357,-0.006465226988751508,0.015308310998836623,-0.010717105115130963,-0.02582714349508311,0.03365416068827642,-0.014253277625221567,0.08276018618640014,-0.08892285959605344,0.05288458872456738
250,1.0884906999999655,0.0002752100386378243,0.007382729236918395,0.0006775514621220048,-0.006587670583635062,0.01547697961024892,-0.010782907347486227,-0.02554838958487012,0.033428227049527574,-0.014049469462170968,0.0831705623184677,-0.08794386420275746,0.053262604403998826
251,1.0921325999952387,0.0002812727496998742,0.007381045345070387,0.0006661540828287924,-0.006709370832382389,0.015645561157171597,-0.010847978586483939,-0.025270063410077512,0.03320965859714809,-0.013844583485406702,0.08355089466663876,-0.08694207227573236,0.053630852369299424
252,1.0965527999942424,0.00028482687496020505,0.007382783921956862,0.0006569534554772416,-0.006830310571308572,0.01581404823779215,-0.01091230713865049,-0.0249921609432381,0.03299830960446042,-0.01363861902943709,0.08390201044068465,-0.08591962312982684,0.053989549696228385
253,1.1000970999884885,0.00028611082336889337,0.007384194728636632,0.0006550975515454352,-0.006950472279306523,0.01598243221134646,-0.010975881193678013,-0.024714673287717565,0.0327940236788774,-0.013431574216184494,0.08422475088859385,-0.08487865789733429,0.054338914574131286
254,1.1036438000010094,0.00028837642508692954,0.007380715498577733,0.0006497780252208069,-0.007069838085334361,0.016150703209823033,-0.011038688829545538,-0.02443758680551315,0.03259663408564191,-0.013223446009376834,0.08451997005092171,-0.08382131715515631,0.05467916592351469
255,1.1076870999968378,0.000289614864375297,0.007377297029081701,0.0006553176943636305,-0.007188389776472109,0.01631885015101584,-0.011100718017875356,-0.024160883249814066,0.03240596407986582,-0.013014230270284168,0.08478853351308331,-0.08274973856899365,0.05501052301659121
256,1.1118014999956358,0.00028528859115777385,0.007372732505984167,0.000658910107272567,-0.00730610880653265,0.016486860752889815,-0.011161956629517477,-0.02388453990209884,0.032221827246389396,-0.01280392181471467,0.08503131715709923,-0.08166605455710974,0.055333205101242976
257,1.116162999998778,0.0002902130483196599,0.007371836811573587,0.000660239350947129,-0.0074229763052113705,0.016654721549222234,-0.011222392440354874,-0.023608529713542065,0.03204402784697888,-0.01259251447118353,0.08524920591429264,-0.08057238997617237,0.05564743102884428
258,1.1198812999937218,0.00028973248087537404,0.007371097287833564,0.0006680331734800489,-0.0075389730877584715,0.016822417906482104,-0.011282013137322053,-0.0233328214505004,0.03187236117437643,-0.01238000114016764,0.08544309252042195,-0.07947085983163597,0.05595341888637654
259,1.1239550999889616,0.00028634993892180183,0.007365140155169415,0.0006742050337814634,-0.007654079665157506,0.01698993404190878,-0.011340806324629284,-0.023057379843845347,0.031706613912714295,-0.012166373854358535,0.08561387627471799,-0.07836356701508246,0.05625138563326041
260,1.128419299988309,0.0002872796415886225,0.007367369460428545,0.0006698741931257282,-0.007768276254793266,0.017157253042750373,-0.011398759530184679,-0.02278216574190838,0.03154656450380286,-0.011951623839825672,0.0857624618042777,-0.07725260007089071,0.0565415467433214
261,1.1327292999922065,0.0002872796415886225,0.007367369460428545,0.0006698741931257282,-0.007881542791591784,0.017324356886621654,-0.011455860212206211,-0.022507136266802338,0.031391983518801236,-0.011735741578001842,0.08588975783524797,-0.07614003099455406,0.056824115852296325
262,1.1368137999961618,0.0002872796415886225,0.007367369460428545,0.0006698741931257282,-0.007993858939614795,0.017491226462940553,-0.011512095766015536,-0.022232244973881682,0.031242634034778193,-0.011518716868402404,0.08599667597221228,-0.07502791306491266,0.05709930441127855
263,1.14077109999198,0.0002872796415886225,0.007367369460428545,0.0006698741931257282,-0.008105204104090703,0.017657841595401663,-0.01156745353100534,-0.021957442014103157,0.031098272015671086,-0.011300538891989958,0.08608412948717112,-0.07391827871251273,0.05736732134649017
264,1.1450655999942685,0.0001963623825764105,0.007345371280283472,0.0007077464788955081,-0.008215557443863791,0.01782418106544452,-0.01162192079777189,-0.02168267429904775,0.03095864669715081,-0.011081196275096135,0.0861530321194841,-0.07281313742624763,0.05762837272575876
265,1.1484588000021176,0.0002956294458580082,0.007378352636628239,0.0007002881133242536,-0.00832489788424318,0.017990222636673926,-0.011675484815404352,-0.021407885668364122,0.030823500974901667,-0.010860677153812419,0.08620429688811675,-0.0717144737003765,0.05788266143206553
266,1.153024599989294,0.00032018809459479663,0.007381221109508525,0.0006962994922402363,-0.008433204130232715,0.01815594308018908,-0.01172813279892242,-0.021133017059393508,0.03069257179582671,-0.01063896923876219,0.08623883491750942,-0.07062424502395416,0.05813038684452052
267,1.1576370999973733,0.0003245276903121318,0.0073790611236865325,0.0007047056272034313,-0.00854045468012278,0.01832131820077787,-0.011779851936853625,-0.02085800667873639,0.030565590551691283,-0.010416059880166483,0.08625755427835807,-0.06954437991464299,0.058371744527109345
268,1.1617222999921069,0.00032510809774008724,0.007377855326423618,0.0007114004639571011,-0.00864662783942481,0.018486322863932387,-0.011830629398941613,-0.020582790175521583,0.0304422834747203,-0.010191936133116447,0.08626135884456768,-0.06847677599881191,0.05860692592554419
269,1.1658023999916622,0.0003389068868185097,0.0073767792212702,0.0007008462746612633,-0.00875170173512911,0.01865093102364134,-0.011880452343976661,-0.02030730081613911,0.03032237203466806,-0.009966584822966059,0.08625114716760877,-0.0674232981397613,0.05883611807253958
270,1.1700855999952182,0.0003506042786297165,0.00737142950246806,0.0006931464343295239,-0.0088556543302664,0.01881511575091493,-0.01192930792773965,-0.020031469660199024,0.03020557333688333,-0.009739992610759272,0.0862278113694762,-0.06638577661584355,0.0590595033018212
271,1.1741017000022111,0.0003560068587408573,0.0073688199776779945,0.000704851388554824,-0.008958463438753323,0.018978849262997453,-0.011977183311050668,-0.019755225737479724,0.03009160052089634,-0.009512146058606627,0.08619223605541634,-0.06536600535017865,0.05927725897116317
272,1.1784724999888567,0.00037410557903322893,0.007365074086641815,0.0006963524548352562,-0.009060106740502123,0.019142102953222835,-0.012024065667913421,-0.01947849622563076,0.029980163159059357,-0.009283031694927175,0.0861452972475555,-0.0643657401935924,0.05948955719473658
273,1.1825739999912912,0.00037410557903322893,0.007365074086641815,0.0006963524548352562,-0.009160561796774639,0.019304847421468287,-0.012069942193746543,-0.019201206628396913,0.029870967654777508,-0.009052636079472537,0.08608786134052758,-0.0633866972623316,0.059696564585038456
274,1.1866346999886446,0.00027811423742238166,0.007337746495827402,0.000728322655341649,-0.009259806065760708,0.01946705250516112,-0.012114800113692929,-0.018923280954132427,0.029763717639872463,-0.008820945868050963,0.08602078408016334,-0.06243055133203623,0.05989844200465687
275,1.191746399999829,0.0004602184695523164,0.007325290006778505,0.0006556460588244223,-0.009357816918361008,0.01962868731079383,-0.012158626690998207,-0.018644641894376476,0.029658114370627847,-0.008587947876870398,0.08594490956626628,-0.0614989342893723,0.06009534432811465
276,1.195176099994569,0.00048359357903783145,0.007311737336202246,0.0006422881488221427,-0.009454571654154338,0.01978972024590284,-0.012201409235449495,-0.01836521100226365,0.029553857122072064,-0.008353629146420691,0.08586106928046272,-0.06059343364265311,0.06028742021402004
277,1.1992337999981828,0.0005054698023124625,0.007300058909081702,0.0006302688419716269,-0.00955004751752937,0.01995011905146634,-0.012243135111865519,-0.01808490887054594,0.029450643580061345,-0.00811797700481644,0.08577008114007477,-0.059715591092697785,0.06047481188773848
278,1.2035172999894712,0.0005331035335813815,0.007289395034926434,0.0006057360970348223,-0.00964422171396097,0.020109850834676916,-0.012283791748629223,-0.017803655309005628,0.02934817023073356,-0.007880979130523403,0.08567274857892583,-0.05886690116509798,0.06065765493478578
279,1.2086765999993077,0.0005420584328719709,0.007272644687410825,0.0005727147808947361,-0.009737071426411245,0.020268882102044798,-0.012323366646254054,-0.01752136952104179,0.029246132746911388,-0.007642623614392825,0.08556985965594807,-0.058048809904983914,0.06083607810512846
280,1.2134581999998773,0.0005688645972217444,0.007261203087714145,0.0005442027325630208,-0.009828573831835595,0.020427178792788,-0.012361847385975257,-0.01723797027921668,0.029144226371041724,-0.007402899020929596,0.08546218619242005,-0.05726271363530005,0.06101020312856261
281,1.2177462999970885,0.0005688645972217444,0.007261203087714145,0.0005442027325630208,-0.009918706117774052,0.02058470631246597,-0.01239922163835747,-0.016953376099551824,0.029042146294267213,-0.007161794448721726,0.08535048293862088,-0.056509957779520587,0.06118014454132798
282,1.2221570999972755,0.000642150407113928,0.007233448710157312,0.00046585075919821663,-0.010007445499008396,0.020741429566813744,-0.012435477171909943,-0.016667505414367716,0.02893958803123507,-0.006919299589960374,0.08523548677064557,-0.05579183574965346,0.06134600952409947
283,1.2261986999947112,0.0006777360682216367,0.007222083609460709,0.0004245027105653354,-0.010094769234265645,0.020897312995733858,-0.012470601861700854,-0.016380276743465084,0.02883624779025795,-0.006675404788981347,0.08511791591808344,-0.05510958790029948,0.061507897751483256
284,1.2301307000016095,0.0007124266308173409,0.007209329358598481,0.0003822361903581138,-0.01018065464294866,0.021052320607403873,-0.012504583697962202,-0.016091608863449902,0.02873182283845152,-0.006430101099760868,0.08499846922321833,-0.054464400549451376,0.0616659012531303
285,1.234317499998724,0.0007537905205499737,0.007203437810136746,0.00034956670351991804,-0.01026507912187478,0.021206416012457756,-0.012537410794676887,-0.015801420975008904,0.028626011861483457,-0.006183380342300267,0.08487782543236534,-0.053857405066635534,0.061820104286565
286,1.238672499996028,0.0007973984279808655,0.007192939433846391,0.00029849501665189554,-0.010348020162003603,0.021359562458200032,-0.012569071398139705,-0.015509632867946963,0.028518515317579485,-0.005935235157836147,0.08475664251991542,-0.05328967702891698,0.06197058322181232
287,1.2428542999987258,0.000842449492599421,0.007184134928019955,0.00024651306203060647,-0.01042945536513529,0.021511722862812145,-0.012599553895484058,-0.015216165083802633,0.028409035785442797,-0.005685659062814597,0.08463555704561454,-0.05276223544520553,0.062117406437891605
288,1.2467345999903046,0.0008847186962892952,0.007214029293147498,0.00020863861362963956,-0.010509362460561049,0.021662859849511176,-0.012628846823166387,-0.014920939075863044,0.028297278305754195,-0.005434646501570018,0.08451518354555985,-0.052276042049219,0.06226063423123098
289,1.2534424999903422,0.0009249749514159844,0.0072150562196750725,0.00014344964201801238,-0.010587719321647737,0.021812935780621812,-0.012656938875400326,-0.014623877366404595,0.028182950715931833,-0.005182192897651257,0.08439611395735044,-0.05183200066137707,0.062400318736041065
290,1.2574555999890435,0.0009695800919679258,0.007210686040904034,7.709089075556928e-05,-0.010664503982338801,0.021961912791523173,-0.012683818912532762,-0.014324903700991272,0.02806576397784123,-0.004928294703739923,0.08427891707978528,-0.05143095661981772,0.06253650385667223
291,1.261730300000636,0.0010163361615560607,0.007211830820224903,3.363693053353491e-06,-0.010739694653554078,0.02210975282443297,-0.012709475969354123,-0.014023943199667922,0.027945432498158142,-0.004672949450107866,0.08416413806745657,-0.05107369628064685,0.06266922521196512
292,1.2652639000007184,0.0010629106014534535,0.007214702167197604,-6.54122902845058e-05,-0.010813269739471342,0.022256417661992153,-0.012733899263335409,-0.013720922504891351,0.027821674441099,-0.0044161557915630475,0.08405229796054109,-0.050760946587450624,0.06279851009158939
293,1.2698086999880616,0.0010629106014534535,0.007214702167197604,-6.54122902845058e-05,-0.010885207853672745,0.022401868960614045,-0.0127570782027846,-0.013415769926047906,0.0276942120332459,-0.0041579135528353045,0.08394389325004688,-0.05049337471002022,0.0629243774243516
294,1.2734416000021156,0.0009822923196073437,0.007193581951026486,-0.0001204801100144672,-0.010955487835139683,0.022546068283562752,-0.012779002394915287,-0.013108415580411939,0.027562771860205736,-0.0038982237723558157,0.08383939547872837,-0.05027158775215871,0.06304683775843892
295,1.2768216999975266,0.001213815281913738,0.007254663021069283,-0.00029811936297506673,-0.01102408876407994,0.022688977133726574,-0.012799661653820559,-0.012798791530405458,0.027427085154855712,-0.0036370887443864203,0.08373925087783803,-0.05009613252836121,0.06316589325355071
296,1.2802639000001363,0.001213815281913738,0.007254663021069283,-0.00029811936297506673,-0.011090989977571238,0.022830556986053113,-0.012819046008345223,-0.012486831917025362,0.02728688807694023,-0.0033745120594572964,0.08364388003983804,-0.04996749540908164,0.06328153768485648
297,1.2843295999919064,0.001213815281913738,0.007254663021069283,-0.00029811936297506673,-0.01115617108500575,0.02297076931961348,-0.012837145709849689,-0.012172473089310788,0.027141921983797095,-0.0031104986430738925,0.08355367762715069,-0.04988610223422261,0.06339375645870395
298,1.2877174999885028,0.0011423247334239395,0.007213993586659797,-0.00035036870009751077,-0.011219611983320556,0.02310957564926405,-0.012853951239859005,-0.01185565372972931,0.02699193369200421,-0.0028450547926563963,0.08346901211698157,-0.04985231829440853,0.06350252663998762
299,1.2923579999915091,0.0011423247334239395,0.007213993586659797,-0.00035036870009751077,-0.011281292871999509,0.02324693755687514,-0.012869453317590665,-0.01153631497536711,0.026836675729751066,-0.0025781882126774546,0.08339022558220732,-0.04986644837952707,0.06360781699107504
300,1.2967578999960097,0.0011423247334239395,0.007213993586659797,-0.00035036870009751077,-0.011341194267832276,0.023382816722097053,-0.012883642907355004,-0.011214400534814581,0.026675906579752655,-0.0023099080479662857,0.08331763350827531,-0.04992873689395052,0.06370958802217465
301,1.301117199996952,0.00123829856128341,0.007180042435359288,-0.0005027845820821773,-0.01139929701941682,0.023517174952634994,-0.012896511225822166,-0.010889856800645206,0.02650939091253665,-0.002040224915149787,0.08325152464602045,-0.05003936803777621,0.06380779205301641
302,1.3051205999945523,0.0015584518810717353,0.00717765462759211,-0.0009416779486385695,-0.011455582321392013,0.023649974214005505,-0.012908049749149835,-0.010562632957391991,0.026336899809948126,-0.0017691509322036972,0.08319216090026134,-0.05019846605335407,0.06390237328570363
303,1.309271699996316,0.0016562409834645579,0.007178898510556784,-0.0010595618357763076,-0.011510031728387552,0.02378117665874809,-0.012918250219966216,-0.010232681084932266,0.026158210978729304,-0.0014966997460893626,0.08313977725399582,-0.0504060955362996,0.06399326788858128
304,1.313356400001794,0.0017416482992743103,0.007193915060704181,-0.0011867018253423783,-0.011562627168678728,0.023910744655066762,-0.012927104654202885,-0.009899956257198238,0.02597310895404535,-0.0012228865584540997,0.08309458172797508,-0.05066226181012227,0.06408040409095447
305,1.3178304999892134,0.0018039023989227091,0.007230793160180382,-0.0013364579480452346,-0.011613350957534121,0.024038640814877287,-0.012934605347772377,-0.009564416636137173,0.025781385292840672,-0.0009477281493756405,0.08305675537539428,-0.05096691136353262,0.06416370228847845
306,1.3211134000011953,0.0018815885791030474,0.007127337809243344,-0.0015305794856039147,-0.011662185810244736,0.02416482802123689,-0.012940744883085567,-0.009226023560851667,0.02558283875692341,-0.0006712428991336174,0.08302645231139776,-0.05131993234942663,0.06424307515903054
307,1.3246185000025434,0.002019660647843939,0.007113259954154527,-0.0018516892311608577,-0.011709114854823613,0.02428926945513454,-0.012945516135404072,-0.00888474163185704,0.025377275485689407,-0.00039345080799352066,0.0830037997770579,-0.051721155144482354,0.06431842778886229
308,1.3304022999946028,0.0022431816235417104,0.00717133260653112,-0.002165506775052746,-0.011754121644365468,0.024411928621620865,-0.012948912279023141,-0.008540538790399524,0.02516450915841024,-0.00011437351399101957,0.08298889823744836,-0.05217035296824227,0.06438965780881968
309,1.3342808000015791,0.0024784512970980957,0.007240323486337345,-0.0025421523574481217,-0.011797190169056396,0.024532769375257977,-0.012950926793280762,-0.008193386392785405,0.024944361146023143,0.0001659656912930128,0.08298182151339391,-0.052667242560495355,0.06445665554040814
310,1.33863269998983,0.0024784512970980957,0.007240323486337345,-0.0025421523574481217,-0.011838304867824136,0.024651755944870655,-0.012951553468388907,-0.007843259279677887,0.02471666065237348,0.00044754184897399254,0.08298261694644199,-0.05321148491571452,0.0645193041514695
311,1.3431511999951908,0.002502339879363228,0.007252700495374871,-0.0027449922291895392,-0.011877450639619981,0.024768852957581442,-0.012950786411083015,-0.0074901358403249695,0.0244812448448737,0.0007303283211264361,0.08299130559656559,-0.05380268607324939,0.06457747982122779
312,1.3469543999963207,0.002912367740217388,0.007298579621748348,-0.0032113877836358563,-0.011914612854323886,0.024884025462113216,-0.01294862005008597,-0.007133998071688135,0.02423795897455555,0.0010142967810704933,0.08300788247207175,-0.05444039796192023,0.064631051914451
313,1.3530546999973012,0.003076047256335125,0.007271170966606158,-0.0035334020584414164,-0.011949777363264826,0.024997238951344036,-0.012945049141383088,-0.006774831632448148,0.02398665648550527,0.001299417205682221,0.08303231679115577,-0.055124119297606675,0.06467988316446698
314,1.3578007999894908,0.0032687061465067305,0.007336495111517238,-0.0037923251581100355,-0.011982930509348996,0.025108459384100272,-0.012940068773304841,-0.006412625891870707,0.023727199113684056,0.0015856578697252624,0.08306455227450804,-0.055853296532375335,0.06472382986476231
315,1.3618337999942014,0.0034631700438015117,0.00734130899055595,-0.004045403547134018,-0.012014059136788883,0.025217653206175125,-0.012933674371414192,-0.006047373973520976,0.023459456975148778,0.0018729853421992672,0.08310450746834745,-0.056627324853642864,0.06476274206888503
316,1.3659590000024764,0.003667706971795777,0.007339897925657657,-0.004404541664700844,-0.01204315060042676,0.0253247873705608,-0.012925861703195802,-0.005679072793822326,0.023183308643700145,0.0021613644846980957,0.0831520760972244,-0.05744554923182474,0.06479646379836328
317,1.3699631999916164,0.003913281260587057,0.007404396215231299,-0.004669694843099,-0.0120701927746466,0.025429829356883756,-0.012916626882544496,-0.00530772309546094,0.022898641217997832,0.0024507584517685626,0.08320712744590618,-0.05830726551487717,0.06482483325834452
318,1.3742018999910215,0.004152311688600496,0.0074766611841605435,-0.004965040060961302,-0.012095174061868967,0.025532747190033858,-0.012905966374050632,-0.004933329475644049,0.022605350378193962,0.0027411286932582596,0.08326950676962885,-0.05921172156809836,0.06484768306065307
319,1.3787897000001976,0.004425922769813663,0.007528637929381654,-0.005325210228741821,-0.012118083400623897,0.025633509457979018,-0.0128938769970802,-0.004555900409225687,0.022303340432148076,0.00303243495863879,0.08333903573197132,-0.060158118457516285,0.06486484045395606
320,1.3824852999969153,0.004694757342664527,0.00753449817692987,-0.0057252650293209,-0.012138910273197372,0.025732085328758193,-0.012880355929647681,-0.0041754482667198225,0.02199252435129843,0.003324635303288579,0.08341551286958072,-0.06114561167515326,0.06487612756072196
321,1.3889830999978583,0.004954236830158916,0.007530800315468807,-0.006203256547733934,-0.012157644712847472,0.025828444566646624,-0.012865400712079958,-0.003791989327226652,0.02167282379627568,0.0036176860967173014,0.08349871408295277,-0.062173312404423524,0.06488136162064949
322,1.3930658999888692,0.005268987599081069,0.007620027366785784,-0.0066142629316113,-0.012174277310586807,0.025922557547488383,-0.012849009250469775,-0.003405543786303655,0.021344169132356195,0.003911542032711888,0.08358839315244587,-0.06324028882388778,0.06488035524023902
323,1.3969308999949137,0.0055662604589907455,0.0076703263424426965,-0.0070306937441794864,-0.012188799221528327,0.026014395273192402,-0.01283117981991745,-0.0030161357588187193,0.021006499434863237,0.00420615614138204,0.08368428227868509,-0.06434556744755933,0.06487291664817359
324,1.4010412999923574,0.005875494099234756,0.0077045876992094045,-0.007553742377331887,-0.01220120217079217,0.02610392938538925,-0.012811911067559701,-0.0026237932768282362,0.02065976248463488,0.004501479803081189,0.08378609264648976,-0.06548813449992884,0.06485884995617215
325,1.407717499998398,0.006247083799116448,0.007810839239146548,-0.008056149434864377,-0.01221147845897161,0.026191132178247017,-0.012791202015384763,-0.0022285482825285126,0.020303914753687764,0.004797462764176915,0.08389351501143787,-0.06666693732384947,0.06483795542497373
326,1.4113233999960355,0.006628566763744594,0.007837281560746293,-0.008659607860117094,-0.012219620967156716,0.02627597661044577,-0.012769052062833158,-0.0018304366163342327,0.01993892138121595,0.0050940531546429255,0.08400622030816056,-0.06788088581940188,0.0648100297351066
327,1.4155174999905284,0.006990158393440721,0.007898207793093486,-0.009209516471076054,-0.012225623161514805,0.026358436316310983,-0.01274546098918368,-0.0014294980001429102,0.01956475614007368,0.005391197507442897,0.08412386027944167,-0.0691288539118386,0.06477486626209379
328,1.4199205999902915,0.007355219029878119,0.008005543384781768,-0.009783015215102617,-0.012229479097427217,0.026438485616107284,-0.012720428955724353,-0.0010257760158493571,0.019181401393900455,0.005688840779674668,0.08424606812518003,-0.07040968104668895,0.06473225535574272
329,1.4235265999886906,0.007355219029878119,0.008005543384781768,-0.009783015215102617,-0.01223118342318249,0.026516099525494854,-0.012693956507708324,-0.0006193180791791922,0.018788848045055956,0.005986926375441581,0.08437245917025646,-0.07172217371009043,0.06468198462316482
330,1.428618899997673,0.007355219029878119,0.008005543384781768,-0.009783015215102617,-0.01223073138322645,0.02659125376415183,-0.012666044576094824,-0.00021017540891522403,0.01838709547354136,0.006285396170416083,0.0845026315503335,-0.07306510697239976,0.06462383921516815
331,1.432922299994971,0.008620801497167107,0.008129159827163519,-0.01185614957844719,-0.012228118820970206,0.026663924763567156,-0.012636694479075557,0.0002015970084047622,0.017976151467092045,0.006584190538059086,0.08463616691460221,-0.07443722605312632,0.06455760211566479
332,1.4369426999910502,0.00906380350276469,0.008225396626850932,-0.012596894043117427,-0.012223342181157433,0.026734089674009,-0.012605907923387002,0.0006159404582357574,0.017556032142634934,0.006883248377456998,0.08477263114447867,-0.07583724790522267,0.06448305443373374
333,1.4428501999936998,0.009529183251854657,0.008320407728211,-0.01335426775770476,-0.012216398511792787,0.026801726370674954,-0.012573687005409334,0.0010327925421313754,0.01712676185931178,0.0071825071427369,0.08491157508724193,-0.07726386281676068,0.0643999756979785
334,1.44688839999435,0.01005768208162795,0.008392713624746553,-0.014227964277927945,-0.012207285465633811,0.026866813459031042,-0.012540034212052915,0.0014520872261161225,0.01668837312327712,0.007481902874018912,0.08505253530359581,-0.07871573602801886,0.06430814415281876
335,1.4512718999903882,0.01005768208162795,0.008392713624746553,-0.014227964277927945,-0.012196001301249008,0.026929330279347533,-0.012504952421433504,0.0018737548932283498,0.016240906484487123,0.007781370229863368,0.08519503482812933,-0.08019150936200518,0.0642073370563551
336,1.456259400001727,0.01048318736526695,0.008504939956611791,-0.014926334751420594,-0.012182544883645195,0.026989256910440525,-0.012468444903337487,0.0022977224001342338,0.015784410425702087,0.008080842521169102,0.08533858394164406,-0.08168980286644081,0.0640973309794466
337,1.4627247999887911,0.01048318736526695,0.008504939956611791,-0.014926334751420594,-0.012166915684467624,0.02704657417262918,-0.0124305153194786,0.0027239131377093896,0.015318941243931987,0.008380251746477975,0.08548268095431105,-0.0832092164652345,0.06397790210564158
338,1.4701789999962784,0.011504334299472674,0.008786835085568524,-0.016640718222086723,-0.012149113781776808,0.02710126362991918,-0.012391167723547782,0.0031522470954811425,0.014844562924560661,0.008679528628639554,0.08562681299861527,-0.08474833161748294,0.06384882653160352
339,1.4743327999894973,0.012736866372561231,0.009197183093691927,-0.018459500707675554,-0.012129139859406406,0.02715330759142391,-0.012350406561057953,0.0035826409298210732,0.014361347008390004,0.008978602652788733,0.08577045683104366,-0.08630571298204047,0.06370988056767567
340,1.4783700999978464,0.013277254488927578,0.009396461024218343,-0.01939518409268424,-0.012106995205906768,0.027202689112035553,-0.012308236668985636,0.004015008035774215,0.013869372451851103,0.00927740210558805,0.08591307964147064,-0.08787991008571212,0.06356084103823033
341,1.4832764000020688,0.013894257716930019,0.009716365463581081,-0.02026131063731145,-0.012082681713079206,0.02724939199235895,-0.012264663275211545,0.004449258622408192,0.013368725480634282,0.009575854115685473,0.08605413986919537,-0.08946945899313584,0.06340148558145114
342,1.4867448000004515,0.014428040576756916,0.009981076215985431,-0.0211872809636261,-0.012056201874106479,0.027293400777921705,-0.012219691997762362,0.004885299791562689,0.012859499436994732,0.009873884695337587,0.08619308802458595,-0.09107288397643462,0.06323159294819912
343,1.4909951000008732,0.014428040576756916,0.009981076215985431,-0.0211872809636261,-0.012027558781285183,0.02733470075767463,-0.012173328843856197,0.005323035619876954,0.012341794620994804,0.010171418783147222,0.0863293675152876,-0.09268869918273616,0.06305094329961716
344,1.494995499990182,0.014428040576756916,0.009981076215985431,-0.0211872809636261,-0.011996756123366181,0.02737327796179735,-0.012125580208754264,0.0057623672439704975,0.011815718125948121,0.010468380287863845,0.08646241547595544,-0.0943154102976761,0.06285931850313153
345,1.4984510999929626,0.014428040576756916,0.009981076215985431,-0.0211872809636261,-0.011963798182509418,0.02740911915882452,-0.012076452874421507,0.006203192948649767,0.011281383668334267,0.01076469213319423,0.08659166360047753,-0.09595151620302261,0.06265650242651224
346,1.5034564999950817,0.01688118465844398,0.011455458878107318,-0.024839279054722142,-0.011928689830859833,0.027442211852108614,-0.012025954007999017,0.006645408258011423,0.010738911412455997,0.011060276303570336,0.08671653897565897,-0.09759551062658328,0.06244228122965949
347,1.5074928999965778,0.017487014868382937,0.01187970182162656,-0.02570647126032373,-0.011891436526751278,0.027472544275635863,-0.0119740911600912,0.007088906029310832,0.010188427790113901,0.011355053890820681,0.0868364649153457,-0.09924588378258016,0.06221644365378814
348,1.5114154999901075,0.0181156026830381,0.01230227112137126,-0.026618971046737813,-0.011852044310545675,0.027500105389212534,-0.011920872262870735,0.007533576549462558,0.009630065315575954,0.01164894514169096,0.08695086179397465,-0.10090112400070607,0.06197878130768712
349,1.5147424999886423,0.01875558607568781,0.012737922425993635,-0.027582828374911113,-0.011810519800114994,0.02752488487303911,-0.01186630562800455,0.007979307634037978,0.00906396239612165,0.011941869506159324,0.08705914787854625,-0.10255971934210348,0.06172908895073595
350,1.5179922999959672,0.01940198420073621,0.01326507529767859,-0.02844386783573678,-0.011766870185973877,0.027546873121690414,-0.011810399944404137,0.008425984728623713,0.008490263138442214,0.012233745686491286,0.08716074015802537,-0.10422015920053772,0.06146716477236642
351,1.5215460999897914,0.020007585394636984,0.013714036535377496,-0.02931714168956296,-0.01172110322607097,0.02756606123752025,-0.011753164275803661,0.008873491012403228,0.007909117151179864,0.012524491686978953,0.0872550551691883,-0.10588093588706887,0.06119281066766383
352,1.5252941999933682,0.020657736898612486,0.014212189689973604,-0.03025321113619113,-0.011673227240247172,0.02758244102350974,-0.011694608058169383,0.009321707503822888,0.0073206793438902905,0.012814024864309038,0.08734150981794668,-0.10754054619656046,0.06090583250880853
353,1.5286284999892814,0.021335817603366353,0.014834615123829479,-0.03110132897786701,-0.01162325110436936,0.027596004975578833,-0.011634741096944007,0.009770513168202773,0.0067251097227131575,0.013102261978503948,0.0874195221951925,-0.10919749295439932,0.06060604041206562
354,1.5328090999973938,0.022011839777048986,0.01549549925021549,-0.031852186357095885,-0.0115711842441482,0.027606746274380835,-0.011573573564129707,0.010219785027151795,0.006122573183035818,0.013389119244380087,0.08748851238622384,-0.11085028654183854,0.060293249000037165
355,1.5377246999996714,0.02266422159904831,0.016100496185166575,-0.03274952686956222,-0.011517036628649004,0.027614658776600024,-0.011511115995213575,0.010669398269646043,0.005513239299435534,0.013674512383467528,0.0875479032728259,-0.11249744639841465,0.05996727765889927
356,1.541114599996945,0.023305446690475726,0.016794493843113226,-0.03354051949011789,-0.011460818763504719,0.027619737005772818,-0.01144737928593942,0.011119226364628827,0.004897282113185198,0.013958356676335276,0.08759712132709854,-0.11413750249993031,0.059627950790353254
357,1.545992400002433,0.02393612068733346,0.017414156008792172,-0.034351559323742044,-0.011402541683840353,0.027621976142653184,-0.011382374688929879,0.011569141174990739,0.004274879917606974,0.014240567015266383,0.08763559739613894,-0.11576899681053576,0.05927509805802834
358,1.5493792999914149,0.02461038091443652,0.01813447103763747,-0.03514884552672216,-0.011342216946918287,0.02762137201514334,-0.011316113810162842,0.012019013072787943,0.0036462150415572793,0.014521057957227372,0.08766276747670688,-0.11739048470748528,0.05890855462808099
359,1.5529905000003057,0.025285401112302514,0.018929338070932056,-0.035856088173484416,-0.01127985662451398,0.027617921087810953,-0.011248608605306262,0.012468711055557016,0.0030114736313252934,0.014799743777076532,0.08767807347901975,-0.11900053637718899,0.05852816140374512
360,1.556446099988534,0.02597136427593371,0.01973205598720578,-0.03658827133780862,-0.011215473295031718,0.027611620451013973,-0.011179871375915456,0.01291810286358496,0.0023708454312255456,0.015076538520955918,0.08768096397884403,-0.1205977381812269,0.05813376525359553
361,1.5628240999940315,0.02658414786924334,0.020512030810082866,-0.037213260452181235,-0.011149080035370233,0.02760246780965467,-0.011109914765497166,0.013367055097993399,0.001724523563163227,0.015351356059812374,0.08767089495707156,-0.12218069399103848,0.057725219233296016
362,1.566760699992301,0.027301491531600865,0.021373433500350224,-0.03797620784242471,-0.011080690412548048,0.02759046147158454,-0.011038751755444616,0.013815433339496494,0.0010727043054485931,0.015624110142993253,0.08764733052598987,-0.12374802649004926,0.05730238280061222
363,1.5717145999951754,0.02793539705454189,0.022211811927252873,-0.03861305524929928,-0.011010318475098486,0.02757560033568184,-0.010966395660847878,0.014263102267692887,0.00041558687113429677,0.0158947144518628,0.08760974364147898,-0.12529837844204483,0.056865122023478765
364,1.5753236999880755,0.028576901238683044,0.023161694533777206,-0.039191419652174944,-0.01093797874424448,0.027557883879623598,-0.010892860126183877,0.014709925780752937,-0.0002466268138533535,0.0161630826533858,0.08755761680039008,-0.12683041392465227,0.056413309780919574
365,1.5810034000023734,0.029265911159465637,0.024124544584635182,-0.03975812045236588,-0.010863686204863351,0.027537312147373986,-0.01081815912089041,0.015155767115363457,-0.0009137323325213398,0.01642912845362554,0.08749044272238579,-0.1283428195268407,0.05594682595662974
366,1.5865264000021853,0.02988575038842076,0.02500586854093293,-0.0404273882792795,-0.010787456296251772,0.02751388573641093,-0.010742306934828643,0.015600488966793459,-0.0015855229982906388,0.01669276565110391,0.0874077250155463,-0.12983430550940375,0.05546555762503671
367,1.5913283999980194,0.030574036341808834,0.026000742324412487,-0.040999592421792144,-0.010709304902701128,0.02748760578471281,-0.010665318173638494,0.01604395360894578,-0.002261790075889918,0.016953908189971934,0.08730897882507099,-0.13130360692743934,0.054969399229668585
368,1.6014995000005,0.03117073623542466,0.027080829996195894,-0.041475361384449974,-0.010629248343893548,0.02745847395752693,-0.010587207753991376,0.016486023014260918,-0.0029423230014054206,0.017212470212939954,0.08719373146443105,-0.13274948471389572,0.05445825275366751
369,1.6055767999932868,0.03181659232981698,0.0281784672833705,-0.0420406827909663,-0.010547303365128921,0.027426492433941636,-0.010507990898744742,0.016926558973340982,-0.003626909601234449,0.01746836611391728,0.08706152302835447,-0.1341707267233068,0.05393202788229596
370,1.611901399999624,0.03249620612740845,0.029369819664110515,-0.04255838419271916,-0.010463487127393282,0.02739166389328372,-0.010427683132002912,0.017365423214163542,-0.004315336309694354,0.017721510590312052,0.08691190698705159,-0.13556614873489423,0.053390642157294055
371,1.6159197999950266,0.03310820853526592,0.030346014604475186,-0.04308042876403637,-0.010377817197278847,0.027353991501362716,-0.010346300274088616,0.01780247752075707,-0.005007388385043615,0.017971818694942986,0.08674445076111666,-0.13693459541426833,0.052834021122956244
372,1.6199894999881508,0.0337396198597994,0.03144411134944097,-0.04347453214969525,-0.010290311536765975,0.027313478896583615,-0.010263858436429721,0.01823758385121159,-0.005702850123676553,0.018219205887515584,0.08655873627656901,-0.13827494123301473,0.052262098463806035
373,1.6241238999937195,0.0337396198597994,0.03144411134944097,-0.04347453214969525,-0.01020098849287728,0.027270130175949127,-0.010180374016365663,0.018670604454900253,-0.0064015050722583955,0.018463588085616177,0.08635436049952538,-0.1395860913455095,0.0516748161337576
374,1.6287080999900354,0.03425684704214588,0.032608363235147333,-0.04397594793983212,-0.010109866787214124,0.027223949880972587,-0.010095863691877947,0.01910140198878978,-0.007103136237572829,0.01870488171517817,0.08613093595002345,-0.14086698242236176,0.051072124476663795
375,1.633353099998203,0.035619134997996904,0.035059590805944826,-0.04488892007748353,-0.0100169655053857,0.027174942983522295,-0.010010344416249201,0.01952983963272018,-0.007807526293859758,0.018943003760375828,0.08588809119454525,-0.1421165834399387,0.05045398233816048
376,1.6369628999964334,0.03624497911053256,0.036309916896833036,-0.04529567574455225,-0.009922304086340832,0.02712311487161784,-0.009923833412655254,0.019955781203536735,-0.008514457787426795,0.019177871812902172,0.08562547131681791,-0.14333389642548455,0.049820357168727535
377,1.6402802999946289,0.036851317359340524,0.037541831774412185,-0.04575195368850849,-0.009825902311612558,0.02706847133519895,-0.009836348168694647,0.02037909126795972,-0.009223713338324021,0.01940940412058875,0.08534273836649886,-0.1445179571574021,0.04917122511789734
378,1.6449087999935728,0.03743112123380206,0.03877617566111759,-0.04617404105000961,-0.009727780294485478,0.027011018551887,-0.00974790643086,0.020799635254080004,-0.009935075838877691,0.01963751963532614,0.08503957178538142,-0.14566783582031928,0.048506571119552165
379,1.648256799991941,0.038106065989191515,0.040087709236710976,-0.046528873808820995,-0.00962795846909576,0.026950763072759013,-0.009658526198955566,0.021217279561371587,-0.01064832864888491,0.019862138060245196,0.08471566881078686,-0.146782637614621,0.04782638896826256
380,1.6516008999897167,0.038660391871708125,0.041444213413519664,-0.046951634105477355,-0.00952645757947359,0.026887711808153785,-0.009568225720465262,0.021631891669114927,-0.011363255787277851,0.020083179896120098,0.08437074485583826,-0.1478615033201821,0.047130681386629
381,1.6561782999924617,0.038660391871708125,0.041444213413519664,-0.046951634105477355,-0.009423298668537807,0.02682187201352928,-0.009477023484875348,0.02204334024312798,-0.012079642120072703,0.020300566486955756,0.0840045338663415,-0.1489036098140946,0.04641946008359985
382,1.6613212999945972,0.039213214956378716,0.04271123272742807,-0.0472122028797607,-0.009318503067052312,0.026753251275390137,-0.009384938217956008,0.022451495240704788,-0.012797273544425336,0.020514220064723275,0.08361678865402847,-0.14990817054223587,0.04569274580374868
383,1.6657322999963071,0.04043011833552949,0.04558996052610811,-0.04799095553029084,-0.009212092382553758,0.026681857497303712,-0.009291988876005968,0.02285622801366479,-0.013515937168622696,0.020724063793208534,0.08320728120594752,-0.15087443594458175,0.044950568367504606
384,1.6697807999880752,0.04099108042604203,0.04700765257766609,-0.04834887226889485,-0.009104088488259882,0.026607698886022678,-0.009198194640064262,0.023257411409419285,-0.014235421487845932,0.02093002181094012,0.08277580296981665,-0.1518016938342212,0.04419296670233954
385,1.6739655999990646,0.04159244890027248,0.048492487025351375,-0.04875619243230739,-0.008994513511967632,0.026530783937731898,-0.00910357491009325,0.023654919869964635,-0.014955516555548463,0.021132019273164316,0.08232216511518443,-0.15268926973008642,0.04341998886492625
386,1.6782633999973768,0.04220811515542849,0.04996468583375671,-0.04909468526445822,-0.008883389824950117,0.026451121424436744,-0.009008149299136911,0.024048629528715268,-0.01567601415029946,0.021329982392836122,0.08184619877027396,-0.15353652714346416,0.04263169205429145
387,1.6830085999972653,0.04220811515542849,0.04996468583375671,-0.04909468526445822,-0.008770740030861228,0.026368720380509632,-0.008911937627458358,0.02443841830509279,-0.016396707937950485,0.02152383848059658,0.08134775523441426,-0.15434286781840925,0.041828142615997814
388,1.688594599996577,0.04220811515542849,0.04996468583375671,-0.04909468526445822,-0.008656586954656686,0.026283590089411175,-0.008814959916660436,0.02482416599679106,-0.01711739362899054,0.0217135159837081,0.0808267061659929,-0.15510773192623356,0.04100941603739889
389,1.6997792999900412,0.04220811515542849,0.04996468583375671,-0.04909468526445822,-0.008540953631540024,0.02619574007060201,-0.008717236383793217,0.025205754369640607,-0.017837869130962213,0.02189894452392107,0.08028294374589288,-0.15583059821429643,0.040175596934021
390,1.7041475000005448,0.04268026916022981,0.05142825406957589,-0.04943747431767631,-0.008423863295941898,0.026105180066660766,-0.0086187874354521,0.025583067244999348,-0.01855793469581933,0.022080054934246324,0.07971638081640577,-0.15651098410937409,0.03932677902713519
391,1.709622499998659,0.045022510919563274,0.05769468245555417,-0.050791531820361745,-0.00830533937054091,0.026011920030623147,-0.008519633661870165,0.025955990584600245,-0.019277393062114016,0.022256779294609605,0.07912695099564211,-0.1571484457759358,0.038463065112592225
392,1.7155493999889586,0.0455709237772345,0.05925929649329806,-0.051100872422235766,-0.008185405455333921,0.025915970113556477,-0.008419795831008423,0.02632441257279019,-0.019996049591908913,0.02242905096636556,0.07851460876748895,-0.1577425781297049,0.03758456702100286
393,1.7200149999989662,0.04603552183998568,0.06092011416064604,-0.051376692391779014,-0.008064085316763715,0.025817340652383565,-0.008319294882647477,0.0266882236960982,-0.02071371240231787,0.022596804625650314,0.07787932954719175,-0.15829301480693136,0.036691405569354206
394,1.724132199989981,0.04659249683678446,0.06255962705842176,-0.051688622634014685,-0.007941402876911587,0.025716042157969236,-0.008218151922484073,0.027047316820074576,-0.02143019249158606,0.022759976295553156,0.07722110972266666,-0.15879942808985073,0.0357837105041622
395,1.728778999997303,0.04707051998313505,0.06424721465969946,-0.051964510211201756,-0.007817382202762237,0.025612085303482527,-0.008116388216235846,0.027401587263346523,-0.0221453038596285,0.022918503377089252,0.07653996667167576,-0.15926152878885128,0.03486162043626888
396,1.7330823999946006,0.047609884441312686,0.06591326378255122,-0.05225148717544932,-0.007692047495548137,0.02550548091304693,-0.008014025183757535,0.02775093286883955,-0.022858863622953498,0.02307232467895689,0.07583593875502528,-0.15967906608191718,0.03392528276740168
397,1.7369069999986095,0.048122253424209206,0.06759090115356751,-0.0524731353496705,-0.007565423080180375,0.025396239950690624,-0.007911084393171895,0.02809525407211771,-0.023570692123905307,0.023221380446064102,0.07510908528597339,-0.1600518273119604,0.03297485360862033
398,1.7419541999988724,0.048572571613560975,0.0692825818793036,-0.05276011584158,-0.007437533394772768,0.025284373509607924,-0.007807587555018522,0.028434453966799503,-0.024280613034167838,0.023365612386811074,0.07435948647606021,-0.16037963774269762,0.03201049769078492
399,1.7460167999961411,0.04899959493498185,0.07100857973422617,-0.05294660813834722,-0.0073084029802657135,0.025169892801742644,-0.007703556516423606,0.028768438367009964,-0.02498845345247923,0.023504963699116147,0.0735872433575984,-0.16066236027376987,0.031032388267186784
400,1.7515526999923168,0.049431513755528886,0.07275743930277052,-0.05321133344329333,-0.007178056470156113,0.02505280914770365,-0.007599013255293491,0.02909711586683315,-0.02569404399651462,0.023639379095174825,0.07279247768308741,-0.16089989511584546,0.03004070700849158
401,1.7569144000008237,0.04987892984817501,0.07449589758516766,-0.05338828858963351,-0.007046518580339451,0.024933133967022264,-0.007493979874534841,0.029420397896733102,-0.026397218888902126,0.023768804824942584,0.07197533180183907,-0.16109217942648538,0.029035643890151258
402,1.7618696999998065,0.05028685501143111,0.07626200219764405,-0.053706902870938544,-0.006913814099069926,0.024810878768760546,-0.007388478596304193,0.029738198776915283,-0.027097816037344496,0.023893188698333803,0.0711359685141269,-0.16123918690759093,0.02801739707244911
403,1.7657733999949414,0.05067716098089449,0.07800022187564307,-0.053839687518271596,-0.006779967877044274,0.02468605514247887,-0.007282531756289493,0.03005043576760422,-0.027795677108826612,0.02401248010613053,0.07027457090319467,-0.16134092736529068,0.026986172773348874
404,1.769803299990599,0.05067716098089449,0.07800022187564307,-0.053839687518271596,-0.006645004817614667,0.02455867474957064,-0.007176161798026196,0.03035702911621665,-0.028490647597896348,0.024126630039596392,0.06939134214548195,-0.1613974462331584,0.02594218513432565
405,1.7739776999951573,0.05067716098089449,0.07800022187564307,-0.053839687518271596,-0.006508949867135852,0.024428749314971406,-0.0070693912672504175,0.03065790210141341,-0.02918257688901364,0.024235591108792302,0.06848650529944732,-0.16140882405968837,0.02488565607936264
406,1.7773737999959849,0.05094306953364855,0.07974125494001365,-0.05398736133676134,-0.006371828005451438,0.024296290619249077,-0.006962242806291484,0.030952981074016762,-0.029871318312969956,0.024339317559592025,0.06756030307339106,-0.1613751759609886,0.02381681516730413
407,1.780759199988097,0.051835868040341064,0.0833119215540524,-0.05434501712635602,-0.006233664236524014,0.024161310491081497,-0.006854739148506182,0.03124219549478349,-0.030556729197387607,0.024437765289396958,0.06661299757270055,-0.16129665103968494,0.022735899437760925
408,1.7842367999983253,0.05217771818237915,0.08514666112504359,-0.054636171317447774,-0.0060944835792135004,0.024023820800126952,-0.006746903112756935,0.03152547796902784,-0.031238670911315377,0.024530891861550913,0.06564487002696137,-0.16117343177105795,0.021643153250770104
409,1.7875475999899209,0.05217771818237915,0.08514666112504359,-0.054636171317447774,-0.005954311058207969,0.023883833450292685,-0.006638757597935979,0.031802764278091866,-0.03191700890394405,0.024618656518457092,0.06465622049739744,-0.1610057333574655,0.020538828120416575
410,1.7918057999922894,0.052387401819451965,0.08685944339257318,-0.054655231786041515,-0.005813171695110863,0.023741360373405865,-0.006530325577537503,0.03207399340766407,-0.0325916127374722,0.024701020193400827,0.06364736756512103,-0.1607938030521297,0.019423182542628994
411,1.7968016999948304,0.0532318293839764,0.09055612119434266,-0.05499018264284025,-0.005671090499688362,0.023596413523290866,-0.006421630094279656,0.03233910757295124,-0.0332623561141594,0.024777945521082846,0.06261864800069163,-0.16053791945339344,0.018296481817367316
412,1.800862599993707,0.05352546737786709,0.09240106014083702,-0.05523351506876004,-0.005528092461280371,0.02344900487025621,-0.006312694254778152,0.03259805224071147,-0.03392911689761037,0.024849396846869234,0.06157041641550011,-0.16023839177057642,0.01715899786542368
413,1.8071132999903057,0.05373917353986815,0.09426653013103659,-0.055303161935250145,-0.005384202540378371,0.02329914639599384,-0.006203541224273194,0.03285077614815988,-0.03459177712834074,0.02491534023476537,0.060503044895511116,-0.15989555906258304,0.016011009040062488
414,1.8118241999909517,0.054079543481365316,0.09612729560489718,-0.05551812550206487,-0.00523944566037313,0.023146850088892987,-0.006094194221411344,0.03309723131876198,-0.03525022303368103,0.024975743474122552,0.05941692261791196,-0.15950978945043545,0.01485279993372957
415,1.815860499991686,0.05440856543670242,0.09792002722919783,-0.05562068578766538,-0.005093846699475068,0.022992127939770124,-0.005984676513083882,0.03333737307493253,-0.035904345032081876,0.02503057608508719,0.05831245545123161,-0.1590814793049247,0.013684661180063885
416,1.820057699995232,0.05462015275883245,0.09981230590151642,-0.055715265020535525,-0.00494743048280981,0.02283499193801615,-0.005875011409323042,0.0335711600476612,-0.03655403773188918,0.02507980932280379,0.057190065539507264,-0.15861105241059203,0.012506889251448593
417,1.8242371999949685,0.05480513066030687,0.10165256732819057,-0.05577736749600984,-0.004800221774691223,0.022675454068161377,-0.0057652222582574315,0.03379855418308931,-0.03719919992466398,0.025123416180384068,0.05605019087108942,-0.15809895910726787,0.011319786252341469
418,1.8282075999886729,0.055041497888388344,0.10350802512587122,-0.05587018126109988,-0.004652245271073997,0.022513526306858364,-0.005655332441127864,0.03401952074606513,-0.03783973457312764,0.02516137139065573,0.05489328483268814,-0.15754567541041062,0.010123659708627223
419,1.8325999999942724,0.05521959950868334,0.10542713129164748,-0.055947979621468046,-0.004503525592187629,0.02234922062028194,-0.0055453653673646994,0.03423402832070833,-0.03847554879381839,0.025193651426705464,0.05371981574927573,-0.1569517021115012,0.008918822353236914
420,1.8367096000001768,0.05521959950868334,0.10542713129164748,-0.055947979621468046,-0.004354087275353442,0.02218254896194531,-0.005435344469727707,0.03444204880801703,-0.039106553834550875,0.02522023450123192,0.05253026641047146,-0.15631756385976103,0.007705591908281715
421,1.84076659999846,0.055412915618763166,0.1071924207697833,-0.055986352319786166,-0.004203954767986006,0.022013523270930785,-0.005325293199509351,0.03464355742055404,-0.03973266504677556,0.025241100564725383,0.05132513358404377,-0.15564380822647145,0.006484290863950111
422,1.8449846000003165,0.055412915618763166,0.1071924207697833,-0.055986352319786166,-0.004053152420780164,0.021842155470533045,-0.005215235021802368,0.034838532674251424,-0.0403538018529396,0.025256231302491893,0.05010492751717448,-0.1549310047531811,0.005255246254419179
423,1.8490080999908969,0.05568317044016283,0.11093436936563937,-0.05602729579407332,-0.0039017044810846072,0.02166845746731247,-0.0051051934108324055,0.03502695637737553,-0.04096988770895603,0.025265610130540492,0.04887017142613825,-0.1541797439850948,0.0040187894310318535
424,1.8535282999946503,0.05605459151569146,0.11475097627025899,-0.056206142767415646,-0.003749635086462732,0.021492441150555496,-0.00499519184535636,0.03520881361669702,-0.041580850061892945,0.025269222190353297,0.047621400975057564,-0.1533906364909424,0.0027752558329930455
425,1.8575809999892956,0.0561727849839003,0.11656771450789541,-0.05622076652576105,-0.0035969682584413016,0.021314118392138506,-0.004885253804126992,0.03538409274091302,-0.042186620302998405,0.025267054342559152,0.04635916374440018,-0.1525643118706309,0.0015249847558380925
426,1.861938899994129,0.0561727849839003,0.11656771450789541,-0.05622076652576105,-0.0034437278964472235,0.02113350104679116,-0.004775402761424309,0.035552785341371004,-0.042787133716181404,0.025259095159532494,0.04508401868989159,-0.15170141775198312,0.0002683191179274019
427,1.8661053999967407,0.0561898924656182,0.11836041797158954,-0.056164607210738855,-0.003289937771932554,0.020950600952754757,-0.004665662182654085,0.03571488623014611,-0.043382329422073346,0.025245334916939904,0.043796535592519927,-0.15080261877786805,-0.0009943947747787967
428,1.869889699999476,0.05644921096388543,0.12210564801241178,-0.056294439733731876,-0.003135621522687643,0.020765429932830665,-0.004556055520013847,0.03587039341552571,-0.043972150317798345,0.02522576558425752,0.04249729450031496,-0.14986859558502794,-0.002262807465411915
429,1.874189900001511,0.05648770681603595,0.12385905324901463,-0.056264377613976325,-0.0029808026473421333,0.02057799979581361,-0.004446606208226526,0.03601930807495733,-0.04455654301258444,0.02520038081428333,0.04118688516258597,-0.14890004377590382,-0.0035365665840995063
430,1.8782243999885395,0.05652650449337713,0.12570918187511518,-0.05618991976973213,-0.0028255045000533416,0.02038832233830416,-0.004337337660341929,0.036161634525518224,-0.0451354577593514,0.025169175931668977,0.039865906457305596,-0.14789767288475855,-0.004815317086830423
