,time,x,y,z,vx,vy,vz,ax,ay,az,jx,jy,jz
0,0.0038646000029984,0.0,0.0,0.0,-0.00010398728334291112,0.0006285504861487232,-7.703517635933333e-05,-0.00010985031554339682,0.0028848652709087532,-0.000319618429599716,0.003562548019821059,-0.031217450153850555,0.0025805393982054215
1,0.0084407000103965,-3.853911033326972e-05,-1.8876708813941342e-05,-6.003110410601275e-06,-0.00011784481378003757,0.001327678207617893,-0.00012935949137601313,5.216600179672462e-05,0.004937352611294069,-0.0004357533876095038,0.005112820146420357,-0.03257426215382589,0.0030349952196525743
2,0.0135279000096488,-7.820762231939388e-05,-3.870008060410678e-05,-7.933329807905851e-06,-0.00013088786084999694,0.002025405240336461,-0.00018144545580615922,0.00021846164938510502,0.006951563298754195,-0.0005481465410301842,0.00666583183813328,-0.03408037517809365,0.0035024321685573883
3,0.0189217000006465,-0.00011308272072958791,-6.245480424419444e-05,-1.5496156067917218e-05,-0.0001430870302522659,0.0027213689152409066,-0.000233261011663103,0.00038904692437326054,0.008925922096721854,-0.0006566740586560385,0.008220847188431376,-0.03573635869416117,0.0039827659697761215
4,0.0230249000014737,-0.00014395463184911379,-7.034416699206807e-05,-3.421072874777572e-05,-0.00015441303053347844,0.003415206081016327,-0.0002847740295435822,0.0005639298147026258,0.010858876691218792,-0.0007612140689694493,0.009777125165027703,-0.03754264430223656,0.004475900796890366
5,0.0270339000126114,-0.00018192016032106233,-8.85951549594446e-05,-4.381509265742885e-05,-0.00016483669321299958,0.004106553379568536,-0.0003359523312779799,0.0007431159727698808,0.012748899177734445,-0.0008616467757481457,0.011333920158150537,-0.039499524026215906,0.004981729235006263
6,0.031174200004898,-0.00021811321357614476,-0.0001041722442692192,-5.681733447044038e-05,-0.0001743289928418884,0.004795047521556209,-0.000386763712608788,0.000926608690796522,0.01459448752832179,-0.0009578545720730554,0.012890482533637357,-0.041607148741529244,0.005500132254561351
7,0.0357932000042637,-0.000241298305332079,-0.00011380543472778025,-7.692896872166784e-05,-0.00018286106697569567,0.005480325561693912,-0.0004371759658739951,0.001114408877933937,0.016394167037232968,-0.0010497221526084867,0.014446059190299931,-0.0438655267426438,0.006030979196252148
8,0.0396099000063259,-0.00027823775374584707,-0.0001283361814249155,-8.77985045183456e-05,-0.00019040423604165682,0.006162025173537558,-0.00048715690267213396,0.0013065150391335836,0.018146491743439644,-0.0011371366240281286,0.01599989412100678,-0.04627452245286782,0.006574127767183464
9,0.0453343000117456,-0.00031744441021874434,-0.00014094863778760182,-0.0001063133117125915,-0.00019693002308098035,0.006839784923464894,-0.0005366743764857922,0.0015029232558101688,0.01985004582840774,-0.0012199876134622888,0.01755122897692523,-0.048833855278939,0.007129424048328076
10,0.0490775000071153,-0.00031744441021874434,-0.00014094863778760182,-0.0001063133117125915,-0.00020241017334709713,0.007513244543565102,-0.0005856963052404858,0.0017036271683239885,0.021503444987522765,-0.0012981673748438953,0.019099303634361957,-0.05154309861271787,0.007696702513372874
11,0.0524160000059055,-0.00043793248083151234,-0.00029233291529201294,-4.858021718665428e-05,-0.00020681667374092353,0.008182045203153422,-0.0006341906937759275,0.0019086179603067998,0.023105337773590997,-0.0013715708930330567,0.020643356763638383,-0.05440167898213809,0.008275786059014915
12,0.0585320000100182,-0.0004124033284249221,-0.00016675261578739977,-0.00011790034662701314,-0.0002101217720644056,0.00884582977862884,-0.0006821256562068744,0.0021178843448537857,0.024654406910872836,-0.001440095985602434,0.02218262639943528,-0.05740887535339399,0.008866486046757879
13,0.0625935000134632,-0.0004405532505272411,-0.00016900103628781152,-0.00013412721754315797,-0.00021229799607384785,0.009504243121395526,-0.0007294694381509309,0.0023314125526023204,0.026149370578137956,-0.0015036434021682599,0.023716350512039804,-0.06056381858616965,0.009468602356246403
14,0.0664658000023337,-0.0004912910971594914,-0.00016328698544253523,-0.0001242852004093408,-0.00021331817231479136,0.010156932323571571,-0.0007761904388008992,0.002549186321716351,0.027588983659267177,-0.001562116921154598,0.02524376757892747,-0.063865491043534,0.01008192345016255
15,0.0729764999996405,-0.0005472626691725538,-0.00016982601150162535,-0.0001179878191042728,-0.0002131554447204904,0.010803546981211892,-0.0008222572328195226,0.0027711868897933047,0.028972038959963472,-0.0016154234438813394,0.026764117156111662,-0.067312726357944,0.010706226450695324
16,0.0792052000033436,-0.0006447991384711702,-0.00019651072978852724,-9.936304950965822e-05,-0.00021178329295634408,0.011443739454775828,-0.0008676385920347346,0.002997392987708477,0.030297368389173848,-0.001663473085869491,0.028276640448694247,-0.07090420935461156,0.011341277227580755
17,0.0856468999991193,-0.0007051624837365721,-0.00021032471340431445,-8.578653099833766e-05,-0.0002091755504929688,0.012077165126573882,-0.000912303506913834,0.003227780835409902,0.03156384410386514,-0.001706179265260512,0.029780580880052483,-0.07463847613330156,0.011986830497696483
18,0.0898109000117983,-0.0007596039368238275,-0.0002019431566153076,-6.849876337242977e-05,-0.00020530642239094838,0.012703482654932477,-0.0009562212077953327,0.0034623241396747172,0.03277037961583961,-0.0017434587882497968,0.03127518465909949,-0.07851391430943662,0.012642629936181314
19,0.0939777000021422,-0.0008229230290673581,-0.0002052032893432966,-6.0313231321444343e-05,-0.0002001505027806692,0.013322354224820246,-0.0009993611858575865,0.0037009940938360023,0.03391593085932109,-0.0017752319314378682,0.03275970134505846,-0.08252876341519175,0.01330840829903647
20,0.0984615000052144,-0.0008229230290673581,-0.0002052032893432966,-6.0313231321444343e-05,-0.00019368279202103982,0.01393344579468441,-0.0010416932138036937,0.003943759379487039,0.03499949721808889,-0.0018014225210064537,0.03423338440919444,-0.08668111546106558,0.01398388755715163
21,0.102353000009316,-0.0008229230290673581,-0.0002052032893432966,-6.0313231321444343e-05,-0.00018587871352130516,0.014536427339251026,-0.0010831873662425595,0.004190586170167919,0.03602012251098518,-0.0018219580086303552,0.035695491792951214,-0.09096891565821762,0.014668779041685178
22,0.1064833999989787,-0.0009767853493164353,-0.0002065111605581207,5.1678090156778584e-05,-0.00017671413021059682,0.01513097308804858,-0.0011238140397464556,0.0044414381370373865,0.036976895934671176,-0.0018367695440398687,0.037145286461945856,-0.09538996330166227,0.015362783600714332
23,0.1108502000133739,-0.0009767853493164353,-0.0002065111605581207,5.1678090156778584e-05,-0.00016616536064031096,0.015716761759420293,-0.0011635439725658767,0.004696276456530697,0.0378689529625589,-0.0018457920441524614,0.03858203695527908,-0.09994191281421051,0.016065591767057314
24,0.114683400010108,-0.0009767853493164353,-0.0002065111605581207,5.1678090156778584e-05,-0.0001542091947048721,0.016293476789796722,-0.0012023482639829616,0.0049550598200022436,0.03869547619889798,-0.0018489642586964942,0.040005017929625644,-0.10462227495084987,0.01677688393715596
25,0.1190456000040285,-0.0009767853493164353,-0.0002065111605581207,5.1678090156778584e-05,-0.00014082290896692584,0.016860806558006737,-0.0012401983932852528,0.00521774444534959,0.039455696187051206,-0.0018462288322539423,0.041413510697576,-0.10942841816305263,0.01749633056089373
26,0.1230543999990914,-0.0011416542576053142,-0.00037983467993941186,0.00012720133936713825,-0.0001259842815735025,0.017418444604411616,-0.0012770662383421014,0.005484284090613457,0.04014889217104796,-0.0018375323626533436,0.04280680375970732,-0.1143575701222999,0.01822359234221057
27,0.1272726000024704,-0.0011416542576053142,-0.00037983467993941186,0.00012720133936713825,-0.00010967160675021188,0.0179660898446539,-0.0013129240937665612,0.005754630069546127,0.04077439280956131,-0.0018228254556485598,0.0441841933298703,-0.11940681940190774,0.018958320450362814
28,0.1315158000070369,-0.0012540610204353497,-0.0003971304797691908,0.0002076014936450374,-9.186370886105911e-05,0.018503446777820017,-0.0013477446886461942,0.006028731269138683,0.041331576841511966,-0.0018020627758233649,0.045544983853186026,-0.12457311731604001,0.019700156741663196
29,0.1380789000104414,-0.0011918562954086438,-0.00028102378695764747,0.00014845821920819806,-7.253995602201495e-05,0.019030225688823284,-0.0013815012038267914,0.006306534169095384,0.04181987370256059,-0.0017752030936663908,0.04688848851625668,-0.12985327991459195,0.020448733991522708
30,0.1425172000017482,-0.0011918562954086438,-0.00028102378695764747,0.00014845821920819806,-5.168027325703184e-05,0.019546142844821337,-0.0014141672887336186,0.006587982863241435,0.042238764091810085,-0.0017422093287655447,0.04821402974910352,-0.13524399013242905,0.021203676136603386
31,0.1467925000033574,-0.0013387749427382087,-0.00042761259864440137,0.00023503202584197012,-2.9265155185765143e-05,0.02005092068548998,-0.0014457170777154105,0.006873019082848346,0.04258778048809974,-0.0017030485890756712,0.04952093971835573,-0.1407418000912676,0.021964598526878144
32,0.1522394000057829,-0.001339233913285485,-0.00032753605431295107,0.0002265714772726823,-5.275678232839855e-06,0.020544288006983602,-0.0014761252058969705,0.007161582221859031,0.042866507615334386,-0.0016576922062179415,0.05080856081122457,-0.1463431335522865,0.022731108187381215
33,0.1563849000085611,-0.001370749278425474,-0.0003303622230538839,0.00022486702477466711,2.0306487650906182e-05,0.021025980139420433,-0.0015053668245268899,0.007453609363992781,0.04307458285635373,-0.0016061157667742003,0.05207624610980831,-0.1520442885173646,0.023502804089420456
34,0.1610254000115674,-0.0014244295335209393,-0.00033714228923044875,0.00022459950014573992,4.7499067764171756e-05,0.021495739117739457,-0.001533417615807568,0.0077490353117082526,0.043211696614909034,-0.0015482991395443138,0.05332335985528524,-0.15784143997664388,0.024279277431010517
35,0.1648615000012796,-0.0014506635376995494,-0.00034494568282264916,0.0002386444101019868,7.631917193629475e-05,0.02195331384578438,-0.0015602538071953858,0.008047792617000612,0.04327759262537756,-0.0014842264987393855,0.05454927790156422,-0.16373064279992922,0.025060111926274026
36,0.169019400011166,-0.0014783036446771273,-0.0003472863844726803,0.00025900503777209587,0.00010678328432145208,0.022398460253478712,-0.0015858521851595806,0.008349811614007056,0.04327206820990865,-0.0014138863430885745,0.055753388157974766,-0.1697078347692467,0.0258448841035463
37,0.1769882000080542,-0.001510217073458723,-0.0003635706337943855,0.0002739435812179846,0.000138907253713079,0.022830941446964872,-0.0016101901083890712,0.00865502045339298,0.04319497448275873,-0.001337271510842125,0.05693509102059176,-0.17576883974969798,0.026633163611907908
38,0.1816470000048866,-0.001536664351248645,-0.000366877490029096,0.0002992265608139943,0.0001727062843850012,0.023250527851589122,-0.0016332455204371903,0.008963345138489188,0.04304621650163667,-0.0012543791906581138,0.0580937997918032,-0.18190937099556512,0.02742451353585827
39,0.1854738000110956,-0.0015617813899227518,-0.0003757569100230668,0.00032630105020701344,0.00020819492746514004,0.023656997347623387,-0.0016549969617950075,0.009274709563148631,0.042825753365944796,-0.0011652109283653497,0.05922894108774332,-0.18812503458844232,0.028218490717832685
40,0.1898282000038307,-0.001590107289585057,-0.00038544254400846897,0.00035043792650312335,0.0002453870728470134,0.02405013539862414,-0.0016754235813846517,0.009589035551289338,0.04253359826186474,-0.0010697726295997652,0.060339955233228146,-0.1944113330039964,0.029014646088254985
41,0.1931066000106511,-0.0016232439043526936,-0.00040763892062950854,0.00038624082339938247,0.0002842959416436147,0.024429735172337746,-0.0016945051474647678,0.009906242898088388,0.04216981845430106,-0.0009680745583165331,0.06142629664384485,-0.20076366880378654,0.02981252500280798
42,0.1967863000027137,-0.001650231901724855,-0.00041499745877668066,0.0004217705140614304,0.00032493407918761017,0.024795597654070897,-0.0017122220579409862,0.01022624941279005,0.04173453522575971,-0.0008601313311850446,0.06248743419486142,-0.20717734844840668,0.030611667586594227
43,0.2016919000016059,-0.0016739011670207258,-0.00041955358192325126,0.00046357567317524084,0.00036731334858114927,0.025147531752454065,-0.0017285553500750173,0.010548970963089488,0.04122792376230185,-0.0007459619078787389,0.06352285157663837,-0.2136475862280531,0.031411609084850446
44,0.207224000012502,-0.0017048147082665212,-0.00043143436101919085,0.0005021875153066657,0.000411444924797942,0.025485354397535215,-0.0017434867095867345,0.010874321521051654,0.04065021298677689,-0.0006255895772766277,0.06453204763623958,-0.22016950830646098,0.032211880219869746
45,0.2108977000025333,-0.0017486623836530876,-0.00044735569535894314,0.0005404988534364038,0.0004573392893396104,0.025808890631150556,-0.0017569984791443616,0.011202213210523396,0.040001685339601085,-0.0004990419395981759,0.06551453670495522,-0.2267381568740017,0.03301200755377744
46,0.2148630000010598,-0.0017654945157943203,-0.0004488266563465816,0.0005766850358002577,0.0005050062254476826,0.02611797368952838,-0.0017690736662386297,0.011532556355995182,0.0392826765074106,-0.00036635088449796715,0.06646984891146614,-0.23334849440558597,0.03381151385679803
47,0.218184100012877,-0.0017453697342029602,-0.0004576889269024137,0.00061680979954017,0.0005544548138719584,0.026412445078091398,-0.0017796959504375188,0.011865259532867316,0.03849357509997953,-0.00022755256515131594,0.06739753048039564,-0.23999540801887692,0.03460991848064368
48,0.2218359000107739,-0.001778839263167928,-0.00047273229269786075,0.0006502848868801281,0.0006056934291953403,0.02669215463843236,-0.001788849690018955,0.012200229619074044,0.03763482227585458,-8.268736836666146e-05,0.06829714401601095,-0.24667371392818102,0.035406737736646744
49,0.2267085000057704,-0.001831755167002686,-0.0004890842122077073,0.0006733055728224053,0.00065872973671459,0.026956960607447164,-0.0017965199279795685,0.012537371848017507,0.03670691131721863,6.820011923480956e-05,0.06916826877085328,-0.253378161989254,0.03620148527825255
50,0.2302848000108497,-0.001850606086906581,-0.0005107382024437872,0.0006949426084959184,0.0007135706898758477,0.027206729668618895,-0.0018026923974183615,0.01287658986276205,0.03571038715455454,0.00022506114892731024,0.07001050089909222,-0.2601034403301349,0.03699367248748236
51,0.2335393000103067,-0.0018678907105850564,-0.00053101403656747,0.0007221758514006591,0.0007702225282631268,0.0274413369954556,-0.0018073535262948825,0.013217785771438121,0.03464584584173928,0.00038784285142689346,0.07082345369441781,-0.26684418006300314,0.037782808864970624
52,0.2374255000031553,-0.001863433207409543,-0.0005525157503630204,0.0007486747906274129,0.0008286907761373831,0.0276606662870936,-0.0018104904415622446,0.01356086020380385,0.03351393398225533,0.0005564882822223033,0.07160675781230053,-0.27359496007194284,0.03856840242317542
53,0.2420372000051429,-0.0018698438076484906,-0.0005850891558404118,0.0007899249665116936,0.0008889802415231517,0.027864609796087333,-0.0018120909726760436,0.013905712368911092,0.032315348107263185,0.0007309364706320374,0.072360061476467,-0.2803503118713918,0.03934996008235618
54,0.245887600001879,-0.0018794471129220986,-0.000607925641582228,0.0008121513724953723,0.0009510950158391449,0.028053068348415675,-0.0018121436544809477,0.014252240113821644,0.03105083400633415,0.0009111224725251868,0.07308303066945639,-0.2871047245299572,0.04012698806890829
55,0.2535748000082094,-0.0018794471129220986,-0.000607925641582228,0.0008121513724953723,0.0010150384740686149,0.028225951355743538,-0.0018106377294774458,0.014600339983318252,0.029721186011696658,0.0010969774266394853,0.07377534930713991,-0.29385264965418695,0.04089899231564015
56,0.257186200004071,-0.0019800872004753804,-0.0007560275954308587,0.0009288287235045443,0.0010808132754647065,0.028383176819986294,-0.0018075631494719622,0.014949907280553973,0.028327246236902266,0.0012884286144259642,0.07443671939710371,-0.3005885064267973,0.041665478863574974
57,0.2605634000065038,-0.0019390147588678058,-0.0006970723405512121,0.0009028842627879897,0.001148421364785456,0.028524671330233266,-0.0018029105766142243,0.015300836128582582,0.026869903770868907,0.0014853995233456729,0.07506686118081254,-0.3073066866937839,0.04242595426485697
58,0.2653853000083472,-0.0019246247451966954,-0.0007298159218940383,0.0009224093251345551,0.001217863974052536,0.028650370052095114,-0.0017966713838264542,0.015653019532711768,0.025350093828308922,0.0016878099135400931,0.07566551325948903,-0.3140015600947725,0.04317992598633866
59,0.2688539000082528,-0.0019501229025282293,-0.0007537419043834009,0.0009475127197940623,0.0012891416248273016,0.028760216709548505,-0.001788837654629638,0.01600634944362016,0.0237687968575981,0.0018955758877931656,0.07623243270366067,-0.3206674792309036,0.04392690281342474
60,0.2731432000000495,-0.001947497182009835,-0.0007718907350820906,0.0009863353974163015,0.001362254130997159,0.02885416355935957,-0.0017794021823727725,0.01636071682117852,0.022127037607188968,0.0021086099646992597,0.07676739514634442,-0.3272987848644914,0.044666395253746535
61,0.2773091000126442,-0.001951311300401043,-0.0008069848451984369,0.0010209050261546565,0.001437200602064754,0.028932171358175687,-0.0017683584688716497,0.01671601169891465,0.020425884151717026,0.0023268211549479427,0.077270194859856,-0.33388981114464666,0.04539791594024039
62,0.2814881000085734,-0.0019825647977531843,-0.000836533337700244,0.001041855794061072,0.0015139794469319792,0.028994209322382558,-0.0017557007224643607,0.01707212324906106,0.018666446878992365,0.0025501150406330594,0.0777406448162483,-0.34043489085301565,0.04612098003320331
63,0.2855064000032143,-0.001992306022459729,-0.0008528347380310703,0.0010694709391112793,0.0015925883781702846,0.029040255080831693,-0.0017414238554913399,0.01742893984812374,0.016849877439111226,0.0027783938574904303,0.0781785767314006,-0.34692836066374977,0.04683510562089889
64,0.2900313999998616,-0.0020139254173085794,-0.0008932608012601109,0.0011060260216060568,0.0016730244167683073,0.02907029462055045,-0.0017255234812083619,0.017786349142910038,0.014977367656962183,0.003011556579965393,0.07858384109279788,-0.35336456641179925,0.04753981411828797
65,0.2942705000023125,-0.0020297858520803586,-0.0009168886909618189,0.0011367478422675392,0.0017552838973473683,0.029084322225554203,-0.0017079959101414957,0.01814423811695321,0.013050148409440188,0.003249499009008457,0.07895630717105553,-0.35973786836360533,0.048234630663459704
66,0.2981758000096306,-0.0020297858520803586,-0.0009168886909618189,0.0011367478422675392,0.0018393624738349363,0.029082340408887138,-0.0016888381458935971,0.01850249315727087,0.011069488468718565,0.0034921138624945474,0.07929586301526265,-0.3660426464842559,0.048919084511340846
67,0.3023917000100482,-0.0020297858520803586,-0.0009168886909618189,0.0011367478422675392,0.0019252551255857315,0.029064359838025154,-0.0016680478804124703,0.01886100012139429,0.009036693312963702,0.003739290868158671,0.07960241543223359,-0.37227330569516687,0.04959270942426324
68,0.3066934000089532,-0.0020712343032674384,-0.0010208086127856764,0.0012597519171923689,0.002012956163939719,0.02903039925378099,-0.001645623488731354,0.019219644404605492,0.006953103905910118,0.003990916858938328,0.0798758899497737,-0.3784242811163571,0.05025504405897264
69,0.3107464000058826,-0.0020824962162715043,-0.0010416974019537568,0.001283348515962979,0.002102459239205851,0.028980485382857833,-0.0016215640231929149,0.019578311007318706,0.004820095446744578,0.004246875870610626,0.08011623076408064,-0.3844900432873961,0.05090563234966512
70,0.3151214000099571,-0.002101681636524398,-0.0010768485894287287,0.0013259175243246248,0.0021937573480600393,0.028914652844203744,-0.0015958692071684454,0.01993688460254289,0.0026390760917769608,0.0045070492416098675,0.08032340067141945,-0.3904651033611262,0.051544023886641505
71,0.3200484000117285,-0.0021237493906485776,-0.001123312515512332,0.0013727945884382106,0.0022868428413454793,0.028832944049325095,-0.0015685394282844369,0.020295249603361935,0.00041148564940249663,0.004771315714909323,0.08049738098422436,-0.3963440182642895,0.05216977429017464
72,0.323546500003431,-0.002183549517484665,-0.0012193630621400622,0.0014444126209683813,0.0023817074322630824,0.028735409096723032,-0.0015395757311691626,0.02065329023036942,-0.0018612057501150713,0.005039551541848987,0.08063817143179619,-0.4021213958192252,0.05278244557918992
73,0.3274080000119284,-0.0021794704451333622,-0.0012450920135417209,0.0014919592475470117,0.0024783422049394705,0.02862210566062229,-0.0015089798097323466,0.021010890578995085,-0.004177499008486989,0.005311630587789405,0.08074579004577898,-0.40779189982084746,0.05338160653436447
74,0.3312624000100186,-0.00221572509128495,-0.0012798037414277054,0.0015202378280213874,0.0025767376233596625,0.0284930988741668,-0.0014767539989914184,0.021367934686660553,-0.006535867435296435,0.005587424439470029,0.08082027303061486,-0.41335025506316564,0.053966833055256694
75,0.3354144000040833,-0.0022214229545900422,-0.0013285903757434055,0.0015730578384085651,0.0026768835406513155,0.028348461207261554,-0.0014429012664582584,0.021724306599701922,-0.008934758144356987,0.005866802513949161,0.08086167461919035,-0.41879125230966685,0.05453770851108405
76,0.3396975000068778,-0.002236779276993463,-0.0013634725848358732,0.0016020040337092916,0.002778769208707097,0.028188272339244848,-0.001407425203100707,0.022079890439997422,-0.0113725934689241,0.006149632169001299,0.08087006691390076,-0.4241097532019484,0.05509382408477418
77,0.3438323000009404,-0.002236779276993463,-0.0013634725848358732,0.0016020040337092916,0.002882383288131512,0.028012619026579057,-0.0013703300138934646,0.02243457047123877,-0.013847772394136532,0.006435778814846604,0.08084553971337377,-0.42930069510105906,0.055634779109921914
78,0.3482480000093346,-0.0023798929684586546,-0.001533028777867168,0.0017245021349266113,0.002987713858498288,0.027821594965752282,-0.0013316205079733439,0.022788231164785396,-0.016358672005052362,0.006725106027086302,0.08078820032510702,-0.43435909585609056,0.0561601814002925
79,0.3522449000010965,-0.002310930290931413,-0.0014443439115351927,0.0016994242109484247,0.0030947484289042186,0.02761530065158684,-0.0012913020884141525,0.02314075726504148,-0.018903648948633982,0.0070174756607170475,0.08069817336428767,-0.4392800584946469,0.05666964757152011
80,0.3561220000119647,-0.002310930290931413,-0.0014443439115351927,0.0016994242109484247,0.0032034739488051374,0.027393843231154284,-0.0012493807416367733,0.023492033854296313,-0.02148104090802828,0.007312747965096651,0.08057560053907452,-0.44405877582991193,0.05716280335465948
81,0.3603051000100095,-0.0023764737127147805,-0.0015022631206814553,0.0018122247018626813,0.0033138768191195446,0.027157336353499758,-0.0012058630264702838,0.02384194641696938,-0.024089168087482203,0.007610781699733136,0.0804206404226354,-0.4486905349791353,0.0576392839012572
82,0.3689927000086754,-0.002384644785175778,-0.0015143267966789074,0.0018189657710600943,0.0034259429035852617,0.02690590001538124,-0.0011607560628802043,0.024190380903202288,-0.026726334706229916,0.007911434250768828,0.08023346821224471,-0.45317072178846696,0.05809873407961907
83,0.3738502000051085,-0.0024029424650449595,-0.0015292255469438547,0.001840883802599877,0.0035396575403543623,0.026639660403232034,-0.0011140675203801802,0.0245372237917405,-0.029390830499685907,0.00821456174803102,0.0800142754757576,-0.4574948251591852,0.0585408087619595
84,0.3774902000004658,-0.002425728547575369,-0.0015446769135644858,0.0018568210550922127,0.0036550055538114947,0.026358749731556923,-0.0010658056061436168,0.024882362152048764,-0.0320809322262786,0.008520019182520842,0.07976326988578832,-0.46165844127048067,0.058965173102130085
85,0.3816614000097615,-0.0024428372055307164,-0.0015576073298843374,0.001874310019766171,0.0037719712666006355,0.026063306077974725,-0.0010159790528319547,0.025225683705605233,-0.03479490517826163,0.00882766052421217,0.07948067494193095,-0.46565727769408455,0.059371502803634825
86,0.3851744000130566,-0.002471319136081393,-0.0015814946156247668,0.001879504189390071,0.0038905385118452275,0.02575347321512151,-0.0009645971061564321,0.025567076886320157,-0.03753100469484429,0.00913733884003274,0.07916672968137073,-0.4694871573961624,0.05975948437765093
87,0.3898331000091275,-0.002482276061624957,-0.0015895809439409384,0.0018989728819462127,0.004010690645546609,0.025429400439630306,-0.0009116695121903107,0.025906430900026277,-0.0402874776759891,0.009448906411900186,0.07882168837824405,-0.473144022622031,0.06012881539078519
88,0.394606300003943,-0.0025079921940161414,-0.0016155057969105976,0.001910831263043174,0.00413241055914562,0.02509124239840434,-0.0008572065044486458,0.026243635782989338,-0.04306256409523287,0.009762214854686282,0.0784458202321149,-0.4766239386593978,0.0604792047023083
89,0.3980876999994507,-0.0025079921940161414,-0.0016155057969105976,0.001910831263043174,0.00425568069223225,0.024739158912401863,-0.0008012187907527747,0.026578582459388374,-0.04585449850989845,0.010077115233983564,0.07803940904594389,-0.47992309747597417,0.06081037269062143
90,0.4025828000012552,-0.002628372287574798,-0.001760841225987486,0.002016030037116596,0.004380483045388188,0.0243733147981511,-0.0007437175398967594,0.026911162797716645,-0.048661511567076675,0.010393458183549482,0.07760275289393448,-0.4830378212274693,0.06112205146872179
91,0.4066540000058012,-0.0025633076214155925,-0.0016418329224993419,0.0019697756944480577,0.004506799193147119,0.023993879687214156,-0.0006847143681330675,0.0272412696660555,-0.051481831503772335,0.010711094022304387,0.0771361637796492,-0.4859645656321275,0.06141398508844599
92,0.4123854000063147,-0.002566758411224218,-0.0016634878249473703,0.00197791698063506,0.004634610297057684,0.02360102784381883,-0.0006242213254947989,0.027568796986174916,-0.05431368563962426,0.011029872870760897,0.07663996728479654,-0.4886999232081365,0.06168592973328377
93,0.4165756000002147,-0.002594441071063185,-0.0016894070010800555,0.001974343459925357,0.0047638971188341,0.023194937980877173,-0.0005622508819717643,0.02789363978641591,-0.057155301860627734,0.011349644766763601,0.07611450220909548,-0.4912406263704023,0.06193765389956772
94,0.4208473000035155,-0.002606979090743689,-0.0017153888724079976,0.001990839126718725,0.004894640033579482,0.022775793074609165,-0.0004988159135577019,0.028215694253311687,-0.06000491009230755,0.011670259780419554,0.07556012020163183,-0.49358355038335494,0.062168938565857985
95,0.4248463000112679,-0.0026256581389767094,-0.0017477244827139014,0.002007530728192508,0.00502681904306703,0.022343780177989197,-0.0004339296881858707,0.028534857781905804,-0.06286074376081162,0.011991568128101723,0.07497718538412582,-0.4957257161666277,0.06237957735035435
96,0.4292423000006238,-0.00263997215514453,-0.001778808843843112,0.0020230762040302796,0.005160413789064359,0.0218990902332321,-0.0003676058515701969,0.028851029024727342,-0.06572104124041915,0.012313420285409445,0.0743660739665366,-0.4976642929506316,0.06256937665618216
97,0.4337424000113969,-0.0026629323856725167,-0.0018040469905149042,0.0020422091252370704,0.005295403566686343,0.021441917883534067,-0.00029985841296906494,0.029164107939384648,-0.06858404728598279,0.012635667098971855,0.07372717385543397,-0.4993966007792313,0.06273815580441262
98,0.4390019000129541,-0.00267457347743769,-0.0018302661810427928,0.0020486701067740157,0.005431767337762042,0.02097246128428243,-0.00023070173088874147,0.029473995834740998,-0.07144801444885043,0.012958159896982353,0.07306088425557182,-0.5009201128569137,0.06288574715469222
99,0.4463263000070583,-0.002680319985846763,-0.0018862513182776974,0.002063949416000013,0.005569483744201415,0.020490921913946473,-0.00016015049874329334,0.02978059541563723,-0.0743112044748417,0.013280750598354419,0.0723676152651027,-0.5022324577380295,0.06301199621337028
100,0.4531527000071946,-0.0026856345568919728,-0.001913403429227334,0.0020888594635911717,0.005708531121347727,0.019997504384859602,-8.821973048771606e-05,0.03008381082612808,-0.07717188968288384,0.013603291820391427,0.07164778746487538,-0.5033314213558812,0.06311676172902837
101,0.4572600000101374,-0.0026905391159495556,-0.0019391123425166706,0.002124680811711425,0.005848887511301729,0.019492416254100895,-1.4924746240824715e-05,0.030383547691200753,-0.08002835432294342,0.013925636984865594,0.07090183150226073,-0.5042149488896206,0.06319991577532917
102,0.4617718000081368,-0.002691283014749845,-0.001961184510594992,0.0021653169596485963,0.005990530676203895,0.01897586783468162,5.9718842085722475e-05,0.030679713156945874,-0.08287889591192364,0.014247640422403748,0.07013018766995373,-0.5048811464671193,0.06326134382111688
103,0.4671974000084447,-0.0026953660195100787,-0.0019955676228017387,0.0022091662407818114,0.006133438111461218,0.01844807200723952,0.00013569514513609953,0.03097221592915292,-0.08572182654623174,0.014569157475080278,0.06933330548020156,-0.5053282827021741,0.06330094478771646
104,0.471506900008535,-0.002710411889096438,-0.0020416163443973505,0.002244039087813658,0.0062775870589053245,0.01790924403244094,0.00021298801042073657,0.03126096631030392,-0.08855547418975687,0.014890044597120278,0.06851164323490944,-0.5055547900646085,0.06331863109339321
105,0.4768010000116192,-0.002732462136590072,-0.0021148225233599636,0.0022739339662337177,0.006422954519868933,0.01735960136428768,0.000291581036572778,0.03154587623494143,-0.09137818393603617,0.015210159453618819,0.06766566759207661,-0.5055592660820333,0.06331432868494861
106,0.481130000000121,-0.0027719506616807757,-0.0021863429810758195,0.0022789975669869596,0.006569517268167922,0.016799363464522148,0.0003714575875351149,0.031826859303388466,-0.09418831924342519,0.015529361017185328,0.06679585312901552,-0.5053404743722291,0.06328797705644347
107,0.4866237000096589,-0.002796727397067312,-0.0022350156897133623,0.002297521396281687,0.006717251862976559,0.016228751618320807,0.0004526008066627985,0.03210383081380011,-0.09698426314212856,0.015847509662425072,0.06590268190280753,-0.5048973455053193,0.06323952925505438
108,0.4903427000099327,-0.0028233862713767013,-0.002282468012484581,0.0023175922997542373,0.006866134661583729,0.015647988751462248,0.0005349936307259285,0.0323767077925281,-0.09976441941198799,0.016164467258172877,0.06498664300844764,-0.5042289776951117,0.06316895187408514
109,0.4946902000083355,-0.0028233862713767013,-0.002282468012484581,0.0023175922997542373,0.007016141832018299,0.01505729924915234,0.0006186188037984099,0.03264540902278199,-0.10252721372996669,0.01648009725739744,0.06404823213513017,-0.5033346373191858,0.06307622503316813
110,0.4986799000034807,-0.0029433674809256926,-0.002327703888486165,0.0023331278568364793,0.007167249365532065,0.014456908776684691,0.0007034588910182874,0.03290985507157241,-0.10527109478631164,0.016794264784697897,0.0630879511211257,-0.5022137592675116,0.06296134234570565
111,0.5022440000029746,-0.0029001882605030342,-0.002432620715338769,0.002391863560546213,0.0073194330889290535,0.01384704410211047,0.0007894962922056976,0.033169968314923956,-0.10799453536841913,0.01710683672131769,0.06210630750769783,-0.5008659471195858,0.06282431087361531
112,0.5062922000070103,-0.002937633164832887,-0.002447154618483437,0.0023826150594649306,0.007472668676730266,0.013227932921087157,0.0008767132553248226,0.03342567296134715,-0.11069603341147376,0.01741768178760418,0.061103814092505704,-0.499290973150279,0.06266515106945865
113,0.5100210000091465,-0.002959801780158415,-0.0024885934117000246,0.0024166150912000315,0.007626931663163335,0.012599803684071183,0.0009650918897765839,0.03367689507356078,-0.11337411301497692,0.01772667062284622,0.06008098848293567,-0.49748877816478354,0.06248389670604582
114,0.5146563000016613,-0.0029707816168860106,-0.0025365266718972226,0.0024497197024750694,0.007782197453966927,0.011962885426014728,0.0010546141795091798,0.03392356258845786,-0.11602732542432723,0.01803367586242528,0.05903835264980231,-0.49545947116325817,0.062280594793623904
115,0.5188045000104466,-0.002974929707131606,-0.002581234994325011,0.002485497001502189,0.007938441338000065,0.011317407598722079,0.0011452619959339562,0.03416560533531064,-0.11865424997666166,0.018338572212219382,0.05797643248185533,-0.4932033288359646,0.06205530548476983
116,0.5225006000109715,-0.002998468304573323,-0.002663990998013329,0.002520690729968716,0.00809563849864692,0.010663599906015923,0.001237017110634487,0.03440295505221211,-0.12125349501021426,0.01864123652020265,0.056895757341524675,-0.49072079488988823,0.06180810196712303
117,0.5273198000068078,-0.0030049756120351812,-0.0027109810039395313,0.002554670767933962,0.008253764025007973,0.010001692141858727,0.001329861207857142,0.0346355454007534,-0.12382369873649765,0.01894154784518714,0.05579685962233178,-0.488012479208035,0.06153907034410697
118,0.5314407000114443,-0.0030025894318429433,-0.0027647593885654744,0.0025935843613300895,0.008412792922868924,0.00933191403156917,0.0014237758967718327,0.03486331197893835,-0.1263635300746614,0.01923938752265726,0.054680274308389655,-0.4850791568427946,0.0612483095038017
119,0.5352308000001358,-0.0030025894318429433,-0.0027647593885654744,0.0025935843613300895,0.00857270012543906,0.008654495076268198,0.0015187427234920538,0.0350861923323384,-0.1288716894474301,0.01953463922765101,0.05354653853640947,-0.48192176684495136,0.060935930976143284
120,0.5396455000009155,-0.0030764329410886125,-0.002884727797070361,0.002659655719117796,0.008733460503851211,0.007969664400683802,0.0016147431828437522,0.03530412596349294,-0.13134690953807301,0.019827189034645865,0.05239619116062535,-0.4785414109301125,0.06060205877863821
121,0.5432662000093842,-0.0030764329410886125,-0.002884727797070361,0.002659655719117796,0.008895048877415811,0.007277650604438011,0.0017117587298730065,0.03551705433956197,-0.1337879560079069,0.020116925474411317,0.051229772321042887,-0.4749393519845184,0.0602468292507936
122,0.547020900005009,-0.0030796594070220742,-0.0030052299336147184,0.002736089942113285,0.009057440023621946,0.006578681616934011,0.0018097707910829357,0.03572492089824025,-0.13619362817388483,0.020403739587793467,0.05004782301541059,-0.47111701241237824,0.059870390877476705
123,0.5510301000031177,-0.0030611747923749975,-0.0030694562524555373,0.0027502369133296403,0.00922060868787876,0.005872984555955488,0.001908760775390712,0.03592767105194363,-0.1385627596458725,0.020687524976401212,0.048850884675306516,-0.46707597232705483,0.05947290410142916
124,0.5556328000093345,-0.0030729458886406143,-0.003117750810941191,0.002770861976027493,0.009384529592990925,0.005160785590084504,0.002008710084796015,0.036125252190280385,-0.1408942189232652,0.02096817785016738,0.04763949874672527,-0.46281796758860466,0.05905454112517331
125,0.5602205000031972,-0.0030866151130800024,-0.0031846209770843258,0.0028140214256604243,0.009549177448362287,0.004442309805038258,0.0021096001247527234,0.036317613680822154,-0.14318690995064698,0.021245597071762115,0.046414206275542616,-0.458344887690351,0.05861548570255931
126,0.5637310000020079,-0.0030864576199665667,-0.003248288368284085,0.002854314050245206,0.009714526958922266,0.0037177810740191943,0.0022114123142361027,0.03650470686819085,-0.14543977263224434,0.021519684197839593,0.04517554749822744,-0.4536587734973387,0.058155932920213226
127,0.5675484000094002,-0.0030879225170542114,-0.003308993814816093,0.002881915466437041,0.009880552833769967,0.0029874219321669717,0.0023141280954982447,0.036686485071479785,-0.14765178330497752,0.021790343517103065,0.04392406143816202,-0.4487618148396882,0.05767608896915715
128,0.5711942000052659,-0.0030676610947061567,-0.0033494873571358903,0.0029283069172408886,0.010047229794531504,0.0022514534551947647,0.0024177289435049713,0.03686290358002883,-0.14982195516996202,0.02205748208517706,0.04266028550792334,-0.44365634796402714,0.05717617090688251
129,0.577563500002725,-0.003075228985773762,-0.0034107324150185504,0.002955648029069396,0.010214532583426422,0.0015100951422863842,0.002522196375047912,0.03703391964757513,-0.15194933868236332,0.022321009756279434,0.0413847551178692,-0.438344852846333,0.0566564064101679
130,0.5812884000042686,-0.003075228985773762,-0.0034107324150185504,0.002955648029069396,0.010382435971039617,0.000763564803324605,0.0026275119575259256,0.03719949248480248,-0.1540330218995569,0.022580839211689928,0.04009800329136358,-0.43282995036967375,0.05611703351894269
131,0.5854911000060383,-0.0031069697472316453,-0.0035035604856280076,0.0029983595601462834,0.010550914763795452,1.2078450515022566e-05,0.002733657317390512,0.03735958325031449,-0.15607213078759363,0.02283688598501561,0.03880056028696631,-0.4271143993704793,0.05555830037150719
132,0.5903551000083098,-0.0031103727153924893,-0.0036213406836925134,0.0030951198683188703,0.010719943811131165,-0.0007441498055363443,0.0028406141482503543,0.037514155040058096,-0.15806582948602035,0.023089068484257236,0.03749295322790252,-0.42120109355712304,0.05498046493142885
133,0.5942899000074249,-0.0030915606335219473,-0.0036935717022982643,0.0031474039503294696,0.01088949801236712,-0.0015049078552395662,0.0029483642186306095,0.0376631728752254,-0.16001332053115397,0.023337308010684503,0.03617570573911709,-0.4150930583047287,0.05438379470644224
134,0.5982187000045087,-0.0030915606335219473,-0.0036935717022982643,0.0031474039503294696,0.011059552323271878,-0.0022699856848853663,0.003056889379383051,0.037806603688664,-0.1619138450379561,0.023581528774531638,0.03484933759220951,-0.40879344733025325,0.05376856645968893
135,0.6021910000126809,-0.0031267257403774194,-0.003773661936555938,0.0031316292798918,0.01123008176232049,-0.003039175466917736,0.003166171570743652,0.03794441630982692,-0.16376668284070237,0.02382165790752858,0.033514364358533666,-0.4023055392520228,0.05313506591364116
136,0.6075743000110378,-0.0031614354848206404,-0.003932280925228206,0.003217128650280435,0.011401061416644792,-0.0038122716455806396,0.003276192829034665,0.038076581448294906,-0.1655711525926863,0.024057625472286483,0.03217129707073658,-0.3956327340380192,0.0524835874470603
137,0.6118867000041064,-0.0031989671381131763,-0.004024082388987304,0.003262391019932233,0.011572466447674868,-0.004589071017910836,0.0033869352930087546,0.03820307167590536,-0.1673266118252436,0.02428936446855977,0.030820641892999392,-0.3887785493473287,0.05181443378534804
138,0.6153289000067161,-0.003205695312699399,-0.004085674382313122,0.0032953920349872963,0.011744272096471265,-0.005369372810054832,0.0034983812098332,0.038323861407523425,-0.16903245696642763,0.024516810836410424,0.029462899800232728,-0.38174661676927607,0.05112791568465452
139,0.6192375000100583,-0.003228917631870398,-0.004184508793980847,0.003330275771454199,0.01191645368874794,-0.006152978748893895,0.00361051294071266,0.03843892688049207,-0.17068812331970995,0.024739903456303704,0.02809856626646722,-0.3745406779648709,0.05042435161011356
140,0.6229350000066916,-0.0032494407655944027,-0.0042755843103508915,0.003371454857254567,0.01208898663958643,-0.006939693128966938,0.003723312966149473,0.03854824613279913,-0.17229308500312507,0.024958584146167806,0.026728130962668697,-0.36716458071529295,0.04970406740858061
141,0.6264037000073586,-0.0032777342175970728,-0.004359047321776806,0.003429236056692872,0.012261846457842123,-0.007729322874686917,0.003836763890840944,0.03865179898000038,-0.17384685484932116,0.025172797655453213,0.02535207746419589,-0.35962227488223153,0.048967395976254276
142,0.630151500008651,-0.0032774054339095833,-0.004494201554373735,0.0034893075155838413,0.012435008750243838,-0.00852167759785209,0.003950848448213517,0.03874956699093898,-0.17534898426702122,0.025382491656230795,0.023970882968107083,-0.3519178082849816,0.04821467692156699
143,0.6362786000099732,-0.0033024582476318966,-0.004597474106370516,0.0035365578889121375,0.012608449225188346,-0.009316569650459194,0.004065549504594177,0.038841533462302395,-0.17679906306443915,0.025587616731370826,0.022585018020510116,-0.34405532249927695,0.047446256223734135
144,0.6401401000039186,-0.003309872461087679,-0.0047139163084937655,0.003555037703894094,0.012782143696231813,-0.01011381417283116,0.004180850063019868,0.038927683392059445,-0.17819671923523503,0.025788126359848194,0.021194946254138362,-0.33603904858291384,0.046662485887354735
145,0.6437953999993624,-0.0033186556161615014,-0.004812231996718351,0.003595824847042688,0.012956068085280444,-0.010913229137077596,0.004296733266686182,0.03900800345182094,-0.1795416187076317,0.0259839768992221,0.01980112413632314,-0.32787330273328275,0.04586372359345959
146,0.6482240000041202,-0.003333653903207246,-0.004958317859671131,0.003670995837887092,0.013130198425483094,-0.011714635385911614,0.004413182402036984,0.039082481958168255,-0.18083346505735293,0.026175127565341263,0.018404000727520995,-0.31956248188198677,0.045050332347405526
147,0.6525631000113208,-0.003333653903207246,-0.004958317859671131,0.003670995837887092,0.013304510863828906,-0.012517856666852024,0.00453018090149705,0.039151108842995205,-0.18207199918508027,0.026361540409328643,0.017004017450542093,-0.3111110592317768,0.044222680124016485
148,0.6559651999996277,-0.0033498801896231683,-0.005089389904450799,0.003729878958554734,0.013478981663453378,-0.01332271966184512,0.0046477123458502235,0.03921387562290917,-0.18325699895916156,0.026543180291902283,0.01560160787061372,-0.3025235797410804,0.04338113951037369
149,0.6593526000069687,-0.003372697637703815,-0.005311419690679414,0.003840125686718517,0.013653587205656613,-0.014129054012345484,0.004765760466266013,0.03927077536773806,-0.18438827882433872,0.026720014855091772,0.014197197486400678,-0.2938046555614406,0.04252608734665814
150,0.6628980000095908,-0.003391544639546985,-0.005419158926933619,0.0038564468041367376,0.013828303991637855,-0.014936692339900184,0.0048843091459779015,0.03932180266819063,-0.18546568937729452,0.02689201449141223,0.012791203532092043,-0.2849589614332118,0.041657904365449264
151,0.6663807000004454,-0.003392154061256453,-0.005507149814293401,0.003908632046024545,0.014003108643950712,-0.01574547026228565,0.005003342421617114,0.03936695360271825,-0.18648911690984937,0.02705915231056019,0.011384034790651403,-0.2759912300448881,0.04077697482988381
152,0.6705615000100806,-0.0033799649077562626,-0.005625946435280124,0.003952336063049056,0.014177977907683716,-0.01655522640525124,0.005122844484205942,0.03940622570362683,-0.18745848292067122,0.02722140410369807,0.00997609141831546,-0.2669062473614566,0.03988368617107883
153,0.6740908000065247,-0.0033609946037734695,-0.0057447756046943126,0.0040026323695358055,0.01435288865137123,-0.0173658024099282,0.005242799679815128,0.039439617922487964,-0.18837374359638956,0.027378748305396244,0.008567764780413524,-0.25770884792718285,0.03897842862522195
154,0.6774361999996472,-0.003371296074544966,-0.005859710129880557,0.004039787840277948,0.01452781786763992,-0.01817704293596722,0.005363192509890126,0.039467130594899,-0.18923488926303342,0.02753116595330389,0.007159437298568116,-0.2484039101482423,0.038061594870730714
155,0.6816120000003139,-0.003391890326008001,-0.005994775288635327,0.004084524053827263,0.01470274267359637,-0.01898879566047232,0.005484007631251459,0.039488765404641836,-0.1900419438087392,0.027678640645621536,0.005751482309324682,-0.23899635156060955,0.03713357966588117
156,0.6854970999993384,-0.003397511814166223,-0.006117846985739413,0.0041218974830633005,0.014877640310961707,-0.01980091127280279,0.0056052298557747035,0.039504525347291014,-0.19079496407869964,0.02782115849645028,0.004344263934246184,-0.2294911240886116,0.036194779487303326
157,0.6897259000106715,-0.0034103998145277852,-0.0062340467901186285,0.004157284458102402,0.015052488145959327,-0.02061324346531926,0.005726844149755992,0.039514414693321946,-0.1914940392433482,0.027958708089094526,0.0029381369614962503,-0.21989320929953804,0.03524559216973847
158,0.6938905999995768,-0.0034333173566956647,-0.006367949485209678,0.004192957905350145,0.015227263668962059,-0.02142564892015369,0.005848835632969235,0.039518438950769966,-0.1921392901407947,0.028091280427396823,0.0015334467389224874,-0.2102076136596784,0.0342864165474503
159,0.6981151000072714,-0.0034333173566956647,-0.006367949485209678,0.004192957905350145,0.015401944493905325,-0.022237987292087227,0.005971189577421584,0.03951660482749129,-0.1927308685945493,0.028218868885185055,0.00013052907863958171,-0.20043936379713115,0.033317652097677994
160,0.7026237000100082,-0.0034910796857039583,-0.006771233596850477,0.004329073767055644,0.01557650835747305,-0.023050121187623285,0.006093891405813956,0.039508920193076814,-0.19326895670759156,0.028341469153913793,-0.001270289826900081,-0.190593501776695,0.03233969858651578
161,0.7063996000069892,-0.0034887941885165005,-0.006926325261397772,0.004395975079664584,0.015750933118063346,-0.023861916140346946,0.006216926689713723,0.03949539404046995,-0.1937537661338588,0.028459079188582915,-0.002668693477372316,-0.18067508039211375,0.03135295571759882
162,0.7105977000028361,-0.0034896030223231914,-0.007078645925883363,0.004455331426845784,0.015925196754541217,-0.024673240582664947,0.006340281147446922,0.03947603644733939,-0.19418553732824476,0.02857169915201787,-0.00406437512561927,-0.1706891584808985,0.030357822783970326
163,0.7139988000126323,-0.0034786035392502497,-0.007228907199311103,0.004500690138906423,0.016099277364785683,-0.025483965814023794,0.00646394064171763,0.03945085853725747,-0.19456453877621532,0.028679331357597097,-0.005457037827307018,-0.16064079626690206,0.029354698323499476
164,0.718298700012383,-0.003418734318036857,-0.007601686785688547,0.004649206356644843,0.016273153164038857,-0.026293965965706708,0.0065878911769623955,0.03941987244073496,-0.19489106620416205,0.028781980210513078,-0.006846394479261267,-0.1505350507357604,0.02834397977821392
165,0.7230574999994133,-0.0034309123406843106,-0.0077739405258765056,0.0046979241940078905,0.016446802483064685,-0.027103117962313034,0.006712118896447902,0.039383091256162565,-0.19516544177162404,0.02887965214765456,-0.008232167846551027,-0.14037697104825247,0.027326063157904174
166,0.7271459000039613,-0.003414302019994136,-0.00791351516286869,0.0047497292205459785,0.016620203766125257,-0.02791130148002648,0.00683661007912021,0.03934052901070967,-0.19538801324651994,0.02897235557619808,-0.009614090578401183,-0.13017159399656034,0.026301342708350786
167,0.73133450000023,-0.003405912868413978,-0.008051054734426298,0.0048038756645108855,0.01679333556878277,-0.02871839890178115,0.006961351136214139,0.039292200621229824,-0.19555915316454073,0.029060100810997865,-0.010991905213025796,-0.11992393950833499,0.02527021058451804
168,0.7403599000099348,-0.003382881442085159,-0.008203531035359564,0.004863114425932893,0.016966176555535426,-0.029524295269436732,0.007086328607631533,0.03923812185522254,-0.19567925797386113,0.02914290001086367,-0.012365364171484698,-0.10963900620339338,0.024233056529050806
169,0.7478160000027856,-0.003382881442085159,-0.008203531035359564,0.004863114425932893,0.01713870549729564,-0.030328878233076385,0.007211529158097391,0.039178309291900394,-0.19574874716633484,0.029220767113816794,-0.013734229740676463,-0.0993217670077849,0.02319026755640341
170,0.7521412000060081,-0.003382881442085159,-0.008203531035359564,0.004863114425932893,0.017310901268719005,-0.03113203799754303,0.00733693957310296,0.0391127802834103,-0.19576806239634292,0.02929371777141448,-0.01509827404559123,-0.08897716482987311,0.02214222764292135
171,0.7572031000017887,-0.0033171669305068936,-0.008357214589454636,0.004930441872948834,0.01748274284539265,-0.0319336672663316,0.007462546754645101,0.03904155291625664,-0.19573766658846697,0.02936176928223344,-0.016457279010956952,-0.07861010830298143,0.021089317423188217
172,0.7609208000067156,-0.0032952060710310384,-0.00883633147796203,0.005122868337562976,0.017654209300891618,-0.03273366118295671,0.0075883377167713555,0.03896464597297364,-0.19565804303516146,0.02942494052460321,-0.017811036312422566,-0.06822546759904909,0.02003191389294158
173,0.7650404000014532,-0.0032990865217501467,-0.008996360864978941,0.005195277953801635,0.01782527980371201,-0.03353191726991671,0.007714299580940232,0.03888207889409389,-0.19552969448560067,0.02948325188868013,-0.01915934731743124,-0.057828070317636524,0.018970390118852393
174,0.769602100001066,-0.003279466103275113,-0.00914867919603987,0.005278422712484229,0.017995933614089712,-0.03432833536537658,0.007840419571206401,0.03879387174045891,-0.1953531422268739,0.029536725207952585,-0.020502023015946422,-0.047422697454507584,0.017905114955453046
175,0.7736928000085754,-0.0032613764733930334,-0.009312472346721785,0.005368037136843731,0.01816615008071352,-0.03512281755769311,0.007966685009240582,0.03870004515591705,-0.19512892515870042,0.029585383690267877,-0.021838883941202474,-0.03701407945389887,0.01683645276948941
176,0.7774733000114793,-0.003241231455535543,-0.009513188025174119,0.005452516079201637,0.018335908637341483,-0.03591526811790701,0.008093083309193958,0.038600620330453174,-0.1948575988628322,0.02962925184847071,-0.023169760080660646,-0.02660689234846549,0.015764763171962248
177,0.7814757000014652,-0.0031950367452942704,-0.009740594979085433,0.005540896449344478,0.018505188799329348,-0.03670559343032739,0.008219601972417067,0.03849561896379348,-0.19453973466830574,0.02966835543074314,-0.02449449077735982,-0.016205753990767333,0.014690400758112995
178,0.7852105000056326,-0.0031563929850277604,-0.009927443383819417,0.005620446426287323,0.018673970160080038,-0.037493701921334735,0.008346228582043175,0.03838506322952804,-0.19417591871369916,0.02970272135073523,-0.025812924621860064,-0.005815220380030785,0.013613714855598515
179,0.7896601000102237,-0.0031563929850277604,-0.009927443383819417,0.005620446426287323,0.018842232387423177,-0.038279503986529136,0.008472950797446211,0.03826897573979272,-0.19376675100754087,0.029732377617575047,-0.027124919334985106,0.0045602179122123,0.012535049281088511
180,0.7956892000074731,-0.0031563929850277604,-0.009927443383819417,0.005620446426287323,0.019009955219933723,-0.03906291191635123,0.00859975634858338,0.038147379510551235,-0.1933128444880091,0.029757353265845915,-0.02843034164157762,0.014916139214143384,0.011454742105508597
181,0.7999744000117062,-0.003024329600795198,-0.010472856416524396,0.005875805200070765,0.019177118463198525,-0.03984383982030341,0.00872663303023258,0.03802029792751731,-0.19281482408305078,0.029777678285617927,-0.029729067135488833,0.025248194120009018,0.010373125428140652
182,0.8063034000078915,-0.0030036470666154743,-0.01067439633579207,0.005958603004856872,0.019343701986039744,-0.040622203549899226,0.00885356869613485,0.0378877547127554,-0.19227332577203646,0.029793383552619835,-0.031020980136031332,0.035552108747624385,0.009290525159780738
183,0.8104431000101613,-0.002951223773915743,-0.010875537640969284,0.006063100364328623,0.019509685716704056,-0.041397920620468834,0.008980551253051992,0.03774977389199785,-0.19168899565005304,0.029804500758636724,-0.03230597353613101,0.04582368788399415,0.008207260815143344
184,0.8147925000084797,-0.002951223773915743,-0.010875537640969284,0.006063100364328623,0.019675049639026467,-0.04217091013194786,0.009107568654749579,0.03760637976271479,-0.19106248899592293,0.029811062342217493,-0.03358394864242084,0.05605881801616572,0.007123645314688896
185,0.8190366000053473,-0.002855705491414815,-0.011074281080661358,0.00615343070129188,0.019839773788577507,-0.042941092688777126,0.00923460889591546,0.03745759686297211,-0.19039446934502247,0.02981310141977501,-0.034854815007525485,0.06625347024458224,0.006039984796039556
186,0.8271508000034373,-0.002855705491414815,-0.011074281080661358,0.00615343070129188,0.020003838248802534,-0.04370839031904021,0.009361660006023882,0.03730344994111152,-0.1896856075679561,0.029810651717160443,-0.03611849025479174,0.0764037030763578,0.0049565784351363
187,0.8304005000100005,-0.002855705491414815,-0.011074281080661358,0.00615343070129188,0.02016722314716174,-0.04447272639296541,0.009488710043155331,0.03714396392628549,-0.1889365809561246,0.029803747501791968,-0.03737489989572586,0.08650566509605405,0.003873718277278033
188,0.8356525000126567,-0.0027538167214185595,-0.011500697964284625,0.006348821313528738,0.02032990865127937,-0.04523402554091742,0.009615747087782128,0.036979163899878605,-0.18814807231520633,0.029792423515416618,-0.03862397714040429,0.09655559751169687,0.0027916890781713114
189,0.8397927000041818,-0.002594738488438166,-0.012259491672269012,0.006625636319017704,0.020491874965110624,-0.04599221357100322,0.009742759236529732,0.03680907506784511,-0.18732076906755216,0.029776714907582394,-0.03986566270112952,0.10654983657393238,0.0017107681551068125
190,0.8438680000108434,-0.002523194044042202,-0.012463959392518471,0.006763560545126633,0.02065310232513444,-0.04674721738641564,0.009869734595923649,0.03663372273399174,-0.18645536236447205,0.02975665716989617,-0.04109990458960767,0.11648481586638469,0.000631225248366291
191,0.8485169000050519,-0.002523194044042202,-0.012463959392518471,0.006763560545126633,0.02081357099658052,-0.04749896490263696,0.009996661276131732,0.036453132274233385,-0.18555254620937162,0.02973228607114107,-0.04232665790792886,0.1263570684654418,-0.0004466776070487719
192,0.8535507000051439,-0.002434468642940366,-0.012681373171989491,0.0068823594420362715,0.02097326126969876,-0.04824738496462325,0.010123527384711666,0.03626732911184784,-0.18461301659267285,0.02970363759332539,-0.0435458846336356,0.1361632289678618,-0.0015226861992881718
193,0.8569963000045391,-0.002305011708368792,-0.013208234658363916,0.007083749036069108,0.021132153456079154,-0.048992407264088815,0.01025032102037328,0.03607633869375449,-0.18363747063943095,0.029670747868733516,-0.04475755339916826,0.1459000353847573,-0.0025965542470575815
194,0.8605870000028517,-0.0022189370185061136,-0.013468524152941303,0.0071941305547577,0.021290227885030016,-0.04973396225700895,0.010377030266765225,0.03588018646784011,-0.18262660577053497,0.029633653118047092,-0.04596163926598028,0.1555643309006838,-0.0036680434965033057
195,0.8648126000043703,-0.0022189370185061136,-0.013468524152941303,0.0071941305547577,0.02144746490002231,-0.050471981081457166,0.010503643186295352,0.03567889786135336,-0.18158111887835407,0.029592389589602874,-0.04715812349361923,0.16515306549672382,-0.004736923807536354
196,0.869294500007527,-0.0020575461951610804,-0.01376496937105742,0.007306723294561064,0.02160384485520765,-0.051206395475891606,0.010630147813994061,0.03547249826038863,-0.18050170551766426,0.029546993499851553,-0.0483469933040726,0.17466329743662828,-0.005802973229567602
197,0.8729319000121905,-0.0018817347297522165,-0.014331123238723365,0.0075317972612197436,0.021759348112017452,-0.051937137698002935,0.010756532151429651,0.035261012990477916,-0.1793890591126633,0.029497500975079763,-0.049528241641679814,0.1840921946152458,-0.006865978066638367
198,0.8772316000104183,-0.001774575283821367,-0.014671327657050775,0.007664975630202762,0.021913955035850585,-0.05266414044423455,0.010882784160684621,0.035044467298307964,-0.17824387018085558,0.0294439479944554,-0.050701866928914666,0.1934370357686391,-0.007925732931943258
199,0.8819790000125067,-0.0016643597441698492,-0.01493583260271126,0.007802819630337998,0.02206764599285655,-0.05338733677008334,0.011008891758401713,0.03482288633457864,-0.17706682557455963,0.029386370334454105,-0.05186787281834395,0.2026952115454554,-0.008982040791754586
200,0.885505700003705,-0.0015683225615101448,-0.015273603777291691,0.007953838947963643,0.022220401346821118,-0.05410666001128725,0.011134842809908296,0.03459629513801682,-0.1758586077407617,0.02932480351472263,-0.05302626794106967,0.21186422543928574,-0.010034712998769974
201,0.8899011000030441,-0.001455316060134276,-0.015588833340645612,0.008116666019309243,0.022372201456161065,-0.05482204370600374,0.011260625123427504,0.03436471862055859,-0.17461989400000966,0.02925928274543239,-0.054177065651963424,0.22094169458191432,-0.011083569314917219
202,0.8936921999993501,-0.0013541431820190842,-0.01593632155644991,0.008310214682251635,0.022523026671034438,-0.05553342151808076,0.011386226444384388,0.034128181553711244,-0.1733513558450116,0.02918984287617424,-0.05532028377200274,0.22992535039752568,-0.012128437923662524
203,0.898088200003258,-0.001233476993276373,-0.016275077085354948,0.008459054593703942,0.0226728573305727,-0.056240727161519274,0.011511634449815103,0.03388670855610456,-0.17205365825957225,0.02911651834644299,-0.056455944328019474,0.23881303911810303,-0.013169155431880419
204,0.9024443000089376,-0.001233476993276373,-0.016275077085354948,0.008459054593703942,0.02282167376024087,-0.05694389432622381,0.011636836742886935,0.033640324082239624,-0.17072745905847078,0.029039343137758102,-0.05758407329017076,0.24760272216041412,-0.014205566861355571
205,0.906372100012959,-0.0010972568163187505,-0.01668015277020771,0.008625008268752161,0.022969456269331556,-0.057642856605134074,0.011761820847536715,0.033389052412441826,-0.16937340824885055,0.02895835072746444,-0.0587047003074432,0.2562924763651454,-0.0152375256299986
206,0.9107141000131378,-0.0008202383716384755,-0.017438761421520694,0.00892532522900654,0.023116185148598496,-0.05833754742282873,0.011886574203235092,0.03313291764402309,-0.16799214741365917,0.028873574044254335,-0.05981785844150015,0.26488049409890524,-0.016264893522869524
207,0.9165283000038472,-0.0006390853046951408,-0.01782997036220915,0.009078091922054395,0.023261840668035084,-0.059027899965689024,0.012011084159883778,0.03287194368365686,-0.1665843091176466,0.028785045425449803,-0.060923583899181746,0.2733650832199762,-0.01728754065311406
208,0.9214007000118728,-0.00045870304603653296,-0.01820865648607842,0.009254027585926406,0.02340640307480304,-0.059713847113707405,0.012135337972852725,0.03260615424096785,-0.16515051633639527,0.02869279657608108,-0.0620219157639661,0.28174466690885225,-0.01830534541292917
209,0.9268955000006828,-0.00028833499136650707,-0.0186357358690541,0.009428722789086675,0.023549852591316214,-0.06039532137402313,0.0122593227981639,0.03233557282333687,-0.16369138190882412,0.028596858529795186,-0.06311289572669944,0.2900177833647527,-0.019318194414685363
210,0.9315766000072472,-0.0001075839562479625,-0.01920867494197228,0.009637905953986576,0.023692169413484378,-0.061072254816264084,0.012383025687828052,0.03206022273191949,-0.16220750801357592,0.02849726161162568,-0.0641965678159011,0.2981830853694564,-0.020325982422344128
211,0.9376740000006976,-0.0001075839562479625,-0.01920867494197228,0.009637905953986576,0.02383333370912158,-0.061744579009770754,0.012506433585340626,0.03178012705887578,-0.16069948566966366,0.028394035402652514,-0.06527297812794768,0.3062393397199505,-0.021328612273319697
212,0.9414149000076576,6.602193024899251e-05,-0.019686569649950404,0.00984320904877321,0.023973325616523232,-0.062412224962775334,0.012629533321342751,0.031495308685807154,-0.15916789426171857,0.028287208706577888,-0.06634217455743802,0.31418542653153514,-0.022325994790944607
213,0.9458325000014156,0.0003720858063081274,-0.02060126593037124,0.010145461198711247,0.024112125243216057,-0.06307512306360606,0.012752311609453046,0.03120579028339481,-0.1576133010901498,0.028176809518241582,-0.06740420652803922,0.3220203384131713,-0.023318048687708853
214,0.9501366000040434,0.0005605264266656916,-0.021239500384901133,0.010330978853863039,0.024249712664884692,-0.06373320302398286,0.012874755042275662,0.030911594312232803,-0.1560362609464921,0.02806286499409657,-0.06845912472411016,0.32974317951699866,-0.024304700459452343
215,0.9566225000016856,0.000812226230318582,-0.02181126934554304,0.010514382227639285,0.024386067924478512,-0.06438639382446733,0.012996850087589785,0.030612743024847473,-0.1544373157141849,0.02794540142466328,-0.06950698082339658,0.33735316446409086,-0.025285884270700092
216,0.9607210000103804,0.0010336419383138644,-0.022323186017999506,0.010682246234085254,0.024521171031501896,-0.06503462366212694,0.013118583084725527,0.030309258468893253,-0.15281699399499243,0.027824444208978113,-0.07054782723108786,0.3448496171486468,-0.026261541831338945
217,0.9647186000074726,0.0012067954649629205,-0.0228947313458114,0.010868788397412515,0.024655001961491035,-0.06567781990046986,0.013239940241130883,0.03000116249151368,-0.15117581076124142,0.027700017831049417,-0.07158171681552258,0.35223196942295115,-0.027231622264843717
218,0.9688997000048404,0.0014056416505172276,-0.023489344167553317,0.011047909637272807,0.024787540655680035,-0.06631590902170346,0.013360907629134161,0.029688476744855127,-0.149514267034019,0.027572145838331733,-0.07260870264582596,0.3594997596655642,-0.02819608196826946
219,0.9733250999997836,0.0016468078402638328,-0.02411984338515154,0.011225334127618336,0.024918767020858795,-0.06694881658136599,0.013481471182906036,0.029371222692719287,-0.14783284958744153,0.02744085082222643,-0.07362883773175871,0.3666526312353271,-0.029154884464235
220,0.9786469000100624,0.0018641555666777895,-0.02477766808603091,0.011448114660666281,0.025048660929424982,-0.06757646716537823,0.013601616695625138,0.029049421618339077,-0.1461320306790716,0.027306154400614287,-0.07464217476605244,0.3736903308138873,-0.03010800024513112
221,0.9821312999993096,0.0021047437200370526,-0.02537947878263885,0.011645664370802144,0.025177202219632187,-0.06819878434955814,0.013721329816850812,0.028723094633261538,-0.14441226780652858,0.027168077202423015,-0.07564876586950187,0.38061270663956526,-0.031055406609794514
222,0.9868917999992846,0.002376377818786223,-0.026051518505999263,0.011839507379750955,0.02530437069603606,-0.06881569066163853,0.01384059605010644,0.02839226268731979,-0.1426740034903056,0.02702663885422992,-0.07664866233907953,0.3874197066354976,-0.031997087492896335
223,0.9936304000002564,0.00260605122264243,-0.026666959500405426,0.01200000276473691,0.025430146130140004,-0.06942710754582412,0.013959400750676334,0.02805694657967508,-0.14091766508277334,0.026881857968897645,-0.07764191439933354,0.39411137643509825,-0.03293303328730138
224,0.9979776000109268,0.002836617932385364,-0.027493448381273104,0.012208272587681718,0.025554508261241653,-0.07003295532992125,0.014077729123619011,0.027717166970908556,-0.13914366460332,0.026733752136238433,-0.07862857095732351,0.4006878573079833,-0.03386324065966078
225,1.0024852000060491,0.003055760396407939,-0.02823894611368215,0.01240824447558858,0.02567743679748118,-0.0706331531950697,0.014195566221999382,0.027372944396141144,-0.1373523985995458,0.026582337915700017,-0.07960867936134415,0.4071493839896056,-0.03478771235950769
226,1.0066686000063785,0.003310462484181337,-0.02879099580243181,0.012600736981384395,0.025798911417092306,-0.07122761914810248,0.014312896945342116,0.027024299279158812,-0.13554424803439943,0.02642763083106365,-0.08058228516368114,0.4134962824179421,-0.03570645702213149
227,1.0105501000070944,0.0035561742701906694,-0.029483894885277074,0.012827706551566911,0.025918911769856556,-0.07181626999655673,0.014429706038308178,0.0266712519475194,-0.13371957819911273,0.026269645367142685,-0.08154943188763762,0.41972896738066207,-0.03661948896551175
228,1.014886100005242,0.003863268746323492,-0.030327830892693225,0.013046506429663323,0.0260374174787611,-0.0723990213263549,0.014545978089596253,0.02631382264861619,-0.13187873865176006,0.026108394968467643,-0.0825101607990642,0.42584794007629295,-0.037526827981599134
229,1.019591300006141,0.004175683802133524,-0.030905871146707297,0.013247890551441436,0.026154408141860142,-0.07297578748217204,0.014661697531070505,0.0259520315666722,-0.1300220631812403,0.025943892039941345,-0.08346451068261859,0.43185378559298027,-0.03842849912223486
230,1.0232933000079356,0.004400576022439056,-0.03165791301510362,0.013452677670255781,0.026269863334339807,-0.0735464815505017,0.014776848637115857,0.025585898840638104,-0.1281498697964491,0.02577614794944551,-0.08441251762297454,0.437747170308513,-0.039324532480005454
231,1.0272666000091704,0.004620235677294823,-0.0323921469685177,0.0136767623786432,0.026383762610786128,-0.07411101534543009,0.01489141552422172,0.025215444582965797,-0.12626246074038186,0.025605173032377984,-0.08535421479119351,0.4435288392153584,-0.04021496296433358
232,1.031339500012109,0.004853920829415585,-0.03320378061131453,0.013893742492698969,0.026496085507655354,-0.0746692993971245,0.015005382150794694,0.02484068889922843,-0.12436012252888018,0.025430976598097524,-0.08628963223646506,0.44919961317451473,-0.04109983007310978
233,1.036276600003475,0.004853920829415585,-0.03320378061131453,0.013893742492698969,0.02660681154594574,-0.07522124294303822,0.01511873231720056,0.02446165190855704,-0.1224431260137082,0.025253566938251107,-0.0872187966834155,0.45476038610205477,-0.041979177660173665
234,1.0405880000034813,0.004853920829415585,-0.03320378061131453,0.013893742492698969,0.026715920234069723,-0.07576675392183216,0.015231449666035667,0.024078353764863045,-0.1205117264696187,0.025072951336956542,-0.08814173133517758,0.46021212209228646,-0.04285305369895605
235,1.044150100002298,0.004853920829415585,-0.03320378061131453,0.013893742492698969,0.026823391070925125,-0.07630573897000915,0.01534351768262755,0.023690814678815057,-0.11856616370504214,0.024889136082811278,-0.08905845568240615,0.46555585248150655,-0.043721510042596605
236,1.0483296000020346,0.005174476829234395,-0.03395850067127887,0.014079533998157374,0.02692920354916379,-0.07683810342125447,0.015454919695764492,0.023299054940537717,-0.1166066621960068,0.024702126482696332,-0.08996898531841775,0.47079267285636894,-0.0445846021808539
237,1.0518816000112563,0.006174374974074087,-0.037025319335511654,0.015240985103272289,0.027033337158655878,-0.07736375130847217,0.015565638878653369,0.02290309494299953,-0.1146334312428742,0.024511926877342397,-0.0908733317606244,0.47592374001093235,-0.04544238899412709
238,1.0564281000115443,0.006403702286796518,-0.03783260924586759,0.015504237265671808,0.02713577139014787,-0.07788258536850451,0.01567565825010485,0.02250295520605598,-0.11264666514945058,0.02431854065862323,-0.09177150227842441,0.48095026885648623,-0.04629493250490995
239,1.0605352999991735,0.006761085577272208,-0.03865216538975285,0.0157721624772044,0.027236485739112106,-0.07839450704951785,0.015784960675944783,0.022098656401113484,-0.11064654342401233,0.024121970288539536,-0.09266349972770518,0.48587352928828564,-0.047142297626998966
240,1.064854500000365,0.006997348553984724,-0.03940780338801652,0.016141357974128225,0.027335459709785553,-0.07889941652103657,0.015893528870650302,0.021690219376379313,-0.10863323100176023,0.023922217319854937,-0.09354932239210512,0.4906948430133496,-0.0479845519127781
241,1.0690084000088973,0.007249214718028879,-0.04018625079568473,0.016435360504659585,0.027432672819395293,-0.07939721268660316,0.016001345399209024,0.021277665182661897,-0.10660687848819694,0.023719282418344086,-0.09442896383117438,0.4954155803435003,-0.04882176529890328
242,1.072366400010651,0.0075721341596968065,-0.04104850461273477,0.016764349692183274,0.027528104602568007,-0.07988779319903996,0.016108392679199553,0.020861015099685375,-0.10456762242290177,0.023513165386611436,-0.09530241273556617,0.5000371569578348,-0.0496540098507098
243,1.0757556000025943,0.007835819148269117,-0.04176257575293255,0.017076814632554657,0.027621734615920355,-0.08037105447828574,0.01621465298309117,0.020440290662881683,-0.1025155855631577,0.023303865189437445,-0.09616965278938175,0.5045610306388275,-0.05048135950566599
244,1.0807397000025958,0.008092254257365978,-0.04258253719024656,0.01740916519526227,0.027713542442827248,-0.08084689173177738,0.016320108440760383,0.020015513690623137,-0.1004508771868668,0.023091379980607535,-0.09703066253978448,0.5089886979862703,-0.051303889816195485
245,1.084403900007601,0.00839691419659631,-0.043354145770383115,0.01773909016266806,0.02780350769836483,-0.08131519897734421,0.016424741042221802,0.019586706311858076,-0.09837359341417125,0.02287570713117773,-0.09788541527398997,0.5133216911132535,-0.05212167769218953
246,1.0881421000085538,0.008594012499273091,-0.04409415949195945,0.01809405076479402,0.027891610034424533,-0.0817758690685796,0.01652853264057064,0.019153890994111744,-0.09628381754718027,0.02265684325912976,-0.09873387890373181,0.5175615743283866,-0.052934801143528956
247,1.092553400012548,0.008836035322048371,-0.04488487202236351,0.0184333684027465,0.027977829144994495,-0.08222879372265231,0.01663146495513395,0.01871709057181427,-0.09418162042718745,0.022434784260366995,-0.09957601585729382,0.521709940808449,-0.05374333902293378
248,1.0979190000070955,0.009043600598721092,-0.04559005410742323,0.018771916049531816,0.028062144771604416,-0.0826738635505179,0.01673351957482742,0.01827632827491732,-0.09206706080874745,0.02220952534100154,-0.10041178297919194,0.5257684092656458,-0.05454737076945656
249,1.102315300013288,0.009284303398361006,-0.046361923169739784,0.019197511579634834,0.02814453670892978,-0.08311096808948823,0.016834677961714395,0.01783162775776089,-0.08994018574996682,0.02198106105088163,-0.10124113143758026,0.5297386206136214,-0.0553469761529327
250,1.1063742000114871,0.009491408997289279,-0.04715810466291755,0.01952943008521938,0.0282249848105513,-0.08353999583811426,0.016934921454763583,0.017383013128151367,-0.0878010310183511,0.021749385318307415,-0.10206400663944801,0.5336222346363624,-0.056142235019698415
251,1.110869600001024,0.009491408997289279,-0.04715810466291755,0.01952943008521938,0.0283034689948651,-0.08396083429333584,0.017034231273801808,0.01693050897661185,-0.08564962151153825,0.02151449148588209,-0.10288034815366529,0.5374209266640884,-0.05693322703988397
252,1.1146656000055373,0.009711633272236623,-0.047908264191112805,0.019955475090261937,0.028379969251138937,-0.08437336998984987,0.017132588523657944,0.016474140405765773,-0.0834859716922356,0.021276372347444453,-0.10369008964192716,0.5411363842601958,-0.05772003145658629
253,1.1191634999995586,0.010070663066742013,-0.04939521202189381,0.020731775855896074,0.02845446564570987,-0.08477748854164646,0.01722997419849399,0.016013933059814668,-0.08131008603666678,0.021035020186028125,-0.10449315879763768,0.5447703039232855,-0.05850272683722105
254,1.122925600007875,0.010267380920057634,-0.05010449639677275,0.02111911924902598,0.028526938328318544,-0.0851730746856604,0.017326369186319152,0.015549913154070982,-0.0791219594958257,0.02079042681279191,-0.10528947729276712,0.5483243878082568,-0.05928139082735028
255,1.1268108000076609,0.010465832168127572,-0.05081289954800799,0.02148964053831797,0.02859736753857517,-0.0855600123274835,0.017421754273682543,0.015082107504506906,-0.0769215779688256,0.02054258360686516,-0.1060789607327073,0.5518003404704054,-0.060056099907276984
256,1.1315805000049295,0.010672950444092258,-0.05156738064383291,0.02187347680214716,0.02866573361255206,-0.08593818458908097,0.017516110150540044,0.014610543557280219,-0.07470891878762365,0.02029148155605139,-0.10686151861914135,0.5551998656364109,-0.06082692915169283
257,1.1376340999995591,0.010893859830771612,-0.05227175456368214,0.02223763144245016,0.02873201698949764,-0.0863074738584543,0.017609417415290596,0.014135249418198364,-0.07248395121239486,0.02003711129833286,-0.1076370543209372,0.5585246630060384,-0.061593951992660524
258,1.1415200000046752,0.011062141500573077,-0.052951265861967994,0.02260974564551645,0.02879619821866687,-0.08666776184119147,0.01770165657997711,0.013656253882082105,-0.07024663693682305,0.0197794631641182,-0.10840546505306481,0.5617764250883238,-0.062357239986206736
259,1.1462348000059135,0.011244143324719917,-0.053670704850172786,0.022978809036852177,0.028858257966262745,-0.08701892961384329,0.017792808075647096,0.013173586461990428,-0.0679969306025713,0.019518527219174932,-0.10916664186352984,0.5649568340759454,-0.06311686258279578
260,1.1496140000090236,0.011244143324719917,-0.053670704850172786,0.022978809036852177,0.028918177022483428,-0.08736085767906393,0.017882852257868023,0.012687277418268503,-0.06573478032219005,0.019254293308188418,-0.10992046962830844,0.5680675587614124,-0.06387288690194849
261,1.1542317000130424,0.011409656649739155,-0.05444222045237601,0.023408544203305952,0.028975936308669688,-0.087693426022452,0.017971769412392365,0.012197357787380816,-0.06346012820971783,0.0189867510988883,-0.11066682705425974,0.5711102514986224,-0.0646253775112642
262,1.1583935000089696,0.011823100079491009,-0.05584411715412825,0.02409582262639972,0.029031516884547335,-0.08801651417102724,0.01805953976096724,0.011703859410491929,-0.06117291091822732,0.018715890126683468,-0.11140558668998564,0.5740865452132682,-0.06537439621009714
263,1.1624812000081874,0.011983695359345833,-0.0566021483230187,0.02443259650054606,0.0290848999555591,-0.08833000125327707,0.0181461434672834,0.011206814961757761,-0.058873060183568415,0.018441699839746424,-0.112136614944599,0.5769980504654926,-0.06612000181813166
264,1.166535800002748,0.012175221291870611,-0.05739745362263893,0.02475628225250482,0.02913606688028031,-0.08863376606070568,0.018231560643058087,0.010706257976290615,-0.05656050337355956,0.018164169644487912,-0.11285977211435504,0.579846352568108,-0.06686224996909382
265,1.170796300008078,0.012372627894996224,-0.058129300118753634,0.025099469730112445,0.029184999177912698,-0.08892768711081758,0.01831577135424632,0.010202222877761688,-0.05423516404187872,0.017883288951362777,-0.11357491241709196,0.5826330087636108,-0.06760119290982933
266,1.174442300005467,0.012581503300003086,-0.058907411832180366,0.02539808213552034,0.029231678535850562,-0.08921164271146673,0.01839875562737496,0.009694745005605264,-0.05189696248590643,0.017599047220947947,-0.11428188403442012,0.5853595454631295,-0.0683368793049707
267,1.1777671000018015,0.012581503300003086,-0.058907411832180366,0.02539808213552034,0.029276086817313328,-0.08948551102650142,0.018480493455993865,0.009183860641789266,-0.049545816307775714,0.017311434010233717,-0.11498052916159103,0.5880274555503565,-0.06906935404740931
268,1.1811558000044895,0.012800565048863927,-0.05966197435616291,0.025771455489700484,0.02931820606903867,-0.08974917014263517,0.018560964807238452,0.008669607037117468,-0.047181640977886206,0.01702043901906956,-0.11567068406497127,0.590638195753411,-0.06979865807477943
269,1.184424700011732,0.012800565048863927,-0.05966197435616291,0.025771455489700484,0.02935801852903024,-0.09000249813747237,0.01864014962849783,0.008152022437029206,-0.04480435040014404,0.016726052136706058,-0.11635217914703838,0.5931931840874843,-0.07052482819215339
270,1.1898053000040818,0.013233018489010656,-0.061203456686750715,0.02647294995261517,0.029395506634353964,-0.09024537314861673,0.018718027854182664,0.0076311461068631434,-0.04241385747819319,0.016428263488374905,-0.11702483901880922,0.5956937973710125,-0.07124789690113825
271,1.1939342000114266,0.013589389463431915,-0.06287824369594973,0.027036559257726182,0.029430653028977006,-0.09047767344378999,0.018794579412587078,0.007107018356552238,-0.0400100746819099,0.01612706348184939,-0.1176884825796049,0.5981413688180177,-0.07196789223555622
272,1.1975271000119392,0.013801585001214986,-0.06375026934081965,0.027319801715769653,0.029463440571643507,-0.09069927749188786,0.018869784232838745,0.006579680564717833,-0.03759291461343803,0.015822442853928337,-0.11834292310404915,0.6005371857091537,-0.07268483760388207
273,1.2021477000089362,0.014062354460533564,-0.06448224633131677,0.027581516528842553,0.029493852343781202,-0.09091006403490069,0.018943622251931257,0.0060491752021314404,-0.035162290572050156,0.015514392716786935,-0.11898796833619148,0.602882487143879,-0.07339875163860225
274,1.205513000008068,0.014467787770060615,-0.06624373873773935,0.028158046475362936,0.029521871657432794,-0.09110991216062571,0.019016073421832726,0.005515545854513529,-0.03271811711712753,0.015202904604138543,-0.11962342059064038,0.6051784618760739,-0.07410964805265144
275,1.2090649000019766,0.014700960070885085,-0.06706530201651124,0.02842674247935481,0.029547482063206107,-0.09129870137609783,0.01908711771666463,0.004978837244639453,-0.030260310628560348,0.014887970517152129,-0.12024907686058472,0.6074262462352987,-0.07481753550307327
276,1.2163074999989476,0.014700960070885085,-0.06706530201651124,0.02842674247935481,0.029570667358237032,-0.09147631168166598,0.0191567351399448,0.004439095253723433,-0.02778878986387909,0.014569582970070806,-0.12086472893257601,0.609626922135779,-0.0755224174620429
277,1.2197409000073094,0.014918940361594002,-0.06799915375405585,0.028613434156900926,0.02959141159415933,-0.0916426236456416,0.01922490573188854,0.0038963669420523637,-0.025303476511437394,0.014247735035477502,-0.12147016350793864,0.6117815151750795,-0.07622429209537945
278,1.2233895000099435,0.015380536971934313,-0.06988031917062422,0.029143446798281073,0.02960969908507534,-0.09179751847944617,0.019291609576762087,0.0033507005688420853,-0.02280429573897791,0.013922420389154803,-0.12206516233066934,0.6138909928243158,-0.07692315214866732
279,1.2272293999994872,0.01564088357945907,-0.07073779087525604,0.029453919080030953,0.029625514415521706,-0.09194087811318448,0.019356826810282397,0.0028021456112896285,-0.020291176736923766,0.013593633354486923,-0.1226495023216818,0.6159562627116314,-0.0776189848410956
280,1.2313916999992216,0.015806392586628117,-0.07176342047068347,0.029667759235923588,0.029638842448424144,-0.09207258527157107,0.019420537627057265,0.0022507527827958134,-0.017764053255750596,0.013261368946352655,-0.1232229557192472,0.6179781710005436,-0.07831177176711529
281,1.2372892000130378,0.015806392586628117,-0.07176342047068347,0.029667759235923588,0.029649668333035326,-0.09219252355013764,0.01948272228805983,0.001696574050333546,-0.015222864136806524,0.012925622914459284,-0.12378529022547663,0.619957500864642,-0.07900148880600483
282,1.2417066000052728,0.01613193891152844,-0.07271675251155764,0.02983794411889356,0.02965797751285039,-0.09230057749164954,0.019543361128131514,0.0011396626509380767,-0.012667553835960946,0.012586391786068367,-0.12433626915868548,0.6218949710600004,-0.07968810603942457
283,1.2451609000127064,0.01613193891152844,-0.07271675251155764,0.02983794411889356,0.029663755733494182,-0.09239663266265959,0.01960243456350751,0.0005800731072964603,-0.010098072939476871,0.012243672908065328,-0.12487565161147575,0.6237912345965438,-0.0803715876770316
284,1.2488180000073044,0.01659549651198187,-0.07464079539457172,0.030320963816628313,0.029666989050574508,-0.09248057573012829,0.019659923099358843,1.786124241444107e-05,-0.007514378671515938,0.01189746448832601,-0.12540319261436783,0.625646877509477,-0.08105189199021591
285,1.2524086000048555,0.017052901687031507,-0.07666084915643316,0.0307302716901989,0.029667663837495653,-0.09255229453803981,0.019715807337345247,-0.0005469158066600134,-0.00491643539270021,0.011547765636334516,-0.12591864330480848,0.6274624177317597,-0.08172897125400952
286,1.258520800009137,0.017052901687031507,-0.07666084915643316,0.0307302716901989,0.02966576679322648,-0.09261167818394453,0.019770067983173004,-0.0011141995760762776,-0.002304215089170319,0.011194576403007838,-0.1264217511013775,0.6292383040684879,-0.08240277169721077
287,1.2624923000112176,0.017328451060017604,-0.07763949596018932,0.030981019167998607,0.029661284950017613,-0.09265861709535866,0.019822685854152023,-0.0016839302634024578,0.0003223021484044067,0.010837897819683999,-0.12691225988301263,0.6309749152739111,-0.0830732334607564
288,1.2669412000104785,0.017792651238171794,-0.07964419217165511,0.03133102730160131,0.02965420568106226,-0.0926930031059532,0.01987364188674661,-0.0022560467168462866,0.0029631276563917485,0.01047773193623176,-0.12738991017306714,0.632672559231693,-0.08374029056436395
289,1.2714463000011165,0.018032000220578933,-0.08055354708640344,0.031494561264295076,0.029644516708095214,-0.09271472953146441,0.019922917144114424,-0.002830486425492147,0.005618263740849358,0.01011408185824125,-0.12785443932801044,0.6343314722388949,-0.08440387088145737
290,1.2747951000055764,0.018308238617009354,-0.08151480274448009,0.031716379483030015,0.029632206108924707,-0.09272369124525966,0.019970492823628117,-0.003407185510569779,0.00828770323175814,0.00974695178325616,-0.1283055817305807,0.6359518183940347,-0.0850638961223788
291,1.279790700005833,0.018528309301207663,-0.08260071163719485,0.03194249507716136,0.029617262324891935,-0.0927197847534931,0.02001635026437443,-0.003986078717769148,0.010971429049312196,0.009376347036009657,-0.12874306898719376,0.6375336890894496,-0.08572028182588075
292,1.2854961000120966,0.018705879180046955,-0.08358820818049308,0.03209624764655375,0.029599674168253022,-0.0927029082697871,0.02006047095462527,-0.004567099410614863,0.013669413782723181,0.009002274102627484,-0.1291666301294106,0.6390771026080678,-0.08637293735888288
293,1.2896555000043008,0.018705879180046955,-0.08358820818049308,0.03209624764655375,0.02957943082947851,-0.09267296178937652,0.02010283653927562,-0.0051501795649124575,0.016381619281978458,0.008624740663763222,-0.12957599181926296,0.6405820038245725,-0.08702176592446839
294,1.294120700011263,0.018705879180046955,-0.08358820818049308,0.03209624764655375,0.02955652188446537,-0.09262984716265435,0.020143428827243057,-0.005735249764277751,0.019107996262973638,0.008243755626632166,-0.12997087855823353,0.6420482640108183,-0.08766666457808561
295,1.2980869000020905,0.018856519712136866,-0.08469814650712575,0.03240216706420213,0.0295309373016566,-0.09257346816805777,0.020182229798823746,-0.006322239196759396,0.021848483926421025,0.007859329155911728,-0.13035101289968495,0.6434756807452365,-0.08830752425191123
296,1.3017666000087047,0.0195450853931417,-0.08763162782535444,0.032916915905719255,0.029502667449063606,-0.09250373058423472,0.020219221612999768,-0.006911075652563618,0.02460300959091613,0.0074714727034778045,-0.13071611566453106,0.6448639779258515,-0.08894422978732247
297,1.3065733000112232,0.019837967471680613,-0.08873506368417328,0.03313017189958969,0.029471703101186714,-0.09242054226143216,0.020254386614692893,-0.007501685522889033,0.027371488340524948,0.007080199036948077,-0.13106590615994132,0.6462128058863983,-0.08957665997541667
298,1.3107662000111304,0.020044460825846332,-0.0897550295131869,0.03330560835191029,0.029438035445829125,-0.0923238131920496,0.02028770734195998,-0.008093993799878366,0.03015382268723493,0.006685522267004743,-0.1314001024008676,0.6475217416149238,-0.09020468760550737
299,1.3146314000041457,0.020044460825846332,-0.0897550295131869,0.03330560835191029,0.02940165609079989,-0.09221345558030272,0.0203191665331253,-0.008687924077692748,0.032949902248592663,0.006287457873470809,-0.13171842133418082,0.6487902890741303,-0.09082817952151798
300,1.319155800010776,0.020165502394991236,-0.090884701653427,0.033540209864716446,0.029362557070501387,-0.09208938391094289,0.020348747133845185,-0.009283398554713222,0.03575960344083097,0.005886022730115617,-0.13202057906520362,0.6500178796226072,-0.09144699668618501
301,1.3226556000008711,0.02064450915095179,-0.09272353480730615,0.033858822929394836,0.029320730852396882,-0.09195151501698033,0.020376432304100526,-0.009880338036872906,0.03858278918776772,0.005481235128166881,-0.13230629108642553,0.6512038725359885,-0.09206099425297505
302,1.3270153000048597,0.021036454028601336,-0.09478648987650759,0.03418525798555659,0.02927617034335385,-0.09179976814636004,0.020402205425112653,-0.010478661942122184,0.04141930864573851,0.005073114798508112,-0.13257527250818593,0.6523475556269605,-0.09267002164561039
303,1.3311409000016283,0.02125448791097512,-0.09574368995861171,0.034383697446233964,0.02922886889585906,-0.09163406502754107,0.020426050106178244,-0.01107828830602822,0.04426899694480499,0.004661682932541944,-0.1328272382911095,0.6534481459629363,-0.0932739226450911
304,1.335403300006874,0.021486126003467693,-0.09682533422462038,0.03458847801566573,0.029178820314101413,-0.09145432993393099,0.020447950191419168,-0.011679133788509072,0.04713167494645956,0.004246962201701468,-0.13306190348007743,0.654504790680108,-0.09387253548409276
305,1.339766300006886,0.02180192076820872,-0.09870907335498388,0.03495160830164622,0.02912601885991867,-0.09126048974712914,0.020467889766443224,-0.012281113681701516,0.050007149018027275,0.0038289767755933027,-0.13327898343951858,0.6555165678924744,-0.09446569294861148
306,1.349272999999812,0.021950612670346474,-0.09972053018223773,0.03515979719403908,0.029070459258604353,-0.09105247401893413,0.020485853164911857,-0.012884141918960687,0.05289521082394439,0.0034077523387577406,-0.13347819408980446,0.6564824876943439,-0.09505322248672064
307,1.3530372000095667,0.022111514280292198,-0.10070154379474684,0.035384039812404566,0.02901213670457131,-0.09083021503207227,0.020501824975011074,-0.013488131084988485,0.05579563713407303,0.0029833161060329556,-0.13365925214453162,0.6574014932547112,-0.0956349463242957
308,1.356634399999166,0.022297650384947798,-0.10164748750594152,0.03555302054831774,0.02895104686686874,-0.09059364785960498,0.02051579004582191,-0.014092992427086708,0.05870818964919034,0.0025556968365118664,-0.1338218753484761,0.6582724620018088,-0.09621068158755733
309,1.36068399999931,0.022432476506656612,-0.1025768072779628,0.035772866936576164,0.028887185894549486,-0.09034271042297562,0.020527733493586785,-0.014698635867529841,0.06163261484377003,0.0021249248460818763,-0.13396578271600545,0.6590942068960415,-0.09678024043227544
310,1.364661200001137,0.02257953314582511,-0.10352550331725723,0.036022568062701286,0.028820550421884285,-0.09007734354865722,0.0205376407078683,-0.015304970017051436,0.06456864382615404,0.001691032018539329,-0.13409069476973437,0.6598654777894157,-0.09734343017947052
311,1.3691187000076752,0.02271886616531447,-0.10443161641931038,0.03625026327381558,0.028751137573420158,-0.08979749102336498,0.020545497357597187,-0.015911902189436986,0.0675159922161915,0.0012540518152721427,-0.1341963337792112,0.6605849628694915,-0.09790005345744235
312,1.373017100006109,0.022908318025220236,-0.10538050712407351,0.03643293562198682,0.02867894496888004,-0.0895030996477985,0.02055128939700617,-0.016519338417215132,0.07047436004040164,0.0008140192835056564,-0.13428242399942378,0.6612512901857949,-0.09844990834994974
313,1.3771913000091445,0.02307092199399466,-0.10637732630221215,0.036685734334541545,0.028603970727900902,-0.08919411928888084,0.02055500307144675,-0.01712718346843803,0.07344343164469731,0.0003709710631083128,-0.13434869190891494,0.6618630292565427,-0.0989927885503585
314,1.3812868000095475,0.023171123038037946,-0.10720743233756692,0.03687970435970166,0.028526213474607858,-0.08887050293046306,0.020556624923085992,-0.017735340864540847,0.07642287562468662,-7.505460804463358e-05,-0.13439486644729956,0.6624186927534552,-0.09952848352156939
315,1.3854228999989573,0.023171123038037946,-0.10720743233756692,0.03687970435970166,0.028445672342021725,-0.08853220672246412,0.020556141796480663,-0.018343712899269362,0.07941234477354991,-0.0005240178901496348,-0.13442067925197684,0.6629167382623514,-0.10005677866153243
316,1.3897326000005703,0.02318495980454471,-0.10819544417421571,0.03715575354068061,0.028362346976297633,-0.08817919002841806,0.020553540844026004,-0.01895220065866369,0.08241147604747005,-0.0009758773389943,-0.13442586489383254,0.6633555701171524,-0.10057745547414894
317,1.393730100011453,0.023498129378857504,-0.10990503225858408,0.03753485045268975,0.028276237540792632,-0.08781141547140178,0.02054880953127677,-0.019560704042085365,0.08541989054857502,-0.0014305899049149562,-0.1344101611117284,0.66373354130484,-0.101090291745357
318,1.3980925000068964,0.023498129378857504,-0.10990503225858408,0.03753485045268975,0.02818734471996024,-0.08742884897831915,0.020541935642138215,-0.020169121784274012,0.08843719352533251,-0.0018881109331879958,-0.13437330904557881,0.6640489554388574,-0.10159506172419146
319,1.4023618000064744,0.023556591358772496,-0.11082945287268987,0.03779178290915075,0.02809566972306987,-0.08703145982251893,0.020532907283924737,-0.02077735147841898,0.09146297439031714,-0.002348394165849194,-0.13431505346781794,0.664300068798374,-0.1020915363086061
320,1.405811000004178,0.023944456937636898,-0.1125078908145872,0.038267863380516805,0.028001214287749366,-0.08661922066472541,0.020521712892284126,-0.02138528960023058,0.09449680675525277,-0.0028113917449337227,-0.13423514301306283,0.6644850924307703,-0.10257948323584068
321,1.412145000009332,0.023944456937636898,-0.1125078908145872,0.038267863380516805,0.027903980683348713,-0.08619210759226231,0.020508341235985546,-0.02199283153299458,0.09753824848321423,-0.0032770542171281455,-0.1341333304057811,0.664602194314652,-0.10305866727711206
322,1.4156376000028104,0.023936587357063235,-0.1135128683276793,0.03856869652704575,0.02780397171412349,-0.08575010015655227,0.02049278142156953,-0.022599871593592873,0.10058684175785457,-0.0037453305398242663,-0.1340093726857741,0.664649501580642,-0.10352885043640492
323,1.4191630999994231,0.02424615344645138,-0.11500994766444039,0.03898368677974902,0.027701190722236604,-0.08529318140887616,0.02047502289785833,-0.023206303059472435,0.10364211316950686,-0.004216168088563323,-0.13386303143128875,0.6646251027871493,-0.10398979215313346
324,1.4244280999992045,0.02435203832794778,-0.11581496646440065,0.03919407092583302,0.027595641590577067,-0.08482133793437832,0.020455055460325087,-0.023812018196544008,0.10670357381799234,-0.004689512665857628,-0.13369407297957486,0.6645270502482707,-0.10444124950844277
325,1.4283837000111816,0.02435203832794778,-0.11581496646440065,0.03919407092583302,0.027487328745394606,-0.08433455988430508,0.0204328692553205,-0.024416908287991264,0.10977071943194922,-0.005165308511375447,-0.1335022686447085,0.6643533624109346,-0.1048829774349154
326,1.4319791000016266,0.0243574407814372,-0.1167572857588219,0.039506693386339414,0.027376257158749202,-0.08383284100646607,0.020408454784155493,-0.025020863663970494,0.11284303050448033,-0.005643498313473579,-0.13328739493250555,0.6641020262783603,-0.10531472892944667
327,1.435518000012962,0.024679861533336747,-0.11814364405124786,0.03985607824969857,0.027262432350774742,-0.08331617867390886,0.02038180290703878,-0.025623773732180163,0.11591997244490161,-0.006124023222060898,-0.13304923375235397,0.6637709998768725,-0.10573625526904971
328,1.4398313999990933,0.02476502512709368,-0.1188355793518447,0.04004497907249879,0.027145860391755993,-0.08278457391179947,0.020352904846868233,-0.026225527009279017,0.11900099574635939,-0.006606822862774791,-0.13278757262579555,0.6633582147630719,-0.10614730622934934
329,1.4437971000006655,0.024851759924006254,-0.11954154188528607,0.04027146705570207,0.027026547904018285,-0.08223803142250233,0.020321752192875246,-0.026826011153130713,0.12208553616906864,-0.007091835352451261,-0.13250220489169287,0.6628615785683433,-0.10654763030552224
330,1.4482068000070285,0.024851759924006254,-0.11954154188528607,0.04027146705570207,0.02690450206362933,-0.08167655960885496,0.020288336904121285,-0.02742511299585224,0.12517301493890964,-0.007578997315868232,-0.13219292990782108,0.6622789775776521,-0.10693697493543952
331,1.4541918000031728,0.024829592900029666,-0.12039351831620639,0.04057008688288788,0.026779730601912768,-0.08110017059563418,0.0202526513128461,-0.028022718577642918,0.12826283896110566,-0.008068243903740491,-0.13185955324872928,0.6616082793395655,-0.10731508672476645
332,1.4583216000028187,0.024829592900029666,-0.12039351831620639,0.04057008688288788,0.026652241806773152,-0.08050888024921203,0.020214688127666948,-0.02861871318137032,0.13135440104869084,-0.008559508811943563,-0.1315018868997196,0.660847335304412,-0.10768171167377433
333,1.4622354000021005,0.02497740565065426,-0.12166236180427595,0.04103757248402386,0.026522044523832326,-0.07990270819540155,0.020174440436628492,-0.029212981367888528,0.1344470801654631,-0.009052724301942741,-0.13111974944679733,0.659993983487479,-0.10803659540561804
334,1.4667379000020446,0.02526857050500859,-0.12270271559140755,0.041309530718049596,0.02638914815737701,-0.0792816778354939,0.020131901710102925,-0.029805407012063957,0.13754024168310508,-0.00954782122240255,-0.13071296626244938,0.6590460511541387,-0.10837948339583303
335,1.4709397000115132,0.025342213259340222,-0.1233615655980847,0.041485885072198046,0.02625356267111766,-0.07864581636049021,0.020087065803540204,-0.03039587333948341,0.14063323765214245,-0.010044729031950856,-0.13028136968711282,0.6580013575237853,-0.10871012120280524
336,1.4769402000092668,0.025418093472466343,-0.12397727897382567,0.0416560568273983,0.026115298588758773,-0.07799515476353232,0.02003992696006816,-0.030984262963818784,0.14372540708639922,-0.01054337582307094,-0.12982479920620052,0.6568577164894642,-0.10902825469896754
337,1.4813298000080977,0.025490719417627546,-0.12448101324917861,0.041846334339418714,0.025974366994380837,-0.0773297278505382,0.019990479812942535,-0.031570457924822236,0.1468160762605974,-0.011043688347093825,-0.1293431016225558,0.6556129393500778,-0.10933363030247696
338,1.4870311000122456,0.025490719417627546,-0.12448101324917861,0.041846334339418714,0.02583077953263426,-0.0766495742490494,0.019938719387847206,-0.032154339726925316,0.14990455902073876,-0.011545592040262322,-0.1288361312242113,0.6542648375520528,-0.10962599520912683
339,1.4904441000107909,0.025424111726212804,-0.12510970328640886,0.04215029937534358,0.02568454840874557,-0.0759547364152993,0.01988464110504494,-0.03273578937841527,0.1529901571068956,-0.012049011050837414,-0.1283037499473331,0.6528112254373656,-0.10990509762424992
340,1.4950247000087984,0.025711273197060996,-0.12590143415802624,0.042463128294357444,0.025535686388336375,-0.07524526063951259,0.019828240781379028,-0.03331468743116138,0.15607216048802702,-0.012553868267216835,-0.12774582753423602,0.6512499229948311,-0.11017068699437003
341,1.498510300007183,0.02581578300435578,-0.1263892507201621,0.04261847881170204,0.025384206797055765,-0.07452119704944744,0.019769514632126353,-0.03389091402086376,0.15914984770842885,-0.013060085347034915,-0.12716224168636142,0.6495787586115789,-0.11042251423836069
342,1.5020316000009188,0.025865208163246466,-0.12682326670113925,0.04277565142491978,0.02523012352002693,-0.07378259961219288,0.01970845927270247,-0.034464348907797,0.16222248624541527,-0.013567582747212148,-0.12655287821211247,0.6477955718216606,-0.11066033197787195
343,1.5065012000122806,0.025906105003156314,-0.1272292847680787,0.04291684550842801,0.02507345100110884,-0.07302952613423484,0.019645071720219547,-0.03503487151802067,0.16528933287782308,-0.01407627975492215,-0.1259176311694478,0.6458982160487481,-0.11088389476678893
344,1.51066990000254,0.025984400620327985,-0.1276164563286163,0.043053956566067725,0.024914204241973863,-0.07226203825980591,0.019579349394897968,-0.035602360985028676,0.1683496340649219,-0.014586094519443165,-0.12525640300313964,0.6438845613399113,-0.11109295931948714
345,1.5163026000082027,0.0260799816936943,-0.1279685523871824,0.04321875777695133,0.02475239880100229,-0.07148020146753487,0.019511290121332427,-0.03616669619180919,0.17140262633530678,-0.015096944084860639,-0.12456910467660753,0.6417524970874892,-0.11128728473765223
346,1.5200520000071265,0.026142956148338774,-0.12831867722369608,0.043388179671067104,0.024588050791994685,-0.07068408506541285,0.019440892129613373,-0.03672775581328633,0.17444753668534252,-0.015608744423586934,-0.1238556557982438,0.6394999347360996,-0.11146663273543472
347,1.525416400007089,0.02626345265169494,-0.12886227171190606,0.04370291319348389,0.024421176882703344,-0.06987376218409408,0.01936815405630487,-0.037285418359115016,0.17748358298672492,-0.016121410470663695,-0.1231159847421533,0.6371248104718708,-0.1116307678627128
348,1.529378800012637,0.026353799043333105,-0.1291138334168979,0.04382625733931183,0.02425179429318414,-0.06904930976854973,0.019293074945280077,-0.03783956221680027,0.1805099744027182,-0.016634856158811936,-0.12235002876323393,0.6346250878910124,-0.11177945772624055
349,1.5332121000101324,0.026436084244740667,-0.12934283162671517,0.043920868143515,0.02407992079397004,-0.06821080856809507,0.019215654248415554,-0.03839006569511202,0.18352591181262312,-0.01714899445419448,-0.12155773410653034,0.6319987606448859,-0.11191247320846141
350,1.5373928000044543,0.02650356131965206,-0.1295340690687994,0.04401455250222107,0.02390557470406774,-0.06735834312481047,0.019135891826145838,-0.038936807067766546,0.18653058824402594,-0.01766373739285495,-0.12073905611079826,0.6292438550587744,-0.11202958868377061
351,1.541758800012758,0.02657261110496193,-0.12969514767316917,0.044101591457753976,0.02372877488877907,-0.06649200176037748,0.019053787947879722,-0.03947966461734576,0.1895231893123735,-0.018178996117797115,-0.11989395930622303,0.6263584327215939,-0.11213058223201501
352,1.5457236000074772,0.026637181668287987,-0.1298157101524473,0.04418342645951997,0.023549540757348785,-0.0656118765613526,0.018969343292279627,-0.04001851667942533,0.19250289366741669,-0.01869468091666828,-0.11902241750623996,0.6233405930438412,-0.11221523584902202
353,1.5496948000072734,0.02671718946912365,-0.12991516027416694,0.0442589982528513,0.023367892260440375,-0.06471806336290252,0.0188825589474057,-0.04055324168688277,0.1954688734460625,-0.019210701260010035,-0.11812441389340984,0.6201884757811279,-0.11228333565395379
354,1.5540467000100762,0.02677415411493009,-0.1300117270192122,0.04433659692574311,0.023183849887441498,-0.06381066173102493,0.018793436410726387,-0.041083718214356586,0.19842029473117295,-0.019726965840039565,-0.11719994109930859,0.6169002635207042,-0.11233467209328793
355,1.5601802000019234,0.026849835105570905,-0.13006186063396735,0.04440484950309373,0.022997434663600918,-0.0628897749432798,0.018701977588997127,-0.04160982502282782,0.20135631801584628,-0.020243382609924608,-0.11624900127839514,0.613474184128432,-0.1123690401412304
356,1.5644843000045512,0.026849835105570905,-0.13006186063396735,0.04440484950309373,0.022808668146998844,-0.06195550996805607,0.01860818479800877,-0.04213144110429552,0.20427609867271526,-0.02075985882351497,-0.11527160617582756,0.6099085131537298,-0.11238623949637122
357,1.5683499000006125,0.02678015981844413,-0.13020404413558873,0.04456870888515123,0.022617572425352624,-0.061007977442400274,0.018512060762207457,-0.04264844572651773,0.20717878742779705,-0.021276301075493588,-0.11426777718920142,0.606201576190065,-0.11238607477439853
358,1.5728751999995438,0.02699517667504186,-0.1300474606276177,0.044626740259601325,0.02242417011265974,-0.06004729164843411,0.018413608614187785,-0.043160718477789545,0.21006353083842863,-0.021792615341910033,-0.11323754542419033,0.6023517511886386,-0.11236835569669236
359,1.577662200012128,0.027110170435009132,-0.1299898019912112,0.04461860595891713,0.02222848434568017,-0.05907357048838861,0.018312831894061174,-0.043668139311730005,0.21292947177482355,-0.022308707021059332,-0.11218095174407416,0.5983574707229711,-0.1123328972746243
360,1.581244400003925,0.027203500947377217,-0.12988804445644903,0.044654043080669295,0.022030538780260175,-0.05808693545828309,0.018209734548701364,-0.04417058859204958,0.21577574990478604,-0.02282448097466895,-0.11109804681314524,0.5942172242021658,-0.1122795199893953
361,1.5856421000062255,0.027292019526963553,-0.1297677596524483,0.044707367372121484,0.021830357587499648,-0.057087511620277774,0.018104320930869087,-0.044667947137270514,0.21860150218112112,-0.02333984156935706,-0.10998889113398803,0.5899295600306984,-0.11220804996724995
362,1.5904344000009587,0.027397102239092357,-0.12960033576615151,0.04476085750337056,0.02162796544976532,-0.056075427573729214,0.01799659579821794,-0.04516009626537244,0.2214058633312807,-0.0238546927183252,-0.1088535550786331,0.5854930877126525,-0.11211831914991065
363,1.5943597000004956,0.027397102239092357,-0.12960033576615151,0.04476085750337056,0.021423387556551883,-0.05505081542497807,0.017886564312183502,-0.04564691783833611,0.2241879663487884,-0.0243689379232486,-0.1076921189135902,0.5809064798983979,-0.11201016546008068
364,1.5988817000034032,0.02733732812424133,-0.12954860385878533,0.04483771059396862,0.021216649600193233,-0.05401381075589916,0.017774232036757782,-0.046128294306558064,0.22694694298598733,-0.024882480316327775,-0.10650467281877089,0.5761684743717805,-0.11188343296187163
365,1.602432300001965,0.02733732812424133,-0.12954860385878533,0.04483771059396862,0.0210077777714262,-0.05296455259124382,0.017659604937151182,-0.046604108753109566,0.22968192424765993,-0.025395222702465123,-0.1052913169003151,0.5712778759759688,-0.11173797201601686
366,1.6065754000010202,0.027659986557198573,-0.1288901313705841,0.0447175022818333,0.020796798754809078,-0.05190318336480514,0.017542689378344137,-0.04707424493781346,0.23239204088507276,-0.02590706760153053,-0.10405216119734173,0.5662335584761851,-0.11157363942973927
367,1.6105633000115631,0.027743418756062867,-0.12868048298756435,0.04466333817058799,0.020583739723997466,-0.050829848884436576,0.017423492123530695,-0.04753858734111289,0.23507642389000402,-0.02641791729068038,-0.10278732568264795,0.5610344663576203,-0.1113902986011482
368,1.614744000005885,0.02782237354087511,-0.12835877220703285,0.04460950366089558,0.020368628336879725,-0.04974469829595494,0.017302020332456303,-0.047997021207706464,0.2377342049883144,-0.026927673846694748,-0.10149694025738659,0.5556796165569164,-0.1111878196580464
369,1.619359300006181,0.02789746314500399,-0.128050513260864,0.044580344228976436,0.020151492730574563,-0.04864788404595918,0.01717828155965202,-0.04844943258992507,0.24036451713262763,-0.02743623918829773,-0.10018114473975621,0.5501681001256873,-0.11096607959103479
370,1.6230615000094986,0.027995512560567946,-0.12765128965331676,0.04453461380932083,0.01993236151629314,-0.04753956184359638,0.017052283752567263,-0.048895708390825715,0.2429664949936925,-0.027943515118426535,-0.09884008884774251,0.5444990838246329,-0.11072496238080863
371,1.6265020999999251,0.028043779696452133,-0.12728909741653902,0.04448395065914919,0.01971126377406819,-0.046419890621306414,0.01692403524960342,-0.0493357364069783,0.24553927545000412,-0.0284494033664152,-0.09747393217595378,0.5386718116468799,-0.11046435911954539
372,1.6314939000003503,0.028043779696452133,-0.12728909741653902,0.04448395065914919,0.019488229047352604,-0.04528903249457709,0.016793544778050562,-0.04976940537092142,0.24808199807526893,-0.028953805630059237,-0.09608284416659761,0.5326856062692714,-0.11018416812629117
373,1.6356680000026245,0.02797025531156459,-0.127033254341776,0.04447800511718761,0.01926328733748983,-0.04414715272074117,0.01666082145192955,-0.05019660499326368,0.2505938056233053,-0.02945662361752797,-0.09466700407465023,0.5265398704304096,-0.10988429505626014
374,1.6398981000093045,0.028242393371772728,-0.12604783231929942,0.04432482259914497,0.019036469098058492,-0.04299441965684701,0.016525874769741832,-0.05061722600440731,0.25307384450997794,-0.029957759089091828,-0.09322660092727462,0.520234088234342,-0.10956465300396769
375,1.643733400007477,0.028333637196121454,-0.12554567930156205,0.04423828740939449,0.018807805229093585,-0.04183100471663449,0.016388714612129252,-0.05103116019587158,0.2555212652917721,-0.030457113898632496,-0.09176183347754761,0.513767826378866,-0.1092251626001251
376,1.6481857000035234,0.028402709217284473,-0.12500916204198145,0.04412068359148168,0.018577327071186915,-0.04065708232664768,0.016249351239446257,-0.051438300461194186,0.257935223140619,-0.030954590034904545,-0.09027291015255998,0.5071407353075186,-0.10886575210223082
377,1.652869900004589,0.028474661370118157,-0.12451609739929383,0.04400438709011725,0.01834506639946926,-0.03947282988151588,0.01610779528924677,-0.0518385408363891,0.2603148783145934,-0.03145008966251769,-0.08876004899595753,0.5003525502844075,-0.10848635747879978
378,1.6564073000045028,0.02859829542620099,-0.12323366434808423,0.04386907006875866,0.01811105541747693,-0.038278427698434474,0.01596405777368795,-0.05223177653994012,0.2626593966241139,-0.031943515162609376,-0.08722347760499466,0.49340309239112384,-0.1080869224871794
379,1.660736600009841,0.028682297267256997,-0.12259037380699124,0.04370413356440491,0.017875326750905248,-0.03707405897087671,0.015818150076853197,-0.052617904012309875,0.2649679498932842,-0.032434769173178175,-0.08566343306217558,0.4862922694450682,-0.10766739874490726
380,1.6647066000004995,0.028751732881812743,-0.12194599997722792,0.043584712936610426,0.017637913441251447,-0.035859909721567905,0.015670083951996653,-0.05299682095494429,0.2672397164160203,-0.03292375462904899,-0.08408016186156216,0.47902007683860776,-0.10722774579457296
381,1.669018700005836,0.028751732881812743,-0.12194599997722792,0.043584712936610426,0.017398848939349617,-0.034636168754752755,0.015519871518711433,-0.053368426368753705,0.2694738814066211,-0.0334103748014419,-0.0824739198298299,0.47158659829857313,-0.10676793116215291
382,1.673629600001732,0.028751732881812743,-0.12194599997722792,0.043584712936610426,0.01715816709880021,-0.03340302760778627,0.015367525260023796,-0.05373262059205183,0.27166963744444766,-0.033894533337117005,-0.08084497204215757,0.46399200656568845,-0.10628793040879407
383,1.6771498000016436,0.028751732881812743,-0.12194599997722792,0.043584712936610426,0.01691590216929658,-0.032160680502078876,0.015213058019415578,-0.054089305337934455,0.27382618491238603,-0.03437613429706861,-0.07919359273303885,0.4562365639936164,-0.10578772717602974
384,1.6814836000121431,0.028665423955782008,-0.12132754593846655,0.04354279554067184,0.01667208878985121,-0.03090932429342569,0.015056482997777133,-0.05443838373108063,0.27594273242878004,-0.03485508219474259,-0.0775200652021084,0.44832062306738435,-0.10526731322441713
385,1.6855658999993466,0.0289591726308669,-0.11889761116264398,0.0430608605020857,0.016426761981924054,-0.029649158421749693,0.0148978137502931,-0.05477976034395988,0.27801849727253025,-0.03533128203375167,-0.07582468171507732,0.44024462684104587,-0.10472668846559258
386,1.6899676000030013,0.029080007669807433,-0.11802476094019655,0.04285660737051848,0.016179957142455643,-0.02838038486028833,0.0147370641832633,-0.0551133412324289,0.2800527058010652,-0.035804639345064025,-0.0741077433998758,0.43200910929451536,-0.10416586098774744
387,1.6939732000028016,0.029080007669807433,-0.11802476094019655,0.04285660737051848,0.015931710036807423,-0.02710320806425273,0.014574248550861006,-0.05543903397070249,0.2820445938609023,-0.03627506022364186,-0.07236956013810308,0.4236146956096036,-0.10358484707453412
388,1.698041200012085,0.029042244724739544,-0.11729057501608225,0.04276596672511207,0.015682056791611824,-0.025817834918988293,0.014409381451830707,-0.05575674768568334,0.2839934071905265,-0.036742451364506955,-0.07061045045188775,0.41506210236536273,-0.10298367121741872
389,1.7025755000067877,0.02926193121174506,-0.11534910164426578,0.042393170068799765,0.015431033887534506,-0.02452447468766518,0.014242477826127514,-0.05606639309063621,0.28589840181532516,-0.03720672009821134,-0.06883074138626405,0.4063521376529387,-0.10236236612150319
390,1.7064422000112245,0.02927627951137381,-0.11437629932982013,0.0421770600672327,0.015178678151951248,-0.02322333895852659,0.01407355295150028,-0.05636788251819258,0.28775884443432814,-0.03766777442569205,-0.06703076838717226,0.3974857011102073,-0.10172097270484624
391,1.7116271000122651,0.02927627951137381,-0.11437629932982013,0.0421770600672327,0.01492502675154195,-0.021914641591722534,0.013902622440020542,-0.05666112995267264,0.28957401279851464,-0.03812552305248975,-0.06521087517519346,0.3884637838765555,-0.10105954009131853
392,1.715773600008106,0.02926666512980562,-0.11344208356867055,0.04208094397873628,0.014670117184804236,-0.020598598665756123,0.013729702234559358,-0.05694605106171202,0.29134319608045794,-0.03857987542231202,-0.06337141361513092,0.379287468468248,-0.10037812559703367
393,1.7194024000054924,0.029408259977765572,-0.11133239080655889,0.041583669228534584,0.014413987274489193,-0.01927542842356911,0.013554808605214089,-0.05722256322718112,0.29306569523509163,-0.03903074174992294,-0.06151274358155231,0.3699579285748978,-0.09967679471040303
394,1.7232728000089992,0.02947674733027591,-0.11020568312291953,0.04139852075903749,0.01415667515996161,-0.017945351218292802,0.013377958145687274,-0.05749058557538568,0.29474082335139173,-0.03947803305334138,-0.05963523282040867,0.3604764287776372,-0.09895562106586805
395,1.728690900010406,0.029489657046399633,-0.10911633606804258,0.041163072672404336,0.013898219289487214,-0.016608589458690082,0.013199167769619552,-0.05775003900653782,0.2963679059947799,-0.03992166118533146,-0.05773925680684764,0.35084432418966377,-0.09821468641136992
396,1.7321040000097128,0.029622422677428713,-0.10791856047482871,0.04093615899633416,0.013638658412449258,-0.01526536755431369,0.013018454706878653,-0.05800084622348725,0.29794628154006575,-0.040361538864169225,-0.055825198599340604,0.34106306001991143,-0.09745408056962133
397,1.7358168000064325,0.029430710312745842,-0.10685621213866515,0.04071836868242053,0.013378031571496817,-0.013915911860405278,0.012835836499806377,-0.058242931759703284,0.29947530149475754,-0.04079757970367074,-0.05389344869024452,0.3311341710606701,-0.09667390139325222
398,1.7396386000036728,0.029612033803372052,-0.10427084344306436,0.04024398910975486,0.013116378094627056,-0.012560450622559297,0.01265133099942534,-0.05847622200649904,0.3009543308125815,-0.04122969824246762,-0.05194440485292063,0.32105928110005133,-0.09587425471390576
399,1.7440478000062285,0.02966921893991595,-0.10297484335082527,0.04001851082291576,0.01285373758720385,-0.011199213921175235,0.012464956361607311,-0.058700645239489486,0.30238274819706246,-0.0416578099725169,-0.049978471985533374,0.31084010226026626,-0.09505525428536782
400,1.7484800000092946,0.02972422026622252,-0.10169907512299028,0.03979980067422965,0.012590149923914976,-0.00983243361572115,0.012276731043204972,-0.058916131644275525,0.30375994639503046,-0.04208183136683325,-0.047996061951654165,0.30047843426275067,-0.09421702172081657
401,1.7518909000064014,0.02972800308710663,-0.10032185656231352,0.03951050429433833,0.01232565524067018,-0.008460343288830928,0.012086673798148883,-0.059122613341347365,0.3050853324799274,-0.042501679906432034,-0.04599759341779591,0.2899761636212396,-0.09335968642428542
402,1.7564835000084713,0.029683321433578762,-0.09897360897287828,0.03924791810830944,0.012060293926442419,-0.0070831781902570955,0.011894803673511384,-0.05932002441020078,0.3063583281248008,-0.0429172741064729,-0.04398349168800509,0.27933526276396126,-0.09248338551643684
403,1.7600963000004413,0.029774763325736052,-0.09602842945863906,0.03867508776138732,0.011794106615054503,-0.005701175180700403,0.01170114000553909,-0.05950830091266091,0.3075783698648833,-0.04332853354159442,-0.04195418853563869,0.2685577890861847,-0.09158826375474995
404,1.7660745000030147,0.02983833722478738,-0.09456764462348932,0.038489932742880754,0.011527134176913362,-0.004314572675536847,0.011505702415655683,-0.059687380915408456,0.3087449093496677,-0.0437353788704309,-0.03991012203245369,0.2576458839344189,-0.09067447344822938
405,1.7708281000086572,0.02983833722478738,-0.09456764462348932,0.038489932742880754,0.011259417710694157,-0.002923610588462194,0.011308510806436595,-0.059857204511703614,0.30985741358439856,-0.044137731859303524,-0.03785173637513727,0.24660177152361684,-0.08974217436674733
406,1.7749348000070313,0.029660214814171443,-0.09316301243462781,0.038162978265789405,0.010990998534976367,-0.0015285302750734906,0.011109585357557135,-0.0600177138423036,0.3109153651609142,-0.04453551540507924,-0.035779481709406605,0.23542775778879885,-0.08879153364513527
407,1.779546500009019,0.029806868599883546,-0.09006358582646458,0.03754569747753468,0.010721918179834011,-0.00012957447640645845,0.0109089465217156,-0.06016885311557033,0.311918262477781,-0.04492865355719167,-0.033693813951807296,0.2241262291725613,-0.08782272568214637
408,1.7831767000025138,0.029806868599883546,-0.09006358582646458,0.03754569747753468,0.010452218378382117,0.001273012737552943,0.010706615020532882,-0.060310568626765204,0.31286561994967266,-0.04531707153881896,-0.031595194609339794,0.21269965134999388,-0.08683593203441416
409,1.7869572000054177,0.0297859078694401,-0.08855704255660353,0.037436500194202485,0.010181941058281484,0.0026789860243651054,0.01050261184043002,-0.06044280877652871,0.31375696820596066,-0.045700695767214326,-0.029484090597042975,0.20115056789257607,-0.08583134130553603
410,1.7925698000035482,0.02981387680555214,-0.08526333927042701,0.03674604364039575,0.009911128333203727,0.004088098825624423,0.010296958228485165,-0.06056552408854287,0.3145918542784918,-0.046079453873185905,-0.027360974053663993,0.1894815988726751,-0.08480914903041431
411,1.796124400003464,0.02982379572164068,-0.08360056508669633,0.036453088919094295,0.009639822494258639,0.005500103423421524,0.010089675688271302,-0.060678667226375285,0.31536984177854155,-0.04645327471972381,-0.025226322155543268,0.17769543941031246,-0.08376955755499046
412,1.8000351000082446,0.02983584215699566,-0.08194622223946098,0.03612543847397215,0.009368066001385846,0.0069147509967641945,0.00988078597567603,-0.060782193009503924,0.3160905110629395,-0.04682208841977256,-0.02308061692884324,0.16579485816391318,-0.08271277591151137
413,1.804231400004937,0.02980502580015665,-0.08031190948760801,0.035857898386334956,0.00909590147471277,0.008331791677941718,0.009670311094704731,-0.06087605842852263,0.3167534593893748,-0.047185826353147955,-0.02092434506024904,0.15378269576679376,-0.08163901968947018
414,1.808204900007695,0.02980502580015665,-0.08031190948760801,0.035857898386334956,0.008823371685880856,0.00975097460881793,0.009458273293268355,-0.06096022265952776,0.3173583010609011,-0.04754442118259827,-0.018757997706268775,0.14166186321118487,-0.08054851090236743
415,1.812479100000928,0.029666485729116725,-0.07875619689273089,0.03563584078837416,0.00855051954934194,0.011172047997038902,0.00924469505895711,-0.0610346470776867,0.31790466755966934,-0.04789780686901056,-0.016582070301260507,0.12943534018162278,-0.07944147785044067
416,1.816475100000389,0.029748133541321924,-0.07517430169344928,0.03500913060116941,0.00827738811362664,0.012594759172141786,0.009029599114801189,-0.061099295269989855,0.31839220766992554,-0.048245918685763535,-0.014397062364312194,0.11710617333957886,-0.07831815497951376
417,1.820046700013336,0.029684415125103968,-0.07347738573419979,0.034650431530232256,0.008004020552586566,0.01401885464155187,0.0088130084150197,-0.06115413304718761,0.3188205875903221,-0.048588693232229384,-0.012203477305099995,0.10467747456122982,-0.07717878273611938
418,1.8235156000009736,0.02970998163978772,-0.0717053373466177,0.03433817928788996,0.007730460156612199,0.01544408014645557,0.008594946140758867,-0.06119912845491465,0.31918949103559796,-0.048926068446427676,-0.010001822228849374,0.09215241913030127,-0.07602360741905079
419,1.828602900000988,0.029682444029465974,-0.06991112063703883,0.03408923215959017,0.007456750323828245,0.016870180717537517,0.008375435695820513,-0.06123425178400458,0.31949861932769325,-0.04925798361683526,-0.007792607740522387,0.07953424388794555,-0.07485288102750076
420,1.832168000008096,0.029598122700067963,-0.06817835123459208,0.03376953769550248,0.0071829345512683385,0.01829690073057048,0.00815450070238181,-0.061259475579997794,0.31974769147637444,-0.04958437939335664,-0.0055763477483534146,0.06682624534163992,-0.07366686110594722
421,1.8358840000000785,0.02956544156017955,-0.06636684954328816,0.03351258441163157,0.006909056426030853,0.019723983961847484,0.007932164996707273,-0.061274774651846435,0.3199364442494529,-0.04990519779745983,-0.003353559266854353,0.0540317777351147,-0.07246581058594742
422,1.8398792000079995,0.029490077651891072,-0.0645870194018836,0.033204773038200054,0.006635159616417613,0.021151173643445872,0.007708452624853889,-0.06128012607982,0.32006463223269044,-0.05022038223148383,-0.0011247622194090106,0.041154251081342706,-0.07124999762500345
423,1.8437884000013585,0.029470513292285175,-0.06278097165037548,0.03293972428954366,0.0063612878630572006,0.02257821251831372,0.007483387838370263,-0.06127550922261594,0.3201320278794936,-0.050529877487124224,0.0011095207594250282,0.028197129160638743,-0.07001969544266368
424,1.8483248000120511,0.029403008671233685,-0.06096559326378392,0.032664691803815066,0.006087484970014561,0.024004842895169486,0.007256995089990668,-0.0612609057236802,0.32013842155050515,-0.050833629753104285,0.0033487645217902605,0.015163927485934986,-0.06877518215402566
425,1.85222960000101,0.029403008671233685,-0.06096559326378392,0.032664691803815066,0.0058137947958885865,0.025430806703206285,0.007029299029324811,-0.06123629951674284,0.32008362154320985,-0.051131586622039475,0.005592441604463627,0.002058211237311152,-0.06751674060080708
426,1.8572618000034709,0.02919975034380799,-0.0592636477742824,0.03243433229732509,0.0055402612448993555,0.026855845546592576,0.006800324498544069,-0.061201676830573995,0.31996745411167904,-0.051423697096503844,0.007840022426737788,-0.01111640683212992,-0.06624465818015228
427,1.8623885000124571,0.029118676165968495,-0.05365838993089931,0.0315790769762595,0.005266928257966645,0.028279700758761586,0.006570096528064986,-0.06115702619296636,0.3197897634765876,-0.051709911594307545,0.01009097548813746,-0.02435626851694193,-0.06495922667134232
428,1.8667821000126423,0.029059764961074087,-0.051811077444773396,0.03135191602998305,0.004993839803781388,0.029702113456482267,0.006338640332230731,-0.061102338433950666,0.3195504118256412,-0.051990181952995096,0.012344767565860792,-0.0376576723044641,-0.0636607420605771
429,1.8703077000100168,0.029009590634134698,-0.04989974803173443,0.031077383121613157,0.004721039869871672,0.031122824593705172,0.0061059813049912336,-0.061037606688250944,0.31924927930455993,-0.052264461433574834,0.014600863911837555,-0.05101687554228929,-0.062349504363998505
430,1.8736596000089776,0.028888648036763182,-0.04805725697381967,0.030796998222600715,0.004448572453664882,0.03254157501517697,0.005872145015582638,-0.06096282639698642,0.3188862639987716,-0.0525327047234906,0.016858728449297863,-0.0644300966259593,-0.06102581744912316
431,1.8774632999993628,0.028888648036763182,-0.04805725697381967,0.030796998222600715,0.004176481553547568,0.03395810550981773,0.005637157204206707,-0.060877995308627246,0.31846128190597395,-0.052794867938847155,0.019117823968747172,-0.07789351720477572,-0.05968998885485347
432,1.881695200005197,0.028888648036763182,-0.04805725697381967,0.030796998222600715,0.0039048111599245933,0.03537215686385579,0.005401043777710725,-0.060783113479211545,0.31797426689973096,-0.05305090862590132,0.021377612323245455,-0.09140328440361736,-0.05834232961023519
433,1.8854664000100456,0.02870187161713901,-0.046292129681078646,0.030602236469628414,0.0036336052462791007,0.03678346991371522,0.005163830805268456,-0.060678183271831526,0.31742517068427417,-0.0533007857618311,0.02363755462289035,-0.10495551305866059,-0.05698315405212962
434,1.890098900010344,0.028544085502039896,-0.04058231912768,0.02979564601293727,0.0033629077602348252,0.03819178559865156,0.004925544514062698,-0.060563209355396455,0.3168139627406824,-0.05354445975479549,0.025897111428406352,-0.11854628796490531,-0.055612779641967966
435,1.893959200009704,0.02846780837592197,-0.0387165186640128,0.029581598229640436,0.003092762614622301,0.03959684501313149,0.0046862112849699235,-0.06043819870268075,0.3161406302646212,-0.05378189244329802,0.02815574294374441,-0.13217166613341927,-0.0542315267817541
436,1.8981520000088492,0.028324436804591163,-0.03685112009300632,0.029375064794345027,0.002823213678550458,0.04099838945895274,0.00444585764824751,-0.06030316058766549,0.3154051780958276,-0.05401304709486779,0.030412909207598385,-0.14582767905622465,-0.05283971862948139
