,time,x,y,z,vx,vy,vz,ax,ay,az,jx,jy,jz
0,0.0037962999922456,0.0,0.0,0.0,0.0001413573651419356,-0.00032855115875810866,0.00014872224769343535,-0.0007401606597778375,0.007269891827313106,0.004196778780256395,-0.012451798309498345,0.008056201153358382,-0.015941609205980298
1,0.0080023999908007,-1.8888527187401324e-05,-3.520931295222941e-06,3.1396767813315595e-05,0.0001227024734835101,0.0009976385395309483,0.0010052116448753697,-0.0014710878893122769,0.01599159174766372,0.008712767431154922,-0.017300798780646123,0.03958015639197228,-0.004194746986167546
2,0.012283899995964,-1.8888527187401324e-05,-3.520931295222941e-06,3.1396767813315595e-05,0.00010163694579862277,0.0023369051331460764,0.0018661406404353292,-0.002210553182899636,0.024703757342814058,0.013205144076036313,-0.022127064429344243,0.07069673942590178,0.007308701984643607
3,0.0176785999938147,-1.8888527187401324e-05,-3.520931295222941e-06,3.1396767813315595e-05,7.811048817205624e-05,0.0036889781865931553,0.0027312304656264557,-0.00295835849028839,0.033402365848910695,0.017671512741111613,-0.026927781751674693,0.10138619586295934,0.018560675963512952
4,0.0219409999990602,-1.8888527187401324e-05,-3.520931295222941e-06,3.1396767813315595e-05,5.207358942876278e-05,0.005053582818375967,0.0036002004835703973,-0.0037142996582397543,0.04208339930267478,0.0221094917450699,-0.031700141983743255,0.13162905607225023,0.02955330424753368
5,0.0261719999980414,0.00028979619467376803,-0.00011899636822206846,0.0003339454796969009,2.347756206087802e-05,0.00643043991823319,0.004472768408164616,-0.004478166533248676,0.05074284785354298,0.026516715779456575,-0.036441343455654654,0.1614061537541132,0.04027891542192606
6,0.0304527999978745,0.0002296253795904529,-0.00013707490750799472,0.00034768819955951206,-7.725417365794635e-06,0.007819266366635021,0.005348650523833821,-0.0052497430690952055,0.05937671306632851,0.03089083797451472,-0.04114859394421792,0.19069864423396626,0.05073004541979596
7,0.0347106999979587,4.485135450224971e-05,-6.672114252085258e-05,0.0001458710178480656,-4.158226836647925e-05,0.009219775256284148,0.006227561905884562,-0.006028807439139114,0.06798101121076648,0.03522953194817587,-0.04581911302190943,0.21948802245848037,0.06089944538347873
8,0.0382178999861935,4.015142566177534e-05,-5.7913116984180046e-05,0.00018151873028884104,-7.813896729337921e-05,0.01063167611536438,0.007109216641221856,-0.006815132153266057,0.07655177653432448,0.03953049383590523,-0.0504501343996228,0.2477561406728293,0.07078008931760758
9,0.0428930999914882,4.049460562775167e-05,-8.41799055753008e-05,0.00018209498053831373,-0.0001174405087323385,0.012054675132279206,0.007993328049186892,-0.007608484179389213,0.08508506451468116,0.04379144429912812,-0.055038908260740135,0.27548522575811735,0.08036518152427839
10,0.0475832999945851,4.776299811780091e-05,-8.845075294903939e-05,0.0002195258304144795,-0.00015953086757898965,0.013488475381621876,0.008879608902275427,-0.008408625069405939,0.09357695508830248,0.048010130509989694,-0.059582703584066296,0.30265789620847056,0.08964816381093009
11,0.0512499999895226,3.990093143455601e-05,-0.00010441499540150316,0.0002418297082266229,-0.00020445296183244126,0.014932777051118219,0.009767771646497248,-0.009215311089504834,0.10202355585157623,0.052184328110227544,-0.06407881045317985,0.3292571787276926,0.09862272246182055
12,0.056178999991971,3.082455159609776e-05,-0.00013531316857464122,0.00023327959433728295,-0.00025224861614378297,0.016387277669283388,0.010657528621138205,-0.01002829335471445,0.11042100523100189,0.05631184314196796,-0.06852454234976839,0.3552665244258269,0.10728279496425261
13,0.0596447999996598,3.082455159609776e-05,-0.00013531316857464122,0.00023327959433728295,-0.00030295852615586463,0.017851672333534078,0.01154859227768778,-0.010847317967580903,0.11876547561897348,0.060390513948290585,-0.07291723842853308,0.38066982459643645,0.11562257648099158
14,0.0641812999965623,3.082455159609776e-05,-0.00013531316857464122,0.00023327959433728295,-0.000356622223669937,0.01932565393849853,0.012440675397696952,-0.011672126160857835,0.12705317647173836,0.0644182130414429,-0.07725426577126786,0.40545142605590795,0.12363652606061601
15,0.0677981999906478,3.082455159609776e-05,-0.00013531316857464122,0.00023327959433728295,-0.00041327804267382703,0.02080891340426765,0.013333491309333154,-0.01250245444408839,0.13528035736616512,0.06839284893662584,-0.08153302161774122,0.4295961460266094,0.13131937257785628
16,0.0720111999980872,0.0003503852059753682,-0.0002891925201441116,0.0006078972523559248,-0.00047296308626536407,0.02230113990433204,0.014226754102401576,-0.013338034753955291,0.14344331101200763,0.07231236794931434,-0.0857509355710354,0.45308928654627484,0.13866612039629939
17,0.0754473999986657,0.0003503852059753682,-0.0002891925201441116,0.0006078972523559248,-0.0005357131945037726,0.023802021092951476,0.015120178841604626,-0.014178594608271552,0.15153837621641147,0.07617475595412193,-0.0899054717750276,0.475916648386568,0.14567205474617323
18,0.0790502999880118,0.0003503852059753682,-0.0002891925201441116,0.0006078972523559248,-0.0006015629132207044,0.02531124333170536,0.016013481777814403,-0.015023857263481105,0.15956194079747238,0.07997804010326581,-0.09399413106172959,0.49806454446437187,0.15233274681027037
19,0.0824310999887529,0.0005728669276194903,-0.0004433480033362851,0.000992168059885387,-0.0006705454638215008,0.026828491914975265,0.01690638055713625,-0.015873541875535434,0.16751044444372315,0.08372029050274016,-0.09801445306623768,0.5195198127299727,0.15864405851142854
20,0.0864778999966802,0.00019694646787275154,-0.0004541953930848663,0.0007245552984458761,-0.00074269271410616,0.028353451294113312,0.01779859442754508,-0.01672736366400924,0.17538038151649576,0.08739962184435773,-0.10196401830708246,0.5402698285169494,0.16460214699535175
21,0.0904753999930108,0.00019694646787275154,-0.0004541953930848663,0.0007245552984458761,-0.0008180351501383227,0.02988580530005327,0.01868984444287999,-0.017585034079315172,0.1831683037921807,0.09101419499187519,-0.10584045022980804,0.5603025163392388,0.17020346880293116
22,0.0944564999954309,0.00019694646787275154,-0.0004541953930848663,0.0007245552984458761,-0.0008966018491894016,0.031425237364124385,0.019579853663986773,-0.018446260972875002,0.19087082314148546,0.09456221851947494,-0.10964141721165399,0.5796063611215316,0.1754447837266088
23,0.0979763999930583,0.00011250090692203677,-0.0004560112502567579,0.00035745664484508523,-0.0009784204537837556,0.032971430736831675,0.02046834735680236,-0.019310748770101936,0.19848461414287616,0.0980419502009367,-0.11336463452525913,0.5981704188498529,0.18032315834571935
24,0.1012789999949745,7.141214587049918e-05,-0.00045622037528434035,0.00039470639627941703,-0.0010635171468695542,0.034524068704370414,0.0213550531871797,-0.020178198646046388,0.20600641662747193,0.10145169844789398,-0.11700786625935511,0.6159843266299008,0.1848359692361462
25,0.1047576999990269,8.392700618346091e-05,-0.0005078543329856536,0.00039802967104206,-0.0011519166281386947,0.03608283480264693,0.022239701412256535,-0.02104830870355524,0.21343303815275202,0.104789823695635,-0.12056892719446843,0.6330383121414609,0.18898090585003435
26,0.1091948999965097,8.435172367674125e-05,-0.0005337557389876609,0.00039430276603937453,-0.0012436420915178277,0.037647413028582405,0.023122025068176594,-0.02192077415379252,0.22076135640252856,0.10805473973497343,-0.12404568463170208,0.6493232024779612,0.19275597306171732
27,0.1133398999954806,8.435172367674125e-05,-0.0005337557389876609,0.00039430276603937453,-0.0013387152038512146,0.03921748804848114,0.024001760153977092,-0.022795287498967406,0.2279883215107341,0.11124491498878215,-0.1274360601727236,0.6648304323610021,0.1961594933764338
28,0.1183411999954842,8.435172367674125e-05,-0.0005337557389876609,0.00039430276603937453,-0.0014371560847947812,0.040792745403249654,0.024878645811461795,-0.023671538717113624,0.23511095830667084,0.11435887373185379,-0.1307380314491439,0.6795520517204825,0.19919010879883556
29,0.1219608999963384,0.00017434175133365393,-0.0006726369258850163,0.00047525751638460487,-0.0015389832879393387,0.04237287171025845,0.02575242450088489,-0.024549215448762724,0.24212636847947078,0.11739519725282206,-0.1339496337995312,0.693480732631728,0.20184678235871675
30,0.1261023999977624,5.9672811869620164e-05,-0.0006169623091665107,0.0003803142086734219,-0.0016442137831795503,0.04395755486164378,0.026622842172276763,-0.02542800318535206,0.24903173265962145,0.12035252495695101,-0.13706896189236675,0.7066097756018419,0.20412879929182534
31,0.1304022999975131,1.6441889252645587e-05,-0.0005822119168969282,0.000383801009970057,-0.001752862940343812,0.04554648421885267,0.027489648432249054,-0.026307585459207104,0.2558243124155189,0.12322955540867295,-0.1400941712933121,0.7189331151983069,0.2060357678740555
32,0.1347905999864451,6.526710342560704e-06,-0.0005926730599298272,0.0003959749841864593,-0.001864944514098776,0.047139350803240186,0.028352596706122484,-0.027187644034936422,0.2625014521631189,0.12602504731283246,-0.14302347997522408,0.7304453250136959,0.20756761990775793
33,0.139095599995926,4.549253409668656e-06,-0.000645743863012318,0.00038469515312705206,-0.0019804706301408113,0.04873584748253437,0.029211444395227507,-0.02806785910207679,0.2690605809868685,0.12873782043367,-0.1458551697694212,0.7411416219611743,0.20872461085934577
34,0.1427578999864636,-8.423094305550074e-06,-0.0006649472630311184,0.00037506352200498126,-0.0020994517726852136,0.05033566915299073,0.03006595302923455,-0.028947909468824973,0.2754992143702134,0.13136675645065732,-0.1485875877567738,0.7510178698963181,0.20950731964781508
35,0.1469236999982968,-2.9828618682951454e-05,-0.0006775058078079384,0.00037159670040843825,-0.0022218967732625288,0.05193851291706484,0.030915888413377574,-0.029827472756692012,0.2818149558340902,0.13391079975037481,-0.1512191475972604,0.7600705825616125,0.20991664808424193
36,0.1502750999934505,-5.2266262969579384e-05,-0.0006951628498399395,0.00036039413665130355,-0.002347812800829872,0.053544078256438296,0.03176102077044143,-0.03070622559591519,0.2880054984819311,0.1363689581537,-0.15374833079670602,0.7682969258508395,0.20995381996275989
37,0.1538660999940475,-7.839856307921943e-05,-0.000713806900580666,0.00035537364429822174,-0.002477205353203664,0.05515206720024029,0.032601124877390725,-0.03158384382146255,0.2940686264498271,0.13874030357765738,-0.1561736879094914,0.7756947193914179,0.2096203798039639
38,0.1578846999909728,-0.00010120281466464889,-0.0007314237489325073,0.00034888596633341856,-0.0026100782498187183,0.056762184488314216,0.033435980196525106,-0.032460002669464846,0.3000022162606193,0.1410239726313601,-0.15849383967609593,0.7822624374436103,0.20891819125212582
39,0.1613244999898597,-0.00014704319643527638,-0.0007718133226256238,0.0003149364684923592,-0.002746433625817133,0.05837413772938589,0.03426537100105307,-0.03333437697390961,0.3058042380808033,0.14321916714555602,-0.16070747809441352,0.7879992091163599,0.20784943512804444
40,0.1648286999989068,-0.00016997748920556183,-0.0008106706260477297,0.0003125319983303331,-0.0028862719274689824,0.05998763755399752,0.035089086494983976,-0.03420664136343202,0.3114727568792578,0.14532515463537143,-0.16281336742385788,0.7929048179003708,0.2064166071397891
41,0.1682948999950895,-0.00020054851969604853,-0.0008257614559214092,0.00030281692581228943,-0.003029591908925329,0.06160239776207908,0.03590692092724523,-0.035076470458037586,0.3170059334869257,0.1473412686959294,-0.16481034512135187,0.7969797005198961,0.20462251525402697
42,0.1719216999917989,-0.00022047945649600483,-0.0008545791240518768,0.00030070928497085293,-0.0031763906303025895,0.06321813546503662,0.036718673699939364,-0.035943539065592264,0.3224020255567031,0.14926690933060247,-0.16669732270837406,0.8002249451055402,0.20247027673105308
43,0.1760214999958407,-0.00025319695130963086,-0.0008924177288750173,0.0002917187849308505,-0.0033266634570958387,0.06483457122224423,0.037524149470663466,-0.03680752237791592,0.3276593884229123,0.15110154321174163,-0.1684732865683155,0.8026422886912261,0.1999633148270668
44,0.1804248999978881,-0.00025319695130963086,-0.0008924177288750173,0.0002917187849308505,-0.0034804040609171683,0.06645142917183451,0.03832315824882078,-0.037668096166316306,0.33277647585985987,0.15284470387380483,-0.17013729867347988,0.8042341140393054,0.19710535516765754
45,0.1844374999927822,-0.00025319695130963086,-0.0008924177288750173,0.0002917187849308505,-0.0036376044215537793,0.06806843715569086,0.03911551548586201,-0.03852493697640131,0.3377518407391065,0.15449599183889082,-0.17168849724114144,0.8050034457986138,0.19390042179687456
46,0.1886697999871103,-8.111544488902716e-05,-0.0010298416828369468,0.0004738986374647821,-0.003798254830339079,0.0696853268385526,0.03990104215940158,-0.03937772232200844,0.34258413558519724,0.15605507467476468,-0.17312609731815504,0.8049539460010965,0.1903528329066628
47,0.1927423999877646,-8.111544488902716e-05,-0.0010298416828369468,0.0004738986374647821,-0.003962343894828635,0.07130183382115242,0.040679564851161996,-0.040226130878091564,0.3472721130297241,0.1575216869855441,-0.17444939129369363,0.8040899089034332,0.18646719625184438
48,0.1969764999957988,-8.111544488902716e-05,-0.0010298416828369468,0.0004738986374647821,-0.004129858544771447,0.07291769774731341,0.04145091581870725,-0.04106984267240652,0.351814626163718,0.1588956303352949,-0.17565774933977013,0.8024162551808915,0.182248404256219
49,0.2011173999926541,-0.00030668966357739064,-0.0011011787693874678,0.0002475396855245338,-0.004300784039365611,0.0745326624049405,0.04221493306093395,-0.041908539275838784,0.356210628788486,0.16017677310486533,-0.17675061977928144,0.7999385254814234,0.17770162881574098
50,0.2051928999862866,-0.0003805210855602046,-0.0010742077975428109,0.00021367855888354792,-0.0044751039757861145,0.07614647582084962,0.0429714603772963,-0.04274190399121816,0.36045917556513457,0.161365050282368,-0.17772752938139436,0.7966628733487957,0.17283231580510644
51,0.2094475999911083,-0.0003904576842692767,-0.0010907295992061516,0.0001955666796247092,-0.0046528002989711225,0.0777588903493862,0.043720347420748755,-0.0435696220404672,0.3645594220631392,0.16246046318779714,-0.17858808358417422,0.792596057524305,0.16764617929445
52,0.2128031999891391,-0.00039411664315128615,-0.001117008687591979,0.00019038007278149378,-0.004833853312651823,0.07936966275479286,0.04446144974439798,-0.044391380749931875,0.3685106247084397,0.16346307913234642,-0.17933196664443915,0.787745433637374,0.1621491954832079
53,0.2172608999971998,-0.00039411664315128615,-0.001117008687591979,0.00019038007278149378,-0.005018241691609602,0.08097855428729371,0.04519462884186351,-0.045206869733745395,0.3723121406316615,0.16437303101306827,-0.17995894171490276,0.7821189452960498,0.15634759635855158
54,0.2208623999904375,-0.00039411664315128615,-0.001117008687591979,0.00019038007278149378,-0.005205942495143057,0.0825853307528714,0.04591975218135357,-0.04601578107507829,0.37596342741717537,0.1651905168435916,-0.18046885084874853,0.7757251145891374,0.15024786308613217
55,0.2258673999895109,-0.00020496644905817482,-0.0012189085241143902,0.00036640252905556503,-0.005396931181726135,0.084189762576721,0.046636693233470375,-0.04681780950513036,0.37946404275382417,0.1659157992216888,-0.1808616149318596,0.7685730320124022,0.14385671914120066
56,0.2302081999951042,-0.0003418768180730113,-0.0011813665687861402,0.0002132895919465703,-0.005591181624837482,0.08579162486037292,0.04734533149276636,-0.04761265257972243,0.3828136439882583,0.16654920473455423,-0.18113723354300673,0.7606723458319465,0.1371811231884835
57,0.2336163999862037,-0.0004110987224993287,-0.0011527549654679627,0.00015756038363410544,-0.00578866612993996,0.08739069743248519,0.04804555249308035,-0.04840001085334853,0.38601198758193545,0.16709112330272738,-0.18129578474237537,0.7520332508985234,0.13022826171949395
58,0.2371775999927194,-0.0004262818329834241,-0.001159354813337216,0.00015753101168331616,-0.005989355452588158,0.08898676489331298,0.0487372478166899,-0.049179588050552,0.38905892847294915,0.16754200746366393,-0.18133742478888862,0.7426664769271825,0.1230055414562508
59,0.2417413999937707,-0.0004373963089313639,-0.001168042569332902,0.00015862089524769284,-0.006193218817640575,0.09057961665287083,0.04942031509732354,-0.04995109123449167,0.39195441934395786,0.1679023715960252,-0.1812623877868604,0.7325832762572624,0.1155205815306523
60,0.2466830999910598,-0.0004453726429267551,-0.0011719133143931802,0.0001564126315487208,-0.00640022393955215,0.09216904696281118,0.050094658017083335,-0.05071423097256754,0.39469850979759374,0.1681727910858236,-0.1810709852625893,0.7217954111083339,0.10778120544901867
61,0.2508872999896994,-0.00047291165082312495,-0.0011777063617284705,0.00016478594277305074,-0.006610337043721744,0.09375485494205026,0.05076018629733505,-0.0514687214989782,0.3972913454408322,0.16835390143562484,-0.1807636056715766,0.7103151403482698,0.09979543285156618
62,0.2550223999860463,-0.0005044592657797003,-0.0011686488899587404,0.00018582816600362306,-0.006823522888868258,0.09533684459617989,0.051416815683629824,-0.052214280874085625,0.39973316687990107,0.16844639731807082,-0.18034071383712683,0.6981552057901677,0.09157147107681446
63,0.2592952999984845,-0.0005044592657797003,-0.0011686488899587404,0.00018582816600362306,-0.007039744790408027,0.09691482483071144,0.052064467924727895,-0.0529506311404664,0.4020243086274037,0.16845103157504698,-0.1798028503211599,0.6853288180353728,0.08311770654115251
64,0.2627245999901788,-0.00033586284870654073,-0.0012589209831925414,0.00036729012043155973,-0.00725896464480526,0.09848860945820519,0.052703070745801626,-0.053677498475531646,0.40416519792342875,0.1683686141638768,-0.17915063072813517,0.6718496418803492,0.07444269594399837
65,0.2664757999882567,-0.0005317563687315659,-0.0011734707398979483,0.00026287912801598056,-0.007481142954866407,0.10005801719934593,0.053332557815901196,-0.05439461334060155,0.4061563534725107,0.1682000110519816,-0.1783847449430569,0.657731781305617,0.0655551573091822
66,0.2707866999990074,-0.0006181493070640758,-0.0011191477149795782,0.00022700321501227183,-0.0077062388559485055,0.10162287167803181,0.05395286870977234,-0.055101710626324185,0.40799838409839295,0.1679461430614991,-0.1775059563045976,0.6429897640654237,0.056463960873362626
67,0.2758929999981774,-0.0006181493070640758,-0.0011191477149795782,0.00022700321501227183,-0.007934210143050771,0.1031830014105505,0.05456394886412174,-0.05579852979433184,0.4096919873186339,0.16760798466540608,-0.17651510071444335,0.6276385258972326,0.04717811983245163
68,0.2801770999940345,-0.0006181493070640758,-0.0011191477149795782,0.00022700321501227183,-0.008165013298757963,0.10473823978892292,0.05516574952843178,-0.05648481501503212,0.4112379478411774,0.16718656273673962,-0.17541308568402927,0.6116933943705124,0.03770678095717443
69,0.2844340999872656,-0.000474843892901805,-0.0011860992981997372,0.00042469366000835073,-0.008398603522003301,0.10628842505850185,0.055758227710431534,-0.05716031530143506,0.4126371359850884,0.16668295525255952,-0.174200889319896,0.5951700723946755,0.028059215089025986
70,0.2886712999898009,-0.0006474230012472803,-0.0010629036575547542,0.00036205450974550156,-0.00863493475761812,0.10783340028991899,0.05634134611633656,-0.057824784638921475,0.4138905060277302,0.16609828995433856,-0.1728795592489581,0.5780846214063527,0.01824480752800586
71,0.2927286999911302,-0.0007705458310656604,-0.0009478885100667922,0.00029896022596964623,-0.008873959726634809,0.1093730133454798,0.05691507308597499,-0.058477982110861665,0.41499909448073485,0.16543374296651178,-0.1714502114850357,0.5604534442565132,0.008273048323618026
72,0.2969001999881584,-0.0008189875865075589,-0.0008990113783603878,0.0003113476393462717,-0.009115629957309003,0.11090711684011213,0.057479382522922236,-0.059119672019998036,0.41596401829718443,0.16469053737495415,-0.16991402923805848,0.5422932678182165,-0.001846477519288122
73,0.3010289999947417,-0.0008666340942125655,-0.0008360776561284143,0.00031746026984436526,-0.009359895816826487,0.11243556809697974,0.05803425381977225,-0.05974962400550905,0.41678647301248783,0.1638699417671952,-0.16827226166740453,0.5236211253360441,-0.012104099908185506
74,0.3043971999868518,-0.0009077399761830248,-0.0007729805240346885,0.0003348278127690219,-0.009606706543659782,0.11395822909787734,0.05857967177867755,-0.060367613155676354,0.4174677308214989,0.16297326873621357,-0.16652622258089084,0.504454338538484,-0.022490073592337442
75,0.3081229999952484,-0.0009545780537238413,-0.0007195533760739231,0.0003453608676391918,-0.009856010280538948,0.11547496642852961,0.0591156265272948,-0.06097342011608154,0.41800913859447925,0.16200187334968724,-0.1646772890809823,0.4848104995347414,-0.032994588142314894
76,0.312318199998117,-0.0009959732645805162,-0.0006651642872461182,0.0003630173392755774,-0.01010775410800072,0.11698565121892224,0.05964211343027673,-0.06156683119326307,0.4184121158345648,0.16095715158660473,-0.16272690015983482,0.4647074525176159,-0.04360777796778464
77,0.3159313999931328,-0.001028225286783425,-0.0005978604911348409,0.00038430488680496635,-0.010361884078479775,0.11849015907879813,0.06015913299645492,-0.06214763845376837,0.41867815257944474,0.15984053874317136,-0.16067655524483468,0.4441632752942307,-0.05431973236177843
78,0.3199154999892926,-0.0010604619177954945,-0.0005283693969946981,0.00041963734186668724,-0.010618345250905666,0.11998837002845567,0.060666690781862355,-0.06271563981854057,0.418808807250011,0.15865350780996829,-0.15852781269634184,0.42319626066651594,-0.06512050555965708
79,0.3237804999953368,-0.0011106162954194845,-0.0004323041784114448,0.0004486911399268906,-0.010877081725768657,0.12148016842499104,0.06116479728874781,-0.06327063915258409,0.41880570444878007,0.15739756782234446,-0.1562822882593867,0.4018248976834248,-0.07600012680100238
80,0.3272899000003235,-0.0011710149644404229,-0.00035959299023513743,0.00047235755780253487,-0.011138036680617571,0.12296544288413078,0.061653467860737776,-0.0638124463498572,0.41867053271092725,0.15607426218604106,-0.15394165347111124,0.3800678527869209,-0.08694861038270464
81,0.3305816999927629,-0.001219615320423964,-0.0002601579759883825,0.0005193084330542565,-0.01140115240595255,0.12444408619780489,0.062132722574304286,-0.0643408774133447,0.4184050422108081,0.15468516698006482,-0.1515076340257807,0.3579439508738015,-0.0979559656915634
82,0.3346215999918058,-0.0012852311104873525,-0.00016875037685541768,0.0005747686718702856,-0.011666370341475609,0.12591599524761504,0.06260258612670015,-0.06485575453026822,0.41801104242687553,0.15323188923884076,-0.14898200809922832,0.3354721562954183,-0.10901220720478297
83,0.3397346999990986,-0.001338387361005269,-7.942736556783675e-05,0.0006148361467235189,-0.011933631112661713,0.12738107091435466,0.06306308772052602,-0.06535690614239667,0.41749039976792685,0.1517160652156857,-0.14636660463463014,0.312671553817331,-0.12010736444682431
84,0.3432224999996833,-0.0014003378504479477,1.9668371610093455e-05,0.0006721606600218423,-0.012202874567613082,0.1288392179837418,0.06351426094509592,-0.06584416701142409,0.4168450351636396,0.1501393586296537,-0.14366330159153712,0.2895613295608677,-0.13123149189116917
85,0.3475885999941965,-0.001517306130733194,0.0002347020216271483,0.0007800434629708073,-0.012474039814159395,0.13029034504852877,0.06395614365477036,-0.06631737827938625,0.41607692162237403,0.1485034588978108,-0.14087402416011952,0.26616075194848116,-0.14237467879566126
86,0.3512298999994527,-0.0015671305660150123,0.00033030217258993863,0.0008399257429425676,-0.012747065257166741,0.13173436440715575,0.06438877784442754,-0.06677638752409193,0.4151880817592366,0.14681007935500123,-0.13800074294260423,0.24248915267467272,-0.1535270589602127
87,0.3547091999935219,-0.0016059036933091105,0.00042247346766787657,0.000892449383863935,-0.013021888636018253,0.1331711919591169,0.06481220952224533,-0.0672210488095499,0.41418058529741086,0.14506095546316614,-0.13504547210390885,0.2185659077241149,-0.16467882039580206
88,0.3589673999958904,-0.0016521445485505834,0.0005095740021335713,0.0009483484213803638,-0.013298447062229522,0.13460074709721204,0.06522648857996775,-0.06765122273137743,0.41305654654577234,0.14325784301227573,-0.13201026749349684,0.1944104184584358,-0.17582021489383978
89,0.3624708999996073,-0.0017334934917242464,0.0006471269083782212,0.0010232729513186068,-0.01357667705716202,0.136022952596858,0.06563166866083121,-0.06806677645718051,0.41181812185580685,0.14140251631493103,-0.12889722474049722,0.17004209279293564,-0.18694156748514096
90,0.3657124999881489,-0.0018026300582090124,0.0007597017368087101,0.0010957660792805322,-0.013856514589798042,0.13743773450263527,0.06602780702532672,-0.06846758376190058,0.41046750706085666,0.1394967663966853,-0.12570847732414833,0.14548032648428447,-0.19803328577792312
91,0.3696982999972533,-0.0018476326894765244,0.0008701593238839479,0.001185865799985814,-0.014137895114540883,0.13884502201224797,0.06641496441497505,-0.06885352505812717,0.4090069349007126,0.13754239918412717,-0.12244619462163765,0.12074448455000344,-0.2090858691644389
92,0.3735623999964446,-0.0019046438176869396,0.0009537608359521939,0.001267684797715315,-0.014420753609004418,0.14024474735807543,0.06679320491429248,-0.06922448742138018,0.4074386724345631,0.1355412336927556,-0.11911257993542244,0.09585388284026168,-0.22008991788605725
93,0.3771287999988999,-0.0019103615399573754,0.0010730660533801249,0.0013763393320873631,-0.014705024611756521,0.14163684568649557,0.06716259581112484,-0.06958036461037034,0.405765018445301,0.13349510021666214,-0.11570986850212393,0.07082776978222424,-0.23103614194682237
94,0.3805550999968545,-0.00193789318694883,0.001184799329933989,0.0014672782435707103,-0.01499064225998119,0.1430212549351616,0.06752320745552766,-0.0699210570822508,0.4039883008381754,0.1314058385220201,-0.11224032548509345,0.04568530831686646,-0.24191536986574555
95,0.3844363999960478,-0.0019725039677181786,0.001283701298761805,0.001575627293825383,-0.015277540327024634,0.1443979157084138,0.06787511311737034,-0.07024647200287736,0.4021108740367578,0.12927529604636148,-0.10870624395275372,0.020445558047825003,-0.2527185572583246
96,0.3885263999982271,-0.0020256341226850003,0.0014237079697574004,0.001715476167406995,-0.015565652259791085,0.14576677115100783,0.06821838884284162,-0.07055652325209909,0.40013511637917176,0.12710532610560024,-0.10510994284481964,-0.004872542378509862,-0.26343679523803387
97,0.3928179999929853,-0.0020649330465992307,0.0015335976946115992,0.0017983491224659357,-0.015854911215954635,0.14712776682034254,0.06855311331003382,-0.07085113142410528,0.39806342751750795,0.12489778611073604,-0.10145376492850176,-0.03025019264284551,-0.2740613186287918
98,0.3969788999966113,-0.002105272535219875,0.0016639368905347156,0.0018916473612940958,-0.01614525010095397,0.14848085055736895,0.06887936768378118,-0.0711302238228593,0.3958982258233196,0.12265453579614961,-0.09774007474679197,-0.055668747854376796,-0.2845835139796834
99,0.40095549999387,-0.002153292572655542,0.0017918075673744225,0.0019755150856511127,-0.016436601604737394,0.14982597235636286,0.06919723546992766,-0.07139373445265434,0.3936419458020596,0.12037743546137236,-0.09397125656092524,-0.08110973536574125,-0.2949949273734966
100,0.4051280999992741,-0.002228156705329248,0.0019503210877510986,0.002096694372037167,-0.01672889823822597,0.1511630842337423,0.06950680236919828,-0.07164160400383049,0.39129703551928696,0.11806834422818338,-0.09014971228910335,-0.10655487128401775,-0.30528727202092004
101,0.409250400000019,-0.0022932642616933716,0.002130891111654401,0.002191056768301173,-0.017022072369463438,0.15249214009611115,0.0698081561308469,-0.07187377983369686,0.38886595404143365,0.11572911831485465,-0.08627785944355665,-0.13198607666071802,-0.31545243563255077
102,0.4135727999964729,-0.0023480886539841653,0.002299666603069468,0.002300063221842532,-0.017316056259422275,0.15381309560770862,0.07010138640625173,-0.07209021594270618,0.38635116889387827,0.11336160932933079,-0.08235812906800724,-0.15738549334421004,-0.3254824875611683
103,0.4180119999946328,-0.002397039677420904,0.0024613448128347026,0.002415678627621773,-0.01761078209743594,0.15512590805744364,0.07038658460262791,-0.07229087294593302,0.383755153539033,0.11096766258309386,-0.07839296367758179,-0.1827354994785196,-0.33536968570704717
104,0.4219827999913832,-0.002496929411477068,0.0027228899438997683,0.0025473722526154303,-0.01790618203622805,0.15643053622569145,0.07066384373702476,-0.07247571803991144,0.381080384877102,0.10854911542742578,-0.07438481520320521,-0.20801872463298132,-0.34510648317940346
105,0.4263937999930931,-0.0025510161623697276,0.0028923497467667368,0.002697545231372964,-0.01820218822651009,0.15772694025102804,0.07093325829077307,-0.07264472496489116,0.3783293407721214,0.10610779561374109,-0.07033614294248765,-0.23321806454775162,-0.35468553470740555
106,0.4307639999897219,-0.002637380036971669,0.0030862453819647463,0.002838730836739731,-0.018498732851119987,0.15901508149707788,0.07119492406454588,-0.07279787396257575,0.37550449760583754,0.10364551967962214,-0.06624941151909598,-0.25831669548075237,-0.36409970279451487
107,0.4344590999971842,-0.0027136406434749728,0.003346353169646561,0.0029739390025854337,-0.018795748158674772,0.16029492241964796,0.07144893803419325,-0.07293515172941051,0.37260832786192594,0.1011640913621453,-0.062127088852578005,-0.2832980881421853,-0.37334206361026684
108,0.438803299999563,-0.002803011537556072,0.0035884163207171205,0.003155745963350263,-0.019093166496711167,0.16156642643431923,0.0716953982075087,-0.0730565513654904,0.3696432977429928,0.09866530004004198,-0.05797164414058189,-0.30814602120334156,-0.38240591261395124
109,0.4428767999925185,-0.0028707362606499947,0.0038602541188650467,0.0033351700438054056,-0.019390920344288864,0.16282955778466332,0.07193440348208245,-0.07316207231916286,0.36661186482274305,0.09615091920619186,-0.05378554585538593,-0.332844594367028,-0.3912847699050058
110,0.4469889999891165,-0.0029997901348951146,0.004173052934823157,0.003541286144901259,-0.01968894234403209,0.16408428141125078,0.07216605350439355,-0.07325172032740322,0.3635164757356349,0.09362270497189851,-0.049571259756624624,-0.3573782409875455,-0.3999723852952973
111,0.4503472999931546,-0.0029997901348951146,0.004173052934823157,0.003541286144901259,-0.019987165333586066,0.1653305628216137,0.07239044853029003,-0.07332550735204431,0.36035956390627677,0.09108239460434882,-0.04533124692206564,-0.3817317402287724,-0.40846274309882824
112,0.4537979999877279,-0.0029997901348951146,0.004173052934823157,0.003541286144901259,-0.020285522376465862,0.16656836796132296,0.07260768928700262,-0.07338345151194467,0.35714354732075515,0.08853170509860608,-0.04106796179825979,-0.4058902287495414,-0.41675006663477526
113,0.4570787999982713,-0.0029092740869962864,0.004499396009842164,0.003854331074235005,-0.020583946792275973,0.16779766308633629,0.0728178768368341,-0.07342557701118287,0.3538708263420122,0.08597233178543537,-0.036783850272851415,-0.42983921190613666,-0.4248288224401372
114,0.4614946999936364,-0.0031082201445850367,0.005234215907317372,0.004203037521903701,-0.020882372186279946,0.16901841463677025,0.07302111244266297,-0.0734519140633683,0.3505437815713188,0.08340594697620693,-0.0324813477702999,-0.45356457446238757,-0.4326937241886454
115,0.4650237999885576,-0.0032704522928160484,0.00555257203181214,0.0043269910420222464,-0.02118073247830039,0.17023058911224695,0.07321749743539632,-0.07346249881216241,0.3471647717578162,0.08083419864606979,-0.028162877372725124,-0.47705259079849127,-0.4403397363129602
116,0.4685155999904964,-0.003501306469496983,0.006300879623929794,0.004712257620513385,-0.021478961930930584,0.1714341529489621,0.07340713308350298,-0.07345737324810676,0.3437361317580258,0.07825870915653217,-0.02383084796755008,-0.5002899346103599,-0.447762077327559
117,0.4722047999966889,-0.00357785314546931,0.006690029963384738,0.004919426552872363,-0.021776995177040022,0.17262907239861824,0.07359012046475401,-0.07343658512185704,0.3402601705471488,0.0756810740185298,-0.019487652423572796,-0.5232636880919593,-0.45495622285010023
118,0.4761491999961436,-0.0036477945394875278,0.007065679663155336,0.005136944580458732,-0.022074767246557055,0.1738153134093624,0.07376656034029337,-0.073400187853925,0.3367391692838985,0.0731028606970069,-0.015135665797057319,-0.5459613505937775,-0.461917908319425
119,0.4803633999981684,-0.003732681452763037,0.007419880246325046,0.005320758119139962,-0.022372213592512825,0.17499284150886366,0.0739365530311574,-0.07334824044103334,0.33317537943053127,0.07052560745797676,-0.01077724356938935,-0.568370846751237,-0.46864313140873876
120,0.4842856999894138,-0.003732681452763037,0.007419880246325046,0.005320758119139962,-0.022669270116331665,0.17616162168966193,0.07410019829735782,-0.07328080735919093,0.32957102092965734,0.06795082225897071,-0.006414719917796602,-0.5904805340775487,-0.47512815413289616
121,0.4887964999943506,-0.0036721567543907705,0.007804020307554325,0.005611639811734545,-0.022965873192354276,0.17732161829691595,0.07425759521963882,-0.07319795846359799,0.3259282804393332,0.06537998168372593,-0.002050406020587343,-0.6122792100161892,-0.4813695046490872
122,0.4929895999957807,-0.003907108265465652,0.00866731733093595,0.006105560833839487,-0.023261959691580965,0.17847279491867357,0.07440884208401377,-0.07309976888549302,0.3222493096278533,0.06281452992190273,0.0023134116016872174,-0.6337561184488645,-0.4873639787506011
123,0.4969894999958342,-0.004000172697267083,0.009098116780296032,0.0063529049024960114,-0.02355746700462314,0.1796151142787833,0.07455403626918317,-0.07298631892605537,0.3185362235295759,0.06025587779456296,0.006674472707790063,-0.6549009556555133,-0.4931086410537205
124,0.5011762999929488,-0.004000172697267083,0.009098116780296032,0.0063529049024960114,-0.023852333063852434,0.18074853813256084,0.07469327413693023,-0.0728576939474791,0.3147910989630346,0.057705401826080506,0.011030544918768538,-0.6757038757235821,-0.4986008258781702
125,0.5052808999898843,-0.0038598564771932615,0.009408926439087818,0.00673085804422531,-0.024146496364737657,0.18187302716532064,0.0748266509255868,-0.07271398426133621,0.311015973012502,0.05516444336309445,0.015379425261082179,-0.6961554954044866,-0.5038381378219152
126,0.5093422999925679,-0.004115351341686601,0.010190358544225309,0.007088328832272383,-0.024439895986360993,0.18298854089387775,0.07495426064665643,-0.0725552850143485,0.3072128415740834,0.05263430774105498,0.01971894166868492,-0.7162468984158574,-0.5088184520314706
127,0.5135632999881636,-0.0042732975785852185,0.010585350516371609,0.007291866240594409,-0.024732471611105686,0.18409503757112078,0.07507619598467725,-0.07238169607168904,0.3033836579673315,0.05011626349885124,0.024046954442911335,-0.7359696391888395,-0.5135399141692482
128,0.5170791999989888,-0.004294937023627861,0.010945870442074705,0.007558827089595308,-0.02502416354350855,0.18519247409375217,0.07519254820040182,-0.07219332189793574,0.2995303316132873,0.047611541641949674,0.028361357669070334,-0.7553157460603905,-0.5180009400798279
129,0.5205101999890758,-0.004295780707117121,0.011335246389464397,0.007874782772268434,-0.02531491272827168,0.1862808059132861,0.07530340703736695,-0.0719902714358006,0.29565472677976473,0.04512133495441046,0.03266008058870427,-0.7742777239111904,-0.5222002151573926
130,0.5239721999969333,-0.004358185572695749,0.011688607322113366,0.008136716169216095,-0.025604660767428757,0.18735998695038894,0.07540886063192154,-0.07177265798275921,0.2917586613946117,0.042646797360088876,0.0369410889265265,-0.7928485562504395,-0.5261366934169157
131,0.5273013999976683,-0.004429320108270334,0.012066994502731089,0.008314379711267065,-0.02589334993666229,0.18842996951264307,0.07550899542677551,-0.07154059906570698,0.28784390592759185,0.040189043333268136,0.04120238617110646,-0.8110217067494788,-0.529809596272031
132,0.5307505999953719,-0.004529276509617432,0.012415546982924217,0.008594825641446894,-0.02618092320076918,0.18949070421581135,0.07560389608812816,-0.07129421631376864,0.28391218234144516,0.037749147358910114,0.04544201480842738,-0.8287911202268146,-0.5332184110228524
133,0.5346563999919454,-0.00458486036480441,0.01277117578974344,0.008877934462983373,-0.026467324228272873,0.19054213990867297,0.07569364542642902,-0.07103363532938885,0.27996516311259634,0.03532814344265004,0.049658057507498715,-0.846151223087771,-0.5363628890573492
134,0.5386287000001175,-0.0046176149187596065,0.013103083920990462,0.009172672390762186,-0.026752497405181284,0.19158422360149535,0.07577832432081931,-0.07075898555783237,0.2760044703218945,0.0329270246706019,0.053848638257262445,-0.8630969232226295,-0.5392430437702049
135,0.5421044999966398,-0.004683435928139119,0.013456509021460292,0.009446155490456304,-0.027036387847890808,0.19261690039820367,0.07585801164729737,-0.07047040015522305,0.27203167481568163,0.030546742818982196,0.0580119234540901,-0.8796236093677346,-0.5418591482034073
136,0.5466138999909163,-0.0046953653006599205,0.013874615597942489,0.00976541016878877,-0.027318941415237507,0.1936401134323049,0.07593278421064648,-0.07016801585525037,0.26804829543740155,0.028188208013501304,0.06214612293922483,-0.8957271499346569,-0.5442117324131255
137,0.5511837999947602,-0.004806479925945583,0.01423277110450501,0.010012987056342482,-0.027600104719697722,0.1946538038066176,0.07600271668015864,-0.0698519728346736,0.2640557983298757,0.025852288438413324,0.06624949098558103,-0.9114038913131046,-0.5463015805677359
138,0.5553402999939863,-0.004806479925945583,0.01423277110450501,0.010012987056342482,-0.027879825137741204,0.1956579105368531,0.076067881529183,-0.06952241457775347,0.26005559630828373,0.0235398100950584,0.0703203272333719,-0.9266506556538655,-0.5481297277821499
139,0.559450899992953,-0.0047157376075969105,0.014528906777734699,0.01036785609445106,-0.028158050819340568,0.19665237049908824,0.07612834897852305,-0.06917948773974122,0.2560490483038062,0.02125155660967469,0.07435697757409353,-0.9414647381386309,-0.5496974566938865
140,0.5637232999870321,-0.004972596944943793,0.015309640078528875,0.010864815040715396,-0.028434730696641927,0.1976371183811648,0.07618418694370113,-0.0688233420095546,0.252037458877804,0.018988269090201536,0.07835783498245227,-0.9558439037441283,-0.5510062937866146
141,0.5678505999967456,-0.004972596944943793,0.015309640078528875,0.010864815040715396,-0.02870981449180241,0.1986120866380464,0.07623546098610462,-0.06845412997177021,0.2480220778063273,0.016750646031740285,0.08232134029588052,-0.9697863835085284,-0.5520580054671578
142,0.571270899992669,-0.004972596944943793,0.015309640078528875,0.010864815040715396,-0.02898325272400109,0.19957720545115895,0.07628223426802325,-0.06807200696806133,0.24400409973466505,0.01453934327028544,0.08624598294134338,-0.983290870308626,-0.5528545939022137
143,0.574617299993406,-0.004972596944943793,0.015309640078528875,0.010864815040715396,-0.02925499671563051,0.20053240269173642,0.07632456751158219,-0.06767713095821011,0.23998466390156728,0.012354973984285873,0.09013030160919636,-0.9963565141568262,-0.553398292621293
144,0.5797461999900406,-0.004972596944943793,0.015309640078528875,0.010864815040715396,-0.029524998597677123,0.20147760388818703,0.07636251896157113,-0.06726966238082212,0.23596485393269423,0.010198108743543858,0.0939728848739122,-1.0089829170274658,-0.5536915618926206
145,0.5842375999927754,-0.004968082982377874,0.015676620559780703,0.011289526823372175,-0.029793211314299725,0.20241273219748948,0.0763961443521646,-0.0668497640138708,0.23194569770276974,0.00806927560490884,0.09777237176155261,-1.021170127222495,-0.5537370838789758
146,0.5883735999959754,-0.00544147890833999,0.017304987307334985,0.01234912356713367,-0.030059588626615622,0.20333770838062443,0.0764254968775246,-0.06641760083519886,0.22792816726583992,0.0059689602541731735,0.10152745226391732,-1.0329186332870093,-0.5535377575806647
147,0.591791299986653,-0.005543232568821738,0.017755181561637134,0.012646946289266462,-0.03032408511570505,0.20425245078204177,0.07645062716627195,-0.06597333988310217,0.22391317885296513,0.0038976061935284603,0.10523686779935866,-1.0442293574855939,-0.5530966935730272
148,0.5950562999933027,-0.005606264145327441,0.018217639204315773,0.01291955583956494,-0.030586656184845226,0.20515687531315965,0.07647158325980868,-0.06551715011712113,0.21990159293659933,0.0018556149738939152,0.10889941162030543,-1.0551036488508727,-0.5524172085460859
149,0.598906100000022,-0.005710595835816089,0.018616888454510757,0.013192701716609925,-0.030847258060986156,0.2060508954398857,0.07648841059446904,-0.06504920227916298,0.2158942143608397,-0.00015665352861789344,0.11251392916759526,-1.0655432758160772,-0.5515028196541314
150,0.602802099994733,-0.005822780844541611,0.01902312470775809,0.013491294521680672,-0.031105847795480895,0.20693442217414748,0.07650115198747247,-0.06456966875507687,0.2118917925366603,-0.002138880792877228,0.11607931837176942,-1.0755504184438482,-0.5503572386832145
151,0.6063594999868656,-0.0059510157334405804,0.01946712417198262,0.01382863668778567,-0.03136238326408366,0.20780736406941375,0.0765098476266479,-0.06407872343680236,0.20789502170117635,-0.004090789290377842,0.11959452990153786,-1.0851276602638815,-0.5489843660446827
152,0.6098837999888929,-0.006039031150301228,0.01996566149634628,0.014174899386840493,-0.031616823166229734,0.20866962722018248,0.07651453506389437,-0.06357654158521099,0.20390454123992144,-0.006012142081206553,0.12305856735967519,-1.0942779797323883,-0.5473882846030481
153,0.6137276999943424,-0.006106737343133918,0.02041368992160055,0.01447113981830744,-0.03186912702361177,0.20952111526540804,0.07651524921233903,-0.06306329969375862,0.19992093607105593,-0.007902742369246598,0.12647048742666134,-1.1030047413267008,-0.5455732533466217
154,0.6170959999872139,-0.006181431693433442,0.02090410925567801,0.01476097507281479,-0.03211925517806757,0.21036172939583703,0.07651202234714964,-0.06253917535306451,0.19594473709036292,-0.009762433017558551,0.12982939995243156,-1.111311686288672,-0.5435437009094792
155,0.6206569999922067,-0.006299885958499174,0.02137431499292622,0.015060958379983062,-0.032367168788795135,0.21119136836521782,0.07650488410995508,-0.0620043471165316,0.19197642167582843,-0.011591096024919999,0.13313446799665124,-1.1192029230308336,-0.5413042189534472
156,0.6256501999887405,-0.006390546034991682,0.02184104856263425,0.015365353744175945,-0.03261282982891094,0.21200992850534306,0.07649386151682358,-0.061458994367120164,0.18801641425054383,-0.013388651964540985,0.13638490781798168,-1.1266829172195632,-0.5388595554189027
157,0.6299203999951715,-0.0064747514239928885,0.02234334194656557,0.015672595321693326,-0.0328562010813681,0.2128173037448806,0.07647897896974498,-0.06090329718538484,0.1840650869026143,-0.015155059386006519,0.13957998881285136,-1.1337564815497816,-0.5362146076532842
158,0.6333156999899074,-0.006536625374334537,0.02286116723219334,0.015963885956355315,-0.03309724613425183,0.21361338563194496,0.07646025827155961,-0.06033743621888287,0.18012276006070435,-0.016890314181530103,0.14271903340429506,-1.14042876522595,-0.5333744154262875
159,0.6365307999949437,-0.006623753137376082,0.02342131758506575,0.016254120869553156,-0.03333592937546998,0.21439806336035766,0.07643771864427286,-0.05976159255305956,0.17618970322379976,-0.018594448917633278,0.1458014168814705,-1.1467052431643665,-0.5303441538408005
160,0.6406644999951823,-0.006698196767771661,0.0239311614759789,0.016533758792519872,-0.03357221598685674,0.2151712237995414,0.07641137675069155,-0.05917594758371468,0.17226613574371547,-0.02026753213339549,0.14882656719050744,-1.152591704931976,-0.5271291261486889
161,0.6445466999866767,-0.00678178018872643,0.02444469563381645,0.016850146363458576,-0.03380607193770815,0.21593275152799002,0.07638124671931475,-0.05858068289115119,0.16835222765883318,-0.021909667606446352,0.15179396467738834,-1.1580942434370853,-0.5237347564805986
162,0.6488248999958159,-0.006820523103201974,0.024984346940200162,0.017143881311160493,-0.03403746397776831,0.21668252887025147,0.0763473401724086,-0.05797598011610476,0.1644481005775098,-0.023520993587898484,0.15470314178360292,-1.1632192433875441,-0.5201665824989775
163,0.65327029999753,-0.006860606222410708,0.025643062653934314,0.017456480789999188,-0.034266359629685536,0.21742043593735766,0.07630966625719235,-0.057362020837550584,0.1605538286095551,-0.025101682007443376,0.15755368269536105,-1.1679733695321068,-0.5164302479835503
164,0.6570085999992443,-0.006894260471257568,0.026220256333163737,0.0177290937510508,-0.03449272718095789,0.21814635067063054,0.07626823168005961,-0.05673898645248087,0.15666943934413793,-0.026651937649855195,0.16034522294718942,-1.1723635547008153,-0.5125314953584889
165,0.6605428999901051,-0.00694125586336014,0.026792784984538822,0.01802645987025281,-0.0347165356753879,0.21886014888879088,0.07622304074375666,-0.056107058057743686,0.1527949148724437,-0.028171997304168375,0.1630774489807777,-1.176396987660358,-0.5084761581705285
166,0.6638642999896547,-0.006982819304771678,0.02742775647864491,0.018330472184083898,-0.034937754904066566,0.21956170433829345,0.07617409538743683,-0.05546641633403122,0.14893019285337092,-0.0296621288868141,0.16575009765997767,-1.1800811008004324,-0.5042701535272714
167,0.6688192999863531,-0.007031199523515372,0.028133542346624178,0.01865476560108656,-0.0351563553959068,0.22025088874680998,0.0761213952295077,-0.05481724143210272,0.14507516762052186,-0.031122630540018056,0.1683629557428949,-1.1834235576672043,-0.4999194745048992
168,0.6722030999953859,-0.007017801941243796,0.028772451964479178,0.018998511742449035,-0.03537230840774684,0.2209275718797773,0.07606493761318564,-0.05415971286132478,0.14122969132871285,-0.03255382970677768,0.17091585931204875,-1.1864322403600058,-0.4954301825344827
169,0.6761769999866374,-0.007079172202906738,0.029489486749442007,0.01928794135859729,-0.03558558591404443,0.22159162159992699,0.0760047176546694,-0.05349400938060859,0.13739357513820305,-0.03395608218375078,0.17340869316361032,-1.1891152368074425,-0.4908083997760412
170,0.6800965999864275,-0.007079172202906738,0.029489486749442007,0.01928794135859729,-0.03579616059618266,0.22224290392970952,0.07594072829384271,-0.0528203088918207,0.13356659043481578,-0.03532977115339942,0.17584139015675984,-1.191480827939079,-0.4860603014894511
171,0.684409899986349,-0.00701563007536843,0.030176954541794816,0.01969099386970697,-0.036004005831408586,0.22288128311652308,0.07587296034741405,-0.05213878833574054,0.12974847008410365,-0.03667530619674351,0.178213930524237,-1.1935374747688574,-0.48119210841123744
172,0.6886287999950582,-0.0071024179041243056,0.03174601537091881,0.020198641462752746,-0.036209095681425885,0.22350662170065624,0.07580140256440021,-0.05144962359063472,0.12593890971768862,-0.037993122288087204,0.18052634114518765,-1.1952938054063682,-0.4762100791462115
173,0.6925869999977294,-0.0071024179041243056,0.03174601537091881,0.020198641462752746,-0.03641140488066241,0.22411878058585144,0.07572604168385844,-0.050752989373515044,0.12213756904989073,-0.03928367877308849,0.1827786947814383,-1.196758602012042,-0.47112050258283084
174,0.6968092999886721,-0.0071024179041243056,0.03174601537091881,0.020198641462752746,-0.036610908824234095,0.22471761911239388,0.07564686249477047,-0.05004905914414418,0.11834407322274465,-0.04054745833154725,0.18497110927835733,-1.1979407877122539,-0.46592969034106346
175,0.701001699999324,-0.0071024179041243056,0.03174601537091881,0.020198641462752746,-0.03680758355562625,0.22530299513262791,0.07556384789798111,-0.049338005011849755,0.11455801417749024,-0.04178496592629053,0.1871037467314853,-1.1988494134902448,-0.46064396926143064
176,0.7045854999887524,-0.007064297560844829,0.032516968879638584,0.020573737558532028,-0.03700140575411343,0.22587476508880164,0.07547697897009237,-0.0486199976452042,0.1107789520506127,-0.0429967277395355,0.1891768126201413,-1.1994936450686495,-0.4552696739437854
177,0.7082670999952825,-0.007122433536194354,0.03499786572663887,0.02148348215464957,-0.03719235272193912,0.2264327840931386,0.07538623502921347,-0.0478952061846248,0.10700641659250072,-0.0441832900981108,0.19119055490923442,-1.19988274979928,-0.4498131393442604
178,0.7122935999941546,-0.007122433536194354,0.03499786572663887,0.02148348215464957,-0.037380402371276315,0.22697690601003365,0.07529159370246587,-0.047163798157944664,0.10323990860678656,-0.04534521838891582,0.1931452631205314,-1.2000260835756773,-0.44428069343868526
179,0.7156443999992916,-0.007153629976258194,0.03585295270141202,0.021829461979453207,-0.03756553321098983,0.2275069835402693,0.07519303099514206,-0.04642593939900195,0.0994789014084277,-0.046483095965994266,0.19504126737465088,-1.1999330777837718,-0.43867864996063
180,0.7196191999973962,-0.007178543482030219,0.037657684457116765,0.02248709229734114,-0.037747724333221065,0.22802286830714835,0.07509052136141603,-0.04568179396929127,0.09572284229859025,-0.047597523050593386,0.1968789374050707,-1.1996132263058108,-0.4330133012220799
181,0.7231253999925684,-0.007198893527526996,0.03858019867549979,0.02278383040919439,-0.0379269553998163,0.228524410944437,0.07498403777650217,-0.044931524082717944,0.09197115405439504,-0.04868911562557435,0.19865868154545127,-1.1990760725925147,-0.4272909110245854
182,0.7266364999959478,-0.007156581253735939,0.03953870153900115,0.023120938921064052,-0.038103206628619206,0.2290114611860124,0.07487355181015957,-0.04417529003349197,0.08822323643159166,-0.049758504325530695,0.20038094569159293,-1.1983311968182069,-0.42151770766856095
183,0.7303960999997798,-0.007156581253735939,0.03953870153900115,0.023120938921064052,-0.038276458779648116,0.22948386795710737,0.0747590337014381,-0.043413250127195525,0.08447846767823206,-0.050806333323962415,0.20204621223935734,-1.1973882031334284,-0.41569987706823136
184,0.7344977999891853,-0.007156581253735939,0.03953870153900115,0.023120938921064052,-0.03844669314117857,0.22994147946704369,0.07464045243456259,-0.042645560615053826,0.08073620605742404,-0.05183325921884217,0.20365499899989356,-1.1962567070293058,-0.409843555979533
185,0.738649599996279,-0.007156581253735939,0.03953870153900115,0.023120938921064052,-0.03861389151575114,0.23038414330334514,0.07451777581585102,-0.041872375631436046,0.07699579137725626,-0.05283994991789793,0.20520785809352043,-1.194946322827675,-0.4039548253480867
186,0.7420328999869525,-0.007086460331233691,0.04055965185984268,0.02348735432959026,-0.03877803620612445,0.2308117065271215,0.07439097055156281,-0.04109384713460974,0.07325654652599843,-0.053827083524922006,0.20670537482362614,-1.1934666513106889,-0.3980397037841581
187,0.7464167999860365,-0.007186025730828317,0.04354969331880333,0.024429852217824465,-0.03893911000119319,0.2312240157696131,0.07426000232657405,-0.04031012485076883,0.069517779010696,-0.05479534722840132,0.20814816653195128,-1.1918272675033423,-0.392104141171314
188,0.7506307999865385,-0.007191761149113939,0.04467364261015231,0.024747735910435997,-0.03909709616189009,0.23162091732978804,0.07412483588377662,-0.039521356221351486,0.06577878249729573,-0.05574543619374709,0.20953688143662816,-1.1900377086220482,-0.38615401241526875
189,0.7552348999888636,-0.00715700671095195,0.04574727344981226,0.025100245005394185,-0.03925197840709108,0.23200225727288337,0.07398543510409805,-0.03872768635366084,0.06203883835045786,-0.056678052460384196,0.21087219745435198,-1.1881074622020593,-0.3801951113391951
190,0.7595252999890363,-0.00710898458490445,0.0480054342447036,0.0257251576315135,-0.03940374089954236,0.23236788152978138,0.07384176308704002,-0.037929257974798014,0.058297217171231236,-0.05759390384494077,0.2121548210080625,-1.186045954416209,-0.3742331447315447
191,0.7638796999963233,-0.007131714330834815,0.049191872936531315,0.02604737849842307,-0.03955236823182776,0.23271763599711384,0.07369378223163432,-0.037126211388913685,0.05455318033079091,-0.05849370285175797,0.21338548582151406,-1.1838625385970867,-0.3682737265521948
192,0.7677984999900218,-0.0070615720287379394,0.05034219749333578,0.026361787055718677,-0.039697845412394586,0.23305136663798545,0.07354145431771579,-0.036318684437781135,0.050805981498462674,-0.05937816559191788,0.21456495170211234,-1.1815664839744313,-0.36232237230249764
193,0.7719535999931395,-0.0070615720287379394,0.05034219749333578,0.026361787055718677,-0.0398401578516552,0.23336891958321,0.07338474058741197,-0.035506812464690264,0.047054868162286025,-0.06024801071196444,0.21569400331339264,-1.1791669646391534,-0.35638449356456625
194,0.7759064999991097,-0.006977631159527867,0.051594578689548275,0.026847589066459728,-0.03997929134818201,0.23367014123295388,0.07322360182675078,-0.03469072828165833,0.04329908314039557,-0.06110395833346793,0.21677344893851225,-1.1766730487450174,-0.3504653927148865
195,0.7802617999986978,-0.007013914736613923,0.054082059854818273,0.02744663038040605,-0.04011523207501254,0.23395487835868106,0.07305799844728854,-0.033870562139950426,0.03953786608153116,-0.061946729004557936,0.21780411923612408,-1.1740936879586261,-0.3445702578170934
196,0.7844532999879448,-0.0069894973502187705,0.055310539000096484,0.027785478082133018,-0.04024796656608106,0.23422297820529342,0.07288789056766187,-0.033046441703899386,0.03577045495301864,-0.06277704266452366,0.21878686598999283,-1.1714377071679547,-0.33870415769849316
197,0.7886047999927541,-0.00699694365634257,0.05661561314847911,0.028119052693968867,-0.04037748170279285,0.23447428859336256,0.07271323809496882,-0.0322184920280116,0.0319960875145969,-0.06359561762255267,0.21972256085370556,-1.16871379445927,-0.3328720372146546
198,0.7921473999886075,-0.0069551691774438346,0.0578873425178116,0.028474671838143072,-0.0405037647007565,0.23470865802134938,0.07253400080588551,-0.03138683553734177,0.0282140027765019,-0.06440316955165121,0.2206120940918197,-1.1659304913718627,-0.32707871270613276
199,0.7957418999867514,-0.006884111189171925,0.05923373427803982,0.028838102020488914,-0.0406268030966896,0.23492593576770932,0.07235013842742655,-0.03055159201111674,0.024423442440255135,-0.06520041049875941,0.22145637331878035,-1.1630961834395934,-0.3213288676511216
200,0.8008104999898933,-0.00691373715092023,0.06054319942978137,0.029145182084232658,-0.040746584735512736,0.2351259719927819,0.07216161071725878,-0.029712878569585478,0.020623652320641825,-0.06598804791204475,0.2222563222369284,-1.1602190910278276,-0.31562704851756457
201,0.8050941999972565,-0.006880691179609471,0.06186496348040994,0.029562697564085087,-0.040863097757646176,0.23530861784036486,0.07196837754347986,-0.028870809664069293,0.01681388374740371,-0.06676678368632587,0.22301287937490621,-1.1573072604738985,-0.30997766081798334
202,0.8095118999917759,-0.006917448554812683,0.06317658721815786,0.029951891134123994,-0.04097633058652318,0.23547372553887438,0.07177039896377396,-0.028025497070183317,0.012993394945211983,-0.0675373132275464,0.22372699682775343,-1.15436855553879,-0.30438496537001436
203,0.8137030999932904,-0.006882597654203743,0.06454934700764635,0.03029439230343988,-0.041086271916333274,0.2356211485019949,0.07156763530385915,-0.02717704988419734,0.009161452390527805,-0.0683003245371863,0.22439963899996881,-1.1514106491772844,-0.29885307476536993
204,0.8176886000001105,-0.006856236251004987,0.06588364847891728,0.030655882185970866,-0.04119291070000819,0.2357507414287234,0.0713600472351426,-0.02632557452250103,0.0053173321440009285,-0.06905649731746447,0.22503178135279722,-1.1484410156333755,-0.2933859500496683
205,0.8217657999921357,-0.006915437484943551,0.06723759096665674,0.031034281904778138,-0.04129623613746303,0.23586236040271574,0.07114759585150227,-0.025471174724135865,0.0014603211571012128,-0.0698065020981525,0.22562440915698456,-1.1454669228672767,-0.2879873976153015
206,0.8261977999936789,-0.006872513301359198,0.06859943148764364,0.0313317005922641,-0.041396237664104274,0.23595586299084328,0.07093024274511568,-0.024613951556353406,-0.0024102814482769405,-0.07055099938578453,0.22617851625222266,-1.1424954253199104,-0.2826610663092331
207,0.830344599991804,-0.006869286605941237,0.06999067510749767,0.03170373394567233,-0.04149290493961569,0.23603110834087057,0.07070795008125887,-0.023754003423156932,-0.006295163128450967,-0.07129063883601294,0.22669510381448657,-1.139533357020298,-0.27741044475734256
208,0.8345291999867186,-0.006887624739101554,0.07134483517996885,0.03210616718972156,-0.04158622783703286,0.23608795727816473,0.07048068067200071,-0.022891426076780755,-0.010194996695993956,-0.0720260584498245,0.22717517913244611,-1.136587325040803,-0.2722388589066601
209,0.8379572999983793,-0.006887624739101554,0.07134483517996885,0.03210616718972156,-0.041676196432116765,0.2361262724013512,0.07024839804871985,-0.02202631263205902,-0.0141104391283046,-0.07275788379429468,0.2276197543941091,-1.1336637033047179,-0.26714946978656107
210,0.8413418999989517,-0.006887624739101554,0.07134483517996885,0.03210616718972156,-0.041762800993035934,0.2361459181768319,0.0700110665333739,-0.02115875358363344,-0.01804213040777323,-0.07348672724852118,0.22802984548483116,-1.1307686267502144,-0.26214527148971467
211,0.8445750999962911,-0.006874097006198358,0.07546185385107283,0.03310780817427837,-0.04184603197036637,0.2361467610320838,0.06976865130845264,-0.02028883682594682,-0.021990692394564467,-0.07421318727534063,0.2284064707978034,-1.1279079858542154,-0.25722908937330946
212,0.8480468999914592,-0.006913754300353997,0.07684138728435254,0.033450487059268355,-0.04192587998741759,0.2361286694476588,0.0695211184855497,-0.019416647675967028,-0.025956727732987038,-0.07493784771939577,0.22875065005810333,-1.1250874215192732,-0.25240357848081124
213,0.8513609999936307,-0.006921696608717208,0.07824348828583534,0.03376877186143834,-0.04200233583089275,0.2360915140478076,0.06926843517248868,-0.018542268898583583,-0.029940818792370587,-0.07566127713208277,0.22906340316136953,-1.1223123203260663,-0.2476712221842382
214,0.8555831999983639,-0.006921696608717208,0.07824348828583534,0.03376877186143834,-0.042075390441890057,0.2360351676896532,0.0690105695389424,-0.017665780734617036,-0.033943526643318345,-0.07638402812387038,0.22934574902813418,-1.1195878101536627,-0.24303433104667257
215,0.8593683999934001,-0.006921696608717208,0.07824348828583534,0.03376877186143834,-0.04214503490725233,0.2359595055508423,0.06874749088048687,-0.01678726093137913,-0.037965390070152934,-0.07710663674444437,0.2295987044748186,-1.1169187561692433,-0.23849504190446266
216,0.8635139999969397,-0.006864335899703639,0.07964404256423872,0.03413506879454004,-0.04221126045127109,0.2358644052156036,0.06847916968103412,-0.01590678477571951,-0.04200692462032045,-0.07782962189109335,0.22982328310236902,-1.114309757188515,-0.2340553171683095
217,0.8669261999893934,-0.006864335899703639,0.07964404256423872,0.03413506879454004,-0.042274058427751005,0.23574974675914565,0.06820557767359042,-0.015024425129493084,-0.04606862169146583,-0.07855348474571322,0.23002049420347953,-1.1117651424075865,-0.22971694434217524
218,0.8704921999888029,-0.006944185390776105,0.08246838648172788,0.034817288175440324,-0.042333420312439654,0.23561541283033077,0.0679266878992893,-0.014140252467380173,-0.05015094765684001,-0.07927870824076987,0.23019134168931904,-1.1092889685066178,-0.22548153575869595
219,0.8738603999954648,-0.007035084725840736,0.0853209315625716,0.035454686384952465,-0.042389337695827395,0.23546128873256253,0.06764247476465134,-0.013254334916989961,-0.05425434302964662,-0.08000575655452147,0.23033682303664915,-1.1068850171251052,-0.22135052852953002
220,0.8780508999916492,-0.0070645645099805575,0.08679270706219872,0.035768215909008215,-0.04244180227632168,0.23528726250282736,0.06735291409702533,-0.012366738301175918,-0.05837922166688367,-0.08073507463576336,0.23045792825618971,-1.1045567927082192,-0.2173251847088297
221,0.8814274999895133,-0.007134020268551182,0.08822868013140867,0.03610682244139953,-0.042490805853799565,0.2350932249888352,0.06705798319816758,-0.011477526182490363,-0.06252597001318246,-0.08146708775832096,0.2305556388830557,-1.102307520723171,-0.21340659166778114
222,0.885221399992588,-0.007111266732269165,0.08969294162316657,0.03640076008475934,-0.04253634032354142,0.2348790699242059,0.06675766089591935,-0.010586759909703812,-0.06669494638509361,-0.08220220110547814,0.23063092699005663,-1.1001401462441434,-0.20959566267792082
223,0.8888178999914089,-0.007111266732269165,0.08969294162316657,0.03640076008475934,-0.042578397670548544,0.23464469400165097,0.06645192759394485,-0.00969449866631338,-0.07088648029621734,-0.0829407993844915,0.23068475422461718,-1.0980573329038978,-0.2058931377007048
224,0.8927941999863833,-0.007111708068657339,0.0911766942280728,0.0367372137720342,-0.04261696996424642,0.23438999694410265,0.06614076531949509,-0.008800799520963234,-0.07510087182352246,-0.0836832464713035,0.23071807087004287,-1.0960614622097458,-0.2022995843805787
225,0.8968966999964323,-0.007285419529845683,0.09415746907644297,0.03737484510596041,-0.04265204935357493,0.23411488157374555,0.06582415776916596,-0.007905717479698813,-0.07933839101514682,-0.08442988508553045,0.2307318149318226,-1.0941546332211511,-0.19881539923857328
226,0.9009807999973418,-0.0073550882124721806,0.0956514576727821,0.03771074616408958,-0.042683628062466235,0.2338192538789084,0.06550209035262118,-0.007009305539975445,-0.08359927733991969,-0.08518103649576472,0.23072691124962405,-1.0923386625858211,-0.1954408090632353
227,0.9051805999915814,-0.0074012743266394215,0.09875227540797467,0.03831648125714185,-0.04271169838571107,0.2335030230787767,0.06517455023425389,-0.006111614746340908,-0.08788373917879477,-0.08593700025519373,0.23070427063560472,-1.0906150849307363,-0.19217587249549156
228,0.9086494999937712,-0.0076504538578036855,0.10179062568298991,0.03889199125913778,-0.042736252685213305,0.23316610168588836,0.0648415263727628,-0.005212694247710553,-0.09219195335833182,-0.08669805396750283,0.230664789039626,-1.0889851536041757,-0.18902048180383943
229,0.912243499988108,-0.007768507534035342,0.10336691211281955,0.03920465876142506,-0.04275728338663232,0.23280840556637744,0.06450300955862158,-0.004312591356152765,-0.09652406472631313,-0.0874644530829936,0.23060934674192396,-1.0874498417644207,-0.18597436484605703
230,0.9155989999999292,-0.007850898648480653,0.10489958929050001,0.03959438262916102,-0.04277478297641198,0.23242985399793517,0.06415899244942293,-0.0034113516071017595,-0.10088018576953146,-0.08823643072481428,0.23053880757375467,-1.0860098438104437,-0.18303708721343448
231,0.919274799991399,-0.007994048027217432,0.10650137384568877,0.03987701543300949,-0.042788743999194905,0.23203036972545718,0.06380946960308181,-0.002509018820914052,-0.1052603962737364,-0.08901419754516422,0.2304540181664978,-1.0846655771495168,-0.1802080545533422
232,0.9227012999908766,-0.008086352754831681,0.10805915416399303,0.04016363679118779,-0.042799159055620005,0.23160987901435084,0.06345443750888514,-0.0016056351656844132,-0.10966474302567732,-0.08979794161129986,0.23035580722966675,-1.0834171842963232,-0.1774865150657724
233,0.9262993999873288,-0.008113251030268102,0.10964073938069316,0.04049153146959448,-0.04280602080050094,0.23116831170147864,0.0630938946163777,-0.0007012412212365897,-0.11409323955713276,-0.09058782832113743,0.23024498485823694,-1.082264535297798,-0.174871562169318
234,0.929674699989846,-0.008337708421369563,0.11124128925505467,0.040819902401335,-0.042809321941382344,0.23070560124371756,0.06272784136207621,0.00020412395579627276,-0.11854586593076763,-0.0913840003482146,0.23012234186966782,-1.0812072304775986,-0.17236213733188835
235,0.9332305999996606,-0.008472195508766798,0.11279375806615874,0.04108998257620142,-0.04280905523747086,0.2302216847641175,0.062356280194006304,0.0011104227658868934,-0.12302256856761268,-0.09218657761574083,0.22998864917096007,-1.080244603493773,-0.16995703306130164
236,0.9374053999927128,-0.00855808308962759,0.11438459110998574,0.04144353382877946,-0.042805213498937095,0.2297165030956443,0.06197921559405929,0.002017618999610385,-0.12752326011591494,-0.09299565729943493,0.22984465715605312,-1.0793757247028848,-0.16765489605074516
237,0.941042299993569,-0.008724713656958942,0.1159503680490371,0.041762950060426476,-0.042797789586584506,0.22919000082249444,0.06159665409816907,0.0029256777698077434,-0.1320478193610623,-0.09381131385881811,0.2296910951338325,-1.078599404823548,-0.16545423047394922
238,0.9455045999930008,-0.008890207732661437,0.11756761657735393,0.0420204965334868,-0.04278677641188062,0.22864212631897357,0.061208604314311195,0.0038345654430020073,-0.1365960911762407,-0.0946335990966006,0.2295286707869809,-1.07791419889203,-0.1633534014247872
239,0.951033199991798,-0.009062145630975718,0.11914155682951613,0.0423338111765858,-0.04277216693734585,0.22807283178593082,0.060815076938328265,0.004744249570152729,-0.1411678865134403,-0.09546254224577143,0.2293580696618735,-1.0773184105022955,-0.161350638495884
240,0.9551485999982106,-0.009166883904238445,0.12070345418496281,0.042612352963271156,-0.0427539541772944,0.2274820732847441,0.060416084767588786,0.00565469881683425,-0.1457629824343833,-0.0962981500839725,0.22917995468968247,-1.0768100963226095,-0.15944403949069533
241,0.9596224999986588,-0.009354337864323426,0.12227175408025118,0.042894555297280305,-0.04273213119892138,0.2268698107688556,0.060011642712488836,0.006565882892923005,-0.15038112218090474,-0.09714040707471025,0.2289949657388199,-1.076387070880549,-0.1576315742634073
242,0.965616699992097,-0.00953016014762442,0.1238424154837409,0.04317539957253667,-0.04270669112373012,0.2262360081128586,0.05960176780580821,0.0074777724818787215,-0.15502201528427798,-0.09798927553493146,0.22880371919881468,-1.0760469116080384,-0.155911088680901
243,0.969732399986242,-0.00953016014762442,0.1238424154837409,0.04317539957253667,-0.04267762712929318,0.22558063313913768,0.059186479209934875,0.00839033916970403,-0.15968533771293567,-0.09884469582846414,0.2286068075956847,-1.075786964137787,-0.15428030870092985
244,0.973188799995114,-0.009679093890108327,0.12540208802771885,0.04357123162192188,-0.042644932451340246,0.22490365764206696,0.0587657982219739,0.009303555373666457,-0.16437073205800143,-0.09970658658479994,0.22840479923883186,-1.0756043478422865,-0.15273684456056816
245,0.9764332999911858,-0.010125541808231418,0.12849701229522698,0.044039273079868026,-0.04260860038616602,0.22420505740977378,0.058339748276759244,0.010217394270866178,-0.16907780775600922,-0.10057484494267048,0.22819823789945407,-1.0754959616063275,-0.1512781950689092
246,0.9806963999872096,-0.010354355929010238,0.130025025226304,0.04433587502498312,-0.04256862429335069,0.22348481224347788,0.05790835494778874,0.011131829726732255,-0.17380614134815128,-0.10144934681784673,0.22798764252043555,-1.0754584898238044,-0.14990175199791783
247,0.9842763999913586,-0.010580534197472952,0.13155373768275477,0.04458590083484596,-0.042524997598785134,0.22274290597441943,0.057471645946104336,0.012046836223529285,-0.17855527677536118,-0.10232994719456943,0.2277735069576442,-1.0754884086093972,-0.14860480456527891
248,0.9876126999879488,-0.01075951749784854,0.133103756435697,0.04484408772140839,-0.04247771379799303,0.2219793264783914,0.05702965111714255,0.012962388788955568,-0.18332472570850444,-0.1032164804399969,0.22755629975253175,-1.0755819922155547,-0.14738454400302556
249,0.99075989999983,-0.01075951749784854,0.133103756435697,0.04484408772140839,-0.04242676645974172,0.22119406568789354,0.05658240243558118,0.013878462924912972,-0.18811396791291754,-0.10410876064103622,0.22733646393590196,-1.0757353196450468,-0.1462380682056818
250,0.994628799991915,-0.01075951749784854,0.133103756435697,0.04484408772140839,-0.04237214922993327,0.22038711960192686,0.056129933998210715,0.014795034536527661,-0.19292245164650532,-0.1050065819629055,0.2271144168626797,-1.0759442814492095,-0.14516238645161378
251,0.998739899994689,-0.010890397120156324,0.13460280063003954,0.045150181841079357,-0.0423138558357672,0.21955848829344982,0.05567228201486058,0.015712079861499816,-0.19774959409057669,-0.10590971902875566,0.2268905500774819,-1.0762045867018863,-0.1441544241912513
252,1.00288709999586,-0.011421667886818348,0.1376244226635069,0.04564537163129624,-0.042251880090165776,0.21870817591451983,0.055209484797411605,0.016629575399859427,-0.20259478181257068,-0.10681792731966373,0.22666522921076226,-1.0765117701389506,-0.14321102789581788
253,1.0062730999925409,-0.011421667886818348,0.1376244226635069,0.04564537163129624,-0.04218621589645279,0.21783619069914542,0.0547415827469284,0.017547497844203983,-0.20745737125979904,-0.10773094359429283,0.22643879390527158,-1.0768611994532007,-0.14232896996019032
254,1.0102389999956358,-0.011561751845965768,0.13908106073101656,0.04593044973748057,-0.042116857253276685,0.2169425449638764,0.054268618338946875,0.01846582401049256,-0.21233668928330476,-0.1086484863274998,0.22621155777254773,-1.0772480827343331,-0.1415049536534997
255,1.0138267999864183,-0.01207132676274293,0.1419941531704435,0.04636394943794072,-0.042043798259768485,0.21602725510616017,0.05379063610695383,0.019384530769469485,-0.21723203369091276,-0.10957025616715707,0.22598380837911994,-1.0776674760436264,-0.14073561811108554
256,1.0177800999954345,-0.01235029422270714,0.1434560744426659,0.04659494181729531,-0.041967033120924986,0.21509034160049506,0.05330768262409687,0.020303594978789325,-0.22214267382852493,-0.11049593640844318,0.22575580726208375,-1.078114291112906,-0.14001754336142136
257,1.0219165999878896,-0.012561535745645053,0.14480418680627083,0.04679652668276643,-0.041886556153207286,0.21413182899241465,0.05281980648316486,0.02122299341591359,-0.22706785118869197,-0.1114251934848436,0.22552778997367645,-1.0785833031573162,-0.13934725538164341
258,1.0259603999875253,-0.01282353102664362,0.14619914416023336,0.047033358541786016,-0.041802361790344425,0.21315174589033725,0.052327058274879726,0.022142702711847866,-0.23200678004547398,-0.11235767747509327,0.22529996615445627,-1.0790691587913968,-0.1387212311753384
259,1.0301786999916658,-0.01282353102664362,0.14619914416023336,0.047033358541786016,-0.04171444458933193,0.21215012495531718,0.05182949056454215,0.023062699285786394,-0.2369586481145834,-0.11329302262528179,0.22507251963466401,-1.0795663840379437,-0.13813590386627558
260,1.0344672999926845,-0.01282353102664362,0.14619914416023336,0.047033358541786016,-0.041622799236614876,0.2111270028887346,0.051327157867074695,0.023982959280729632,-0.2419226172377876,-0.11423084788533323,0.22484560856331867,-1.0800693924191178,-0.13758766780180554
261,1.0385979999991832,-0.01282353102664362,0.14619914416023336,0.047033358541786016,-0.04152742055444511,0.21008242041796293,0.050820116620507456,0.024903458500138535,-0.24689782409053163,-0.11517075745906477,0.224619365564577,-1.080572493119275,-0.1370728836596914
262,1.042289199991501,-0.0129700571967786,0.14756419895383185,0.047342159910451216,-0.041428303507401926,0.209016422280055,0.050308425157951996,0.025824172345687665,-0.25188338091172574,-0.11611234136702178,0.22439389792086284,-1.081069899209009,-0.13658788355219045
263,1.0458049999870127,-0.0129700571967786,0.14756419895383185,0.047342159910451216,-0.041325443209065754,0.20792905720348884,0.04979214367811033,0.026745075756177437,-0.25687837625463206,-0.11705517602128143,0.2241692877822485,-1.0815557359199304,-0.13612897612126434
264,1.0492216999991797,-0.013608141318808874,0.15146079956212705,0.04793098920105041,-0.041218834928834214,0.2068203778880162,0.04927133421436683,0.02766614314766394,-0.26188187575777416,-0.11799882481141234,0.2239455924015487,-1.0820240489597508,-0.13569245161885934
265,1.0529315999883693,-0.01421014395618138,0.15393802997341086,0.04829558986281955,-0.04110847409886978,0.20569044098265718,0.04874606060251177,0.02858734835486296,-0.26689292293478306,-0.1189428387007741,0.22372284439456638,-1.0824688128572892,-0.13527458696627206
266,1.0572749999992084,-0.014367350157445084,0.1549864977747686,0.04849689034586857,-0.04099435632116846,0.20453930706188747,0.04821638844714607,0.029508664573882865,-0.27191053998208514,-0.1198867568323377,0.22350105202491174,-1.0828839393270935,-0.13487165078669414
267,1.0614934999903198,-0.01460360794476577,0.1561282872493491,0.048686828083535354,-0.040876477374738956,0.20336704060006466,0.04768238508681791,0.030430064306339,-0.27693372860332877,-0.12083010714320638,0.22328019951279668,-1.0832632856434465,-0.13447990840511512
268,1.0654367999959504,-0.014805373728989013,0.15715762847739775,0.048895455345257764,-0.04075483322288165,0.20217370994414266,0.0471441195579422,0.03135151930490011,-0.28196147084944106,-0.12177240698701594,0.2230602473671865,-1.0836006630136152,-0.13409562680985357
269,1.0687722000002395,-0.014980312899275018,0.15823369470607504,0.04902929217723623,-0.04062942002055694,0.20095938728472254,0.046601662557554616,0.03227300052031542,-0.2869927299732034,-0.12271316376339343,0.22284113274067618,-1.083889844940304,-0.13371507957008458
270,1.0721948999998858,-0.014980312899275018,0.15823369470607504,0.04902929217723623,-0.04050023412183245,0.19972414862548937,0.046055086404952594,0.03319447804996876,-0.29202645129722965,-0.12365187555365513,0.2226227698064405,-1.084124575563393,-0.13333455170383585
271,1.0764394999860087,-0.014980312899275018,0.15823369470607504,0.04902929217723623,-0.04036727208739878,0.1984680737510856,0.04550446500227577,0.03411592108800435,-0.2970615630942295,-0.12458803176192657,0.22240505015658965,-1.0842985779711596,-0.13295034449103316
272,1.0804416999890236,-0.014980312899275018,0.15823369470607504,0.04902929217723623,-0.04023053069214337,0.19719124619347198,0.04494987379407897,0.03503729787706609,-0.3020969774784382,-0.12552111376087177,0.22218784322124965,-1.0844055624713105,-0.13255878022629144
273,1.0845421999983955,-0.01502173330112109,0.1592433092142391,0.04923315643739053,-0.04009000693277218,0.19589375319682742,0.044391389725951476,0.03595857566169035,-0.30713159130709466,-0.12645059554122237,0.22197099670766918,-1.0844392348123018,-0.13215620690626823
274,1.0887325999938184,-0.015583634441559038,0.1619958214455377,0.04973753332270171,-0.039945698035468796,0.1945756856810405,0.0438290912022362,0.03687972064339018,-0.31216428709085303,-0.12737594436430177,0.22175433705864497,-1.0843933043455827,-0.13173900284652165
275,1.09225499999593,-0.015583634441559038,0.1619958214455377,0.04973753332270171,-0.039797601463580544,0.19323713820384547,0.0432630580429025,0.03780069793746674,-0.31719393391201817,-0.1282966214167461,0.22153766992954374,-1.0842614921195655,-0.13130358122294622
276,1.095851499994751,-0.015545100651365131,0.16275434816498266,0.04995998325060517,-0.03964571492532147,0.19187820892165602,0.04269337143962659,0.03872147153158145,-0.3222193883494986,-0.12921208246662916,0.2213207806831881,-1.0840375388962955,-0.13084639453299404
277,1.0995514999958689,-0.0159656913908159,0.16422084431696193,0.050261445006696846,-0.03949003638148216,0.19049899954915062,0.04212011391113363,0.03964200424612025,-0.3272394954093774,-0.13012177852020737,0.22110343490186418,-1.0837152130819787,-0.13036393897202964
278,1.1030782999878284,-0.01607155428260838,0.1649335717417525,0.05039397952198593,-0.03933056405313622,0.18909961531766287,0.04154336925785554,0.040562257696378806,-0.33225308946000875,-0.1310251564785094,0.22088537891569665,-1.0832883185627125,-0.12985275872031085
279,1.1066833999939265,-0.016141437022355702,0.1656173447956435,0.05056741314028103,-0.03916729642933365,0.18768016493243098,0.04096322251595866,0.041482192256595406,-0.33725899517055663,-0.13192165979300485,0.22066634034663093,-1.0827507024369731,-0.12930945013623707
280,1.1101295999978902,-0.016141437022355702,0.1656173447956435,0.05056741314028103,-0.039000232274771056,0.18624076052876037,0.04037975991079518,0.04240176702585587,-0.34225602845190206,-0.13281072911959604,0.22044602866725402,-1.082096262636616,-0.1287306658516579
281,1.1136303999956,-0.016114967759032768,0.16617918312090152,0.05076538611360584,-0.038829370637429146,0.18478151762715425,0.0397930688098324,0.04332093979589267,-0.34724299739885406,-0.133691802970187,0.22022413577367997,-1.0813189554283598,-0.12811311876519102
282,1.1179417999956058,-0.016289045991294604,0.16711475990264837,0.05101518457943544,-0.038654710856168055,0.18330255508746612,0.03920323767511351,0.044239667020798006,-0.35221870323261323,-0.13456431836109725,0.22000033657172116,-1.080412802787955,-0.12745358592965775
283,1.1218961999984458,-0.01629436183077553,0.16751348699656043,0.051163184822942805,-0.03847625256827137,0.18180399506212772,0.03861035601530303,0.045157903788668644,-0.3571819412424498,-0.13542771145759916,0.2197742895755609,-1.0793718996394568,-0.1267489123299067
284,1.1260333999962313,-0.0163445003488221,0.16787936839341722,0.05128863670345105,-0.03829399571692987,0.18028596294850704,0.03801451433737016,0.04607560379519769,-0.3621315017255738,-0.13628141821387124,0.21954563751813813,-1.0781904209522757,-0.1259960145474618
285,1.1302055999985896,-0.01632561941223208,0.1681428199472928,0.05142017197447733,-0.03810794055865574,0.1787485873404515,0.03741580409796213,0.04699271931922674,-0.36706617092419,-0.13712487500767306,0.21931400797245204,-1.0768626286889114,-0.12519188430859843
286,1.1388019999867538,-0.016303129920430537,0.16838017596902402,0.05153562958478658,-0.0379180876706185,0.17719199997907042,0.036814317654519625,0.047909201200269314,-0.37198473195874543,-0.13795751926906313,0.21907901398299123,-1.0753828785965418,-0.12433359191262462
287,1.1427675999875646,-0.016271540744177644,0.16856083982465048,0.05164517141194546,-0.037724437957894194,0.17561633570281088,0.03621014821618581,0.048824998818014546,-0.37688596575639066,-0.13877879010249494,0.2188402547064925,-1.0737456268358818,-0.12341828953731562
288,1.1470201999909475,-0.016271540744177644,0.16856083982465048,0.05164517141194546,-0.037526992660619644,0.17402173239687835,0.03560338979456002,0.0497400600738178,-0.38176865197369897,-0.13958812890164257,0.21859731606123306,-1.0719454364409842,-0.12244321441862602
289,1.1510079999861773,-0.016271540744177644,0.16856083982465048,0.05164517141194546,-0.037325753361043795,0.17240833094205552,0.03499413715434659,0.05065433137418251,-0.3866315699127027,-0.14038497995632399,0.21834977138406061,-1.06997698360393,-0.12140569190198032
290,1.155253699995228,-0.016106494588645583,0.1687140800420141,0.0517957994490676,-0.03712072199046809,0.17077627516297175,0.03438248576394848,0.05156775761623511,-0.3914734994293299,-0.14116879105090713,0.21809718209436688,-1.0678350637786225,-0.12030313836262319
291,1.1594034999870928,-0.016019363275220945,0.16873782154354078,0.05196620176137261,-0.036911900836068136,0.16912571177587526,0.03376853174605467,0.05248028217519314,-0.396293221833343,-0.14193901405360124,0.2178390983642116,-1.0655145975981786,-0.11913306399268939
292,1.1636271999886958,-0.016019363275220945,0.16873782154354078,0.05196620176137261,-0.03669929254758892,0.16745679033595964,0.03315237182826999,0.0533918468938239,-0.4010895207789027,-0.14269510549605366,0.21757505979380873,-1.0630106366006928,-0.11789307545283478
293,1.1680388999957358,-0.015770756003677486,0.16867202557679134,0.05213409055355556,-0.036482900143906545,0.1657696631842942,0.03253410329383466,0.054302392073889316,-0.40586118314490244,-0.14343652714269073,0.21730459609158811,-1.0603183687584354,-0.11658087838645234
294,1.1719649999868125,-0.01552367994325542,0.16838029672977298,0.05225739956964034,-0.03626272701944949,0.16406448539440874,0.03191382393248011,0.05521185646957019,-0.41060699990424065,-0.14416274654925976,0.217027227758051,-1.0574331238058248,-0.11519427979468021
295,1.176013699994655,-0.015343769880084618,0.16818722413435985,0.05232308708730698,-0.03603877695047275,0.16234141471858204,0.031291631991466576,0.05612017728286118,-0.4153257669812226,-0.14487323761004797,0.21674246677264386,-1.054350378361802,-0.11373119027059193
296,1.1804105999908645,-0.015154441353000467,0.1679795053881571,0.05236175413929938,-0.03581105410117832,0.16060061153388416,0.03066762612684736,0.05702729016092588,-0.42001628609631003,-0.14556748109327425,0.21644981728288226,-1.0510657608425173,-0.11218962609114323
297,1.1843809999991208,-0.014960790309863971,0.16768051350711374,0.052404931943426006,-0.0355795630296757,0.15884223878802003,0.030041905355003472,0.05793312919539976,-0.4246773655974592,-0.14624496516416927,0.21614877629496074,-1.0475750561605346,-0.11056771116563321
298,1.1932467999868095,-0.014960790309863971,0.16768051350711374,0.052404931943426006,-0.03534430869377659,0.15706646194502186,0.029414569004491405,0.05883762692362651,-0.4293078212773119,-0.14690518589527998,0.21583883436509257,-1.043874210207054,-0.10886367883962092
299,1.1970752999914112,-0.014960790309863971,0.16768051350711374,0.052404931943426006,-0.035105296456618,0.15527344893083658,0.028785716668245726,0.05974071433181146,-0.43390647717553116,-0.1475476477635556,0.21551947629083304,-1.0399593341139481,-0.10707587355342067
300,1.2011873999872478,-0.014141322341616119,0.166566316599948,0.05261310756442851,-0.03486253209210843,0.1534633700788538,0.028155448156177293,0.06064232086007345,-0.4384721663656018,-0.14817186413379138,0.21519018180164706,-1.0358267082926966,-0.10520275235448331
301,1.2052512999944156,-0.013902155996981684,0.16624476030655494,0.05265706975728273,-0.03461602179019178,0.15163639807541834,0.02752386344820673,0.061542374409374795,-0.4430037317254403,-0.14877735772802853,0.21485042624799217,-1.031472786247603,-0.10324288626315088
302,1.209549999999581,-0.013588272740733778,0.16580431697713505,0.052751327932786155,-0.034365772161924206,0.14979270790537144,0.026891062647771524,0.062440801350307204,-0.4475000266911853,-0.14936366108052965,0.21449968128819794,-1.0268941981609794,-0.101194961491452
303,1.2128387999982806,-0.01320827669279215,0.16539289188542466,0.05275182312060417,-0.03411179024435929,0.14793247679766364,0.026257145935844186,0.06333752653370961,-0.45195991599357,-0.14993031697797185,0.21413741557243465,-1.0220877542482774,-0.09905778051478396
304,1.216501499991864,-0.012897964222133738,0.1649459848198619,0.0528443489641797,-0.03385408350523738,0.14605588417108187,0.0256222135254977,0.06423247330309169,-0.4563822763763014,-0.1504768788845206,0.2137630954230749,-1.0170504478814437,-0.0968302629965054
305,1.2228223999991314,-0.012897964222133738,0.1649459848198619,0.0528443489641797,-0.033592659847475115,0.14416311158013112,0.02498636561705316,0.06512556350883596,-0.46076599729590284,-0.151002911351468,0.21337618551076407,-1.011779458479069,-0.09451144656563919
306,1.2276377999951364,-0.012897964222133738,0.1649459848198619,0.0528443489641797,-0.033327527613451376,0.1422543426611099,0.024349702353843386,0.0660167175241499,-0.46510998160250283,-0.15150799041114194,0.21297614952552907,-1.0062721541621886,-0.09210048744805886
307,1.2328355999925409,-0.012897964222133738,0.1649459848198619,0.0528443489641797,-0.033058695589086154,0.14032976307841746,0.023712323778624957,0.06690585426273814,-0.46941314620108504,-0.15199170395481432,0.212562450842266,-1.0005260941748908,-0.08959666095170418
308,1.2420544999913543,-0.0125149817253142,0.16450354602105072,0.05296234018268556,-0.03278617300770908,0.13838956047113002,0.023074329790669926,0.06779289119816237,-0.47367442269274246,-0.15245365209435957,0.21213455317996321,-0.9945390310691725,-0.08699936180653996
309,1.2467846999934409,-0.0125149817253142,0.16450354602105072,0.05296234018268556,-0.03250996955371477,0.13643392439988164,0.022435820103567254,0.06867774438485619,-0.47789275799550884,-0.15289344750743655,0.21169192125403052,-0.988308912653777,-0.08430810436013947
310,1.251380199988489,-0.011423566934400671,0.1629633236164283,0.0531237353593704,-0.03223009536600227,0.13446304629408454,0.02179689420376263,0.06956032848075953,-0.4820671149443705,-0.15331071576598795,0.21123402142111936,-0.9818338837070176,-0.08152252262993769
311,1.2555861999862827,-0.010691561879609275,0.16194893431863502,0.05324056811017464,-0.031946561041196225,0.13247711939952242,0.021157651309863915,0.07044055677153659,-0.4861964728700915,-0.15370509564787393,0.21076032231583464,-0.975112287453876,-0.07864237021336094
312,1.2595469999941995,-0.010273117310116422,0.16140781191449,0.05334350042291728,-0.031659377636647806,0.13047633872634917,0.020518190332738186,0.07131834119633898,-0.49027982815651105,-0.15407623943147886,0.2102702954787548,-0.9681426668079396,-0.07566752005719835
313,1.2651248999900415,-0.009887582612174154,0.1609487287734301,0.053390198819187704,-0.03136855667321353,0.12846090099752397,0.019878609836425042,0.07219359237507547,-0.494316194776002,-0.15442381317315254,0.20976341597519285,-0.9609237653790157,-0.0725979640877357
314,1.2688043999951333,-0.009430802887955756,0.160470507554111,0.053454775786811515,-0.03107411013781041,0.12643100459771206,0.019239007999889618,0.07306621963714768,-0.49830460480280897,-0.1547474969673688,0.20923916300414844,-0.9534545282475322,-0.06943381270332473
315,1.2722061999957075,-0.008945116056935785,0.15999661475554816,0.053517414262144805,-0.030776050485746127,0.1243868495226795,0.018599482579637283,0.07393613105161065,-0.5022441089040133,-0.15504698518950683,0.20869702049691843,-0.9457341025070974,-0.06617529413120868
316,1.2764778999990083,-0.008496937140850378,0.1594760220528129,0.05359754786987524,-0.030474390642823184,0.12232863732920911,0.017960130873210647,0.07480323345871595,-0.5061337768079015,-0.15532198672118122,0.20813647770484994,-0.9377618375768616,-0.06282275365057019
317,1.2803638999903342,-0.008496937140850378,0.1594760220528129,0.05359754786987524,-0.030169144007216292,0.12025657108556342,0.01732104968358819,0.07566743250279437,-0.5099726977495431,-0.15557222515806732,0.207557029775738,-0.9295372852855746,-0.05937665268390902
318,1.2844458999898052,-0.008496937140850378,0.1594760220528129,0.05359754786987524,-0.029860324451122595,0.11817085532251953,0.016682335284502442,0.07652863266643377,-0.5137599808934097,-0.1557974390001891,0.206958178318387,-0.9210601997294873,-0.055837567758993976
319,1.288625499990303,-0.007175823950068414,0.15803247588876837,0.05371427018771295,-0.02954794632218439,0.11607169598499922,0.016044083386694424,0.07738673730590656,-0.517494755732901,-0.15599738182465983,0.2063394319548737,-0.9123305369064911,-0.05220618934376661
320,1.2928351999871666,-0.006676400646832514,0.15764895659554745,0.05383501533210412,-0.029232024444684195,0.1139593003843166,0.015406389105119688,0.0782416486878001,-0.5211761724666727,-0.1561718224408844,0.2057003068600688,-0.903348454129126,-0.04848332055670321
321,1.2968656999873929,-0.006243317385707915,0.15728248123567343,0.053899975216085555,-0.028912574120512353,0.1118338771510635,0.014769346927119995,0.0790932680268027,-0.5248034023516844,-0.15632054502825363,0.20504032728799276,-0.8941143092193241,-0.044669875755265986
322,1.301263099987409,-0.005845046600543916,0.15693184278984132,0.05398303421224963,-0.028589611129907672,0.10969563618865208,0.014133050681573273,0.0799414955245969,-0.5283756380329225,-0.15644334925638068,0.20435902608460105,-0.8846286594879789,-0.04076687900519522
323,1.3059969999885652,-0.005336970384828239,0.15652785407676353,0.05409687593145287,-0.028263151731971914,0.10754478862753283,0.01349759350903311,0.08078623040981182,-0.5318920938497697,-0.15654005038794958,0.20365594518661395,-0.8748922605026489,-0.036775462433509876
324,1.3096631999942474,-0.004829872179547263,0.1562420212058811,0.05418562783339956,-0.027933212664958997,0.1053815467801043,0.012863067832867815,0.08162737097898508,-0.5353520061190247,-0.1566104793642658,0.20293063610602669,-0.8649060646469231,-0.032696864468195974
325,1.3130144999886395,-0.004341441040535141,0.15595088758183792,0.05427339866370615,-0.027599811146339952,0.10320612409633062,0.012229565331407784,0.08246481463848471,-0.5387546333946035,-0.15665448287361805,0.20218266039995328,-0.8546712194751901,-0.028532427967668385
326,1.3167931999923894,-0.0038226562504639194,0.155586595748487,0.054433382481953854,-0.027262964872644974,0.10101873512008082,0.011597176911108509,0.08329845794734111,-0.5420992567039784,-0.15667192340257913,0.2014115901254793,-0.8441890658667541,-0.024283598243193885
327,1.3216231999977026,-0.003458766256649098,0.1552872674927542,0.0545714443495338,-0.026922692019084336,0.09881959544620218,0.010965992680735325,0.08412819666093813,-0.5453851797614372,-0.15666267927039224,0.2006170082792171,-0.8334611359834367,-0.019951920977560232
328,1.3258261999872047,-0.0030529878062198323,0.15503021373836598,0.05470855116880192,-0.026579011238950116,0.09660892167833951,0.010336101926574715,0.08495392577551229,-0.5486117291582714,-0.15662664464660547,0.1997985092212775,-0.8224891510349975,-0.01553904004336832
329,1.3292802999931157,-0.0025364310426881434,0.15473811753330718,0.054909405350644924,-0.02623194166280076,0.09438693138751013,0.009707593088675729,0.08577553957340918,-0.551778254530026,-0.15656372955213563,0.1989556990833914,-0.8112750188568879,-0.011046695224411771
330,1.3326336999889463,-0.0020955896956554847,0.15455146946216336,0.05510591928759442,-0.025881502897430676,0.09215384307144328,0.009080553738123859,0.08659293166904507,-0.5548841287009745,-0.15647385984395956,0.19808819616093506,-0.7998208313050275,-0.006476719843690371
331,1.3364153999864357,-0.0020955896956554847,0.15455146946216336,0.05510591928759442,-0.02552771502462732,0.08990987611469192,0.008455070555348432,0.08740599505552218,-0.5579287478059994,-0.15635697718364783,0.1971956312886335,-0.7881288614724571,-0.0018310383016811374
332,1.340664499992272,-0.0020955896956554847,0.15455146946216336,0.05510591928759442,-0.02517059859971841,0.0876552507495232,0.00783122930946342,0.0882146221518455,-0.5609115313900829,-0.1562130389899718,0.19627764819973662,-0.7762015607328799,0.002888336471437322
333,1.344050599989714,-0.0015199746690836013,0.15433350318098474,0.05538107779625467,-0.02481017464991192,0.08539018801759199,0.007209114838640367,0.0890187048506894,-0.5638319224856342,-0.1560420183758318,0.19533390386848304,-0.7640415556162532,0.007679305645844495
334,1.3474532999971416,-0.0015199746690836013,0.15433350318098474,0.05538107779625467,-0.024446464672431854,0.0831149097324013,0.006588811031511049,0.08981813456666184,-0.5666893876679054,-0.1558439040697673,0.19436406883568685,-0.7516516445217372,0.012539687200597269
335,1.351047899996047,-0.0005897042813016798,0.15342160118495654,0.05585537846557982,-0.02407949063245297,0.08082963844255162,0.005970400809596275,0.09061280228501362,-0.5694834170887663,-0.15561870032232572,0.1933678275173025,-0.739034794273441,0.017467218706727846
336,1.3544765999977244,-0.00024123564849054882,0.1531446677156832,0.05614698734706289,-0.023709274960838047,0.07853459739578102,0.00535396611075611,0.09140259861074089,-0.5722135244891348,-0.15536642679758023,0.19234487849584234,-0.7261941365245325,0.022459560180987968
337,1.3579716999956872,-0.00024123564849054882,0.1531446677156832,0.05614698734706289,-0.023335840551681235,0.07623001050379608,0.004739587873655732,0.09218741381802878,-0.5748792471903795,-0.15508711845010176,0.19129493479454068,-0.713132964015403,0.02751429700626095
338,1.3622398999868892,0.0002098047165664356,0.15289542823665092,0.056464845533079885,-0.022959210759661116,0.07391610230789317,0.004127346023240129,0.09296713789998413,-0.5774801460650262,-0.15478082538770185,0.19021772413417903,-0.6998547266916905,0.03262894291462225
339,1.3675968999887118,0.0007350154363098445,0.15240526209043778,0.05689698442932349,-0.022579409397207297,0.07159309794536811,0.003517319457209784,0.093741660618606,-0.5800158054871237,-0.15444761272027582,0.18911298917250588,-0.6863630276880636,0.037800943028993485
340,1.371730699989712,0.0010013775304579704,0.15211785017936527,0.05713809371400454,-0.022196460731484558,0.06926122311671136,0.0029095860334884924,0.09451087155494241,-0.5824858332626434,-0.1540875603950876,0.1879804877262047,-0.6726616191837697,0.043027676959304456
341,1.3759533999982525,0.0010013775304579704,0.15211785017936527,0.05713809371400454,-0.021810389481198688,0.06692070405358493,0.002304222558673497,0.09527466015938288,-0.5848898605403009,-0.15370076301884958,0.18681999297538307,-0.6587543981360318,0.04830646194905217
342,1.3799768999888329,0.0010013775304579704,0.15211785017936527,0.05713809371400454,-0.021421220813228215,0.06457176748757627,0.0017013047774571315,0.09603291580203663,-0.5872275417032141,-0.15328732966696154,0.18563129365057335,-0.6446454018974619,0.05363455606812607
343,1.384216499995091,0.0010013775304579704,0.15211785017936527,0.05713809371400454,-0.02102898033908638,0.062214640619722934,0.0011009073630082267,0.09678552782314671,-0.5894985542418151,-0.1528473836802839,0.18441419420225644,-0.6303388037237204,0.05900916144775358
344,1.3876034999993865,0.0010013775304579704,0.15211785017936527,0.05713809371400454,-0.02063369411121784,0.05984955109080058,0.0005031039083006545,0.09753238558349114,-0.5917025986084575,-0.15238106244982888,0.1831685149529377,-0.6158389081777162,0.06442742755341073
345,1.3911826999974437,0.0013373049216847763,0.15185985092526208,0.05746286252755188,-0.020235388619134664,0.05747672695236652,-9.203308162449314e-05,0.09827337851472255,-0.593839398054176,-0.15188851718976426,0.18189409223182224,-0.601150146436696,0.06988645449153756
346,1.394570999997086,0.0023075560692555237,0.15080313994688926,0.058575280431179814,-0.019834090785396188,0.0550963966385498,-0.0006844321964774162,0.09900839616959782,-0.595908698448065,-0.15136991269913022,0.18059077849215502,-0.5862770715086175,0.07538329634589856
347,1.3986039999872446,0.0025013893283620716,0.15054714366508337,0.05887995477770159,-0.019429827961437544,0.05270878893857889,-0.0012740231266339442,0.09973732827205042,-0.5979102680797603,-0.15082542711267868,0.1792584424113097,-0.5712243533642419,0.08091496453943324
348,1.4020947999961209,0.002803106999103371,0.1502678493988709,0.059229665777079006,-0.01902262792325177,0.05031413297003596,-0.0018607366681615985,0.10046006476705861,-0.5998438974455136,-0.1502552516412522,0.17789696897372764,-0.5559967739914086,0.0864784312174526
349,1.405570599992643,0.003095392310220364,0.15000870617022713,0.05956348826487274,-0.018612518866930435,0.047912658152826804,-0.002444504726974011,0.10117649587026345,-0.6017093990183668,-0.1496595903021267,0.17650625953682564,-0.5405992223779738,0.09207063264805272
350,1.4096354999928735,0.0032587685470367566,0.1497266331591582,0.05985714787466059,-0.018199529404067678,0.04550459418385418,-0.003025260322131039,0.10188651211729127,-0.6035066070029471,-0.1490386596397482,0.17508623188000738,-0.5250366894299061,0.09768847263563579
351,1.4135810999869136,0.0032587685470367566,0.1497266331591582,0.05985714787466059,-0.017783688557032627,0.0430901710123821,-0.0036029375883025842,0.10259000441273579,-0.6052353770754091,-0.14839268843729825,0.17363682023692956,-0.5093142628310398,0.10332882594345373
352,1.41785249998793,0.0032587685470367566,0.1497266331591582,0.05985714787466059,-0.017365025754115273,0.040669618816077904,-0.004177471777414776,0.10328686407875586,-0.6068955861090612,-0.14772191741952906,0.17215797531119062,-0.4934371218509857,0.1089885417211185
353,1.4218516999972053,0.0032587685470367566,0.1497266331591582,0.05985714787466059,-0.01694357082455085,0.038243167977717714,-0.004748799259497779,0.10397698290324628,-0.608487131886224,-0.1470265989473133,0.17064966427562606,-0.47741053210769097,0.11466444693305783
354,1.425223999991431,0.0032587685470367566,0.1497266331591582,0.05985714787466059,-0.01651935399342784,0.0358110490625405,-0.005316857522755048,0.10466025318753953,-0.6100099327968781,-0.1463069967043575,0.16911187075540965,-0.461239840291113,0.12035334978393343
355,1.4285511999914888,0.003563529888369813,0.14947072360724825,0.06026672249569479,-0.016092405876484733,0.03337349279623529,-0.0058815851728743875,0.10533656779359775,-0.6114639275246644,-0.14556338537653193,0.167544594795174,-0.44493046885445064,0.12605204313708088
356,1.43236039999465,0.003563529888369813,0.14947072360724825,0.06026672249569479,-0.01566275747480083,0.030930730043545435,-0.006442921931601693,0.10600582019065502,-0.6128490747208043,-0.1447960503242719,0.1659478528103778,-0.4284879106793402,0.13175730792207765
357,1.43622289999621,0.003563529888369813,0.14947072360724825,0.06026672249569479,-0.015230440169386282,0.028482991787473023,-0.007000808634598726,0.10666790450127132,-0.6141653526665098,-0.14400528724850753,0.16432167752316093,-0.4119177237213845,0.13746591652759696
358,1.4406137999903876,0.004639537948881386,0.1482729357213461,0.06221146321158115,-0.014795485715676552,0.02603050910906616,-0.0075551872286066715,0.10732271554676036,-0.615412758924462,-0.14319140185057969,0.16266611788294308,-0.395225525642338,0.14317463617576026
359,1.4445227999967756,0.004810561433941204,0.14808111519778883,0.06256159897258336,-0.01435792623793654,0.02357351316777145,-0.008106000767937672,0.1079701488919548,-0.616591309979939,-0.14235470948660178,0.16098123897203442,-0.37841698843521593,0.14888023227426067
360,1.4486086999968393,0.004945247867020046,0.14792785512827422,0.06293972786864169,-0.013917794223579671,0.021112235182333395,-0.008653193410316862,0.10861010088927305,-0.6177010408721795,-0.1414955348167268,0.15926712189654005,-0.3614978330485341,0.15457947174259173
361,1.4520212999923388,0.004945247867020046,0.14792785512827422,0.06293972786864169,-0.013475122517407186,0.018646906412222126,-0.009196710412097742,0.10924246872205323,-0.6187420048165683,-0.14061421144978042,0.15752386366285184,-0.3444738240158169,0.16026912630878376
362,1.4553075000003446,0.004945247867020046,0.14792785512827422,0.06293972786864169,-0.013029944315772863,0.016177758139570442,-0.009736498122874061,0.10986715044712181,-0.619714272818236,-0.13971108158371984,0.15575157704003484,-0.32735076409643726,0.16594597577312115
363,1.4589565999922345,0.004945247867020046,0.14792785512827422,0.06293972786864169,-0.012582293160678389,0.0137050216516007,-0.010272503979511644,0.11048404503656449,-0.6206179332776587,-0.13878649564237666,0.15395039040842431,-0.31013448893376977,0.171606811235388
364,1.4624310999934096,0.004945247867020046,0.14792785512827422,0.06293972786864169,-0.012132202933804534,0.0112289282235218,-0.010804676499623815,0.11109305241866949,-0.6214530915888552,-0.13784081190893882,0.15212044759476132,-0.2928308617365502,0.17724843828226589
365,1.466482799994992,0.005114764931469708,0.1477824814848893,0.06340632555788155,-0.01167970785048332,0.008749709101876332,-0.011332965274514262,0.11169407351801304,-0.6222198697307749,-0.13687439615662544,0.15026190769420492,-0.2754457679892431,0.18286768013158827
366,1.471857999989879,0.005114764931469708,0.1477824814848893,0.06340632555788155,-0.011224842453616326,0.0062675954883176024,-0.011857320961611302,0.11228701029465965,-0.6229184058524662,-0.13588762127700524,0.14837494487956981,-0.257985110197117,0.1884613807302412
367,1.4780838999868138,0.005517613918778062,0.1473006146431089,0.0648070495748496,-0.010767641607544178,0.003782818523796029,-0.012377695276417673,0.1128717657824501,-0.6235488538526162,-0.13488086690640544,0.1464597481981469,-0.24045480267162353,0.1940264078025861
368,1.4815783999947598,0.00540650206202245,0.14711354352023373,0.06542005929810388,-0.01030814049187234,0.0012956092731343204,-0.012894040984000078,0.11344824412635193,-0.6241113829540507,-0.13385451905085588,0.14451652135647372,-0.22286076636156316,0.19955965584637086
369,1.4849055999948175,0.005432070166569707,0.1470892474932524,0.06575828121807534,-0.00984637459525821,-0.001193801290029393,-0.013406311890042743,0.11401635061884831,-0.6246061772737715,-0.13280896971000825,0.14254548249342952,-0.20520892373540567,0.20505804907318648
370,1.4886857999954373,0.005415183375561572,0.1470195615232293,0.06613079823080958,-0.009382379709164484,-0.003685182297951382,-0.013914462831489232,0.11457599173534205,-0.6250334353891124,-0.1317446165004649,0.14054686394203753,-0.1875051937200115,0.21051854429062086
371,1.493121899999096,0.0054429696809040265,0.14698329218387057,0.06648162832685867,-0.008916191921583636,-0.006178303003166098,-0.014418449666796888,0.1151270751685529,-0.6253933699005872,-0.13066186227894755,0.1385209119803645,-0.16975548670087473,0.21593813372335896
372,1.4969235999888042,0.005438426319569034,0.1469288113685887,0.06679614802177537,-0.00844784761073829,-0.008672932792564966,-0.014918229265828127,0.11566950986188759,-0.6256862069920043,-0.1295611147657295,0.1364678865719138,-0.15196569958887657,0.22131384777057841
373,1.5010532999876889,0.0054655371191585055,0.14683116483853473,0.06707037407467316,-0.00797738343876223,-0.011168841201191264,-0.015413759499402815,0.11620320604176344,-0.6259121859884077,-0.1284427861687503,0.13438806109591483,-0.1341417109584034,0.2266427576970931
374,1.5051643999904627,0.0054655371191585055,0.14683116483853473,0.06707037407467316,-0.00750483634536673,-0.013665797925772185,-0.01590499922853592,0.11672807524886791,-0.626071558912404,-0.12730729280882322,0.13228172206791816,-0.11628937626154279,0.23192197825579913
375,1.5092752999917138,0.0054655371191585055,0.14683116483853473,0.06707037407467316,-0.007030243541496715,-0.016163572838009132,-0.016391908293384397,0.11724403036833823,-0.6261645900394242,-0.1261550547463405,0.1301491688511106,-0.09841452312292591,0.23714867023908412
376,1.5134283999941545,0.005553567714168404,0.1467837256587648,0.06740245209234527,-0.006553642502981329,-0.018661935997647254,-0.016874447501927212,0.1177509856588468,-0.6261915554524681,-0.12498649540987228,0.12799071335877002,-0.08052294671963843,0.24232004295696719
377,1.5169686999870464,0.005489271667689012,0.14673421819882132,0.0679466329187781,-0.006075070964183266,-0.021160657665345126,-0.017352578618402136,0.11824885678057928,-0.6261527425968667,-0.12380204122704937,0.12580667974828394,-0.06262040525046948,0.24743335663984828
378,1.520386199990753,0.005509952704704533,0.14677373478055789,0.0685737122779123,-0.005594566911651228,-0.02365950831536527,-0.017826264351522902,0.11873756082209362,-0.6260484498355904,-0.1226021212581117,0.12359740410716005,-0.04471261549861458,0.2524859247638551
379,1.5246848999959184,0.005509952704704533,0.14677373478055789,0.0685737122779123,-0.005112168577779647,-0.02615825864810617,-0.018295468342499992,0.11921701632604938,-0.6258789860056222,-0.12138716683249531,0.12136323413145786,-0.026805248491789602,0.25747511629688646
380,1.528946199992788,0.005509952704704533,0.14677373478055789,0.0685737122779123,-0.004627914434479778,-0.028656679602496203,-0.018760155152888015,0.11968714331379854,-0.6256446699759054,-0.12015761118882208,0.11910452879707469,-0.008903925263552324,0.262398357863565
381,1.5332894999883138,0.005656472863071606,0.14684002533088952,0.06890571147895261,-0.004141843186866143,-0.031154542368269755,-0.019220290252282564,0.12014786330882979,-0.6253458302073651,-0.11891388911864732,0.1168216580243215,0.008985787280536232,0.2672531358274265
382,1.5375512999889906,0.0053822555580845255,0.14695068447533693,0.06950078140391253,-0.0036539937669622167,-0.0336516183981455,-0.019675840005889064,0.12059909935906,-0.6249828043154912,-0.11765643661431172,0.11451500233622591,0.02685838038844417,0.2720369982887863
383,1.543129300000146,0.005271168815560324,0.14701244707312622,0.06969911636312234,-0.003164405327429111,-0.03614767941992651,-0.020126771661985763,0.1210407760579678,-0.6245559386359638,-0.11638569052123397,0.1121849525110013,0.04470840737559706,0.2767475569968397
384,1.5477656999864848,0.00516693452715743,0.14711225035056708,0.06989530951275151,-0.00267311723532091,-0.03864249744854153,-0.02057305333930269,0.12147281956456477,-0.6240655877937867,-0.11510208819497066,0.10983190922912123,0.06253048742407487,0.2813824891746673
385,1.5513943999976618,0.00509561038367418,0.1471775053722392,0.07014239397772569,-0.0021801690658702078,-0.04113584479804656,-0.02101465401433805,0.12189515762220188,-0.6235121142763865,-0.11380606716335916,0.10745628271543878,0.08031930926412258,0.285939539255934
386,1.5555835999984993,0.00509561038367418,0.1471775053722392,0.07014239397772569,-0.0016856005963073045,-0.04362749409360599,-0.021451543508633108,0.1223077195762106,-0.6228958880111163,-0.11249806479404958,0.10505849237679055,0.0980696347351934,0.2904165205321869
387,1.559729899992817,0.00509561038367418,0.1471775053722392,0.07014239397772569,-0.0011894517997163635,-0.04611721828347156,-0.021883692476026118,0.1227104363903785,-0.6222172859475925,-0.11117851796772091,0.10263896643552389,0.11577630222391881,0.2948113167097723
388,1.564023199985968,0.005117197024789532,0.14717796636240124,0.07049685884681255,-0.000691762838931726,-0.04860479065097735,-0.022311072389905446,0.12310324066226096,-0.6214766916452819,-0.10984786275726635,0.10019814155938535,0.1334342299765759,0.2991218833755087
389,1.567762299993774,0.004344089898514231,0.14776899360143597,0.07082398046983776,-0.00019257406047745582,-0.05108998482656842,-0.022733655530481775,0.12348606663733104,-0.6206744948667395,-0.10850653411322018,0.09773646248820596,0.1510384192838002,0.30334624937037
390,1.5717907999933232,0.004157682311550014,0.14790873752269912,0.07094662297867403,0.0003080740114469486,-0.05357257479988046,-0.0231514149720987,0.1238588502219709,-0.6198110911768883,-0.10715496555568765,0.095254381657818,0.16858395753547084,0.3074825180705482
391,1.5762015999935102,0.0039626716684067025,0.14806747972823317,0.07102152373581443,0.000810140680931867,-0.056052334931887215,-0.023564324570600516,0.12422152899531005,-0.6188868815487134,-0.10579358887302828,0.0927523588216349,0.18606602114387208,0.31152886857538253
392,1.5803070999972988,0.003748123138063362,0.148269900231451,0.07113329365884759,0.0013135850862712125,-0.05852903996713236,-0.023972358950775468,0.12457404221991686,-0.6179022719757356,-0.1044228338275316,0.09023086067032333,0.20347987833341505,0.31548355680175466
393,1.5844809999980498,0.003535254237483118,0.14850588414974256,0.07120888822563538,0.001818366205821876,-0.06100246504606157,-0.024375493493892106,0.12491633085135054,-0.6168576730916111,-0.10304312786831293,0.087690360449992,0.22082089179538117,0.3193449164846646
394,1.5881212999956915,0.003535254237483118,0.14850588414974256,0.07120888822563538,0.0023244428638065327,-0.06347238571747024,-0.024773704325346,0.1252483375465822,-0.6157534997971933,-0.10165489585164511,0.08513133757931932,0.23808452120632745,0.3231113600838167
395,1.5915438999945763,0.0035166629405302477,0.14865573727270415,0.07144228474867623,0.0028317737360575245,-0.0659385779510814,-0.025166968302433538,0.12557000667129495,-0.6145901708953758,-0.10025855976893017,0.08255427726603731,0.25526632560897217,0.32678137959615605
396,1.5969657999958145,0.002542175985372732,0.1495369999344339,0.07145557372909282,0.0033403173556996566,-0.06840081815026816,-0.02555526300226886,0.12588128430607326,-0.6133681087340243,-0.09885453848250282,0.0799596701231845,0.27236196565455684,0.330353547274409
397,1.6011328999884429,0.0022637139613484562,0.14983173591899296,0.07144242520674081,0.003850032118769891,-0.07085888316493436,-0.025938566709859612,0.12618211825149336,-0.6120877388572862,-0.09744324746944569,0.07734801178553506,0.2893672057058562,0.3338265162517894
398,1.6052677999978189,0.0019498723847430656,0.15018525549803524,0.07150958227199239,0.00436087628977204,-0.07331255030456703,-0.026316858406356575,0.1264724580321263,-0.6107494896655509,-0.09602509857358371,0.07471980252660647,0.3062779158001832,0.33719902107314365
399,1.6096282999933464,0.0016861110224892124,0.15048949782470425,0.07154418406858197,0.0048728080071647065,-0.07576159735147342,-0.026690117757491562,0.12675225489946831,-0.6093537920843148,-0.0946004997658135,0.07207554687664179,0.32309007347191027,0.3404698781329136
400,1.6137568999984069,0.0013598053431825852,0.15077301549839564,0.07151256431647575,0.00538578528878083,-0.07820580257421501,-0.027058325102217343,0.12702146183381302,-0.6079010792421979,-0.09316985491291076,0.06941575324195676,0.33979976543420204,0.3436379860203994
401,1.6178866999980528,0.0010909484526666936,0.15104659990716035,0.07149907182190682,0.005899766037177367,-0.08064494474125053,-0.02742146144156279,0.12728003354508238,-0.606391786158339,-0.09173356355494716,0.06674093352603523,0.3564031891198242,0.3467023257729116
402,1.6219214999873657,0.0007342790300624187,0.15138170437134518,0.0714467554663566,0.006414708044913741,-0.0830788031347987,-0.027779508427715812,0.12752792647263259,-0.60482634943938,-0.09029202069143627,0.06405160275274989,0.37289665408106365,0.3496619610375003
403,1.6262354999926174,0.0007342790300624187,0.15138170437134518,0.0714467554663566,0.006930568999757823,-0.08550715756493141,-0.02813244835334613,0.12776509878405296,-0.6032052069862377,-0.08884561657631568,0.061348278692077665,0.38927658324896197,0.3525160381420534
404,1.6302616999892052,0.0007342790300624187,0.15138170437134518,0.0714467554663566,0.007447306489818373,-0.0879297883839071,-0.02848026414117935,0.1279915103729766,-0.6015287977108448,-0.08739473652185971,0.05863148148867169,0.4055395140522295,0.35526378607665104
405,1.6343818999885116,0.0006740644271454391,0.15170868597645004,0.07161348766202748,0.007964878008602986,-0.09034647650075463,-0.028822939333833068,0.128207122855922,-0.5997975612630244,-0.08593976071160561,0.05590173329364404,0.4216820993963696,0.3579045163861616
406,1.6385347999894293,-0.0005216916576943759,0.15269109018054342,0.071211467765337,0.008483240960000736,-0.0927570033961164,-0.02916045808392521,0.12841189956818613,-0.5980119377676484,-0.08448106402236392,0.05315955789990581,0.4377011085037052,0.3604376229751584
407,1.6426570999901742,-0.0007930858792408804,0.1529690921085307,0.07108651925790382,0.009002352663188861,-0.09516115113735922,-0.029492805144464306,0.1286058055588095,-0.5961723675722109,-0.08301901585537191,0.050405480381402606,0.4535934276151574,0.3628625818263278
408,1.6471166999981506,-0.001118995181166503,0.1532276150714761,0.07094019048059512,0.009522170357462948,-0.09755870239396032,-0.029819965859530565,0.12878880758463412,-0.594279291004938,-0.08155397997663719,0.04764002673657494,0.46935606055477885,0.36517895063362793
409,1.6511446999938926,-0.0014455971352159772,0.15354764999039794,0.07081146871200328,0.010042651206990164,-0.09994944045317461,-0.030141926155256144,0.12896087410347715,-0.5923331481435392,-0.08008631436650715,0.04486372353636449,0.4849861291581974,0.36738636835154603
410,1.655554499986465,-0.0017877217706213332,0.15385101372345664,0.07071880597665513,0.010563752305485221,-0.1023331492359895,-0.030458672531112178,0.1291219752664433,-0.5903343785946862,-0.07861637107848833,0.042077097577077366,0.5004808735662709,0.3694845546618852
411,1.6596738999942318,-0.002079309968187948,0.15409247618611538,0.07059474767877992,0.011085430680808849,-0.10470961331337286,-0.030770192051509514,0.12927208290940068,-0.588283421284289,-0.07714449610732745,0.03928067553840642,0.5158376523854021,0.37147330935959316
412,1.6636868999921717,-0.002409679720240601,0.1543940693146951,0.0703862751836898,0.011607643299488712,-0.10707861792281931,-0.031076472337719638,0.12941117054364407,-0.5861807142586251,-0.07567102926635505,0.03647498364690496,0.5310539427161055,0.37335251165922345
413,1.6679654999898048,-0.002409679720240601,0.1543940693146951,0.0703862751836898,0.012130347071162851,-0.10943994898519913,-0.031377501560121486,0.12953921334577112,-0.5840266944963612,-0.07419630407408122,0.033660547345194754,0.5461273400515574,0.37512211942369744
414,1.672016899989103,-0.002409679720240601,0.1543940693146951,0.0703862751836898,0.012653498852945741,-0.11179339312191361,-0.03167326843077914,0.12965618814679608,-0.5818217977314969,-0.07272064765002204,0.03083789096718095,0.5610555580479951,0.3767821683171107
415,1.6759813999960895,-0.002461316205929459,0.1545961840173093,0.07047506561510677,0.013177055453717227,-0.11413873767235987,-0.03196376219635466,0.12976207342052673,-0.5795664582872382,-0.07124438061972495,0.02800753741953667,0.5758364281689567,0.3783327708833957
416,1.6801845999871148,-0.0035343881982558365,0.15533457786097354,0.06966370623250075,0.013700973638334746,-0.11647577071170744,-0.032248972631359785,0.12985684927123076,-0.5772611089208084,-0.06976781702895003,0.02517000786970945,0.5904678992054784,0.37977411555271984
417,1.6845230999897467,-0.0037418158824933587,0.15552953956402013,0.069495823871713,0.01422521013176928,-0.11880428106898815,-0.032528890031749524,0.12994049742061825,-0.5749061806791792,-0.06829126426695403,0.02232582144069147,0.6049480366744945,0.38110646557756434
418,1.6889161999861244,-0.003924070332984107,0.15571404866502386,0.0692218957155599,0.01474972162316559,-0.12112405834550044,-0.03280350520886022,0.13001300119416706,-0.5725021027656954,-0.06681502299881335,0.019475494912784826,0.6192750220978075,0.3823301579004892
419,1.692834599991329,-0.004084423653037111,0.1558455019473111,0.06902504444676867,0.015274464769827486,-0.12343489293352856,-0.03307280948369387,0.1300743455068187,-0.570049302417546,-0.06533938710671254,0.016619542432582467,0.6334471521641003,0.3834456019556504
420,1.6969819999940228,-0.004244312983714726,0.15602233469668475,0.0688084393371302,0.01579939620112893,-0.12573657603537663,-0.033336794681550354,0.13012451684807175,-0.5675482047940278,-0.06386464364011493,0.013758475229374402,0.6474628377765781,0.3844532784061888
421,1.7002826999960234,-0.004367695488330181,0.1561524823259834,0.06858856044786686,0.01632447252235195,-0.12802889968271694,-0.03359545312700808,0.1301635032665005,-0.5649992328755293,-0.062391072774722243,0.010892801339178113,0.6613206029889352,0.38535373781966215
422,1.7037588999955915,-0.004367695488330181,0.1561524823259834,0.06858856044786686,0.01684965031845236,-0.1303116567562516,-0.03384877763925339,0.13019129435372698,-0.5624028073731556,-0.06091894778012104,0.008023025336580902,0.6750190838324398,0.3861475992837445
423,1.7071133999997985,-0.004367695488330181,0.1561524823259834,0.06858856044786686,0.01737488615775435,-0.1325846410056847,-0.034096761527758014,0.1302078812278741,-0.5597593466488987,-0.05944853499600533,0.005149648074571018,0.6885570270370207,0.3868355489644606
424,1.7116282999922987,-0.00423639669341376,0.15617400421330163,0.06853594797148312,0.01790013659557504,-0.134847647070002,-0.0343393985883038,0.1302132565165287,-0.5570692666462473,-0.05798009381685541,0.002273166432523184,0.7019332886493396,0.387418338609266
425,1.715651299993624,-0.004547271419473918,0.15634768024343038,0.06787913112921441,0.018425358177780297,-0.13710047049805413,-0.03457668309935291,0.13020741433924304,-0.5543329808311162,-0.05651387668494476,-0.0006059269275070742,0.7151468325509175,0.38789678399732225
426,1.7196725999965563,-0.004611195777857614,0.15640245362757887,0.06759439209831487,0.018950507444273203,-0.13934290776944033,-0.034808609818761535,0.13019035028960416,-0.5515509001429603,-0.05505012909153812,-0.0034871437960370937,0.7281967288794677,0.38827176333935337
427,1.7231723000004422,-0.0045602880519574375,0.1564299977074185,0.06731204838136469,0.01947554093241661,-0.1415747563156884,-0.0350351739808345,0.13016206141690065,-0.5487234329559295,-0.053589089586135716,-0.006370000642826813,0.7410821523566635,0.38854421562950414
428,1.7263504000002283,-0.004531136504234545,0.15643137006694396,0.0670312679935127,0.020000415180391185,-0.14379581454172613,-0.03525637129371732,0.1301225462074163,-0.5458509850499116,-0.05213098979361065,-0.009254018834843857,0.7538023805256437,0.38871513895164966
429,1.730454099990311,-0.0044449052663288885,0.15640759502815096,0.06678045062082368,0.02052508673049056,-0.1460058818476394,-0.03547219793712214,0.13007180456538037,-0.5429339595912976,-0.05067605443907995,-0.012138724845414475,0.7663567919016325,0.3887855887426327
430,1.7338931999984195,-0.004295935390392001,0.15636852073198862,0.06650333679394445,0.021049512132355123,-0.14820475865071087,-0.035682650560383465,0.13000983779360414,-0.5399727571232953,-0.04922450138034252,-0.015023650454462089,0.7787448640391039,0.3887566760149282
431,1.73826790000021,-0.00408787650953019,0.15625137438735823,0.06615821523157113,0.02157364794614631,-0.15039224640773333,-0.03588772628083921,0.12993664857383316,-0.5369677755656057,-0.04777654164771019,-0.0179083329397464,0.7909661715189795,0.3886295655412557
432,1.7424822999892058,-0.0038522956601296007,0.15613437256482204,0.06585885499446258,0.02209745074566306,-0.15256814763759038,-0.03608742268253179,0.12985224094684397,-0.5339194102232754,-0.04633237949105132,-0.02079231525902709,0.8030203838594048,0.3884054740036771
433,1.7468103999999585,-0.0038522956601296007,0.15613437256482204,0.06585885499446258,0.02262087712140233,-0.1547322659440968,-0.03628173781522378,0.1297566202923154,-0.53082805380452,-0.044892212433860525,-0.023675146223087282,0.814907263353697,0.3880856681097303
434,1.751200599988806,-0.0038522956601296007,0.15613437256482204,0.06585885499446258,0.023143883683565427,-0.1568844060390912,-0.036470670193721924,0.12964979330850313,-0.5276940964473065,-0.04345623133416222,-0.02655638065956295,0.8266266628391012,0.38767146267815894
435,1.7545821999956388,-0.003372297877751184,0.15594953134088893,0.06579232258175363,0.023666427065012156,-0.15902437376577144,-0.03665421879750334,0.1295317679917461,-0.5245179257544725,-0.042024620452049855,-0.02943557956753539,0.8381785234000271,0.3871642186968072
436,1.7581585999869276,-0.002999087852612133,0.15561321137522727,0.06493152304336641,0.024188463924164724,-0.1611519761222639,-0.03683238307063711,0.12940255361583308,-0.5212999268371544,-0.040597557523657665,-0.03231231026285496,0.8495628720094741,0.386565341355251
437,1.7623368999920783,-0.002999087852612133,0.15561321137522727,0.06493152304336641,0.024709950947863407,-0.16326702128541798,-0.03700516292199402,0.1292621607112559,-0.518040482366282,-0.03917521384135652,-0.03518614651417499,0.8607798191123819,0.3858762780547398
438,1.7675193999893963,-0.002999087852612133,0.15561321137522727,0.06493152304336641,0.025230844854176107,-0.16536931863481658,-0.03717255872573702,0.12911060104437666,-0.514739972631894,-0.037757754339961216,-0.03805666866968572,0.8718295561546656,0.3850985163980199
439,1.7717519999860087,-0.0024671535814854723,0.15528787869781954,0.06479765117597092,0.025751102395163927,-0.16745867877699203,-0.037334571322084585,0.1289478875965365,-0.511398775610021,-0.036345337688732084,-0.04092346377454831,0.8827123530617218,0.384233582161604
440,1.7759312999987742,-0.0015666031516656104,0.15446243855344,0.06372253571097007,0.026270680359604826,-0.1695349135698374,-0.03749120201833866,0.12877403454313344,-0.5080172670368754,-0.03493811638895013,-0.04378612567903949,0.8934285556701961,0.3832830372530452
441,1.7803608999965943,-0.0011273601145838311,0.15407161178924453,0.06342795963142298,0.026789535575677436,-0.17159783614720195,-0.0376424525901687,0.12858905723269629,-0.5045958204900843,-0.033536236876841194,-0.046644255137427475,0.9039785831168138,0.38224847765576137
442,1.7845061999978498,-0.0007149936553800043,0.15366229033639345,0.0631748174170278,0.027307624913607335,-0.17364726094365954,-0.0377883252831427,0.12839297216598047,-0.5011348074766973,-0.03213983963162121,-0.04949745989761,0.9143629251880779,0.3811315313639422
443,1.7880548999964958,-0.00021420338717460102,0.15325942638729628,0.06292331772789801,0.027824905288277992,-0.17568300371943893,-0.037928822814495985,0.1281857969751122,-0.49763459752769507,-0.03074905928843154,-0.05234535478155561,0.9245821396346402,0.3799338563100527
444,1.7915909999865107,0.00028832945737919044,0.15275201258307958,0.06259040723554503,0.02834133366180857,-0.17770488158550377,-0.03806394837512831,0.12796755040280675,-0.49409555829872104,-0.02936402475593113,-0.055187561756598724,0.9346368494541454,0.37865713828743075
