,time,x,y,z,vx,vy,vz,ax,ay,az,jx,jy,jz
2074,9.454298600001492,-0.018591403420551066,-0.03711380315950738,-0.13957148367495995,0.01142076996908956,-0.014964548864233236,0.015298105536454505,0.018764630324013043,0.1400635919613955,-0.10597459411332319,0.08282292246220187,0.44218339727617595,-0.46460646530161753
2075,9.45818390000204,-0.018551036291235147,-0.037173480190104115,-0.139588463693676,0.01150686610778456,-0.014323619733821909,0.014811867845604128,0.019139953488268264,0.14206362307601486,-0.10808916421231443,0.08238709748567667,0.4382401835487028,-0.4662558810277237
2076,9.462839100000563,-0.01851184842751045,-0.03722862728516957,-0.13962320304462453,0.011594662866984426,-0.013673644915825702,0.014316006264569421,0.01951324234656883,0.14404555910657585,-0.11021110303081613,0.08192663363519294,0.4342199055914237,-0.46784964111895266
2077,9.466692600006354,-0.018466853714095687,-0.03728639867703653,-0.1396495932837612,0.011684150758175178,-0.013014707439946423,0.013810487902022306,0.01988438514982152,0.14600905109855364,-0.11234015650068077,0.08144159872563787,0.4301230421320409,-0.46938718426809395
2078,9.473483900001156,-0.018415139358814794,-0.037401368019338146,-0.13970126668365862,0.011775319786122845,-0.012346891915756004,0.013295281026527375,0.02025327046777552,0.14795375230543686,-0.11447606801766386,0.08093206593357162,0.4259500844237219,-0.4708679554196696
2079,9.478364199996577,-0.0183950704433307,-0.03745776660886249,-0.13972103918431406,0.011868159450370563,-0.011670284522505113,0.01277035507798462,0.020619787213320924,0.14987931824552178,-0.11661857847006236,0.08039811379448895,0.4217015362320075,-0.4722914058959656
2080,9.481754199994612,-0.01836800213201406,-0.03751381990274354,-0.13978086540031273,0.011962658746845647,-0.010984972998674666,0.012235680678940765,0.02098382466677304,0.15178540675863766,-0.11876742626792441,0.07983982619894799,0.41737791381998074,-0.47365699352278395
2081,9.485680400001002,-0.0183392647773081,-0.037603893677616115,-0.13982539670092942,0.012058806169576523,-0.010291046631270591,0.011691229645766658,0.02134527250013735,0.15367167806279494,-0.12092234737282873,0.0792572923875599,0.41297974593167186,-0.4749641827548872
2082,9.489465199992992,-0.01831881248315155,-0.03767464036015485,-0.139875584014056,0.012156589712519447,-0.009588596244862276,0.011136974999698169,0.02170402080134993,0.15553779481074836,-0.12308307532823284,0.07865060694483401,0.4085075737736747,-0.47621244480110764
2083,9.493566399993142,-0.01828862395223808,-0.03773452067584234,-0.13993100268163483,0.012255996871494892,-0.008877714190365161,0.010572890977738038,0.022059960098488245,0.15738342214646717,-0.1252493412903887,0.0780198697918729,0.4039619509949506,-0.4774012577490946
2084,9.497969599993668,-0.018260859590404,-0.03783610726887627,-0.14000173655815748,0.012357014646233526,-0.008158494333567932,0.00999895304341605,0.022412981383947116,0.15920822776150434,-0.1274208740598232,0.07736518617791262,0.3993434436647963,-0.4785301066896727
2085,9.502359899997828,-0.0182147698120787,-0.037932618720323906,-0.1400734274572874,0.01245962954253164,-0.007431032043404829,0.009415137897405015,0.022762976138574566,0.16101188195125707,-0.1295974001133813,0.07668666667070345,0.3946526302489519,-0.4795984838407834
2086,9.510018000000857,-0.01811363296078667,-0.03810663719996045,-0.14025567935109917,0.012563827574515837,-0.006695424179973643,0.008821423487990027,0.023109836355762352,0.16279405767110916,-0.13177864363682917,0.07598442714572659,0.38989010158382276,-0.4806058886709828
2087,9.514563799995813,-0.018076770088975812,-0.038216295093277966,-0.1403351033139529,0.012669594267016823,-0.005951769082299967,0.00821778902138844,0.023453454565485934,0.16455443059244798,-0.13396432655801535,0.0752585887742423,0.38505646084879114,-0.48155182802246876
2088,9.518926899996586,-0.018023953812994327,-0.03831147229712328,-0.14042439465667864,0.012776914658052026,-0.005200166555848256,0.0076042149719180345,0.0237937238582888,0.1662926791585473,-0.1361541685805887,0.07450927801016556,0.3801523235365939,-0.4824358162336051
2089,9.522959699999774,-0.018012968829255932,-0.03840240127151703,-0.14050884694937188,0.012885773301416895,-0.004440717859780385,0.006980683092010877,0.02413053790920592,0.16800848464030715,-0.1383478872182712,0.07373662657576523,0.3751783174217429,-0.48325737526091445
2090,9.527003099996364,-0.018006866060513778,-0.03848802074671749,-0.14058236949007596,0.012996154269384571,-0.0036735256939623897,0.0063471764220703305,0.024463791001620976,0.16970153119184234,-0.1405451978296832,0.07294077144618312,0.3701350825269623,-0.4840160348005122
2091,9.531212100002447,-0.01798075650518622,-0.03869385069021011,-0.14063729865684757,0.013108041155513766,-0.002898694185720103,0.00570367930016875,0.024793378051052153,0.17137150590591158,-0.14274581365371822,0.07212185483276977,0.36502327108761706,-0.48471133240895387
2092,9.53543790000549,-0.018000267800929844,-0.03881548272050493,-0.14066431984698374,0.013221417077564428,-0.0021163288763444985,0.005050177371583348,0.025119194628861082,0.17301809886917752,-0.14494944584546487,0.07128002416523394,0.35984354751410796,-0.4853428136234658
2093,9.539707200005068,-0.018026202892508496,-0.038907464735316005,-0.14071454271752007,0.013336264680520895,-0.0013265367073475361,0.004386657598167797,0.02544113698587961,0.17464100321728804,-0.14715580351267282,0.07041543207260267,0.35459658835220864,-0.4859100320815296
2094,9.543750099997853,-0.018033245866046058,-0.03898920379468184,-0.14076804401038243,0.01345256613972209,-0.0005294260064693577,0.0037131082675571406,0.02575910207594914,0.176239915189769,-0.14936459375276015,0.0695282363629897,0.34928308224132154,-0.4864125496397893
2095,9.547789200005354,-0.018031099415937883,-0.03907637314038236,-0.1408405353896225,0.013570303164098366,0.00027489352656228397,0.003029519002203602,0.026072987579367088,0.17781453418471907,-0.15157552169035882,0.06861860000217013,0.3439037298706315,-0.4868499364922529
2096,9.552366400006576,-0.018035660580049774,-0.03915111436358637,-0.1409076489148933,0.013689456999514576,0.0010863108345194289,0.002335880768240879,0.026382691926235165,0.17936456281329666,-0.1537882905153953,0.06768669109095977,0.3384592439331334,-0.4872217712877583
2097,9.556208099995274,-0.018030783605362952,-0.039292889109005476,-0.1409872319025264,0.013810008432218907,0.0019047135174071867,0.001632185884174515,0.02668811431970406,0.1808897069539893,-0.1560026015217024,0.06673268284139786,0.3329503490775114,-0.4875276412466738
2098,9.56029789999593,-0.018020855720918015,-0.03937644266713963,-0.14107335964257262,0.013931937792396931,0.0027299878474418768,0.0009184280293959341,0.026989154759109187,0.18238967580665633,-0.1582181541461579,0.06575675355173176,0.3273777818578444,-0.48776714227680235
2099,9.56470439999248,-0.01797557107679045,-0.03946405527070673,-0.14124667442883782,0.014055224957830393,0.0035620187842729787,0.00019460225251777757,0.027285714062992055,0.18386418194633553,-0.1604346460083472,0.06475908658020352,0.32174229068111515,-0.4879398790884598
2100,9.568843999993987,-0.01793356827064273,-0.03958529186860186,-0.1413729476707182,0.01417984935766014,0.004400689990447793,-0.0005392950204718244,0.027577693892001896,0.18531294137680365,-0.1626517729507465,0.06373987031763761,0.31604463575249886,-0.48804546530869486
2101,9.572836299994378,-0.017893399621452085,-0.03969974444503465,-0.14147618566267667,0.014305789976252604,0.005245883847117672,-0.0012832659782383764,0.027864996771672205,0.18673567358388107,-0.16486922907942328,0.06269929815883024,0.3102855890184096,-0.4880835235946224
2102,9.57726669999829,-0.01784369431499574,-0.03979363612326415,-0.14162822311390086,0.014433025357169272,0.006097481469984634,-0.00203731141631586,0.02814752611506695,0.18813210158847032,-0.1670867068052499,0.06163756847274021,0.30446593410728245,-0.48805368574583996
2103,9.58163240000431,-0.01781609511871607,-0.03992163318015488,-0.14177541398111318,0.014561533607238532,0.006955362725487157,-0.0028014307295095944,0.028425186245291008,0.18950195199931888,-0.16930389688562683,0.06055488457148245,0.2985864662680695,-0.4879555928158945
2104,9.58671879999747,-0.01780185950272512,-0.04002520366112444,-0.1420258043078204,0.014691292400729318,0.007819406247223841,-0.0035756219044894,0.028697882417859533,0.19084495506549604,-0.17152048846671122,0.05945145467812517,0.29264799230642974,-0.48778889522276714
2105,9.590274200003478,-0.017796606791665795,-0.040141214033695666,-0.14218413329243038,0.014822278983625859,0.008689489452613643,-0.0043598815125753185,0.028965520842921002,0.19216084472857387,-0.17373616912614573,0.05832749189329226,0.28665133051859365,-0.4875532528583433
2106,9.5939314999996,-0.01777868574852547,-0.040267701455564985,-0.14231083402609715,0.014954470178002813,0.009565488559791316,-0.005154204702718132,0.02922800870732847,0.19344935867450141,-0.1759506249162829,0.057183214160572836,0.28059731062288357,-0.48724833519683525
2107,9.59792080000625,-0.017772364165591963,-0.04040077309582174,-0.1424299343443687,0.015087842386500126,0.01044727860473671,-0.005958585194676902,0.02948525419655354,0.19471023838516135,-0.17816354040790028,0.05601884423074016,0.2744867736888721,-0.48687382140212504
2108,9.6020012999943,-0.01778384440248929,-0.04054572614684334,-0.14255321169253626,0.01522237159689695,0.011334733458636417,-0.0067730152723957365,0.029737166516437572,0.19594322918959842,-0.1803745987344017,0.054834609624782406,0.26832057206416016,-0.4864294004339959
2109,9.606066799999098,-0.017781346989455746,-0.04068564950086296,-0.14267297439709492,0.015358033386783885,0.012227725845476291,-0.007597485777581929,0.029983655914774768,0.1971480803149091,-0.1825834816365001,0.053630742595748244,0.26209956929875533,-0.48591477115322057
2110,9.610383599996569,-0.017773735856679698,-0.04085512401467556,-0.14281116256790494,0.015494802928332734,0.013126127359863253,-0.008431986103487622,0.03022463370272174,0.19832454493678198,-0.184789869507376,0.05240748008941035,0.25582464006703165,-0.48532964242547383
2111,9.61455830000341,-0.017775024086815375,-0.041004570644329115,-0.14294983416362203,0.015632654993163082,0.014029808485074787,-0.009276504188897113,0.030460012276028306,0.1994723802296782,-0.18699344143830735,0.051165063703750124,0.2494966700872538,-0.4846737332240365
2112,9.618646599992644,-0.01777117416027071,-0.041151561646961016,-0.14308616471863614,0.015771563957304835,0.014938638611334482,-0.010131026512321976,0.030689705136084353,0.2005913474166425,-0.18919387526476553,0.04990373964726742,0.2431165560386493,-0.48394677273125764
2113,9.624279900002875,-0.017759285759056557,-0.04126516917413801,-0.14322211442240732,0.015911503806255892,0.015852486054311957,-0.010995538086406095,0.030913626910777366,0.20168121181873325,-0.19139084761297234,0.04862375869611965,0.23668520547601285,-0.48314850043874197
2114,9.62941769999452,-0.017730606794440266,-0.04139064841823249,-0.1433579198993615,0.016052448140134148,0.01677121807384544,-0.011870022452542662,0.03113169337515536,0.20274174290405889,-0.19358403394691195,0.04732537615009489,0.2302035367418278,-0.4822786662462298
2115,9.635711800001443,-0.017693114935718512,-0.041706816354384425,-0.14371855299543057,0.01619437017892288,0.017694700892885235,-0.012754461675705243,0.031343821471889986,0.2037727143364098,-0.1957731086157916,0.046008851787423956,0.2236724788758884,-0.4813370305591379
2116,9.639375099999596,-0.017666695208970653,-0.041830744985390175,-0.14386690406016758,0.016337242767808773,0.01862279971665625,-0.013648836339494947,0.03154992933153472,0.20477390402347442,-0.19795774490194573,0.04467444981843663,0.21709297152240684,-0.48032336438472945
2117,9.6435283000028,-0.017631921656929145,-0.041961521892206866,-0.14398858856341368,0.016481038382611602,0.019555378752037694,-0.014553125541405672,0.031749936292573,0.2057450941646276,-0.20013761506917718,0.0433224388380676,0.210465964834591,-0.479237449426882
2118,9.647811400005594,-0.017636261898660646,-0.04201962966627326,-0.1441660729778676,0.01662572913530459,0.020492301227158057,-0.01546730688830947,0.031943762921251104,0.20668607129827987,-0.20231239041152935,0.04195309177721832,0.20379241937667728,-0.47807907817942014
2119,9.653575399992404,-0.017652508199517324,-0.04210511207897448,-0.14426387355120646,0.016771286779624393,0.021433429411203422,-0.016391356492164003,0.03213133103119072,0.2075966263487766,-0.20448174130248256,0.040566685852981135,0.19707330602340406,-0.47684805401798047
2120,9.6583713,-0.017663907593535647,-0.04222657424404352,-0.14436636716805434,0.016917682716769716,0.02237862463443705,-0.01732524896594404,0.032312563702776034,0.20847655467283685,-0.206645337244569,0.03916350251773242,0.19030960585691306,-0.47554419129037645
2121,9.664527400003864,-0.017770602934077246,-0.042370626816144445,-0.1445176337860207,0.01706488800118757,0.023327747308428102,-0.018268957419798847,0.03248738530231002,0.20932565610552042,-0.20880284691939904,0.03774382740710229,0.1835023100610653,-0.4741673154054314
2122,9.669568700002856,-0.017838121563455593,-0.042445415919700864,-0.14457923220367072,0.01721287334644606,0.024280656946487348,-0.019222453457437248,0.03265572150093481,0.21014373500571137,-0.21095393823809275,0.036307950286828296,0.17665241981316046,-0.47271726292024974
2123,9.673241600001347,-0.017914162524932224,-0.042523233917471426,-0.14464290082382913,0.01736160913119265,0.0252372121843077,-0.020185707172742262,0.03281749929331114,0.21093060030110633,-0.2130982783921096,0.0348561649985011,0.1697609461730479,-0.4711938816258953
2124,9.681740200001514,-0.018027061029769722,-0.0426515419234742,-0.1447873565340097,0.01751106540519682,0.026197270800807325,-0.021158687146617085,0.03297264701605172,0.211686065532696,-0.21523553390447048,0.03338876940421023,0.162828909969619,-0.4695970306314456
2125,9.685765699992771,-0.01806973472303535,-0.042784299702233235,-0.14484374837788944,0.0176612118954759,0.027160689739173082,-0.02214136044406421,0.03312109436590353,0.2124099488987276,-0.21736537068136427,0.031906065330098654,0.15585734168467097,-0.4679265804463917
2126,9.690259099996185,-0.01810134224149302,-0.04287177161496605,-0.14492791151588236,0.01781201801250294,0.028127325128101958,-0.02313369261149939,0.033262772417673746,0.21310207329813555,-0.2194874540641314,0.030408358508835043,0.14884728133413233,-0.4661824130613513
2127,9.694661899993662,-0.018114429505235653,-0.04297971751152706,-0.14502041766889942,0.017963452856495404,0.029097032303237985,-0.024135647674302055,0.0333976136418945,0.21376226637342846,-0.22160144888161715,0.028895958521013183,0.1417997783466407,-0.4643644220270616
2128,9.69833010000002,-0.018128780929631445,-0.04309627277349323,-0.14512715893242178,0.018115485223783555,0.030069665828802165,-0.025147188134603794,0.03352555192222157,0.2143903605530199,-0.2237070195028861,0.027369178735488234,0.13471589143946586,-0.4624725125316226
2129,9.703099399994244,-0.01810261501784376,-0.04315957873129084,-0.14524210798832368,0.018268083613257217,0.031045079519412884,-0.026168274969316507,0.033646522572562114,0.21498619309299005,-0.22580382989028874,0.02582833624866014,0.1275966884917709,-0.4605066014759595
2130,9.707525399993756,-0.01809523950883346,-0.04327473957430325,-0.14533291025943215,0.018421216232889823,0.03202312646209415,-0.02719886762840187,0.03376046235392675,0.2155496061182665,-0.22789154365287198,0.024273751822714722,0.12044324641520562,-0.4584666175474738
2131,9.711093599995364,-0.018095681951550743,-0.04340049303611716,-0.14541931818470497,0.018574851006338433,0.03300365903846884,-0.028238924033383676,0.03386730949100106,0.2160804466632127,-0.22996982410012504,0.02270574982283335,0.11325665102182704,-0.45635250129185256
2132,9.714617100005851,-0.018096290318153165,-0.04358828719019276,-0.1455035193595597,0.018728955579618373,0.03398652894713433,-0.029288400576104594,0.0339670036884318,0.2165785667116124,-0.2320383342960501,0.021124658153382523,0.10603799688934246,-0.4541642051830068
2133,9.71878419999848,-0.018106556135982266,-0.04369661912719884,-0.14555809808101516,0.018883497327851297,0.03497158722621771,-0.030347252117728787,0.03405948614682329,0.21704382323603824,-0.23409673711354875,0.019530808193094943,0.09878838722367163,-0.45190169369111005
2134,9.722873299993807,-0.018141877396993,-0.04377843943183215,-0.14563199163741017,0.019038443362085457,0.03595868427610774,-0.03141543198799171,0.03414469957843939,0.21747607823659085,-0.2361446952891156,0.01792453472925413,0.09150893371882513,-0.4495649433487097
2135,9.726988399997936,-0.01818681886262382,-0.04386621436156933,-0.14566338898113176,0.019193760536186846,0.03694766988236049,-0.032492891984698465,0.03422258822260638,0.2178751987789978,-0.23818187147783182,0.016306175890894916,0.08420075641409708,-0.44715394281488124
2136,9.731081399993856,-0.018245387443389147,-0.043942240931804794,-0.14568171875725028,0.019349415453799826,0.037938393238775646,-0.03357958237347213,0.03429309786081232,0.2182410570320599,-0.24020792830864826,0.014676073081032637,0.0768649835485707,-0.44466869293739314
2137,9.735437499999534,-0.018329334681838817,-0.04401602756314952,-0.14569497996179337,0.019505374475375814,0.03893070297064054,-0.034675451887753256,0.03435617583149854,0.21857353030443383,-0.24222252843995076,0.013034570907934332,0.06950275141293626,-0.4421092068128546
2138,9.739411000002292,-0.01837945718567665,-0.044083438576659584,-0.14572084584365277,0.019661603725268668,0.039924447158139066,-0.03578044772905188,0.034411771044538984,0.21887250108073972,-0.2442253346153982,0.011382017115445453,0.062115204198621696,-0.4394755098448194
2139,9.743487400002778,-0.018442582349101122,-0.04413240474066231,-0.1457303329041524,0.019818069098895264,0.04091947335992236,-0.03689451556745341,0.03445983399540318,0.2191378570569817,-0.24621600972002355,0.009718762512385905,0.054703493844237394,-0.4367676397998185
2140,9.747579799994128,-0.018502074075625412,-0.04416686955152731,-0.14576046977821866,0.019974736269959777,0.04191562863683816,-0.038017599542379266,0.034500316778998466,0.21936949117526988,-0.2481942168365883,0.008045160901029646,0.04726877987933754,-0.43398564686129315
2141,9.751727700000629,-0.018551525891080382,-0.04421403519016781,-0.14578298695393052,0.020131570697740197,0.04291275957581577,-0.03914964226360342,0.034533173103187265,0.21956730165783092,-0.2501596193021797,0.006361569004682383,0.03981222926550165,-0.43112959368140197
2142,9.756346299996949,-0.018604958195646698,-0.04425041471123623,-0.14580913634479095,0.02028853763443575,0.04391071231390321,-0.04029058481252619,0.03455835830197528,0.21973119204029415,-0.25211188076504226,0.004668346394372255,0.03233501623474048,-0.4281995554306722
2143,9.760269299993524,-0.018654793719854824,-0.04427201469279055,-0.14583316307211547,0.02044560213257377,0.04490933256245333,-0.04144036674370612,0.03457582934836651,0.21986107120424206,-0.2540506652416339,0.0029658554146686795,0.02483832212523154,-0.425195619845469
2144,9.764567100006389,-0.018703885340041686,-0.04431167058669263,-0.14587525838613258,0.020602729052474563,0.0459084656314554,-0.04259892608665108,0.03458554486688112,0.21995685340901316,-0.25597563717389693,0.0012544611086449092,0.01732333521439067,-0.4221178872732547
2145,9.768763700005366,-0.018758929098140305,-0.04434410797010764,-0.14587475105547495,0.02075988306977267,0.04690795645400858,-0.04376619934786937,0.03458746514573224,0.2200184583227448,-0.2578864614867325,-0.00046546885799981917,0.009791250549286513,-0.4189664707156131
2146,9.773423899998306,-0.01882969374579933,-0.04436771634154383,-0.14589036383095388,0.02091702868299308,0.04790764961093392,-0.04494212151318169,0.03458155214865787,0.22004581105264476,-0.2597828036456682,-0.002193564273642299,0.002243269774406269,-0.4157414958690137
2147,9.777471199995489,-0.018869753491867453,-0.04437738472891761,-0.14591827061705556,0.02107413022118085,0.04890738935552116,-0.0461266260502947,0.03456776952640405,0.2200388421744811,-0.2616643297147085,-0.003929452458244999,-0.005319399043218089,-0.4124431011632931
2148,9.781437099998584,-0.018916816915524635,-0.044413356323597365,-0.14593364901673916,0.021231151851582735,0.049907019638407026,-0.047319644911636816,0.034546082627855405,0.2199974877612788,-0.2635307064143572,-0.005672758341656461,-0.012895541591512905,-0.40907143779783
2149,9.785673999998837,-0.018980130304037883,-0.04444238944943957,-0.14594294598728808,0.021388057587379137,0.05090638413258109,-0.04852110853745696,0.03451645851080939,0.21992168941121004,-0.26538160117980103,-0.00742310454268526,-0.020483937493484046,-0.40562666977538786
2150,9.790309000003615,-0.01906087223016574,-0.04445697023056681,-0.14594473827718574,0.02154481129546476,0.051905326258515606,-0.049730945859186894,0.03447886595239047,0.21981139427466637,-0.26721668221924216,-0.009180111448929995,-0.028083360489944028,-0.40210897393360046
2151,9.795605799998157,-0.019141146076471015,-0.044471512949253826,-0.14593521847795435,0.02170137670427624,0.05290368920941569,-0.05094908430306766,0.03443327545910097,0.21966655508050117,-0.2690356185723691,-0.010943397297347472,-0.0356925786248318,-0.3985185399740792
2152,9.801969899999676,-0.019323233546536984,-0.04452632519947873,-0.14589761060528764,0.021857717411665138,0.053901315976586144,-0.052175449794040735,0.03437965927650506,0.21948713016143132,-0.2708380801689539,-0.012712578255540986,-0.04331035443311078,-0.3948555704891176
2153,9.806226899992907,-0.01940324256322858,-0.044557591874313116,-0.14585879224413062,0.02201379689281462,0.054898049374911086,-0.05340996675990456,0.03431799139854238,0.21927308347858626,-0.27262373788756517,-0.014487268503750246,-0.05093544513122964,-0.39112028098596874
2154,9.810454799997387,-0.019477559178369817,-0.04462712848775198,-0.14584936439508112,0.02216957850819805,0.05589373206844231,-0.054652558135736856,0.03424824757646789,0.21902438464519308,-0.2743922636143859,-0.016267080317524187,-0.058566602810129584,-0.3873128999086757
2155,9.81445249999524,-0.019556284199014513,-0.044667317404608504,-0.14582935942626105,0.022325025511577848,0.05688820659609236,-0.05590314536858305,0.03417040532741505,0.21874100894938592,-0.2761433303021262,-0.018051624151057648,-0.06620257463078032,-0.3834336686574334
2156,9.818645899998955,-0.019626614161926972,-0.04469633305772599,-0.1458149546542467,0.022480101058042865,0.057881315397428384,-0.05716164842241111,0.03408444394257893,0.21842293737612814,-0.27787661202901626,-0.019840508721172614,-0.07384210302222606,-0.3794828416054596
2157,9.822669300003326,-0.019721646535275333,-0.044722431919178365,-0.14587876505405775,0.022634768212082445,0.05887290083856276,-0.05842798578333355,0.03399034449501639,0.21807015662823523,-0.2795917840578691,-0.021633341091924496,-0.08148392588212164,-0.37546068611335365
2158,9.827038200004608,-0.019764881408633375,-0.04478704515222012,-0.14589498596447598,0.022788989955695407,0.059862805238136405,-0.05970207446509664,0.03388808984706025,0.2176826591464864,-0.2812885228952015,-0.02342972675981364,-0.08912677677973804,-0.37136748254092333
2159,9.831058900002972,-0.01982975375780309,-0.0448222875055561,-0.14589642788721838,0.02294272919653219,0.06085087089339076,-0.06098383001483693,0.03377766465734484,0.21726044312881299,-0.2829665063504023,-0.02522926973958193,-0.09676938516141516,-0.3672035242564597
2160,9.835080399992876,-0.019873464334138866,-0.04491068222691337,-0.14588975917653085,0.023095948776068482,0.061836940106324484,-0.06227316651910526,0.03365905538744007,0.21680351254855257,-0.2846254135949356,-0.02703157265057404,-0.1044104765584383,-0.36296911764344086
2161,9.839473500003804,-0.01990539667633199,-0.04498470620894602,-0.1459055068608142,0.023248611477808618,0.06282085520993075,-0.0635699966101585,0.03353225030809164,0.21631187717175784,-0.2862649252215651,-0.028836236803642747,-0.11204877279731433,-0.35866458210464836
2162,9.84357650000311,-0.01998042603007944,-0.04501119638680863,-0.1459190374337938,0.02340068003551695,0.06380245859451081,-0.0648742314725193,0.033397239505064506,0.21578555257354862,-0.2878847233035888,-0.0306428622885773,-0.11968299221242193,-0.3542902500636776
2163,9.849868100005551,-0.020024382725039376,-0.04507491343232721,-0.14593371066146013,0.02355211714147548,0.06478159273405977,-0.06618578084980403,0.03325401488458725,0.2152245601534977,-0.2894844914540706,-0.03245104806203378,-0.12731184986101013,-0.3498464669638269
2164,9.853953500001808,-0.020062508918241705,-0.0451412057423914,-0.14595875654855353,0.02370288545476604,0.06575810021271988,-0.06750455305181859,0.03310257017839492,0.21462892715004084,-0.2910639148850574,-0.034260392035946004,-0.1349340577405173,-0.3453335912643492
2165,9.85863829999289,-0.020118566038492665,-0.045204313341950485,-0.14598712601414007,0.023852947609575247,0.06673182375129694,-0.068830454961922,0.03294290094836831,0.21399868665390126,-0.2926226804667688,-0.036070491166395484,-0.1425483250081816,-0.34075199443405096
2166,9.86254079999344,-0.02018759893630232,-0.045230743461641236,-0.14599900379072459,0.024002266223520353,0.06770260623383578,-0.0701633920446582,0.032775004590767334,0.21333387762051875,-0.29416047678674656,-0.037880941542918475,-0.15015335820291176,-0.3361020609422205
2167,9.866535599998317,-0.020210989707894228,-0.0452742823754608,-0.14601864259981676,0.024150803905994136,0.06867029073425057,-0.07150326835365584,0.03259888034005655,0.21263454488147354,-0.29567699420895005,-0.039691338478228165,-0.15774786146938746,-0.33138418824687044
2168,9.870897799992235,-0.020257355970625893,-0.04533708026717945,-0.14605085838018614,0.024298523266527042,0.06963472054300557,-0.07284998653979632,0.03241452927232085,0.21190073915489466,-0.29717192493278666,-0.04150127659832979,-0.16533053678435625,-0.3265987867802797
2169,9.875109300002803,-0.020308896754880568,-0.045350747879659134,-0.14606873826488362,0.02444538692316471,0.07059573919384167,-0.0742034478596495,0.03222195430826952,0.2111325170548422,-0.2986449630520641,-0.04331034993300624,-0.17290008418509356,-0.32174627993182076
2170,9.881054700003006,-0.02036539723094738,-0.045444260048941504,-0.1461132442881006,0.024591357510858967,0.07155319049054386,-0.07556355218417635,0.03202116021582682,0.21032994109965292,-0.30009580461385227,-0.045118152006651535,-0.1804552019999914,-0.31682710402805925
2171,9.88528149999911,-0.020385920989727947,-0.04545261244383073,-0.14614601196776608,0.02473639768987038,0.07250691853374469,-0.07693019800769801,0.0318121536123075,0.20949307971923897,-0.3015241476772414,-0.04692427592942946,-0.18799458708123923,-0.3118417083101147
2172,9.889544000005117,-0.020409816229102734,-0.04550205200485424,-0.14619470047673816,0.024880470154180476,0.07345676774775914,-0.07830328245712995,0.03159494296617564,0.20862200726133123,-0.3029296923719849,-0.048728314488734326,-0.1955169350395604,-0.3067905549082701
2173,9.893584599994938,-0.020423826396873644,-0.04555300048897958,-0.14623242445445953,0.025023537639911775,0.07440258290744607,-0.07968270130148065,0.0313695385983857,0.20771680399665798,-0.3043121409570142,-0.05052986024093086,-0.20302094048096583,-0.30167411881381795
2174,9.897779099992476,-0.02043531276334205,-0.045554427639725725,-0.1462782974070747,0.025165562933753702,0.07534420916509153,-0.08106834896161463,0.031135952683304245,0.20677755612304963,-0.3056711978788133,-0.05232850560334978,-0.2105052972454851,-0.2964928878481338
2175,9.902298899993184,-0.02046832988672311,-0.045573848557129246,-0.1463405857372162,0.025306508881392405,0.07628149207730908,-0.08246011852027929,0.0308941992492114,0.20580435576845948,-0.3070065698296421,-0.05412384294651562,-0.2179686986478358,-0.29124736262897066
2176,9.906452199997148,-0.020489687362011438,-0.04561745464074407,-0.14638454262387507,0.0254463383959425,0.0772142776319519,-0.08385790173239564,0.030644294178380684,0.20479730099289162,-0.30831796580559434,-0.05591546468658339,-0.22540983771998876,-0.28593805653396515
2177,9.910277500006488,-0.020522500039541234,-0.045649703573286286,-0.1464406715128505,0.02558501446637884,0.07814241227503163,-0.08526158903561219,0.030386255206736414,0.20375649578922703,-0.3096050971644774,-0.05770296337796027,-0.23282740745558667,-0.28056549566134753
2178,9.918550799993682,-0.02059688979451818,-0.045701650645941644,-0.14652851974871753,0.025722500165966573,0.07906574293763843,-0.08667106956112136,0.030120101923087773,0.20268205008293913,-0.3108676776835001,-0.05948593180608824,-0.24022010105617184,-0.2751302187878493
2179,9.92300609999802,-0.02064338483077678,-0.04575628901986583,-0.1465592876593682,0.025858758660687462,0.07998411706285788,-0.08808623114473735,0.02984585576793886,0.20157407973068991,-0.31210542361675603,-0.061263963080363686,-0.24758661217917768,-0.2696327773238026
2180,9.926992699998664,-0.02069360889270879,-0.045791000097412396,-0.14659757517530383,0.025993753217660696,0.08089738263267919,-0.08950696033823492,0.029563540031874183,0.2004327065177981,-0.31331805375249117,-0.06303665072717002,-0.25492563518763633,-0.2640737352654252
2181,9.931043499993391,-0.02071210926733518,-0.04580244062289716,-0.14669664025246892,0.026127447213556074,0.0818053881948901,-0.09093314242094844,0.029273179853519127,0.19925805815457184,-0.3145052894701432,-0.06480358878299933,-0.26223586540155375,-0.25845366914428514
2182,9.937775500002315,-0.020720470521481592,-0.045866062249782055,-0.146755641317107,0.026259804142997643,0.08270798288995321,-0.09236466141162973,0.028974802217075005,0.1980502682714989,-0.3156668547971393,-0.06656437188763858,-0.2695159993509029,-0.252773167973939
2183,9.941416000001482,-0.02074136075870688,-0.04592501398083029,-0.1468006417642282,0.026390787626955733,0.08360501647785873,-0.09380140008056388,0.028668435949428386,0.19680947641328705,-0.3168024764654404,-0.06831859537739592,-0.27676473503018467,-0.24703283319374197
2184,9.946161300002132,-0.020774397511048363,-0.04597133430468314,-0.14685005695183964,0.026520361421125505,0.08449633936494863,-0.09524323996194116,0.02835411171683448,0.19553582803174824,-0.3179118839678203,-0.07006585537834187,-0.2839807721545056,-0.24123327860982474
2185,9.950013900001068,-0.020784787570111096,-0.046026863300619864,-0.14692502892117065,0.026648489424290028,0.08538180263070723,-0.0966900613664843,0.028031862021174494,0.19422947447751937,-0.31899480961386656,-0.071805748899541,-0.291162812417122,-0.2353751303332366
2186,9.954376399997273,-0.020850870064370187,-0.04611998330886298,-0.147029818522739,0.026775135686665792,0.08626125805451285,-0.09814174339433006,0.02770172119578708,0.19289057299061302,-0.32005098858569164,-0.07353787392624864,-0.298309559748396,-0.22945902671525312
2187,9.957958700004385,-0.020866647802879185,-0.04618622924989519,-0.14711315937909267,0.026900264418228684,0.08713455814234498,-0.09959816394816354,0.027363725400874034,0.19151928668979146,-0.32108015899334047,-0.0752618295130484,-0.30541972057611205,-0.22348561827984656
2188,9.962033400006476,-0.020869588453584796,-0.04623374952763416,-0.14719665132082857,0.02702383999701829,0.08800155615344178,-0.10105919974660395,0.027017912618480647,0.19011578456075856,-0.32208206192988337,-0.0769772158769057,-0.3124920040870981,-0.21745556765331853
2189,9.968677199998638,-0.020832970663382185,-0.04631057851726874,-0.14741355469081283,0.027145826977418654,0.0888621061269022,-0.10252472633784054,0.026664322647051097,0.18868024144316395,-0.3230564415261818,-0.0786836344901124,-0.31952512249009724,-0.21136954949109502
2190,9.972697200006223,-0.020816266067107347,-0.04635661277931044,-0.14751607332774064,0.02726619009841346,0.08971606290822746,-0.10399461811351751,0.026302997095559402,0.1872128380164142,-0.32400304500531524,-0.0803806881730972,-0.3265177912798313,-0.20522825040168582
2191,9.977007800000138,-0.02081100692791843,-0.046399134435785326,-0.1476284081667218,0.027384894291813865,0.09056328217579684,-0.10546874832286629,0.025933979377216393,0.18571376078428595,-0.32492162273665626,-0.08206798118707663,-0.33346872950219886,-0.19903236886781017
2192,9.981211699996493,-0.020770028253633745,-0.04649720307395655,-0.14774187401154334,0.02750190469045704,0.09140362046727253,-0.106946989087084,0.025557314702753534,0.18418320205833522,-0.32581192828957994,-0.08374511932652165,-0.34037666002054967,-0.1927826151646918
2193,9.985424400001648,-0.020762993445544123,-0.04651874497570075,-0.1478556387837594,0.02761718663637374,0.09223693520592854,-0.10842921141395673,0.025173050073284464,0.18262135994009848,-0.3266737184867959,-0.08541171001141475,-0.3472403097829785,-0.18647971127552865
2194,9.98936649999814,-0.020741170602782612,-0.046544875544308466,-0.14795059973838975,0.027730705688923017,0.09306308472689828,-0.10991528521272655,0.024781234272745298,0.18102843830208132,-0.32750675345729,-0.0870673623792724,-0.35405841009057637,-0.18012439080414236
2195,9.99560680000286,-0.020731116180593256,-0.046585803228609876,-0.14804182621187467,0.0278424276328921,0.09388192830333522,-0.11140507930920049,0.024381917859914892,0.17940464676752982,-0.3283107966888633,-0.08871168737690803,-0.3608296968665764,-0.17371739888481322
2196,10.00306649999402,-0.020656607736384985,-0.04661060124268835,-0.1482665531641272,0.02795231848655963,0.094693326172481,-0.11289846146110011,0.02397515316001632,0.17775020068898112,-0.3290856150802565,-0.09034429785190996,-0.3675529109263287,-0.16725949208930668
2197,10.006595900005776,-0.02060600836990057,-0.04661058342315769,-0.14841004489004503,0.02806034450972034,0.09549713956163518,-0.11439529837364984,0.023560994255900854,0.17606532112558954,-0.3298309789928491,-0.09196480864380957,-0.37422679824803895,-0.16075143833109956
2198,10.010448999993969,-0.020555325691418574,-0.046629382170071905,-0.14853847133116532,0.02816647221166913,0.0962932307140211,-0.11589545571540216,0.023139496978815826,0.17435023481922476,-0.33054666230192203,-0.09357283667491427,-0.38085011024420434,-0.15419401676681332
2199,10.018524900006014,-0.020473565802345085,-0.04661560840954483,-0.14890155931698432,0.028270668359142506,0.09708146291454196,-0.1173987981342974,0.022710718898757885,0.17260517416933896,-0.33123244244747274,-0.09516800104077999,-0.38742160403367887,-0.14758801769486374
2200,10.023520799994005,-0.020408579665345275,-0.0465970160895204,-0.14905611037638122,0.028372899984215567,0.09786170051542144,-0.11890518927395673,0.02227471931441333,0.17083037720659952,-0.33188810048456746,-0.09674992310029758,-0.39394004271430105,-0.14093424245133723
2201,10.027315700004692,-0.02035020767004682,-0.04655920623406756,-0.14921618039572426,0.028473134392152596,0.0986338089617231,-0.12041449179020641,0.021831559242687218,0.16902608756528473,-0.3325134211332208,-0.09831822656536825,-0.4004041956360165,-0.13423350330310577
2202,10.031558699993184,-0.020309639653020753,-0.04652717866728739,-0.14935383343967665,0.02857133916920921,0.09939765481674347,-0.12192656736783196,0.021381301407823138,0.16719255445444034,-0.3331081928277893,-0.09987253759014361,-0.4068128386744255,-0.12748662333819175
2203,10.035309500002768,-0.02026900078747889,-0.0464838774894549,-0.1495018109754076,0.028667482190384244,0.10015310578727284,-0.1234412767375597,0.020924010230115715,0.16533003262779525,-0.33367220776586665,-0.10141248485980556,-0.4131647545046851,-0.12069443635339568
2204,10.0393774999975,-0.02021561723735453,-0.04642848188532147,-0.14966089556477394,0.028761531627119388,0.1009000307487177,-0.12495847969326371,0.02045975181421801,0.16343878235243445,-0.33420526195666755,-0.1029376996788615,-0.4194587328756941,-0.11385778673919962
2205,10.043564299994614,-0.020178200413999408,-0.04636487622649764,-0.1497993470281341,0.02885345595494488,0.10163829977007909,-0.12647803510939584,0.0199885939370461,0.16151906937622784,-0.3347071552688877,-0.10444781605893005,-0.42569357088449034,-0.10697752936196098
2206,10.049348000000464,-0.02014109944679238,-0.046314148271183075,-0.14995207381483755,0.028943223961069398,0.10236778413878107,-0.12799980095863667,0.019510606035283193,0.15957116489401305,-0.33517769147802684,-0.10594247080599259,-0.4318680732507862,-0.10005452944341243
2207,10.05639080000401,-0.020051287643460418,-0.046180116633655593,-0.15025145889454494,0.029030804751912387,0.10308835638534357,-0.1295236343297646,0.019025859192485745,0.15759534551253135,-0.3356166783131616,-0.10742130360708653,-0.43798105259156844,-0.09308966243748362
2208,10.060674799999106,-0.019980109094562902,-0.046117587024248806,-0.1504042784636647,0.029116167760577058,0.10379989030789373,-0.13104939144574032,0.01853442612579417,0.15559189321411668,-0.3360239275031568,-0.10888395711641626,-0.44403132969568965,-0.0860838139044612
2209,10.064789700001713,-0.019893827608819612,-0.04605766808087512,-0.15057299920763373,0.02919928275426209,0.10450226099650982,-0.13257692768200377,0.018036381172250746,0.1535610953191374,-0.3363992548223036,-0.11033007704085793,-0.4500177337983754,-0.07903787938250517
2210,10.071197800003574,-0.019806338681764575,-0.045918696570114104,-0.15080122930154444,0.029280119841610094,0.10519534485739176,-0.13410609758498127,0.017531800274727522,0.15150324444719074,-0.33674248013537256,-0.11175931222483436,-0.4559391028555714,-0.07195276425654021
2211,10.07478650000121,-0.019712479073478235,-0.045825240483403966,-0.15098593702091384,0.02935864947999109,0.10587901963685338,-0.13563675489079954,0.017020760967467203,0.14941863847705067,-0.3370534274420693,-0.11317131473453626,-0.461794283818053,-0.06482938362454084
2212,10.08224920000066,-0.01952497488400415,-0.045614313443686064,-0.15137447505493073,0.02943484248271923,0.10655316444513124,-0.13716875254420333,0.01650334236123992,0.14730758050537088,-0.3373319249208831,-0.11456573994146642,-0.46758213290521894,-0.05766866216123071
2213,10.086236000002827,-0.01939695183541894,-0.0455077047713954,-0.15157666466947106,0.029508670026200976,0.10721765978000412,-0.13870194271767322,0.015979625128119058,0.14517037880414463,-0.337577804972315,-0.11594224660528386,-0.47330151587849373,-0.05047153397921689
2214,10.093778299997211,-0.019191290017756883,-0.04522558538443972,-0.15202970070556368,0.029580103657013156,0.10787238755021715,-0.14023617683074033,0.015449691485879352,0.14300734677692267,-0.3377909042614731,-0.11730049695592466,-0.4789513083142591,-0.04323894248758097
2215,10.097776900001918,-0.019090056264257013,-0.04505027473904154,-0.15224104902823637,0.02964911529890916,0.10851723109870497,-0.1417713055694941,0.014913625182020548,0.1408188029137918,-0.3379710637600252,-0.11864015677497668,-0.48453039587623536,-0.035971840247949576
2216,10.102271199997633,-0.018982876730383687,-0.04491030065068122,-0.15247938105190603,0.029715677259751747,0.10915207522560803,-0.1433071789062809,0.014371511477420029,0.13860507074511624,-0.3381181287874971,-0.1199608954762862,-0.4900376745872351,-0.02867118882806774
2217,10.10660860000644,-0.01886260895965306,-0.044710807776459735,-0.15272327563081542,0.02977976223837072,0.10977680621107694,-0.1448436461195903,0.013823437129618033,0.13636647879404484,-0.33823194905190673,-0.12126238618577467,-0.4954720511002076,-0.021337958652899273
2218,10.110414700000549,-0.018730491318238993,-0.04455269001569577,-0.15296558421850404,0.029841343331344014,0.11039131183785918,-0.14638055581412637,0.013269490375738996,0.13410336052778796,-0.3383123786897229,-0.12254430582044296,-0.5008324429684948,-0.013973128853279154
2219,10.114420700003391,-0.018594069297679285,-0.044402506406129603,-0.15320280135468226,0.02990039403970044,0.11099548141366342,-0.14791775594106005,0.012709760915052794,0.13181605430766766,-0.33835927630513524,-0.12380633516654117,-0.5061177789152184,-0.006577687112143616
2220,10.118668900002376,-0.018436357938826087,-0.044240615063347116,-0.15347059893739975,0.029956888275542576,0.11158920579329555,-0.1494550938184595,0.012144339891179716,0.12950490333794523,-0.338372505008624,-0.1250481589568824,-0.5113269991017144,0.0008473704916354696
2221,10.12271929999406,-0.018281383805027057,-0.043924330970442044,-0.153702694550876,0.030010800368588074,0.11217237740056087,-0.15099241615189532,0.011573319873943111,0.1271702556134307,-0.3383519324548161,-0.12626946594727922,-0.5164590553949368,0.008301039641784632
2222,10.126925599994138,-0.018086686873495697,-0.04373001316364948,-0.15396349810405444,0.0300621050726279,0.11274489024992633,-0.1525295690552163,0.010996794840873812,0.12481246386587921,-0.3382974308796166,-0.12746994899208253,-0.5215129116337472,0.01578230794550301
2223,10.13110179999785,-0.017870381922891018,-0.04355717913971074,-0.15421264260048773,0.03011077757189974,0.11330663996793784,-0.15406639807149378,0.010414860158370485,0.12243188550917894,-0.3382088771366045,-0.12864930511880204,-0.5264875438940126,0.023290155096647745
2224,10.135414399992442,-0.017639704264155058,-0.04337448815464903,-0.1545066560744784,0.03015679348737511,0.11385752381438706,-0.15560274819413117,0.009827612562520231,0.12002888258333652,-0.3380861527326827,-0.12980723560178786,-0.5313819407524214,0.030823553041200748
2225,10.139745099993888,-0.017420392705780104,-0.04311389314760192,-0.15479192278407616,0.03020012888295854,0.11439744070322258,-0.1571384638881356,0.009235150139583802,0.1176038216972665,-0.337929143862971,-0.1309434460349524,-0.5361951035489343,0.03838146614498635
2226,10.143898499998611,-0.017188440478512097,-0.04289545851910607,-0.15508315525718458,0.03024076027159717,0.11492629122320037,-0.1586733891115462,0.008637572306149881,0.1151570739703904,-0.33773774144493224,-0.13205764640351228,-0.5409260466477851,0.04596285136360857
2227,10.147966699994868,-0.01693687753207178,-0.042652991542369574,-0.15538743770608987,0.030278664621299137,0.11544397765826753,-0.16020736733701482,0.008034979788962967,0.11268901497305218,-0.3375118411517218,-0.13314955115473004,-0.5455737976969521,0.053566658414575787
2228,10.15367949999927,-0.01667824262562266,-0.04242296075610531,-0.15571026903337082,0.030313819361059344,0.11595040400767335,-0.1617402415735361,0.007427474604429511,0.11020002466575735,-0.3372513434447512,-0.13421887926763587,-0.5501373978860177,0.06119182995158021
2229,10.15782209999452,-0.016423826204219946,-0.04218369936353364,-0.15603541692529088,0.030346202386691144,0.11644547600580256,-0.1632718543883225,0.006815160037807093,0.10769048733724292,-0.3369561536054556,-0.1352653543217106,-0.5546159022023287,0.06883730174089858
2230,10.162130299999262,-0.016174551827130852,-0.041941073265378284,-0.15637996649360952,0.030375792066562466,0.11692910114172553,-0.16480204792882205,0.006198140622081481,0.10516079154138609,-0.33662618176625436,-0.13628870456451095,-0.5590083796853761,0.07650200283987968
2231,10.16645229999267,-0.01595754180550204,-0.041652988040695275,-0.1569214461432876,0.030402567247234866,0.11740118867846025,-0.16633066394487409,0.005576522116536478,0.1026113300329597,-0.3362613429406959,-0.13728866297821798,-0.5633139136793056,0.0841848557774835
2232,10.170923800003948,-0.015704443271082905,-0.041360448782391576,-0.1572963983216953,0.03042650725900398,0.11786164967194106,-0.1678575438110001,0.004950411485021529,0.10004249970224238,-0.335861557052777,-0.13826496734509205,-0.5675316020834794,0.09188477673683675
2233,10.17466429999331,-0.015435870058475612,-0.04102707269254313,-0.1577012820855095,0.030447591921340146,0.11831039698968936,-0.16938252854882557,0.004319916873922177,0.0974547015084927,-0.33542674896542696,-0.1392173603118162,-0.5716605576010007,0.09960067573976812
2234,10.178691199995228,-0.015159743521513067,-0.04080943696972047,-0.15810426784143683,0.030465801548227877,0.11874734532918124,-0.17090545884962924,0.0036851475898385176,0.09484834041229682,-0.33495684850814605,-0.14014558945271,-0.5756999079851168,0.10733145683328618
2235,10.18236849999812,-0.0148690726642794,-0.04045016724864811,-0.1585221718158026,0.030481116953402762,0.1191724112359066,-0.1724261750970163,0.0030462140769769207,0.09222382530679911,-0.3344517905037902,-0.14104940733179605,-0.5796487962834193,0.1150760182779618
2236,10.186084600005415,-0.014571499600311127,-0.04007984974731345,-0.15892921977881225,0.030493519455484498,0.11958551312111439,-0.1739445173897121,0.0024032278942603437,0.0895815689478254,-0.3339115147944941,-0.14192857156370317,-0.5835063810797525,0.12283325273817684
2237,10.19405839999672,-0.013956562863727859,-0.039378105781478705,-0.15976629613149068,0.03050299088300478,0.11998657127923877,-0.1754603255644724,0.0017563016921626408,0.08692198788291,-0.3333359662667261,-0.14278284487338913,-0.5872718367337476,0.1306020474742
2238,10.198100599998725,-0.013563076715102986,-0.039069369369694976,-0.1602341560208147,0.030509513579328962,0.12037550790500129,-0.1769734392191057,0.0011055491892723516,0.08424550237923714,-0.3327250948754653,-0.1436119951546673,-0.5909443536178933,0.1383812845360499
2239,10.202101999995648,-0.013157286147519211,-0.038713247746897946,-0.16069219459289424,0.030513070407470148,0.12075224711018293,-0.1784836977356024,0.00045108514859151723,0.08155253635050838,-0.33207885566749185,-0.14441579552752215,-0.5945231383520624,0.14616984095910499
2240,10.206200800006629,-0.012724486071056858,-0.03826092128620523,-0.16128628527455283,0.030513644754794494,0.12111671494006175,-0.1799909403033677,-0.00020697464642485593,0.07884351728274738,-0.3313972088037824,-0.14519402439419804,-0.5980074140354101,0.15396658896142001
2241,10.210391700005855,-0.012369290719903746,-0.037746437589584556,-0.1618734133376485,0.03051122053761664,0.12146883938951115,-0.18149500594255324,-0.0008685134160829899,0.076118876159054,-0.33068011958100413,-0.14594646549404633,-0.6013964204755595,0.1617703961427059
2242,10.214602299995022,-0.01196895599277262,-0.03725575287801979,-0.1624401660115905,0.030505782205683892,0.12180855041875426,-0.182995733527484,-0.0015334134089124163,0.07337904738331966,-0.32992755845210103,-0.1466729079571162,-0.604689414414987,0.16958012568493072
2243,10.21871669999382,-0.011548898124992279,-0.03680384946550492,-0.16307623212097838,0.030497314746548047,0.1221357799687692,-0.18449296181017502,-0.002201555926370112,0.07062446870291704,-0.3291395010459644,-0.14737314635647572,-0.6078856697545262,0.17739463655449947
2244,10.222879099994316,-0.011117146932053176,-0.036269156883740286,-0.16363117305841132,0.030485803689823714,0.12245046197634096,-0.1859865294439347,-0.002872821347780797,0.06785558113037712,-0.3283159281861811,-0.1480469807592491,-0.6109844777739073,0.18521278370596966
2245,10.22793389999424,-0.010697042972044634,-0.03578610004846872,-0.16415880056933274,0.03047123511133195,0.12275253238875498,-0.18747627500704955,-0.0035470891555074383,0.06507282886406669,-0.32745682590885045,-0.1486942167763563,-0.6139851473492491,0.1930334182872582
2246,10.235722900004475,-0.009806778624695596,-0.034713533162725796,-0.1653897879888123,0.030453595637128156,0.12304192917812808,-0.18896203702654565,-0.004224237960345951,0.06227665920788026,-0.32656218547946153,-0.14931466561094137,-0.6168870051674185,0.2008553878462949
2247,10.241754899994705,-0.009421527642166373,-0.03419166687479814,-0.16608013217822132,0.03043287244741334,0.12331859235537168,-0.19044365400202173,-0.004904145527138,0.059467522489961115,-0.325632003408825,-0.14990814410547704,-0.6196893959371758,0.20867753653907703
2248,10.24910689999524,-0.008487251115702274,-0.03311101860353499,-0.16754052550687235,0.0304090532803278,0.12358246398378324,-0.19192096442954978,-0.005586688800595776,0.05664587198046604,-0.3246662814680516,-0.15047447478753412,-0.6223916825970247,0.2164987053390794
2249,10.25512639999215,-0.00802401167505012,-0.03256137273496446,-0.16823738338498287,0.030382126435626298,0.12383348819226057,-0.19339380682563923,-0.006271743931332548,0.05381216380838896,-0.3236650267025734,-0.15101348591420397,-0.6249932465196847,0.22431773224797286
2250,10.26130369999737,-0.007141850149141728,-0.031207520333688163,-0.169620153200097,0.030352080778233773,0.124071611188135,-0.19486201975126127,-0.006959186302092782,0.050966856877458826,-0.32262825144520274,-0.15152501151516193,-0.6274934877131031,0.2321334525076044
2251,10.265386700004456,-0.006743713120774391,-0.03055645979955368,-0.1704619869656964,0.030318905741680804,0.12429678126961936,-0.19632544183592912,-0.00764889055417551,0.048110412781127494,-0.3215559733282219,-0.15200889143436067,-0.6298918250179285,0.23994469881318983
2252,10.26922149999882,-0.006316853312913814,-0.029810648971954755,-0.17117058602879118,0.0302825913314179,0.12450894883786597,-0.1977839118018304,-0.00834073061404462,0.04524329571666377,-0.320448215294496,-0.15246497137034293,-0.6321876963013683,0.24775030152767089
2253,10.27339000000211,-0.005827495611476103,-0.02919233032974143,-0.17192631720619178,0.030243128128007717,0.12470806640863104,-0.19923726848800713,-0.00903457972011966,0.04236597239837026,-0.31930500560760455,-0.1528931029151634,-0.6343805586473491,0.255549088897188
2254,10.282228099997155,-0.004888062181405858,-0.02780774486679554,-0.17356990855189558,0.0302005072901945,0.12489408862354164,-0.20068535087457903,-0.009730310449740697,0.039478911969939856,-0.31812637786098563,-0.15329314359190932,-0.6364698885429008,0.2633398872676205
2255,10.285808300002827,-0.004457235623609437,-0.027040086435733697,-0.17431632363184474,0.03015472055784992,0.12506697226096158,-0.20212799810700532,-0.010427794746300746,0.03658258591596878,-0.3169123709860888,-0.1536649568908109,-0.6384551820606851,0.27112152130214373
2256,10.289761399995768,-0.00395882635174841,-0.026327651739854213,-0.17517569992539417,0.030105760254794476,0.12522667624645206,-0.20356504952038101,-0.0111269039465392,0.03367746797264365,-0.3156630292595331,-0.15400841230393175,-0.6403359550375916,0.2788928141997531
2257,10.29360980000638,-0.0035855425628616017,-0.025474622227901936,-0.17588585890432482,0.030053619291493573,0.12537316166282336,-0.20499634466376318,-0.011827508807989677,0.030764034037620413,-0.3143784023092672,-0.15432338535843135,-0.6421117432493247,0.2866525879147039
2258,10.297954399997252,-0.003196386672086571,-0.024638814156724295,-0.17666460103213588,0.02999829116762756,0.12550639175977446,-0.20642172332452283,-0.01252947953657569,0.027842762079113292,-0.3130585451197283,-0.15460975764839158,-0.6437821025809105,0.2943996633768192
2259,10.30213919999369,-0.002744346288875441,-0.02379306314594536,-0.17753299256892485,0.029939769974535027,0.12562633196311798,-0.20784102555271805,-0.013232685814347559,0.024914132044212396,-0.311703518035994,-0.1548674168652008,-0.6453466091930465,0.3021328607126138
2260,10.30620550000458,-0.002285536280425722,-0.02297284692162044,-0.17845926740419177,0.029878050397528833,0.12573294988358738,-0.20925409168548412,-0.013936996827353916,0.02197862576644914,-0.3103133867669258,-0.15509625682648873,-0.6468048596842239,0.3098509994671818
2261,10.310194599995157,-0.00184109963414026,-0.02222925848180563,-0.17927348902009924,0.029813127718084545,0.1258262153252235,-0.21066076237143652,-0.01464228129364108,0.019036726872628692,-0.30888822238730107,-0.15529617750360547,-0.6481564712485505,0.3175528988267964
2262,10.3142419999931,-0.0014100744674377663,-0.02134473046936219,-0.1801645822872203,0.029744997815900707,0.12590610029333713,-0.212060878595082,-0.015348407491373598,0.01608892068894907,-0.30742810133892934,-0.1554670850476379,-0.649401081829208,0.32523737784216833
2263,10.318603799998527,-0.0009700414573895148,-0.020546771190164292,-0.18095826036458265,0.02967365717083033,0.12597257900204506,-0.21345428170123182,-0.016055243287069174,0.013135694146426803,-0.3059331054307507,-0.15560889181395698,-0.65053835026747,0.3329032556523126
2264,10.322720299998764,-0.0005479890236389957,-0.019634548939504635,-0.1817993841919048,0.029599102864683178,0.12602562788137617,-0.214840813419413,-0.016762656163941264,0.010177535685649287,-0.30440332183791335,-0.15572151638529072,-0.6515679564472149,0.34054935170896994
2265,10.32699099999445,-0.00016421628787512826,-0.018740256383847784,-0.1826904870793669,0.029521332582898234,0.12606522558394398,-0.21622031588827204,-0.017470513250342563,0.007214935160874416,-0.3028388430998279,-0.15580488359331715,-0.6524896014348615,0.3481744860015294
2266,10.331372899992855,0.00030964096608967345,-0.017808311114643136,-0.18367202658065074,0.02944034461608603,0.12609135299118293,-0.21759263167996637,-0.018178681348302604,0.0042483837434982834,-0.3012397671171967,-0.1558589245387726,-0.6533030076146608,0.3557774792823982
2267,10.33549129999301,0.0007870685255242978,-0.016968969704697415,-0.18467316279966328,0.029356137861440472,0.12610399321914517,-0.21895760382453788,-0.01888702696215265,0.0012783738249121431,-0.29960619714801845,-0.155883576610071,-0.6540079188192819,0.3633571532927658
2268,10.33961470000213,0.0011711882880726249,-0.01608649441295503,-0.18550970400515746,0.0292687118240197,0.12610313162385473,-0.2203150758342644,-0.019595416327230886,-0.0016946010812299709,-0.2979382418025672,-0.15587878350043088,-0.6546041004556284,0.3709123309887089
2269,10.343672599992717,0.0016874611850746669,-0.015243146184531287,-0.18641438128832394,0.029178066617895623,0.126088755806216,-0.22166489172798398,-0.020303715438661107,-0.004670046437311178,-0.296236015037343,-0.155844495223507,-0.6550913396258219,0.37844183676758525
2270,10.347801199997775,0.0020887922305134563,-0.014133749089013317,-0.18723025847475067,0.02908420296717197,0.12606085561647526,-0.223006896055388,-0.021011790080198076,-0.007647466780597229,-0.2944996361479912,-0.1557806681275247,-0.6554694452432871,0.3859444966946605
2271,10.352352400004747,0.0025193561839208164,-0.01331036788848165,-0.18819316193906255,0.028987122206870525,0.12601942315823222,-0.22434093392127868,-0.021719505853132686,-0.010626365822605172,-0.29272922976119026,-0.1556872649079162,-0.655738248143882,0.39341913872991324
2272,10.356153899992933,0.00296509070881636,-0.012219754564959648,-0.1893289799055088,0.028886826283685236,0.1259644527920002,-0.22566685100978548,-0.022426728205250098,-0.013606246548972615,-0.2909249258255073,-0.15556425461845635,-0.655897601192014,0.4008645929549625
2273,10.360327100002904,0.0033895657088518043,-0.011195912576750077,-0.19023208306071154,0.028783317756603928,0.12589594113831196,-0.2269844936085358,-0.023133322459833915,-0.016586611319804694,-0.2890868596012221,-0.15541161268089665,-0.6559473793816828,0.4082796918000639
2274,10.36437090000254,0.003838252285097897,-0.010248472414801837,-0.1912909160603621,0.028676599797397555,0.12581388708036914,-0.22829370863277518,-0.02383915384470947,-0.019566961970475607,-0.2872151716491215,-0.15522932089309593,-0.6558874799323972,0.41566327027111716
2275,10.368644999995013,0.004310067523604558,-0.009279011263322163,-0.19224320132320927,0.028566676190976758,0.1257182917662339,-0.22959434364943304,-0.02454408752131931,-0.022546799912861282,-0.2853100078182615,-0.15501736743564756,-0.6557178223799094,0.4230141661766277
2276,10.37272810000286,0.004775068768846579,-0.0082390555807358,-0.19321659340427316,0.02845355133561553,0.12560915861056074,-0.23088624690112808,-0.025247988613823984,-0.02552562623697954,-0.2833715192326981,-0.1547757468770037,-0.6554383486617136,0.4303312203545678
2277,10.377072000002954,0.005162592330556612,-0.006947458228584051,-0.19435663508730988,0.028337230243041897,0.12548649329586634,-0.23216926733010948,-0.025950722238221334,-0.028502941813013816,-0.28139986227718794,-0.1545044601770968,-0.6550490231972558,0.43761327689908147
2278,10.38131379999686,0.005507163988094912,-0.0057742312618433034,-0.19546997095804877,0.028217718538395612,0.12535030377333467,-0.23344325460212847,-0.026652153531477457,-0.03147824739369626,-0.2793951985818571,-0.15420351468945911,-0.6545498329628026,0.4448591833869768
2279,10.385614500002704,0.006021359747039039,-0.0047533295302608705,-0.19642296628959022,0.02809502246005268,0.1252006002631566,-0.23470805913023554,-0.027352147680662443,-0.034451043717025676,-0.27735769500584123,-0.15387292416184192,-0.653940787560919,0.4520677911039497
2280,10.394068399997195,0.006889308334210809,-0.002571683935257316,-0.1983174877554945,0.02796914885931668,0.12503739525440252,-0.23596353209849844,-0.028050569952083902,-0.03742083160929578,-0.27528752361990083,-0.15351270873533496,-0.6532219192845087,0.45923795527048705
2281,10.397909499995876,0.007283215403688531,-0.0013523390556745944,-0.19938122609847064,0.027840105199977008,0.12486070350442706,-0.2372095254856366,-0.028747285720411363,-0.04038711208840866,-0.2731848616880134,-0.15312289494198897,-0.6523932831753674,0.4663685352673904
2282,10.40193089999957,0.007604646619682565,-0.00011748278328984826,-0.2005078731223686,0.0277078995577341,0.12467054203780464,-0.23844589208856698,-0.02944216049778467,-0.0433493864674483,-0.27104989164794413,-0.15270351570094384,-0.651454957077209,0.4734583948608624
2283,10.406115499994485,0.008013971134928827,0.0010089834859490464,-0.20150064273332297,0.02757254061949177,0.1244669301447949,-0.2396724855458559,-0.030135059962899443,-0.046307156458488805,-0.26888280109079693,-0.1522546103130652,-0.6504070416831219,0.48050640242710124
2284,10.410839000003762,0.00834688911773399,0.00231343769655001,-0.20247640745869572,0.027434037682516774,0.12424988937933644,-0.24088916036107208,-0.03082584999006299,-0.049259924276611834,-0.2666837827395478,-0.15177622445409347,-0.6492496605774166,0.48751143117634677
2285,10.414735400001518,0.008649481908952943,0.0036193128657720126,-0.20343193147443836,0.027292400653465807,0.12401944355656702,-0.2420957719260356,-0.03151439667821379,-0.05220719274410794,-0.26445303442656243,-0.15126841016631118,-0.6479829602718228,0.4944723593763226
2286,10.418949099999736,0.009045983727003517,0.004833637533228675,-0.20453631816899495,0.027147640047280087,0.12377561874986955,-0.24329217654395752,-0.032200566379897745,-0.05514846539483571,-0.26219075907010025,-0.1507312258487321,-0.646607110235998,0.5013880705750179
2287,10.423116399993887,0.009386273896764061,0.006224092373920596,-0.2056301573408016,0.02699976698594781,0.12351844328744269,-0.24447823145246508,-0.03288422573019449,-0.05808324657871272,-0.2598971646498086,-0.15016473624581644,-0.6451223029223141,0.5082574538227538
2288,10.427111900004093,0.009701681987536492,0.007411936909358801,-0.20670426018527843,0.0268487931971347,0.12324794774839536,-0.24565379484650815,-0.03356524167558686,-0.06101104156631188,-0.2575724641812107,-0.14956901243471676,-0.6435287537848849,0.5150794038934794
2289,10.431173299992224,0.010078007795486213,0.008637159300813931,-0.2077703271872218,0.02669473101268286,0.12296416495836453,-0.2468187259011434,-0.03424348150276684,-0.06393135665353691,-0.2552168756891907,-0.1489441318110604,-0.6418267012928046,0.5218528215052437
2290,10.435479599997052,0.01037241451368158,0.010047309234180936,-0.20876496948387074,0.026537593366978498,0.12266712998465518,-0.2479728847941928,-0.03491881286737157,-0.06684369926635048,-0.25283062218048014,-0.14829017807327313,-0.6400164069375622,0.5285766135397864
2291,10.439392200001748,0.010633065476106233,0.011482214110605612,-0.20990975548809926,0.026377393795188813,0.12235688013090336,-0.24911613272877106,-0.03559110382264265,-0.06974757806552834,-0.25041393161515024,-0.14760724120545057,-0.6380981552346074,0.5352496932611931
2292,10.443529600001057,0.010969642981567291,0.012826395532973,-0.2110782531829321,0.026214146431368598,0.12203345493126247,-0.2502483319556783,-0.03626022284800211,-0.07264250305141264,-0.24796703687711535,-0.14689541745878373,-0.636072253719034,0.5418709805335595
2293,10.4494471999933,0.011322980231546017,0.014111099796833382,-0.2122183928351875,0.026047866006436864,0.12169689614411258,-0.251369345795654,-0.03692603887753814,-0.07552798566863743,-0.24549017574365073,-0.1461548093315467,-0.6339390329353579,0.5484394020376063
2294,10.45656570000574,0.011914876273355059,0.016950740195136406,-0.21438310048881706,0.025878567846024016,0.12134724774529314,-0.25247903866148713,-0.0375884213283941,-0.07840353891079913,-0.24298359085392893,-0.1453855255476537,-0.6316988464213665,0.554953891486191
2295,10.462405700003728,0.012111445001019095,0.0183296511728712,-0.215439405178391,0.025706267868190035,0.12098455592085898,-0.2535772760799789,-0.038247240129053936,-0.08126867742504448,-0.24044752967658056,-0.14458768103379263,-0.6293520706860161,0.5614133898386626
2296,10.466418900003193,0.01247204471294601,0.019759765544461533,-0.21662258327723233,0.025530982581014237,0.12060886905936062,-0.2546639247137532,-0.0389023657475174,-0.08412291761654882,-0.23788224447628398,-0.14376139689514408,-0.6268991051813599,0.5678168455140068
2297,10.47038299999258,0.01271864330503307,0.02112114200002138,-0.21774903507489238,0.025352729080057236,0.12022023774364943,-0.25573885238291,-0.03955366921935876,-0.08696577775285677,-0.23528799227938954,-0.14290680038969386,-0.6243403722684925,0.5741632146027248
2298,10.474262699994142,0.01300231160150813,0.02257977154665867,-0.21891210419085616,0.02517152504569558,0.1198187147422084,-0.25680192808651536,-0.04020102217566262,-0.08979677806805787,-0.23266503483858392,-0.14202402490114793,-0.6216763171774925,0.5804514610773903
2299,10.477828300005058,0.01317947202556745,0.024173103582742397,-0.2200717418197935,0.024987388740329772,0.11940435500000857,-0.25785302202392624,-0.04084429687083082,-0.09261544086676934,-0.23001363859660007,-0.1411132099104591,-0.6189074079613521,0.5866805570018332
2300,10.481144999997923,0.013356329603026894,0.025765853601505972,-0.22121059320268427,0.024800339005466313,0.11897721562889285,-0.2588920056159448,-0.0414833662102538,-0.09542129062789845,-0.22733407464897915,-0.14017450096597503,-0.6160341354438789,0.5928494827388981
2301,10.487212799998815,0.013593324465932411,0.02721540330429205,-0.22232724747385788,0.02461039525867445,0.11853735589748947,-0.2599187515258006,-0.04211810377784017,-0.09821385410815674,-0.22462661870589007,-0.13920804965221714,-0.6130570131615626,0.5989572271567266
2302,10.49152559999493,0.013880828562480026,0.02866215385953638,-0.2236001174782929,0.024417577490418296,0.11808483722065587,-0.2609331336799583,-0.04274838386339798,-0.10099266044529835,-0.2218915510530137,-0.13821401355729865,-0.609976577299399,0.605002787833512
2303,10.49558000000252,0.014083845506748831,0.03019241272243945,-0.22479915042087079,0.02422190626076489,0.11761972314845424,-0.26193502728874746,-0.04337408148986133,-0.10375724126105469,-0.21912915651149828,-0.13719255623899254,-0.6067933866206648,0.6109851712606816
2304,10.502009599993473,0.014421658197822934,0.033394759959971584,-0.2271811542186272,0.024023402695969035,0.11714207935466023,-0.2629243088668084,-0.04399507244035599,-0.10650713076373795,-0.21633972439699325,-0.13614384718946057,-0.6035080223906408,0.6169033930444561
2305,10.506383800006006,0.0146365966750088,0.03493117564605884,-0.22841364530561947,0.02382208848493565,0.11665197362480624,-0.26390085625335125,-0.04461123328509807,-0.1092418658504861,-0.21352354847776875,-0.13506806179865494,-0.6001210882942823,0.6227564781057349
2306,10.510498899995582,0.014777913840752159,0.03650798700446563,-0.22966759564012024,0.023617985875560403,0.11614947584376106,-0.2648645486322242,-0.045222441408119526,-0.11196098620912108,-0.210680926931929,-0.13396538131640406,-0.5966332103478345,0.6285434608782584
2307,10.514619099994889,0.014891397988557372,0.038116406542631584,-0.2308726339382461,0.023411117670949416,0.11563465798284771,-0.2658152665517875,-0.04582857503381475,-0.11466403441959262,-0.20781216230372873,-0.13283599281319336,-0.5930450368043936,0.6342633855049984
2308,10.522278000004007,0.015255261206810929,0.04116306359701899,-0.2333078867213362,0.02320150722551876,0.11510759408650065,-0.2667528919445881,-0.04642951325330218,-0.11735055605498018,-0.20491756145900117,-0.1316800891396524,-0.5893572380534208,0.6399153060327254
2309,10.526790100004291,0.015389086266313527,0.04261181325901636,-0.2346221856860375,0.022989178440974607,0.1145683602584643,-0.2676773081468307,-0.047025136050595,-0.12002009978202466,-0.20199743553970562,-0.13049786888476142,-0.5855705065142134,0.6454982866047065
2310,10.53087570000207,0.01540518279560954,0.044225988022888976,-0.2358847160046157,0.022774155762174973,0.11401703464753508,-0.2685883999176395,-0.04761532432857515,-0.12267221746116261,-0.19905209991760342,-0.12928953633279008,-0.5816855565233403,0.6510114016514853
2311,10.535250899993116,0.015523177704344821,0.04583174421094789,-0.23716045811653838,0.022556464172873963,0.11345369743284868,-0.2694860534581074,-0.0481999599347652,-0.1253064642460348,-0.19608187414707043,-0.1280553014189812,-0.5777031242160477,0.6564537360796965
2312,10.539410299999872,0.015573516981267872,0.04733412292870096,-0.2384077517561623,0.022336129191349592,0.112878430808715,-0.27037015643012774,-0.048778925686892405,-0.12792239868244232,-0.19308708191705434,-0.12679537968399246,-0.5736239674016516,0.6618243854588701
2313,10.543468400006532,0.015723074731180488,0.04868829399994798,-0.23968679037717422,0.022113176865916167,0.11229131896900325,-0.2712405979750061,-0.04935210539823895,-0.13051958280672288,-0.1900680510021861,-0.12550999222711015,-0.5694488654329325,0.6671224562061787
2314,10.547835599994867,0.0157898624904872,0.05022804844318497,-0.24097336302211525,0.021887633770322146,0.11169244809108002,-0.27209726873185014,-0.04991938390277317,-0.13309758224352017,-0.1870251132130547,-0.1241993656582478,-0.5651786190695501,0.6723470657690799
2315,10.552221899997676,0.015908971715641033,0.05172015172082359,-0.24230595659208856,0.021659526999034458,0.11108190631930266,-0.27294006085573286,-0.0504806470800561,-0.13565596630291854,-0.18395860434565497,-0.1228637320487452,-0.5608140503354915,0.6774973428058072
2316,10.556409600001643,0.015967130719987607,0.053341958295526515,-0.24354025188626321,0.021428884162410268,0.11045978374807044,-0.2737688680356256,-0.05103578187991771,-0.13819430807691652,-0.1808688641300179,-0.12150332888098136,-0.5563560023705756,0.6825724273636611
2317,10.5604297999962,0.01598201207569936,0.0547667780077838,-0.24486373618837362,0.021195733381757408,0.10982617240443658,-0.27458358551209794,-0.051584676346897666,-0.14071218453521284,-0.17775623617803396,-0.12011839899681488,-0.5518053392760365,0.6875714710550562
2318,10.564712699997472,0.016059626113455964,0.05622062687315394,-0.24623952542084543,0.02096010328428452,0.10918116623028468,-0.27538411009478225,-0.05212721964444482,-0.14320917662027807,-0.17462106793047996,-0.11870919054486588,-0.5471629459542126,0.6924936372312808
2319,10.56904040000518,0.016155353538422436,0.05781605549933497,-0.24766343445225913,0.020722022997942097,0.10852486106407257,-0.2761703401795992,-0.052663302078870405,-0.1456848693416852,-0.1714637106032601,-0.1172759569266541,-0.5424297279423651,0.6973381011539237
2320,10.572926900000311,0.016247412916827735,0.05927072627210871,-0.24909794904205906,0.02048152214615548,0.10785735462214681,-0.27694217576573915,-0.0531928151230496,-0.14813885186967243,-0.1682845191328727,-0.11581895674160832,-0.5376066112406591,0.7021040501639233
2321,10.577481999993324,0.016377139084230392,0.060600797729653565,-0.25044386602680796,0.020238630842450936,0.10717874647963134,-0.27769951847239654,-0.05371565143986647,-0.15057071762791183,-0.1650838521211139,-0.11433845373096214,-0.5326945421343376,0.7067906838481942
2322,10.5835500999965,0.016555249672757937,0.06200756063789993,-0.25180060734572696,0.019993379684976078,0.10648913805089441,-0.2784422715552531,-0.05423170490539739,-0.15298006438545786,-0.16186207177902956,-0.11283471672055186,-0.5276944870101273,0.7113972142037884
2323,10.587865699999384,0.016476625181165053,0.06359427615704429,-0.25314504658095727,0.019745799750915765,0.10578863256959738,-0.27917033992270596,-0.054740870631828344,-0.15536649434784894,-0.15861954387012706,-0.11130801956253174,-0.522607432166912,0.7159228657995466
2324,10.594381899994914,0.016655170755242046,0.0663134767167238,-0.2559651387459406,0.019495922590804828,0.10507733506832924,-0.27988363015183915,-0.05524304499010145,-0.1577296142473359,-0.15535663765285845,-0.10975864107602268,-0.517434383620708,0.7203668759351968
2325,10.598764800000936,0.016657403432370474,0.06773443728570142,-0.25739401343108,0.019243780222738847,0.104355352357831,-0.28058205050413576,-0.05573812563228592,-0.16006903543221124,-0.15207372582238757,-0.1081868649867103,-0.5121763669039836,0.7247284947978624
2326,10.602697499998612,0.01669275358508656,0.06906959043073853,-0.25885965230161134,0.018989405126484296,0.10362279300581383,-0.28126551094092644,-0.056226011513668975,-0.1623843739552135,-0.14877118445165288,-0.10659297986540975,-0.5068344268593614,0.729006985615938
2327,10.608010199997809,0.016692614538837025,0.07042597213413862,-0.2603510680527338,0.01873283023748925,0.10287976731537515,-0.2819339231385722,-0.05670660291456207,-0.16467525066098002,-0.14544939293173828,-0.10497727906561362,-0.5014096274277511,0.7332016248102963
2328,10.614553499995964,0.016582410489642138,0.0730116126840743,-0.2630635244423763,0.018474088940795913,0.10212638730301705,-0.28258720050337777,-0.057179801461818114,-0.16694129127252302,-0.14210873391156462,-0.10334006066003919,-0.4959030514309567,0.7373117021427826
2329,10.618665100002543,0.016459201248222526,0.07437228824092273,-0.26446751310140176,0.018213215064856368,0.10136276667627124,-0.28322525818623334,-0.05764551015005534,-0.16918212647670378,-0.13874959323691477,-0.1016816273761913,-0.49031580034880445,0.741336520861961
2330,10.622927999997046,0.016386852115674044,0.07563955628251334,-0.26594057552004957,0.017950242875252917,0.10058902081093553,-0.28384801309698093,-0.05810363336258356,-0.17139739200868062,-0.13537235988880417,-0.10000228653095779,-0.48464899409084466,0.7452753978460732
2331,10.627121900004568,0.0162889433291524,0.07694598571696465,-0.267325483667213,0.017685207068324584,0.09980526672792632,-0.2844553839185036,-0.05855407689202844,-0.17358672873530648,-0.13197742592120906,-0.09830234996425455,-0.4789037707626787,0.7491276637431772
2332,10.633367400005229,0.01626936506210566,0.07821574460391365,-0.26870545290194264,0.01741814276470124,0.09901162306975188,-0.28504729112053556,-0.0589967479606492,-0.17574978273745087,-0.1285651863981652,-0.09658213397173757,-0.4730812864269646,0.7528926631084325
2333,10.637395199999446,0.016209622598002595,0.07936876449937609,-0.27014612080077194,0.017149085502746783,0.09820821007661143,-0.28562365697319014,-0.05943155524034577,-0.17788620539122316,-0.12513603933025017,-0.0948419592365993,-0.4671827148591552,0.7565697545384926
2334,10.641166600005818,0.01615385249702575,0.08050351214049423,-0.27158083289438,0.016878071231912692,0.09739514956212518,-0.2861844055602035,-0.05985840887235104,-0.17999565344807356,-0.12169038561046286,-0.09308215076046612,-0.4612092472980278,0.7601583108029673
2335,10.645385299998452,0.016117664227145088,0.0817431284163046,-0.2730611131877388,0.016605136306003538,0.09657256488870053,-0.286729462791889,-0.06027722048660448,-0.1820777891137486,-0.11822862894951292,-0.09130303779341459,-0.4551620921910682,0.7636577189729213
2336,10.65065520000644,0.016005647464281306,0.08295173965826877,-0.27444348034749083,0.016330317476355913,0.09574058094254018,-0.28725875641779863,-0.06068790322080317,-0.18413228012607763,-0.1147511758105334,-0.08950495376312416,-0.4490424749347677,0.7670673805463796
2337,10.655921900004614,0.016159992354224065,0.08512662288433713,-0.2774439284395766,0.016053651884932286,0.09489932410829732,-0.2877722160390914,-0.06109037173912676,-0.18615879983156658,-0.11125843534323042,-0.08768823620318394,-0.4428516376098987,0.7703867115708087
2338,10.66051940000034,0.016122013217217124,0.08623375186352404,-0.27894954220441404,0.01577517705733117,0.09404892224338318,-0.28826977312060503,-0.06148454225063251,-0.18815702726077624,-0.10775081931748294,-0.08585322668057147,-0.43659083871183363,0.7736151427625494
2339,10.668735700004618,0.01629281994691463,0.08826935350082275,-0.2820611818958378,0.01549493089571513,0.09318950465193249,-0.28875136100263055,-0.061870332527317023,-0.19012664720246172,-0.10422874205640634,-0.0840002707223214,-0.4302613528759746,0.7767521196231668
2340,10.673275099994498,0.016453885028907246,0.08923058034597214,-0.28355043581354855,0.015212951671658129,0.09232120205843268,-0.289216914912387,-0.062247661921841085,-0.1920673502764504,-0.100692620368893,-0.08212971774140258,-0.42386447059836324,0.7797971025526954
2341,10.677584299992304,0.016346791245328,0.09037083312911137,-0.28511313752581763,0.014929278018913767,0.09144414658102298,-0.28966637197519235,-0.06261645138491455,-0.19397883300523475,-0.09714287348164441,-0.08024192096182158,-0.4174014979515402,0.782749566959748
2342,10.68152650000411,0.016431166121308544,0.09127667994917862,-0.28669323983454803,0.014643948926106,0.09055847170446885,-0.2900996712253283,-0.06297662348233779,-0.1958607978842595,-0.09357992297070929,-0.07833723734297152,-0.4108737562957264,0.7856090033684622
2343,10.6858751999971,0.016481909307404834,0.0922970882460201,-0.28827305068626446,0.014357003729343945,0.08966431225281811,-0.2905167536165969,-0.06332810241169619,-0.19771295345088116,-0.0900041926925427,-0.07641602750324467,-0.40428258198540135,0.7883749175222574
2344,10.689837900004932,0.016416270556989618,0.09335335275010939,-0.2896936024436698,0.01406848210476241,0.08876180436174515,-0.2909175620325673,-0.06367081401870459,-0.19953501435198007,-0.086416108714601,-0.07447865564292713,-0.39762932607135576,0.791046830484375
2345,10.694269700004952,0.0163139826218876,0.09427069392672907,-0.2911970343370846,0.01377842406098974,0.08785108545058964,-0.2913020412965116,-0.06400468581319813,-0.20132670141020503,-0.08281609924548693,-0.07252548946639426,-0.39091535399829813,0.7936242787351788
2346,10.698325999997904,0.01624425743706623,0.09521481833056128,-0.29279280093656024,0.013486869931544567,0.08693229419409632,-0.29167013818102555,-0.06432964698476636,-0.2030877416888293,-0.07920459456465967,-0.07055690010362548,-0.38414204529809626,0.7961068142661969
2347,10.702281199992283,0.016253735001066576,0.09601126246574544,-0.2942709318724811,0.013193860367163102,0.08600557049386166,-0.2920218014173332,-0.06464562841802755,-0.20481786855519885,-0.0755820269517245,-0.06857326203105714,-0.37731079327873424,0.798494004670883
2348,10.706644599995345,0.01609192464185244,0.09709102957039538,-0.2956898122166147,0.012899436328058535,0.08507105544949424,-0.29235698170427327,-0.0649525627075402,-0.20651682174275363,-0.07194883061531736,-0.06657495299179184,-0.3704230047090673,0.8007854332320787
2349,10.710545099995215,0.015952807582906105,0.0979436963417304,-0.2970883746240724,0.012603639076114222,0.08412889132949544,-0.29267563171696326,-0.06525038417234885,-0.20818434741160252,-0.06830544162159931,-0.06456235391518293,-0.3634800994994572,0.8029806990061538
2350,10.714061499995296,0.015952807582906105,0.0979436963417304,-0.2970883746240724,0.012306510167012308,0.08317922154186771,-0.2929777061151392,-0.06553902887016191,-0.20982019820763373,-0.06465229782237611,-0.06253584883581316,-0.35648351037837345,0.805079416903808
2351,10.718775400004231,0.0155787651443619,0.0995805119220784,-0.30002707566242875,0.012008091442299508,0.08222219060445725,-0.29326316155116905,-0.0658184346111584,-0.21142413332014268,-0.060989838782857984,-0.0604958248118864,-0.3494346825650478,0.8070812177675165
2352,10.722853800005396,0.015536663246958536,0.10035220239115532,-0.3014434180542766,0.011708425021391734,0.08125794411503795,-0.2935319566777374,-0.06608854097142142,-0.21299591853795896,-0.05731850570907471,-0.05844267184305146,-0.34233507343826963,0.8089857484455961
2353,10.726981500003603,0.015373449648289518,0.10119024033203498,-0.30288144063026984,0.01140755329351921,0.08028662872114371,-0.2937840521551993,-0.0663492893059958,-0.21453532630405422,-0.05363874137496146,-0.05637678278767677,-0.33518615220141323,0.8107926718628775
2354,10.7310179000051,0.015133940659092768,0.10212249036091325,-0.3042855202873643,0.01110551890961386,0.0793083920896561,-0.29401941065860343,-0.06660062276156772,-0.21604213576861384,-0.049950990049131304,-0.05429855327959531,-0.32798939954378886,0.8125016670879628
2355,10.73569519999728,0.014995109813335593,0.10289777850090435,-0.30576619846550335,0.010802364774140672,0.07832338287615465,-0.2942379968843823,-0.06684248628876407,-0.21751613284055601,-0.04625569742134992,-0.05220838164433836,-0.3207463072984101,0.81411242939705
2356,10.73968299999251,0.01494409931024247,0.10360098647442051,-0.30721008646056513,0.010498134036874739,0.07733175069403733,-0.29443977755670814,-0.06707482665406907,-0.21895711023748196,-0.04255331052872827,-0.0501066688148773,-0.3134583780962715,0.8156246703343111
2357,10.743753300004755,0.014824005153949623,0.10429019597538666,-0.3086648860653589,0.010192870084625735,0.07633364608341812,-0.29462472143351354,-0.06729759245135604,-0.2203648675340414,-0.03884427768164877,-0.047993818246892604,-0.3061271250172335,0.8170381177688097
2358,10.74818910000613,0.014686129156927045,0.10507946504811516,-0.3101438146318044,0.009886616532911565,0.07532922047980906,-0.2947927993121755,-0.0675107341130325,-0.22173921120869924,-0.03512904838944049,-0.04587023583358871,-0.2987540712376137,0.8183525159479462
2359,10.752004099995249,0.014649437447224925,0.10577183818278739,-0.3115590374156137,0.009579417217582934,0.07431862618259373,-0.2949439840348622,-0.06771420392079676,-0.2230799546888888,-0.031408073285819314,-0.04373632982007389,-0.2913407496745819,0.8195676255474181
2360,10.756253500003368,0.014507684427951884,0.1064887162986917,-0.31294131514221313,0.009271316186400617,0.07330201632329959,-0.2950782504935417,-0.06790795601600448,-0.22438691839453595,-0.027681804054108763,-0.041592510717324185,-0.28388870262745775,0.8206832237176821
2361,10.760279499998433,0.014374980404687807,0.1071315615355729,-0.31430273080191445,0.00896235769056716,0.07227954483367628,-0.29519557563465193,-0.06809194640964342,-0.22565992977993937,-0.023950693352257385,-0.03943919121575017,-0.2763994814160119,0.8216991041269055
2362,10.76448129999335,0.014311172270298463,0.10773630271227527,-0.315689923758178,0.00865258617621475,0.071251366413588,-0.29529593846343316,-0.0682661329919145,-0.2268988233739927,-0.02021519473766856,-0.03727678609838546,-0.26887464601587313,0.8226150770004002
2363,10.76875740000105,0.014326159764637041,0.10822241881168472,-0.31713204684892127,0.008342046275851047,0.07021763649872809,-0.2953793200479206,-0.06843047554141789,-0.2281034408187361,-0.016475762591858706,-0.035105712153715884,-0.2613157646911455,0.8234309691565271
2364,10.774337099996046,0.014171406775344153,0.10883615233199648,-0.3185426794825142,0.008030782799764798,0.06917851122816342,-0.2954457035225959,-0.06858493573394242,-0.22927363090622604,-0.012732852044959752,-0.03292638808816861,-0.25372441362433923,0.8241466240390687
2365,10.777887699994608,0.014041762344940837,0.10935374869342776,-0.3199498403961942,0.007718840727393021,0.06813414741171638,-0.29549507409169573,-0.06872947715085721,-0.2304092496137104,-0.008986918900082007,-0.030739234438279958,-0.2461021765437219,0.8247619017460601
2366,10.786328600006527,0.013931130182239612,0.11028396160777143,-0.3227880516596845,0.007406265198651572,0.06708470249719183,-0.2955274190321762,-0.06886406528710412,-0.23151016013709816,-0.005238419557553432,-0.028544673482560616,-0.238450644348196,0.8252766790550772
2367,10.79020770000352,0.013736729942835302,0.11077483497014921,-0.3241800993760834,0.007093101505230905,0.06603033453745684,-0.29554272769633144,-0.06898866755878956,-0.23257623292271315,-0.0014878109390514718,-0.026343129153077058,-0.2307714147298128,0.825690849444976
2368,10.793657000001986,0.013518829055944634,0.11122829116750961,-0.3255709618734387,0.006779395081858873,0.06497120215738075,-0.295540991514064,-0.0691032533103746,-0.23360734569732047,0.0022644495883564677,-0.024135026946767887,-0.22306609179403059,0.8260043231140847
2369,10.802595300003304,0.013437864470823875,0.1118642328128136,-0.32869849083920594,0.006465191497532387,0.06390746452064348,-0.2955222039948075,-0.06920779382146272,-0.23460338349641513,0.006017904288247805,-0.021920793836513876,-0.21533628567782417,0.8262170269948413
2370,10.809883599999011,0.0131070000567109,0.11256655238893133,-0.3315384703251385,0.006150536446719731,0.06283928129642018,-0.29548636072909845,-0.0693022623131842,-0.23556423869076246,0.009772095130938688,-0.019700858181980446,-0.20758361216575616,0.826328904764878
2371,10.81529299999238,0.01300101449175257,0.11282875606509876,-0.3331000385912058,0.0058354757405353515,0.061766812625950455,-0.2954334593897945,-0.06938663395417702,-0.23648981101118172,0.013526563869620919,-0.01747564964025113,-0.19980969230412154,0.826339916854551
2372,10.81886640000448,0.012938751559618662,0.1130994794545475,-0.33457620340408506,0.005520055297888982,0.060690219089000005,-0.2953634997329404,-0.06946088586616289,-0.23738000757156566,0.01728085211652571,-0.015245599076270733,-0.19201615201327754,0.8262500404509134
2373,10.822929899994053,0.012892202237977391,0.11333331239395232,-0.33604523326566804,0.005204321136610907,0.05960966167022233,-0.2952764835982826,-0.069524997129118,-0.23823474289012755,0.021034501419098173,-0.01301113847311681,-0.1842046216982716,0.8260592694981257
2374,10.827180399995996,0.012885181549360828,0.11356960904612266,-0.33768940987799484,0.004888319364555157,0.058525301725428594,-0.29517241490943197,-0.0695789487860381,-0.23905393890886975,0.024787053336166463,-0.010772700842117833,-0.1763767358578811,0.8257676146943095
2375,10.831350499996915,0.012914125053542213,0.11380681729944463,-0.3391858429930422,0.0045720961706824555,0.05743730094777376,-0.29505129967367566,-0.06962272384729776,-0.23983752501126673,0.02853804951408934,-0.008530720132836513,-0.16853413269217868,0.8253751034848501
2376,10.83538010000484,0.012958394653921396,0.11400098941817033,-0.34067140195907,0.00425569781612474,0.056345821333867466,-0.2949131459814401,-0.06965630729460304,-0.2405854380381577,0.03228703176286609,-0.006285631142936624,-0.16067845370873665,0.8248817800521503
2377,10.839533499995014,0.01291064539113545,0.11430117067825464,-0.3422094713403431,0.003939170625233119,0.05525102514981748,-0.2947579640054049,-0.06967968608453722,-0.24129762230184268,0.03603354213219259,-0.004037869427951715,-0.1528113433275857,0.8242877053018391
2378,10.843681900005322,0.012978650738851828,0.11449105465906802,-0.34383864333806174,0.0036225609766111218,0.054153074897213875,-0.29458576599926756,-0.06969284915169922,-0.24197402959837638,0.03977712298744751,-0.0017878712109739411,-0.1449344484850435,0.823592956845439
2379,10.847892599995248,0.013087500711089427,0.11469516231375185,-0.34536032337689315,0.0033059152941350687,0.053052133279062,-0.29439656629615996,-0.06969578741143456,-0.24261461921805563,0.043517317085592595,0.0004639267077187359,-0.13704941823652925,0.8227976289795028
2380,10.85234660000424,0.013219867892952946,0.1148073293893474,-0.34697225120856645,0.002989280037963402,0.051948363165672425,-0.29419038130671693,-0.06968849376215829,-0.24321935795409644,0.047253667650971255,0.0027170870410788525,-0.12915790335848049,0.8219018326612267
2381,10.856591200004914,0.013286216641869766,0.1150470531424185,-0.34867039680912804,0.0026727016955367926,0.05084192756051642,-0.2939672295167994,-0.0696709630872697,-0.2437882201094976,0.0509857184509894,0.004971172105731175,-0.12126155594948827,0.8209056954805478
2382,10.862299500004156,0.013404171671312016,0.11518979327192973,-0.35029973612813675,0.0023562267725708453,0.04973298956605498,-0.29372713148487123,-0.06964319225665855,-0.24432118750208762,0.054713013871662865,0.007225743912421851,-0.11336202903076774,0.8198093616287399
2383,10.86642039999424,0.013455467873174157,0.11529164311012507,-0.35189356900527174,0.002039901784043227,0.048621712349549685,-0.29347010983903193,-0.06960518012780324,-0.2448182494677513,0.05843509899301541,0.009480364256457045,-0.105460976146082,0.8186129918635212
2384,10.870505500002764,0.013623681573403922,0.11541565797538969,-0.35358381579195236,0.0017237732451770584,0.04750825910886365,-0.29319618927370533,-0.06955692754646167,-0.24527940286183342,0.06215151966431135,0.011734594808113183,-0.09756005096123682,0.8173167634706905
2385,10.874918700006674,0.01366271655404353,0.11555019635569397,-0.3552442762441767,0.0014078876624224093,0.04639279303826087,-0.29290539654598485,-0.06949843734695478,-0.24570465205871822,0.06586182257910726,0.01398799720300102,-0.08966090686326342,0.8159208702223028
2386,10.87910720000218,0.013706432716908105,0.11558487595038813,-0.35689878504781264,0.0010922915244377248,0.04527547729421239,-0.29259776047163694,-0.06942971435204316,-0.2460940089495833,0.06956555535010678,0.01624013313236578,-0.0817651965594075,0.8144255223313998
2387,10.88310609999462,0.013735988087522992,0.11563494136585786,-0.3585223407168537,0.0007770312930730321,0.0441564749612178,-0.2922733119207643,-0.06935076537239743,-0.2464474929383271,0.07326226658380289,0.01849056443330577,-0.07387457167604249,0.8128309464033036
2388,10.886816099999123,0.013768473510543744,0.1156966530244149,-0.36019071337303765,0.0004621533943567511,0.04303594901765027,-0.2919320838131298,-0.06926159920566298,-0.2467651309356695,0.07695150595489238,0.02073885317889202,-0.06599068235762487,0.8111373853834878
2389,10.890374399998109,0.013737460861741291,0.11566443162882958,-0.361791534163586,0.00014770420948794012,0.04191406230163393,-0.29157411111314235,-0.0691622266351197,-0.2470469573514258,0.08063282428044674,0.022984561768171437,-0.05811517686580989,0.809345098502043
2390,10.894360299993425,0.01367076023459342,0.11561223727821943,-0.36336564283143835,-0.00016626993416420677,0.04079097747696204,-0.2911994308245044,-0.06905266042793709,-0.24729301408495544,0.08430577359382407,0.025227253016036087,-0.05024970117884573,0.8074543612147536
2391,10.898537000000942,0.013595401675882178,0.11554829409276957,-0.3649534411835299,-0.0004797227720517843,0.03966685699906439,-0.2908080819845237,-0.06893291533302572,-0.2475033505137885,0.08796990721830643,0.027466490242941254,-0.04239589859136413,0.8054654651408053
2392,10.902384799992433,0.013544369474262194,0.11540190491997611,-0.36647120816824885,-0.000792608111428707,0.0385418630810324,-0.29040010565809143,-0.06880300807848584,-0.24767802348043128,0.09162477984044669,0.029701837364454982,-0.03455540931468511,0.8033787179971417
2393,10.907895399999688,0.01352673762523352,0.11523288829021341,-0.36803751487855263,-0.0011048798403185335,0.03741615765970995,-0.2899755449313273,-0.0686629573686538,-0.24781709727735465,0.09526994758310992,0.03193285898062204,-0.026729870077753678,0.8011944435294862
2394,10.911272700002884,0.013524167761628366,0.11511441284849189,-0.369668458706675,-0.0014164919364677761,0.036289902361858216,-0.28953444490489266,-0.06851278388074704,-0.24792064363016877,0.09890496807819386,0.03415912046512533,-0.01892091372882622,0.7989129814400501
2395,10.91527500000666,0.013571842227163684,0.11490636943159428,-0.3712067393240857,-0.00172739847628289,0.03516325847040252,-0.28907685268697225,-0.06835251026110888,-0.24798874167898827,0.10252940053901369,0.036380188054227616,-0.011130168838023875,0.7965346873119467
2396,10.922454800005651,0.013699898947622333,0.11447870454774209,-0.3744647195879872,-0.00203755364374914,0.03403638689076927,-0.28860281738592514,-0.06818216112105394,-0.24802147795799165,0.10614280583233586,0.03859562893547697,-0.003359259300870159,0.7940599325303376
2397,10.92690869999933,0.013816646041028308,0.11428852789832192,-0.37608697910611755,-0.0023469117393295482,0.03290944811732098,-0.28811239010260564,-0.06800176303231573,-0.24801894637318012,0.10974474655004642,0.040805011336158874,0.004390196057070699,0.7914891042003351
2398,10.931200899998656,0.013910487063241944,0.11400568783570122,-0.37773841220954874,-0.0026554271888421348,0.03178260219989756,-0.28760562392235645,-0.06781134452209732,-0.24798124817834039,0.11333478708043832,0.043007904611478666,0.012116583874338383,0.7888226050616833
2399,10.935270100002526,0.01399360029529753,0.11380629318358935,-0.37932512862941464,-0.002963054552313676,0.03065600871047221,-0.2870825739066732,-0.06761093606772657,-0.24790849194921813,0.11691249367910317,0.04520387933245737,0.0198182966463883,0.7860608534002412
2400,10.93931370000064,0.01421287736286799,0.11354913399431166,-0.38103806876447427,-0.0032697485328081954,0.029529826709929968,-0.2865432970845423,-0.067400570090917,-0.24780079355590914,0.12047743453941274,0.047392507373524725,0.027493733116955132,0.7832042829562962
2401,10.948645299999043,0.014541212888060675,0.11300959580947242,-0.38426548404189326,-0.0035754639852284076,0.028404214714977057,-0.28598785244345465,-0.06718028095163564,-0.24765827613347463,0.12402917986257572,0.04957336199979307,0.03514129866785335,0.7802533428297335
2402,10.952118500004872,0.014765041385791185,0.11271424255528512,-0.3859275111230692,-0.003880155925088343,0.0272793306651892,-0.2854163009200993,-0.06695010494157927,-0.2474810700507879,0.12756730192725563,0.05174601795399574,0.042759405707100365,0.777208497382089
2403,10.960480800000369,0.015007607279194746,0.11212219777325318,-0.3890872410345138,-0.0041837795372554176,0.026155331890206888,-0.2848287053907384,-0.06671008027726054,-0.24726931287761958,0.13109137515873576,0.05391005154307381,0.05034647405524871,0.7740702261355145
2404,10.964587499998744,0.01514576721482814,0.11183789589214722,-0.39061588736641595,-0.004486290184660188,0.025032375077085747,-0.28422513066126953,-0.0664602470927058,-0.24702314934997002,0.1346009761976165,0.05606504072439516,0.05790093132981423,0.7708390236686813
2405,10.968653100004303,0.01526100200894079,0.11148905680852302,-0.3921550100491177,-0.004787643416972036,0.023910616237809778,-0.2836056434569773,-0.06620064743176604,-0.24674273133365734,0.1380956839680314,0.05821056519158992,0.06542121332768788,0.7675153995096509
2406,10.97277490000124,0.015257771142513378,0.11122239165781503,-0.3935824574755865,-0.005087794979239076,0.022790210676975335,-0.282970312411977,-0.06593132524004237,-0.2464282177861698,0.14157507974536876,0.06034620645998634,0.07290576440541949,0.7640998780257436
2407,10.977117100002944,0.015334117680567163,0.11088418807147277,-0.39506606776775344,-0.005386700820490525,0.021671312959653587,-0.282319208058351,-0.06565232635642772,-0.246079774716792,0.14503874722348378,0.06247154795163117,0.08035303785726226,0.7605929983104395
2408,10.98780540000007,0.015390583336819877,0.11019446994595072,-0.3980644517364321,-0.0056843171022998495,0.020554076879439213,-0.28165240281497955,-0.06536369850426677,-0.24569757514501459,0.14848627258138808,0.06458617507987885,0.08776149629086814,0.7569953140673477
2409,10.991495700000089,0.0154690349954494,0.10983964409615893,-0.3994503539997387,-0.005980600207306944,0.019438655426693083,-0.28096997097606924,-0.06506549128213607,-0.245281799057237,0.1519172445494027,0.06668967533353401,0.0951296120005248,0.7533073934912803
2410,10.995553700005985,0.015535323186791267,0.10939614071522186,-0.4009224303934982,-0.00627550674769764,0.01832520075698658,-0.28027198869937964,-0.06475775615424616,-0.24483263336177374,0.15533125447476143,0.06878163836053197,0.10245586733782633,0.74952981914646
2411,11.00192579999566,0.015568438411925314,0.10862450679551183,-0.40371275501322545,-0.00656899357363887,0.017213864159755194,-0.2795585339941512,-0.06444054644046751,-0.24435027184217878,0.15872789638665066,0.07086165605114181,0.1097387550796698,0.7456631878418934
2412,11.006053999997675,0.01564035643714743,0.10820095270570404,-0.40513308008861676,-0.006861017781667818,0.0161047960271689,-0.2788296867087355,-0.06411391730598266,-0.24383491510890007,0.16210676706067118,0.07292932262067693,0.11697677879347194,0.7417081105039444
2413,11.011200900000404,0.015709455354735842,0.10781448705968252,-0.40651973364574107,-0.007151536723033354,0.01499814582322703,-0.27808552851793106,-0.06377792575056707,-0.24328677054927716,0.165467466082709,0.07498423469169832,0.12416845319950033,0.7376652120461389
2414,11.015715600005931,0.01574808688813292,0.10736458998402718,-0.4078205781161445,-0.007440508011988109,0.01389406205308495,-0.2773261429100285,-0.06343263059750102,-0.2427060522758962,0.1688095959122039,0.07702599137569545,0.13131230453021553,0.7335351312362403
2415,11.02481689999695,0.015951836802679652,0.10648954962416951,-0.41043777561487077,-0.007727889534029531,0.01279269223262005,-0.2765516151735687,-0.06307809248211518,-0.24209298107331664,0.17213276194480256,0.07905419435422972,0.13840687088652115,0.729318520560629
2416,11.032814299993332,0.015973171627281818,0.10566675105482787,-0.4130194037453193,-0.008013639454088308,0.011694182858244343,-0.27576203238381664,-0.06271437383997204,-0.24144778434318448,0.17543657257438444,0.08106844795952552,0.14545070259081985,0.7250160460860268
2417,11.036426499995288,0.01601451396257554,0.10524156585965871,-0.4142164515339406,-0.008297716224662542,0.010598679376971057,-0.27495748338895293,-0.06234153889468608,-0.24077069604774662,0.17872063925444703,0.08306835925449432,0.15244236253677387,0.7206283873186006
2418,11.040255600004455,0.01606886775601425,0.1047603817653262,-0.4154435649328171,-0.00858007859389607,0.009506326156742403,-0.2741380587959859,-0.06195965364538546,-0.24006195665178248,0.18198457655883912,0.08505353811217727,0.15938042653567128,0.7161562370604824
2419,11.043723099995988,0.01609421977220274,0.1042641900273551,-0.41661652378097214,-0.008860685613599303,0.008417266457025683,-0.2733038509563873,-0.061568785853818385,-0.23932181306297035,0.18522800224182961,0.08702359729459175,0.16626348365930013,0.7116003012637424
2420,11.04778150000493,0.01616867751775621,0.10372821325521302,-0.4178821445737319,-0.009139496647210971,0.007331642399684743,-0.2724549539514558,-0.06116900503110656,-0.23855051857070483,0.1884505372975014,0.0889781525309676,0.17309013657923236,0.7069612988818544
2421,11.053421899996463,0.016087624416835436,0.10333038962339687,-0.4190233379582774,-0.009416471377699158,0.0062495949401337805,-0.27159146357741243,-0.060760382424148364,-0.23774833278338334,0.19165180601845846,0.09091682259535852,0.1798590019024215,0.7022399617186907
2422,11.057201999996323,0.016048255203950895,0.10281227055865988,-0.4201320353905295,-0.0096915698154001,0.005171263838780436,-0.27071347733023127,-0.06034299100167474,-0.23691552156417894,0.19483143605383507,0.092839229383615,0.18656871050301976,0.6974370342750886
2423,11.06074929999886,0.016077462558196743,0.10226189156831736,-0.4212627176122687,-0.009964752305793115,0.004096787632764999,-0.26982109439020885,-0.059916905439960574,-0.23605235696531834,0.1979890584665974,0.09474499798970426,0.19321790785032109,0.6925532735930299
2424,11.06455910000659,0.016063412260648367,0.1017692709852378,-0.4223968747726388,-0.010235979537210069,0.003026303608002476,-0.26891441560627466,-0.05948220210819457,-0.23515911716088245,0.2011243077901258,0.09663375678136377,0.19980525433273802,0.6875894490974722
2425,11.068672599998536,0.016054818610239642,0.10125137085155894,-0.423592877350376,-0.010505212548477885,0.001959947771534195,-0.2679935434800444,-0.059038959053510746,-0.23423608637814808,0.20423682208406707,0.09850513747507485,0.20632942557772144,0.6825463424358711
2426,11.073088100005409,0.015960755368783337,0.10065816844334433,-0.42474044908597647,-0.01077241273649255,0.0008978548241955332,-0.26705858214961853,-0.0585872559856845,-0.23328355482748986,0.2073262429894465,0.10035877521034292,0.21278911276753354,0.6774247473154353
2427,11.077379099995596,0.015856036533648685,0.10018343487687685,-0.4258186330569821,-0.011037541863723138,-0.00015984186639375942,-0.2661096373731298,-0.05812717426149615,-0.23230181863086094,0.21039221578303058,0.10219430862327049,0.21918302295078665,0.6722254693381605
2428,11.081535699995584,0.01577800560642168,0.09965149204232521,-0.42690881445207324,-0.011300562065644327,-0.0012130102925102344,-0.26514681651204525,-0.05765879686876502,-0.23129117974887212,0.21343438943092982,0.1040113799194095,0.22550987934966166,0.6669493258336806
2429,11.086732499999924,0.015781335340345978,0.09899087132914938,-0.42813326214897157,-0.011561435858095872,-0.002261519832672111,-0.26417022851422545,-0.05718220841005709,-0.23025194590648929,0.2164524166414322,0.10580963494587992,0.23176842166272166,0.6615971456899771
2430,11.090205899992725,0.01573964221133083,0.09842526110904914,-0.429226290322811,-0.011820126144567504,-0.0033052412776431086,-0.2631799838967476,-0.05669749508606941,-0.22918443051736861,0.21944595391705854,0.10758872326274158,0.23795740636323767,0.6561697691819862
2431,11.102279400001862,0.015624954661987725,0.09656805432071153,-0.4324283810469502,-0.012076596223407796,-0.004344046856088624,-0.2621761947284948,-0.0562047446786947,-0.2280889526068498,0.22241466160583034,0.10934829821360599,0.244075606992945,0.6506680477981509
2432,11.110654999996768,0.015665016192326263,0.09531593355830188,-0.43470523985486986,-0.012330809794955544,-0.005377810259878234,-0.2611589746125149,-0.055704046533769286,-0.2269658367336274,0.2253582039517415,0.11108801699547606,0.2501218144511508,0.6450928440649608
2433,11.114478000003146,0.015550998624208008,0.09475564450245333,-0.43572109293205424,-0.012582730968592267,-0.006406406669028582,-0.26012843866815305,-0.05519549154350799,-0.22581541291012242,0.22827624914442543,0.1128075407278006,0.25609483727911436,0.6394450313695249
2434,11.12117529999523,0.015397308254380702,0.09423415099145868,-0.436689796836883,-0.012832324269714408,-0.0074297127762808475,-0.25908470351296153,-0.054679172128629494,-0.2246380165215746,0.23116846936800867,0.11450653452073088,0.26199350193962506,0.633725493780219
2435,11.125658000004478,0.015301003124045722,0.09361978230764914,-0.43766748397479305,-0.013079554646623852,-0.008447606811307058,-0.2580278872443915,-0.0541551822201758,-0.2234339882438786,0.23403454084914144,0.11618466754256676,0.2678166530917022,0.6279351258654544
2436,11.13134560000617,0.015289492842189011,0.09219228208608901,-0.43975931435107124,-0.01332438747733539,-0.00945996856453962,-0.256958109421269,-0.053623617241029445,-0.22220367396018587,0.23687414390419645,0.11784161308637948,0.273563153860345,0.6220748325106117
2437,11.14040400000522,0.015181743770414171,0.09086030471643483,-0.4417428804865851,-0.013566788576299796,-0.010466679410618563,-0.25587549104506024,-0.05308457408713237,-0.22094742467629544,0.23968696298562717,0.1194770486357987,0.2792318861012598,0.6161455287331897
2438,11.14457279999624,0.015116520108943148,0.09016724599088644,-0.4427720193744121,-0.013806724201041202,-0.011467622331451106,-0.2547801545409314,-0.05253815110840989,-0.2196655964348574,0.24247268672747743,0.12109065592995104,0.28482175066049265,0.6101481394962178
2439,11.14817509999557,0.01496545571242694,0.08955304162869854,-0.4438190609042072,-0.014044161058707481,-0.012462681938878272,-0.2536722237386049,-0.051984448089403466,-0.2183585502284118,0.24523100799003403,0.12268212102753857,0.2903316676288986,0.6040835995199734
2440,11.15221489999385,0.014875221966643142,0.08885112642135037,-0.4447915098308665,-0.014279066312532368,-0.01345174449694327,-0.25255182385301644,-0.05142356622961582,-0.2170266519112875,0.24796162390361476,0.1242511343700457,0.29576057659138005,0.5979528530920514
2441,11.160121900000377,0.014689366226162702,0.08736390976725644,-0.4467820810904758,-0.014511407588207974,-0.014434697943756566,-0.2514190814647778,-0.05085560812357216,-0.2156702721103832,0.2506642359114854,0.12579739084406333,0.3011074368708289,0.5917568538758295
2442,11.164538099998026,0.014512629398699108,0.08663490195225484,-0.44769352768611587,-0.014741152980166419,-0.015411431912952573,-0.2502741245004493,-0.050280677740601416,-0.21428978613485622,0.25333854981189874,0.12732058984271863,0.30637122776671133,0.5854965647173818
2443,11.168635599999106,0.01439286360390691,0.08587394060235101,-0.4487020293211172,-0.014968271057769333,-0.016381837754733106,-0.24911708221262505,-0.04969888040434156,-0.21288557388474286,0.2559842757992488,0.12882043532619844,0.311550948788234,0.5791729574508898
2444,11.173169799993047,0.014207465218369325,0.08520723056599601,-0.44964421807619676,-0.015192730871403966,-0.01734580855649281,-0.24794808515983593,-0.049110322771972845,-0.21145801975853465,0.25860112850433603,0.130296635881354,0.3166456198820321,0.5727870127026008
2445,11.177083300004597,0.014012966653632816,0.08445580837094416,-0.4506280497863148,-0.015414501958484686,-0.0183032391630218,-0.24676726518627357,-0.048515112813182854,-0.2100075125597345,0.2611888270337354,0.13174890478037588,0.32165428165432114,0.5663397196933773
2446,11.18135230000189,0.013889021286131807,0.08367025873382362,-0.451585316245039,-0.01563355434935865,-0.01925402619628096,-0.24557475540134047,-0.047913359788867745,-0.2085344454024179,0.2637470950082635,0.13317696003852686,0.3265759955874566,0.5598320760398873
2447,11.185667099998682,0.013779273481749635,0.08297665205746443,-0.45249145304034866,-0.01584985857311437,-0.020198068074745404,-0.24437069015902843,-0.04730517422957385,-0.20703921561582508,0.2662756606005378,0.13458052447092192,0.3314098442508512,0.5532650875544821
2448,11.189516200000073,0.01362984347584683,0.0822077340061543,-0.4534213783959719,-0.016063385663292098,-0.02113526503231185,-0.24315520503712973,-0.04669066791368378,-0.20552222464801037,0.26877425657162296,0.1359593257483443,0.3361549315061971,0.546639768043813
2449,11.193734000000404,0.013446001948088766,0.08142202138844971,-0.4543494868229812,-0.0162741071634949,-0.022065519136765785,-0.24192843681628431,-0.0460699538453515,-0.20398387796857365,0.2712426203067579,0.13731309645208636,0.34081038270694386,0.5399571391062354
2450,11.202590999993843,0.013209974665521568,0.08000348742962088,-0.45616944728250913,-0.01648199513289928,-0.02298873430780425,-0.2406905234588686,-0.04544314623219072,-0.20242458497050092,0.2736804938501592,0.1386415741278049,0.34537534489198324,0.5332182299280512
2451,11.206592100003036,0.013121398918301816,0.0792508946394113,-0.45711904881168414,-0.01668702215166428,-0.023904816334610352,-0.23944160408773071,-0.04481036046272101,-0.20084475887114048,0.27608762393889474,0.13994450133838002,0.349848986973496,0.5264240770786369
2452,11.210706400001072,0.013054243390112338,0.0784799591216277,-0.458058355915154,-0.016889161326237974,-0.024813672892975563,-0.23818181896477583,-0.04417171308357621,-0.19924481661234136,0.2784637620358225,0.14122162571576796,0.3542304999189168,0.5195757243045104
2453,11.214848599993276,0.012980837130112836,0.07782730298172551,-0.45896836112045025,-0.017088386294560245,-0.025715213561966228,-0.23691130946940595,-0.043527321776479694,-0.19762517875978058,0.2808086643615898,0.1424727000118384,0.35851909692697703,0.5126742223223877
2454,11.21872259999509,0.012890009768146384,0.0770952721987899,-0.45997582230669215,-0.017284671231160786,-0.0266093498401307,-0.23563021807681803,-0.042877305334990776,-0.19598626940150607,0.2831220919256872,0.14369748214818623,0.3627140135977862,0.5057206286112782
2455,11.222946299996693,0.012741485360996528,0.07637295015029488,-0.46083853105670725,-0.017477990852151338,-0.027495995161243632,-0.23433868833616486,-0.042221783641027015,-0.19432851604572252,0.2854038105565526,0.14489573526490857,0.366814508096914,0.4987160072036697
2456,11.22659350000322,0.012741485360996528,0.07637295015029488,-0.46083853105670725,-0.017668320420111207,-0.02837506490958412,-0.2330368648485826,-0.04156087764116709,-0.1926523495178472,0.28765359093072224,0.14606722776833858,0.3708198613134367,0.49166142847585526
2457,11.23034209999605,0.012629881774127171,0.07566344709955272,-0.4616876434432237,-0.017855635748865204,-0.02924647643474453,-0.23172489324508963,-0.040894709322738955,-0.1909582038568627,0.28987120860102505,0.14721173337772692,0.3747293770119148,0.48455796893745406
2458,11.23509259999264,0.012521497036550415,0.07424086692831597,-0.46348514683092273,-0.018039913208153065,-0.030110149065967096,-0.23040292016436226,-0.040223401689698186,-0.18924651621099395,0.2920564440238173,0.14832903117086108,0.37854238197826867,0.4774067110201774
2459,11.239635299993097,0.01241019030906422,0.0735089502769253,-0.4643993852942468,-0.0182211297281895,-0.03096600412600516,-0.2290710932303913,-0.03954707873830113,-0.18751772673273762,0.29420908258525386,0.14941890562861315,0.38225822615952154,0.47020874286589087
2460,11.243878399996902,0.012241451473414877,0.07287889936177352,-0.4652749388912341,-0.01839926280411404,-0.031813964944506126,-0.22772956103002354,-0.03886586543257769,-0.18577227847327143,0.2963289146265932,0.15048114667840684,0.38587628279738423,0.4629651581140237
2461,11.247930099998484,0.012107391294538531,0.07220366343738313,-0.4661281156025337,-0.01857429050032974,-0.032653956870913284,-0.22637847309039172,-0.03817988767960863,-0.18401061727627185,0.2984157354685339,0.15151554973659465,0.38939594855566,0.45567705568837624
2462,11.251889799998024,0.011956361980817346,0.07145040108672122,-0.467045230955693,-0.018746191454729867,-0.033485907286883984,-0.2250179798562373,-0.03748927230461224,-0.18223319167116847,0.300469345434581,0.1525219157497355,0.39281664364144514,0.4483455395833791
2463,11.256425900006434,0.011871249083620684,0.07074070472860321,-0.46793106203120105,-0.018914944882811598,-0.03430974561822169,-0.22364823266713127,-0.036794147025845034,-0.1804404527658634,0.30248954987344123,0.15350005123476318,0.39613781192010517,0.4409717186498558
2464,11.260440900005053,0.011746145400705704,0.07006005744204893,-0.4687421703432116,-0.019080530581675893,-0.0351254033463197,-0.2222693837345967,-0.036094640429321444,-0.17863285413894403,0.3044761591804457,0.15444976831803572,0.39935892102400705,0.4335567063803415
2465,11.264654600003269,0.011558853441453992,0.06934980073466104,-0.46958211941850775,-0.019242928933912683,-0.035932814019114134,-0.22088158611913816,-0.035390881943357676,-0.17681085173141706,0.306428988817999,0.15537088477325697,0.4024794624549907,0.42610162069401153
2466,11.271518800000194,0.011407500900938589,0.06863462440258356,-0.4704434992252398,-0.019402120911370592,-0.036731913261544034,-0.2194849937071825,-0.034683001812944696,-0.1749749037379918,0.30834785933505426,0.15626322405826276,0.4054989516805643,0.41860758372127105
2467,11.275866800002404,0.011219957133812141,0.06793724552560765,-0.47125181694275203,-0.019558088078810456,-0.037522638785516864,-0.21807976118793634,-0.03397113107395526,-0.1731254704979419,0.31023259638561135,0.15712661535066325,0.4084169282238086,0.4110757215880574
2468,11.280638800002636,0.010748226221807898,0.06657268168921011,-0.47285707321685605,-0.019710812597441868,-0.03830493039937737,-0.21666604403016396,-0.033255401527190066,-0.17126301438557606,0.3120830307462392,0.15796089358233356,0.4112329557469793,0.40350716419990373
2469,11.285133099998347,0.010573333324969333,0.06581174260079506,-0.4735723175500051,-0.01986027722834215,-0.039078730016878144,-0.2152439984588896,-0.03253594571226795,-0.1693879997003459,0.31389899833262286,0.15876589947274541,0.413946622128799,0.39590304502581714
2470,11.289672200000496,0.010404635074184494,0.06501669410284008,-0.4742827132808256,-0.020006465335757027,-0.0398439816656504,-0.21381378143202887,-0.03181289688136541,-0.16750089255662018,0.31568034021513464,0.1595414795611329,0.4165575395354328,0.3882645008820218
2471,11.293609600004856,0.010193416580897573,0.06432430656880114,-0.4749594734132277,-0.020149360890282325,-0.040600631495173733,-0.21237555061695265,-0.03108638897281051,-0.16560216077315285,0.31742690263342865,0.1602874862374846,0.41906534448514354,0.38059267171561817
2472,11.298044199997094,0.009967439953925405,0.06366883919319768,-0.47564809791022367,-0.020288948471925906,-0.04134862778424343,-0.21092946436698806,-0.030356556584536253,-0.16369227376227427,0.31913853701005623,0.16100377777235542,0.4214696979066238,0.3728887003882083
2473,11.302082900001553,0.009772630899710508,0.0629881672649969,-0.4763284528292449,-0.0204252132730493,-0.0420879209479343,-0.20947568169786082,-0.029623534947398857,-0.161771702418834,0.32081509996310276,0.16169021834549147,0.42377028519100124,0.36515373245953586
2474,11.309878700005356,0.00935632693689278,0.061565910603824735,-0.4776282406499201,-0.020558141101188344,-0.04281846354405987,-0.20801436226408407,-0.028887459898366045,-0.1598409190089244,0.3224564533178461,0.1623466780732612,0.4259668162375182,0.3573889159711896
2475,11.314118399997824,0.009133966777239943,0.06087795853267309,-0.4783075534545494,-0.020687718381752346,-0.043540210279126204,-0.2065456663352972,-0.028148467853580644,-0.15790039705841347,0.3240624641174379,0.16297303303488786,0.42805902549289004,0.34959540123041954
2476,11.318320699996548,0.008978909428690465,0.06017619963778116,-0.4789193395673762,-0.020813932160601314,-0.04425311801377956,-0.20506975477255907,-0.027406695781304752,-0.15595061124131648,0.325633004632608,0.16356916529747756,0.4300466719843457,0.3417743405941158
2477,11.322467699996196,0.0087846138413738,0.05946524773976224,-0.4795345314718523,-0.02093677010650071,-0.04495714576774721,-0.20358678900459898,-0.0266622811747499,-0.15399203726803418,0.3271679523703961,0.16413496293983723,0.43192953934635786,0.3339268882529993
2478,11.327325599995676,0.00857850371675637,0.05876826360313423,-0.48016106753461857,-0.021056220513453214,-0.045652254724270945,-0.2020969310040287,-0.025915362024798598,-0.15202515177348572,0.32866719008190926,0.1646703200750766,0.43370743584107074,0.32605420001607377
2479,11.331721099995775,0.008402923808414915,0.05806937965103819,-0.4807897880535083,-0.02117227230290704,-0.04633840823403274,-0.20060034326351975,-0.02516607679262275,-0.1500504322051651,0.3301306057691078,0.16517513687198845,0.4353801943724344,0.3181574330953871
2480,11.335780699999304,0.008215378736288342,0.05745045609240128,-0.481366906016096,-0.021284915025840397,-0.04701557181857208,-0.1990971887719501,-0.02441456438220454,-0.14806835671114868,0.3315580926906187,0.16564931957520282,0.4369476724940591,0.310237745891151
2481,11.339679400000025,0.007995308945944052,0.05679914386034939,-0.48189296252230773,-0.021394138864721687,-0.047683713173194864,-0.19758763099052587,-0.02366096411276521,-0.14607940402808237,0.3329495493665778,0.16609278052410978,0.4384097524108058,0.30229629777726974
2482,11.343687100001262,0.007708697570563833,0.056035323327961316,-0.48238681975151027,-0.021499934635344966,-0.048342802169374144,-0.19607183382888202,-0.022905415691107413,-0.14408405336917565,0.33430487958250343,0.1665054381705459,0.43976634097413153,0.2943342488873248
2483,11.34814259999257,0.007433839035063346,0.05530902299529621,-0.48280477103371555,-0.021602293788540446,-0.04899281085664254,-0.19454996162116642,-0.022148059183876672,-0.1420827843122311,0.33562399239220586,0.16688721709523932,0.4410173696712061,0.28635275990106257
2484,11.35234749999654,0.007197562637073419,0.05462548654240871,-0.4832616144479109,-0.021701208411759734,-0.04963371346397667,-0.1930221791021127,-0.021389034989747636,-0.14007607668773808,0.33690680211973373,0.16723804802300837,0.44216279460782254,0.27835299183143164
2485,11.356384600003366,0.006950448889848172,0.05392223793494297,-0.4838091460150981,-0.02179667123053552,-0.050265486400674096,-0.1914886513831072,-0.02062848381154068,-0.1380644104670595,0.33815322836036144,0.16755786783670856,0.44320259648511934,0.27033610581221573
2486,11.362332999997308,0.006660827008910446,0.05330664787536537,-0.4843336295207642,-0.021888675609815413,-0.050888108256723054,-0.18994954392825475,-0.019866546628274594,-0.13604826565073913,0.3393631959806193,0.1678466195899236,0.44413678057013656,0.2623032628863091
2487,11.370714499993484,0.006094969598248765,0.05198896320990706,-0.48527897263982334,-0.02197721555516957,-0.05150155980266574,-0.18840502253044794,-0.019103364667160946,-0.13402812215695825,0.3405366351173712,0.16810425251839584,0.44496537666023034,0.2542556237946814
2488,11.374691999997594,0.005852518566407186,0.051241143689221606,-0.4857534345927183,-0.02206228571387184,-0.05210582398895599,-0.18685525328744468,-0.018339079375545783,-0.13200445971016872,0.3416734811759432,0.1683307220501932,0.4456884390413747,0.2461943487660756
2489,11.378818199998932,0.005571900785263831,0.05055678031185538,-0.48619775415601896,-0.022143881375854133,-0.05270088594481202,-0.1853004025779583,-0.017573832392804373,-0.12997775772993045,0.34277367482730975,0.16852598981460887,0.44630604644037813,0.23812059730748597
2490,11.38302150000527,0.005310313041420451,0.049854250892689495,-0.48665405630307035,-0.02222199847453383,-0.0532867329765654,-0.18374063703776436,-0.016807765522194734,-0.12794849521998,0.3438371620043394,0.1686900236497897,0.44681830197104805,0.23003552799546162
2491,11.387082700006433,0.005058970405935552,0.04911220792126311,-0.487134734357907,-0.022296633587514058,-0.053863354565507046,-0.18217612353582777,-0.016041020702675678,-0.1259171506575578,0.3448638938971035,0.16882279760909144,0.44722533307433326,0.221940298268282
2492,11.393920799993792,0.004574655088826082,0.04776750862145602,-0.48791516977530114,-0.02236778393715676,-0.05443074236523156,-0.18060702915045482,-0.015273739980695058,-0.12388420188302209,0.34585382694725003,0.16892429196615752,0.44752729145247744,0.21383606421904877
2493,11.397902800003068,0.004321005797269281,0.04705933001013625,-0.48835262001841634,-0.022435447391028422,-0.05498889019848096,-0.17903352114547405,-0.014506065481953982,-0.12185012598977633,0.3468069228414479,0.1689944932187186,0.4477243529972204,0.20572398038973802
2494,11.402116500001284,0.00405500301674358,0.04634693878860361,-0.48878645141510424,-0.0224996224622182,-0.05553779405348928,-0.17745576694645046,-0.01373813938315277,-0.11981539921453614,0.347723148503906,0.16903339409111184,0.44781671771208176,0.19760519956625644
2495,11.4061817000038,0.003817606924134548,0.04560457422873967,-0.4891365610043448,-0.022560308309528158,-0.05607745207982996,-0.17587393411693752,-0.012970103883724594,-0.11778049682796259,0.3486024760879741,0.16904099353551838,0.4478046096287644,0.18948087257454616
2496,11.410401799992542,0.0035781414710237616,0.04486199538133782,-0.48947481061992393,-0.02261750473753555,-0.05660786458376804,-0.17428819033477108,-0.012202101177562569,-0.11574589302568918,0.34944488296682874,0.1690172967319169,0.44768827671771966,0.1813521480777815
2497,11.41539449999982,0.0033192547015408053,0.04415916591561248,-0.48987436258386957,-0.022671212196527277,-0.05712903402311858,-0.17269870336840867,-0.011434273424746027,-0.11371206081976856,0.3502503517232492,0.16896231508675166,0.44746799079291655,0.17322017237470005
2498,11.419509900006233,0.0030060185831626146,0.043452470633547985,-0.4902678933627984,-0.022721431782306505,-0.05764096500161318,-0.1711056410533184,-0.010666762723271831,-0.1116794719305654,0.35101887013848954,0.16887606623031365,0.4471440474108598,0.1650860891991106
2499,11.423464999999853,0.0027268751849430298,0.04276473035157646,-0.4906620113998573,-0.022768165235871468,-0.05814366426277642,-0.16950917126842027,-0.009899711080796564,-0.1096485966791206,0.3517504311802541,0.1687585740128334,0.4467167657639036,0.15695103952062053
2500,11.427238000003854,0.0024880552591132615,0.04209211465092753,-0.4910197923804534,-0.022811414942966516,-0.05863714068331424,-0.1679094619125837,-0.009133260386395435,-0.10761990388001295,0.35244503298978097,0.1686098684992857,0.4461864885679074,0.148816161346624
2501,11.431286899998668,0.0023008066754991105,0.041416484122462315,-0.49147597138878374,-0.022851183933505447,-0.05912140526601641,-0.1663066808811858,-0.008367552382343765,-0.10559386073474374,0.3531026788680375,0.16842998596290626,0.4455535819442797,0.14068258952559223
2502,11.435394400003132,0.0021149667411744927,0.04062066968326237,-0.49191053997728584,-0.02288747588086711,-0.05959647113217544,-0.16470099604273453,-0.007602728635926927,-0.10357093272566872,0.3537233772610329,0.16821896887741952,0.44481843529646126,0.13255145555170636
2503,11.439449900004549,0.001914634081486094,0.03992207501596055,-0.49235242246868605,-0.022920295101063384,-0.06006235351352442,-0.163092575215561,-0.006838930511284593,-0.10155158351050347,0.354307141744253,0.16797686590797775,0.4439814611808988,0.12442388737087337
2504,11.444577100002787,0.001682175442876195,0.03920638285644116,-0.4928090868164389,-0.022949646551779508,-0.06051906974369656,-0.16148158614458405,-0.006076299141295112,-0.0995362748174269,0.35485399100622206,0.16770373190081156,0.4430430951725667,0.11630100918816454
2505,11.448092999999062,0.0015018501909280293,0.03850967514608497,-0.49327660262063955,-0.022975535831286878,-0.06096663924920939,-0.15986819647815145,-0.005314975399505919,-0.09752546634080757,0.3553639488311992,0.16739962787159227,0.44200379572509013,0.10818394127671577
2506,11.45208800000546,0.0013222773458174339,0.03784464890977876,-0.4936939893231874,-0.022997969177228537,-0.06140508353997685,-0.15825257374496202,-0.004555099872115749,-0.09551961563757727,0.35583704408101424,0.1670646209925067,0.4408640440255278,0.10007379978812889
2507,11.456652299995769,0.001129588062657845,0.037149686624897905,-0.49408988219376393,-0.023016953465277573,-0.06183442619935224,-0.1566348853310724,-0.0037968128300145437,-0.09351917802427658,0.35627331067605017,0.16669878457804632,0.4396243438438717,0.09197169656441102
2508,11.461745599997812,0.0009073226230153636,0.03645640126286612,-0.49451229756741566,-0.023032496207668597,-0.06225469287370533,-0.15501529845699272,-0.0030402542008869204,-0.091524606474796,0.35667278757537885,0.16630219806951277,0.43828522137732134,0.08387873895149
2509,11.465351799997734,0.000686125814786713,0.03573844007241605,-0.49491558826040344,-0.023044605551602607,-0.0626659112615366,-0.15339398015487477,-0.0022855635413850947,-0.08953635151883588,0.35703551875605655,0.16587494701824299,0.4368472250893887,0.07579602961434262
2510,11.471699999994598,0.0004820151378925677,0.035047151998328106,-0.4953192694730424,-0.02305329027752556,-0.06306811110213226,-0.15177109724579682,-0.0015328800093771181,-0.08755486114110808,0.35736155319158674,0.16541712306755554,0.4353109255438953,0.06772466635377261
2511,11.475823799992211,0.000251682851101033,0.03436568210656463,-0.4957704369156545,-0.02305855979728103,-0.06346132416376336,-0.15014681631714907,-0.0007823423362762865,-0.08558058068130252,0.35765094482955717,0.16492882393342007,0.43367691523392016,0.05966574192487414
2512,11.47999069999787,1.895719238457355e-05,0.03369073975615575,-0.4961635509495564,-0.023060424152137254,-0.06384558423143233,-0.1485213037001237,-3.4088799457552435e-05,-0.08361395273484137,0.35790375256845797,0.16441015338385168,0.4319458084057616,0.05162034385721602
2513,11.485263900001884,-0.00045087715212406565,0.03242380398011505,-0.49705672908995513,-0.023058894010688825,-0.06422092709417061,-0.14689472544731294,0.0007117428052332304,-0.08165541705444335,0.35812004023368776,0.16386122121703298,0.43011824087797734,0.04358955427678137
2514,11.489500299998326,-0.0006832828016682946,0.0317604208780928,-0.4974727727351278,-0.023053980666633524,-0.06458739053189175,-0.14526724731041857,0.0014550151908713988,-0.0797054104525199,0.3582998765527543,0.16328214323816567,0.42819486985557076,0.035574449729696846
2515,11.493800299998838,-0.0008873747461338108,0.031093200325328717,-0.4978619643725248,-0.02304569603642468,-0.0649450143018035,-0.14363903471807565,0.0021955916067410994,-0.07776436670442584,0.35844333512967824,0.16267304123505577,0.4261763737393889,0.027576101007785105
2516,11.497798900003543,-0.001088867119027552,0.030375131469912102,-0.49829805960794094,-0.023034052656799406,-0.06529384012438334,-0.14201025275379364,0.002933335865512636,-0.07583271645258575,0.3585504944186094,0.16203404295243645,0.42406345193080186,0.019595572975973446
2517,11.501999400003116,-0.0012992325574416666,0.02965927049756087,-0.49877126133447924,-0.023019063682183226,-0.06563391166892127,-0.14038106613401777,0.0036681123703037645,-0.0739108871115179,0.35862143769666277,0.16136528206503165,0.4218568246317318,0.011633924401590912
